"rt","response_timestamp","stimulus","response","trial_type","trial_index","time_elapsed","internal_node_id","run_id","condition","recorded_at","source_code_version","ip","user_agent","device","browser","browser_version","platform","platform_version","referer","accept_language","PROLIFIC_PID","STUDY_ID","SESSION_ID","prolific_id","realtime","view_history","question_order","consent","success","question_id","eventType","responses","item_order","radio_event_ids","radio_event_times","key_event_times","mouse_event_times","straightlining","zigzagging","honeypot","which_type","canvas_config","goals_layout","control_level","trial_number","tutorial_trial_number","trial_start_time","phase1_start_time","phase2_start_time","phase3_start_time","goal_1_value","goal_1_distance","goal_2_value","goal_2_distance","goal_selected","outcome","outcome_total","participant_final_score","participant_initial_score","participant_final_score_prop","goal_choice_rt","allocated_time","allocated_time_remaining","goal_direction","counts","mouse_movements","key_presses","correct","slider_start","sub_question"
"4692","1752052027618","<p style='font-size:40px;line-height:1.25'><strong>Welcome to the experiment!</strong></p><p style='font-size:1.1em;line-height:1.25'>Thank you for your interest in our experiment! Before you begin, it is important that we obtain your informed consent to participate in the study.</p><p style='font-size:1.1em;line-height:1.25'>On the next screen will be an <strong>information sheet</strong> for you to read. To participate in the study we need you to read this information sheet and the following consent form carefully. If you agree with all the statements, please click the <strong>I agree</strong> button.</p><p style='font-size:1.1em;line-height:1.25'>Press <strong>Next</strong> to read the information sheet.</p>","0","custom-html-button-response","0","4698","0.0-0.0","39","1","2025-07-09 09:07:03","7701e855f2ef39aa3fd6c71abdc6918a","95.68.75.96","Mozilla/5.0 (Windows NT 10.0; Win64; x64; rv:140.0) Gecko/20100101 Firefox/140.0","","Firefox","140.0","Windows","10.0","https://app.prolific.com/","en-US,en;q=0.5","60196480480c1403e32285a8","686d226cabeef709c732f8e1","686e3102b8e9f2e79060e001","60196480480c1403e32285a8","2025-07-09T09:07:07.618Z","","","","","","","","","","","","","","","","","","","","","","","","","","","","","","","","","","","","","","","","","","","","",""
"6515","","","","instructions","1","11213","0.0-1.0","39","1","2025-07-09 09:07:03","7701e855f2ef39aa3fd6c71abdc6918a","95.68.75.96","Mozilla/5.0 (Windows NT 10.0; Win64; x64; rv:140.0) Gecko/20100101 Firefox/140.0","","Firefox","140.0","Windows","10.0","https://app.prolific.com/","en-US,en;q=0.5","60196480480c1403e32285a8","686d226cabeef709c732f8e1","686e3102b8e9f2e79060e001","60196480480c1403e32285a8","","[{""page_index"":0,""viewing_time"":4398},{""page_index"":1,""viewing_time"":2117}]","","","","","","","","","","","","","","","","","","","","","","","","","","","","","","","","","","","","","","","","","","","",""
"8912","","","{""Q0"":"""",""Q1"":"""",""Q2"":"""",""Q3"":"""",""Q4"":"""",""Q5"":"""",""Q6"":""I agree""}","survey-multi-choice","2","20127","0.0-2.0","39","1","2025-07-09 09:07:03","7701e855f2ef39aa3fd6c71abdc6918a","95.68.75.96","Mozilla/5.0 (Windows NT 10.0; Win64; x64; rv:140.0) Gecko/20100101 Firefox/140.0","","Firefox","140.0","Windows","10.0","https://app.prolific.com/","en-US,en;q=0.5","60196480480c1403e32285a8","686d226cabeef709c732f8e1","686e3102b8e9f2e79060e001","60196480480c1403e32285a8","","","[0,1,2,3,4,5,6]","true","","","","","","","","","","","","","","","","","","","","","","","","","","","","","","","","","","","","","","","","","",""
"17879","","","","fullscreen","3","39007","0.0-4.0","39","1","2025-07-09 09:07:03","7701e855f2ef39aa3fd6c71abdc6918a","95.68.75.96","Mozilla/5.0 (Windows NT 10.0; Win64; x64; rv:140.0) Gecko/20100101 Firefox/140.0","","Firefox","140.0","Windows","10.0","https://app.prolific.com/","en-US,en;q=0.5","60196480480c1403e32285a8","686d226cabeef709c732f8e1","686e3102b8e9f2e79060e001","60196480480c1403e32285a8","","","","","true","","","","","","","","","","","","","","","","","","","","","","","","","","","","","","","","","","","","","","","","",""
"6391","1752052068319"," <p style='font-size:1.1em;line-height:1.25'>Thank you for completing the consent form and closing all other tabs.</p><p style='font-size:1.1em;line-height:1.25'>We will now invite you to fill in some demographic information and questionnaires, before starting the game.<br>This will take about 5 minutes.<br></p><p style='font-size:1.1em;line-height:1.25'>Press the <strong>Next</strong> button to continue.</p>","0","custom-html-button-response","4","45399","0.0-5.0","39","1","2025-07-09 09:07:03","7701e855f2ef39aa3fd6c71abdc6918a","95.68.75.96","Mozilla/5.0 (Windows NT 10.0; Win64; x64; rv:140.0) Gecko/20100101 Firefox/140.0","","Firefox","140.0","Windows","10.0","https://app.prolific.com/","en-US,en;q=0.5","60196480480c1403e32285a8","686d226cabeef709c732f8e1","686e3102b8e9f2e79060e001","60196480480c1403e32285a8","2025-07-09T09:07:48.319Z","","","","","","","","","","","","","","","","","","","","","","","","","","","","","","","","","","","","","","","","","","","","",""
"6925","","","{""age"":""28""}","survey-text","5","52350","0.0-6.0-0.0","39","1","2025-07-09 09:07:03","7701e855f2ef39aa3fd6c71abdc6918a","95.68.75.96","Mozilla/5.0 (Windows NT 10.0; Win64; x64; rv:140.0) Gecko/20100101 Firefox/140.0","","Firefox","140.0","Windows","10.0","https://app.prolific.com/","en-US,en;q=0.5","60196480480c1403e32285a8","686d226cabeef709c732f8e1","686e3102b8e9f2e79060e001","60196480480c1403e32285a8","","","","","","0","demographics","","","","","","","","","","","","","","","","","","","","","","","","","","","","","","","","","","","","","","",""
"3209","","","{""gender_identity"":""female/woman""}","survey-multi-choice","6","55560","0.0-6.0-1.0","39","1","2025-07-09 09:07:03","7701e855f2ef39aa3fd6c71abdc6918a","95.68.75.96","Mozilla/5.0 (Windows NT 10.0; Win64; x64; rv:140.0) Gecko/20100101 Firefox/140.0","","Firefox","140.0","Windows","10.0","https://app.prolific.com/","en-US,en;q=0.5","60196480480c1403e32285a8","686d226cabeef709c732f8e1","686e3102b8e9f2e79060e001","60196480480c1403e32285a8","","","[0]","","","1","demographics","","","","","","","","","","","","","","","","","","","","","","","","","","","","","","","","","","","","","","",""
"2268","","","{""assigned_sex"":""female""}","survey-multi-choice","7","57829","0.0-6.0-2.0","39","1","2025-07-09 09:07:03","7701e855f2ef39aa3fd6c71abdc6918a","95.68.75.96","Mozilla/5.0 (Windows NT 10.0; Win64; x64; rv:140.0) Gecko/20100101 Firefox/140.0","","Firefox","140.0","Windows","10.0","https://app.prolific.com/","en-US,en;q=0.5","60196480480c1403e32285a8","686d226cabeef709c732f8e1","686e3102b8e9f2e79060e001","60196480480c1403e32285a8","","","[0]","","","2","demographics","","","","","","","","","","","","","","","","","","","","","","","","","","","","","","","","","","","","","","",""
"3705","","","{""menstrual_cycle"":""Yes""}","survey-multi-choice","8","61535","0.0-6.0-3.0","39","1","2025-07-09 09:07:03","7701e855f2ef39aa3fd6c71abdc6918a","95.68.75.96","Mozilla/5.0 (Windows NT 10.0; Win64; x64; rv:140.0) Gecko/20100101 Firefox/140.0","","Firefox","140.0","Windows","10.0","https://app.prolific.com/","en-US,en;q=0.5","60196480480c1403e32285a8","686d226cabeef709c732f8e1","686e3102b8e9f2e79060e001","60196480480c1403e32285a8","","","[0]","","","4","demographics","","","","","","","","","","","","","","","","","","","","","","","","","","","","","","","","","","","","","","",""
"3940","","","{""education"":""Bachelor's Degree (e.g., BA)""}","survey-multi-choice","9","65477","0.0-6.0-4.0","39","1","2025-07-09 09:07:03","7701e855f2ef39aa3fd6c71abdc6918a","95.68.75.96","Mozilla/5.0 (Windows NT 10.0; Win64; x64; rv:140.0) Gecko/20100101 Firefox/140.0","","Firefox","140.0","Windows","10.0","https://app.prolific.com/","en-US,en;q=0.5","60196480480c1403e32285a8","686d226cabeef709c732f8e1","686e3102b8e9f2e79060e001","60196480480c1403e32285a8","","","[0]","","","5","demographics","","","","","","","","","","","","","","","","","","","","","","","","","","","","","","","","","","","","","","",""
"7000","","","{""education"":""Bachelor's Degree (e.g., BA)""}","survey-multi-choice","10","72477","0.0-6.0-5.0","39","1","2025-07-09 09:07:03","7701e855f2ef39aa3fd6c71abdc6918a","95.68.75.96","Mozilla/5.0 (Windows NT 10.0; Win64; x64; rv:140.0) Gecko/20100101 Firefox/140.0","","Firefox","140.0","Windows","10.0","https://app.prolific.com/","en-US,en;q=0.5","60196480480c1403e32285a8","686d226cabeef709c732f8e1","686e3102b8e9f2e79060e001","60196480480c1403e32285a8","2025-07-09T09:08:15.397Z","","[0]","","","6","demographics","","","","","","","","","","","","","","","","","","","","","","","","","","","","","","","","","","","","","","",""
"18834","","","{""mental_health_condition"":""No"",""mental_health_treatment"":""No"",""psychiatric_medication"":""No""}","survey-text","11","91319","0.0-7.0-0.0","39","1","2025-07-09 09:07:03","7701e855f2ef39aa3fd6c71abdc6918a","95.68.75.96","Mozilla/5.0 (Windows NT 10.0; Win64; x64; rv:140.0) Gecko/20100101 Firefox/140.0","","Firefox","140.0","Windows","10.0","https://app.prolific.com/","en-US,en;q=0.5","60196480480c1403e32285a8","686d226cabeef709c732f8e1","686e3102b8e9f2e79060e001","60196480480c1403e32285a8","2025-07-09T09:08:34.239Z","","","","","1","mental_health","","","","","","","","","","","","","","","","","","","","","","","","","","","","","","","","","","","","","","",""
"8011","","","{""depression_history"":[""Yes""]}","survey-multi-select","12","99331","0.0-7.0-1.0","39","1","2025-07-09 09:07:03","7701e855f2ef39aa3fd6c71abdc6918a","95.68.75.96","Mozilla/5.0 (Windows NT 10.0; Win64; x64; rv:140.0) Gecko/20100101 Firefox/140.0","","Firefox","140.0","Windows","10.0","https://app.prolific.com/","en-US,en;q=0.5","60196480480c1403e32285a8","686d226cabeef709c732f8e1","686e3102b8e9f2e79060e001","60196480480c1403e32285a8","","","[0]","","","","mental_health","","","","","","","","","","","","","","","","","","","","","","","","","","","","","","","","","","","","","","",""
"13122","","","{""depression_episodes"":""Prefer not to say / I don't know"",""depression_recent"":""Within the past year""}","survey-multi-choice","13","112453","0.0-7.0-2.0-0.0","39","1","2025-07-09 09:07:03","7701e855f2ef39aa3fd6c71abdc6918a","95.68.75.96","Mozilla/5.0 (Windows NT 10.0; Win64; x64; rv:140.0) Gecko/20100101 Firefox/140.0","","Firefox","140.0","Windows","10.0","https://app.prolific.com/","en-US,en;q=0.5","60196480480c1403e32285a8","686d226cabeef709c732f8e1","686e3102b8e9f2e79060e001","60196480480c1403e32285a8","2025-07-09T09:08:55.373Z","","[0,1]","","","3","mental_health","","","","","","","","","","","","","","","","","","","","","","","","","","","","","","","","","","","","","","",""
"48988","","","","survey-template","14","161444","0.0-7.0-3.0","39","1","2025-07-09 09:07:03","7701e855f2ef39aa3fd6c71abdc6918a","95.68.75.96","Mozilla/5.0 (Windows NT 10.0; Win64; x64; rv:140.0) Gecko/20100101 Firefox/140.0","","Firefox","140.0","Windows","10.0","https://app.prolific.com/","en-US,en;q=0.5","60196480480c1403e32285a8","686d226cabeef709c732f8e1","686e3102b8e9f2e79060e001","60196480480c1403e32285a8","2025-07-09T09:09:44.364Z","","","","","","ius","{""Q01"":""3"",""Q02"":""3"",""Q03"":""1"",""Q04"":""3"",""Q05"":""1"",""Q06"":""2"",""Q07"":""1"",""Q08"":""0"",""Q09"":""3"",""Q10"":""1"",""Q11"":""1"",""Q12"":""2"",""Q13"":""1""}","[0,1,2,3,4,5,6,7,8,9,10,11,12]","[""Q01"",""Q02"",""Q03"",""Q03"",""Q04"",""Q05"",""Q06"",""Q07"",""Q08"",""Q09"",""Q10"",""Q11"",""Q11"",""Q12"",""Q12"",""Q13""]","[5437,8282,11167,12776,15774,19307,24274,27244,30353,34747,37292,40254,41203,43351,45520,47570]","[]","[4679,5437,8282,11167,12776,15774,19307,24274,26803,27244,29625,30353,33847,34419,34747,37292,40254,41203,43064,43351,44785,45520,46750,47570,48987]","0.46153846153846156","0.4166666666666667","0","","","","","","","","","","","","","","","","","","","","","","","","","","","","","",""
"3304","1752052187668","<p style='font-size:1.1em;line-height:1.25'>In the following, we will ask you a few questions relating to your experiences over the past month.<br></p><p style='font-size:1.1em;line-height:1.25'>Press the <strong>Next</strong> button to continue.</p>","0","custom-html-button-response","15","164748","0.0-7.0-4.0","39","1","2025-07-09 09:07:03","7701e855f2ef39aa3fd6c71abdc6918a","95.68.75.96","Mozilla/5.0 (Windows NT 10.0; Win64; x64; rv:140.0) Gecko/20100101 Firefox/140.0","","Firefox","140.0","Windows","10.0","https://app.prolific.com/","en-US,en;q=0.5","60196480480c1403e32285a8","686d226cabeef709c732f8e1","686e3102b8e9f2e79060e001","60196480480c1403e32285a8","2025-07-09T09:09:47.668Z","","","","","","","","","","","","","","","","","","","","","","","","","","","","","","","","","","","","","","","","","","","","",""
"69592","","","","survey-template","16","234342","0.0-7.0-5.0","39","1","2025-07-09 09:07:03","7701e855f2ef39aa3fd6c71abdc6918a","95.68.75.96","Mozilla/5.0 (Windows NT 10.0; Win64; x64; rv:140.0) Gecko/20100101 Firefox/140.0","","Firefox","140.0","Windows","10.0","https://app.prolific.com/","en-US,en;q=0.5","60196480480c1403e32285a8","686d226cabeef709c732f8e1","686e3102b8e9f2e79060e001","60196480480c1403e32285a8","2025-07-09T09:10:57.262Z","","","","","","pss","{""Q01"":""2"",""Q02"":""2"",""Q03"":""2"",""Q04"":""3"",""Q05"":""2"",""Q06"":""1"",""Q07"":""2"",""Q08"":""2"",""Q09"":""2"",""Q10"":""2""}","[0,1,2,3,4,5,6,7,8,9]","[""Q01"",""Q01"",""Q03"",""Q02"",""Q04"",""Q05"",""Q06"",""Q06"",""Q06"",""Q07"",""Q08"",""Q08"",""Q09"",""Q10"",""Q10""]","[11793,15783,22894,23527,28549,33436,39890,42305,43897,49440,52666,53546,59898,66221,68525]","[]","[0,11793,15783,19785,21121,22450,22894,23319,23527,27734,28549,33436,39890,42305,43897,47695,48496,48964,49440,52666,53242,53546,59898,65568,66221,66929,67269,67645,68050,68525,69591]","0.8","0.4444444444444444","0","","","","","","","","","","","","","","","","","","","","","","","","","","","","","",""
"3414","1752052260678","<p style='font-size:1.1em;line-height:1.25'>Thank you for your answers! Now we will ask you a few more questions relating to your feelings in the last 24 hours.<br></p><p style='font-size:1.1em;line-height:1.25'>Press the <strong>Next</strong> button to continue.</p>","0","custom-html-button-response","17","237758","0.0-7.0-6.0","39","1","2025-07-09 09:07:03","7701e855f2ef39aa3fd6c71abdc6918a","95.68.75.96","Mozilla/5.0 (Windows NT 10.0; Win64; x64; rv:140.0) Gecko/20100101 Firefox/140.0","","Firefox","140.0","Windows","10.0","https://app.prolific.com/","en-US,en;q=0.5","60196480480c1403e32285a8","686d226cabeef709c732f8e1","686e3102b8e9f2e79060e001","60196480480c1403e32285a8","2025-07-09T09:11:00.678Z","","","","","","","","","","","","","","","","","","","","","","","","","","","","","","","","","","","","","","","","","","","","",""
"71828","","","","survey-template","18","309588","0.0-7.0-7.0","39","1","2025-07-09 09:07:03","7701e855f2ef39aa3fd6c71abdc6918a","95.68.75.96","Mozilla/5.0 (Windows NT 10.0; Win64; x64; rv:140.0) Gecko/20100101 Firefox/140.0","","Firefox","140.0","Windows","10.0","https://app.prolific.com/","en-US,en;q=0.5","60196480480c1403e32285a8","686d226cabeef709c732f8e1","686e3102b8e9f2e79060e001","60196480480c1403e32285a8","2025-07-09T09:12:12.508Z","","","","","","drsp","{""Q01"":""1"",""Q02"":""1"",""Q03"":""2"",""Q04"":""2"",""Q05"":""1"",""Q06"":""2"",""Q07"":""1"",""Q08"":""1"",""Q09"":""4"",""Q10"":""3"",""Q11"":""4"",""Q12"":""3"",""Q13"":""3"",""Q14"":""2"",""Q15"":""2"",""Q16"":""3"",""Q17"":""2"",""Q18"":""2"",""Q19"":""0"",""Q20"":""2"",""Q21"":""1""}","[0,1,2,3,4,5,6,7,8,9,10,11,12,13,14,15,16,17,18,19,20]","[""Q01"",""Q01"",""Q02"",""Q03"",""Q04"",""Q04"",""Q05"",""Q06"",""Q06"",""Q07"",""Q08"",""Q08"",""Q09"",""Q10"",""Q11"",""Q12"",""Q13"",""Q14"",""Q14"",""Q15"",""Q16"",""Q17"",""Q18"",""Q18"",""Q19"",""Q19"",""Q20"",""Q21"",""Q21"",""Q21""]","[5582,6351,9275,10361,11401,12102,12922,15540,16112,18085,19990,22919,25673,27943,30823,32252,33853,37983,39132,41813,43942,45283,49581,53699,57393,59798,63440,68023,70068,70656]","[]","[0,5014,5582,6351,7619,8245,8832,9275,10361,11401,12102,12922,15047,15540,16112,17392,18085,19293,19990,22919,25673,27943,30407,30823,32252,33853,37983,38747,39132,41813,43942,45283,49581,53699,57393,59298,59798,63440,66945,67646,68023,70068,70656,71828]","0.38095238095238093","0.55","0","","","","","","","","","","","","","","","","","","","","","","","","","","","","","",""
"22031","","","","survey-template","19","331620","0.0-7.0-8.0","39","1","2025-07-09 09:07:03","7701e855f2ef39aa3fd6c71abdc6918a","95.68.75.96","Mozilla/5.0 (Windows NT 10.0; Win64; x64; rv:140.0) Gecko/20100101 Firefox/140.0","","Firefox","140.0","Windows","10.0","https://app.prolific.com/","en-US,en;q=0.5","60196480480c1403e32285a8","686d226cabeef709c732f8e1","686e3102b8e9f2e79060e001","60196480480c1403e32285a8","2025-07-09T09:12:34.540Z","","","","","","stress","{""Q01"":""2"",""Q02"":""4"",""Q03"":""1""}","[0,1,2]","[""Q01"",""Q02"",""Q03""]","[12725,13349,20453]","[]","[10512,10976,11480,11849,12361,12725,13349,20121,20453,21330,22030]","0.6666666666666666","0.5","0","","","","","","","","","","","","","","","","","","","","","","","","","","","","","",""
"78787","","","","instructions","20","410408","0.0-8.0-0.0","39","1","2025-07-09 09:07:03","7701e855f2ef39aa3fd6c71abdc6918a","95.68.75.96","Mozilla/5.0 (Windows NT 10.0; Win64; x64; rv:140.0) Gecko/20100101 Firefox/140.0","","Firefox","140.0","Windows","10.0","https://app.prolific.com/","en-US,en;q=0.5","60196480480c1403e32285a8","686d226cabeef709c732f8e1","686e3102b8e9f2e79060e001","60196480480c1403e32285a8","","[{""page_index"":0,""viewing_time"":19289},{""page_index"":1,""viewing_time"":21282},{""page_index"":2,""viewing_time"":23136},{""page_index"":3,""viewing_time"":15080}]","","","","","","","","","","","","","","","","","","","","","","","","","","","","","","","","","","","","","","","","","","","",""
"","","","","ctl-task-cpt","21","431238","0.0-8.0-1.0","39","1","2025-07-09 09:07:03","7701e855f2ef39aa3fd6c71abdc6918a","95.68.75.96","Mozilla/5.0 (Windows NT 10.0; Win64; x64; rv:140.0) Gecko/20100101 Firefox/140.0","","Firefox","140.0","Windows","10.0","https://app.prolific.com/","en-US,en;q=0.5","60196480480c1403e32285a8","686d226cabeef709c732f8e1","686e3102b8e9f2e79060e001","60196480480c1403e32285a8","","","","","","","","","","","","","","","","","win-only","0","g1:NW,g2:SE","1","0","1","411080","2956","6968","17822","2","4","4","6","1","2","2","2","0","0.015151515151515152","4012","4000","3520","[""left"",""up""]","{""num_key_presses"":4,""num_perfect"":4,""num_errors"":0,""num_randdir"":0,""num_randdir_good_moves"":0,""num_whilered"":0,""num_whileblue"":0,""num_blue"":0,""num_good_moves"":4}","[418.57142857142856,420.27142551967074,0,418.57142857142856,420.27142551967074,112,418.57142857142856,420.27142551967074,221,418.57142857142856,420.27142551967074,329,418.57142857142856,420.27142551967074,435,418.57142857142856,420.27142551967074,546,418.57142857142856,420.27142551967074,655,418.57142857142856,420.27142551967074,764,418.57142857142856,420.27142551967074,872,418.57142857142856,420.27142551967074,981,418.57142857142856,420.27142551967074,1088,418.57142857142856,420.27142551967074,1199,418.57142857142856,420.27142551967074,1306,418.57142857142856,420.27142551967074,1415,418.57142857142856,420.27142551967074,1525,418.57142857142856,420.27142551967074,1634,418.57142857142856,420.27142551967074,1744,418.57142857142856,420.27142551967074,1853,418.57142857142856,420.27142551967074,1962,418.57142857142856,420.27142551967074,2070,418.57142857142856,420.27142551967074,2179,418.57142857142856,420.27142551967074,2286,418.57142857142856,420.27142551967074,2395,418.57142857142856,420.27142551967074,2503,418.57142857142856,420.27142551967074,2613,418.57142857142856,420.27142551967074,2722,418.57142857142856,420.27142551967074,2830,418.57142857142856,420.27142551967074,2939,418.57142857142856,420.27142551967074,3047,418.57142857142856,420.27142551967074,3155,418.57142857142856,420.27142551967074,3264,418.57142857142856,420.27142551967074,3372,418.57142857142856,420.27142551967074,3481,418.57142857142856,420.27142551967074,3590,418.57142857142856,420.27142551967074,3698,418.57142857142856,420.27142551967074,3810,418.57142857142856,420.27142551967074,3918]","[1414,1414,1000,0,414,""smooth"",""left"",""left"",""good_move"",4534,3120,2360.8,1414,759.2,""smooth"",""left"",""left"",""good_move"",7637,3103,2743.7,4534,359.3,""smooth"",""up"",""up"",""good_move"",10565,2928,2125.2,7637,802.8,""smooth"",""up"",""up"",""good_move""]","","",""
"16204","","","","instructions","22","447443","0.0-8.0-2.0","39","1","2025-07-09 09:07:03","7701e855f2ef39aa3fd6c71abdc6918a","95.68.75.96","Mozilla/5.0 (Windows NT 10.0; Win64; x64; rv:140.0) Gecko/20100101 Firefox/140.0","","Firefox","140.0","Windows","10.0","https://app.prolific.com/","en-US,en;q=0.5","60196480480c1403e32285a8","686d226cabeef709c732f8e1","686e3102b8e9f2e79060e001","60196480480c1403e32285a8","","[{""page_index"":0,""viewing_time"":16204}]","","","","","","","","","","","","","","","","","","","","","","","","","","","","","","","","","","","","","","","","","","","",""
"","","","","ctl-task-cpt","23","592308","0.0-8.0-3.0","39","1","2025-07-09 09:07:03","7701e855f2ef39aa3fd6c71abdc6918a","95.68.75.96","Mozilla/5.0 (Windows NT 10.0; Win64; x64; rv:140.0) Gecko/20100101 Firefox/140.0","","Firefox","140.0","Windows","10.0","https://app.prolific.com/","en-US,en;q=0.5","60196480480c1403e32285a8","686d226cabeef709c732f8e1","686e3102b8e9f2e79060e001","60196480480c1403e32285a8","","","","","","","","","","","","","","","","","win-only","0","g1:NW,g2:SE","0.35","0","3","448115","3621","7633","141856","2","4","8","6","1","-2","-8","0","0","0","4011","4000","-970","[""left"",""up""]","{""num_key_presses"":42,""num_perfect"":14,""num_errors"":6,""num_randdir"":22,""num_randdir_good_moves"":13,""num_whilered"":0,""num_whileblue"":4,""num_blue"":6,""num_good_moves"":21}","[412.57142857142856,426.27142551967074,0,412.57142857142856,426.27142551967074,108,412.57142857142856,426.27142551967074,218,412.57142857142856,426.27142551967074,327,412.57142857142856,426.27142551967074,434,412.57142857142856,426.27142551967074,545,412.57142857142856,426.27142551967074,655,412.57142857142856,426.27142551967074,764,412.57142857142856,426.27142551967074,873,412.57142857142856,426.27142551967074,982,412.57142857142856,426.27142551967074,1091,412.57142857142856,426.27142551967074,1199,412.57142857142856,426.27142551967074,1309,412.57142857142856,426.27142551967074,1416,412.57142857142856,426.27142551967074,1525,412.57142857142856,426.27142551967074,1634,412.57142857142856,426.27142551967074,1742,412.57142857142856,426.27142551967074,1851,412.57142857142856,426.27142551967074,1959,412.57142857142856,426.27142551967074,2068,412.57142857142856,426.27142551967074,2175,412.57142857142856,426.27142551967074,2283,412.57142857142856,426.27142551967074,2391,412.57142857142856,426.27142551967074,2500,412.57142857142856,426.27142551967074,2607,412.57142857142856,426.27142551967074,2719,412.57142857142856,426.27142551967074,2829,412.57142857142856,426.27142551967074,2938,412.57142857142856,426.27142551967074,3047,412.57142857142856,426.27142551967074,3155,412.57142857142856,426.27142551967074,3263,412.57142857142856,426.27142551967074,3373,412.57142857142856,426.27142551967074,3482,412.57142857142856,426.27142551967074,3590,412.57142857142856,426.27142551967074,3699,412.57142857142856,426.27142551967074,3809,412.57142857142856,426.27142551967074,3918]","[425,425,1000,0,-575,""error"",""-"",""-"",""no_move"",3810,3384,2066.1,1431,312.9,""oops"",""down"",""left"",""good_move"",6818,3008,2446.6,3810,561.4,""smooth"",""down"",""down"",""bad_move"",10018,3200,2883.4,6818,316.6,""oops"",""down"",""right"",""bad_move"",12626,2608,2318.9,10018,289.1,""smooth"",""down"",""down"",""bad_move"",15153,2527,2205.6,12626,321.4,""smooth"",""down"",""down"",""bad_move"",17850,2697,2383,15153,314,""while_blue"",""right"",""left"",""good_move"",21514,3664,3331.2,17850,332.8,""smooth"",""right"",""right"",""bad_move"",23993,2479,2099.5,21514,379.5,""oops"",""right"",""left"",""good_move"",26986,2993,2437.9,23993,555.1,""oops"",""right"",""right"",""bad_move"",29834,2848,2507.8,26986,340.2,""oops"",""right"",""up"",""good_move"",32778,2944,2294.6,29834,649.4,""oops"",""right"",""up"",""good_move"",35721,2943,2434.6,32778,508.4,""smooth"",""right"",""right"",""bad_move"",38001,2280,1897,35721,383,""while_blue"",""right"",""down"",""bad_move"",40849,2848,2329,38001,519,""smooth"",""right"",""right"",""bad_move"",46746,5897,2521.7,43837,387.3,""smooth"",""down"",""down"",""bad_move"",49929,3183,2799.5,46746,383.5,""smooth"",""right"",""right"",""bad_move"",53634,3705,3266.5,49929,438.5,""oops"",""left"",""up"",""good_move"",56721,3087,2730.6,53634,356.4,""oops"",""left"",""up"",""good_move"",59650,2929,2514.5,56721,414.5,""oops"",""left"",""up"",""good_move"",62569,2919,2529.8,59650,389.2,""oops"",""left"",""left"",""good_move"",63625,1056,3415.8,62569,-2359.8,""error"",""-"",""-"",""no_move"",67530,3905,2546.1,64631,352.9,""oops"",""left"",""right"",""bad_move"",75113,7583,3069.9,71670,373.1,""oops"",""left"",""up"",""good_move"",78081,2968,2109,75113,859,""oops"",""left"",""up"",""good_move"",81073,2992,2529.3,78081,462.7,""oops"",""left"",""down"",""bad_move"",84226,3153,2821.6,81073,331.4,""oops"",""left"",""down"",""bad_move"",86386,2160,1813,84226,347,""while_blue"",""left"",""left"",""good_move"",90033,3647,3295.2,86386,351.8,""oops"",""left"",""up"",""good_move"",93058,3025,2244.1,90033,780.9,""oops"",""left"",""right"",""bad_move"",96106,3048,2692.7,93058,355.3,""smooth"",""left"",""left"",""good_move"",99025,2919,2081.6,96106,837.4,""smooth"",""left"",""left"",""good_move"",102050,3024,2476.6,99026,547.4,""oops"",""left"",""up"",""good_move"",104970,2920,2642,102050,278,""while_blue"",""left"",""down"",""bad_move"",107450,2480,2092.5,104970,387.5,""smooth"",""left"",""left"",""good_move"",110386,2936,2378.3,107450,557.7,""smooth"",""left"",""left"",""good_move"",114010,3624,3293.7,110386,330.3,""oops"",""left"",""right"",""bad_move"",117146,3136,2805.5,114010,330.5,""oops"",""left"",""left"",""good_move"",120138,2992,1214,117146,1778,""smooth"",""left"",""left"",""good_move"",123362,3224,2902.2,120138,321.8,""oops"",""up"",""down"",""bad_move"",126930,3568,3248,123362,320,""smooth"",""up"",""up"",""good_move"",130914,3984,3662.2,126930,321.8,""oops"",""up"",""down"",""bad_move""]","","",""
"40099","","","","instructions","24","632407","0.0-8.0-4.0","39","1","2025-07-09 09:07:03","7701e855f2ef39aa3fd6c71abdc6918a","95.68.75.96","Mozilla/5.0 (Windows NT 10.0; Win64; x64; rv:140.0) Gecko/20100101 Firefox/140.0","","Firefox","140.0","Windows","10.0","https://app.prolific.com/","en-US,en;q=0.5","60196480480c1403e32285a8","686d226cabeef709c732f8e1","686e3102b8e9f2e79060e001","60196480480c1403e32285a8","","[{""page_index"":0,""viewing_time"":10667},{""page_index"":1,""viewing_time"":26546},{""page_index"":0,""viewing_time"":1353},{""page_index"":1,""viewing_time"":1533}]","","","","","","","","","","","","","","","","","","","","","","","","","","","","","","","","","","","","","","","","","","","",""
"12333","","","{""green_ball"":[""Ball always moves in the direction I press""]}","survey-multi-select","25","644741","0.0-8.0-5.0-0.0","39","1","2025-07-09 09:07:03","7701e855f2ef39aa3fd6c71abdc6918a","95.68.75.96","Mozilla/5.0 (Windows NT 10.0; Win64; x64; rv:140.0) Gecko/20100101 Firefox/140.0","","Firefox","140.0","Windows","10.0","https://app.prolific.com/","en-US,en;q=0.5","60196480480c1403e32285a8","686d226cabeef709c732f8e1","686e3102b8e9f2e79060e001","60196480480c1403e32285a8","","","[0]","","","","quiz","","","","","","","","","","","","","","","","","","","","","","","","","","","","","","","","","","","","","false","",""
"5090","","<p align='center'><b>INCORRECT.</b> Usually the green ball moves in the indicated direction, but sometimes it shakes and moves randomly. </p>","0","html-button-response","26","649832","0.0-8.0-5.0-1.0","39","1","2025-07-09 09:07:03","7701e855f2ef39aa3fd6c71abdc6918a","95.68.75.96","Mozilla/5.0 (Windows NT 10.0; Win64; x64; rv:140.0) Gecko/20100101 Firefox/140.0","","Firefox","140.0","Windows","10.0","https://app.prolific.com/","en-US,en;q=0.5","60196480480c1403e32285a8","686d226cabeef709c732f8e1","686e3102b8e9f2e79060e001","60196480480c1403e32285a8","","","","","","","","","","","","","","","","","","","","","","","","","","","","","","","","","","","","","","","","","","","","","",""
"4578","","","{""green_ball"":[""Ball always moves in the direction I press"",""Ball sometimes shakes and moves in a random direction""]}","survey-multi-select","27","654410","0.0-8.0-5.1-0.1","39","1","2025-07-09 09:07:03","7701e855f2ef39aa3fd6c71abdc6918a","95.68.75.96","Mozilla/5.0 (Windows NT 10.0; Win64; x64; rv:140.0) Gecko/20100101 Firefox/140.0","","Firefox","140.0","Windows","10.0","https://app.prolific.com/","en-US,en;q=0.5","60196480480c1403e32285a8","686d226cabeef709c732f8e1","686e3102b8e9f2e79060e001","60196480480c1403e32285a8","","","[0]","","","","quiz","","","","","","","","","","","","","","","","","","","","","","","","","","","","","","","","","","","","","false","",""
"2881","","<p align='center'><b>INCORRECT.</b> Usually the green ball moves in the indicated direction, but sometimes it shakes and moves randomly. </p>","0","html-button-response","28","657291","0.0-8.0-5.1-1.1","39","1","2025-07-09 09:07:03","7701e855f2ef39aa3fd6c71abdc6918a","95.68.75.96","Mozilla/5.0 (Windows NT 10.0; Win64; x64; rv:140.0) Gecko/20100101 Firefox/140.0","","Firefox","140.0","Windows","10.0","https://app.prolific.com/","en-US,en;q=0.5","60196480480c1403e32285a8","686d226cabeef709c732f8e1","686e3102b8e9f2e79060e001","60196480480c1403e32285a8","","","","","","","","","","","","","","","","","","","","","","","","","","","","","","","","","","","","","","","","","","","","","",""
"10781","","","{""green_ball"":[""Ball sometimes shakes and moves in a random direction""]}","survey-multi-select","29","668073","0.0-8.0-5.2-0.2","39","1","2025-07-09 09:07:03","7701e855f2ef39aa3fd6c71abdc6918a","95.68.75.96","Mozilla/5.0 (Windows NT 10.0; Win64; x64; rv:140.0) Gecko/20100101 Firefox/140.0","","Firefox","140.0","Windows","10.0","https://app.prolific.com/","en-US,en;q=0.5","60196480480c1403e32285a8","686d226cabeef709c732f8e1","686e3102b8e9f2e79060e001","60196480480c1403e32285a8","","","[0]","","","","quiz","","","","","","","","","","","","","","","","","","","","","","","","","","","","","","","","","","","","","true","",""
"2057","","<p align='center'><b>CORRECT!</b> Indeed, the green ball may sometimes shake and move in a random direction.</p>","0","html-button-response","30","670129","0.0-8.0-5.2-1.2","39","1","2025-07-09 09:07:03","7701e855f2ef39aa3fd6c71abdc6918a","95.68.75.96","Mozilla/5.0 (Windows NT 10.0; Win64; x64; rv:140.0) Gecko/20100101 Firefox/140.0","","Firefox","140.0","Windows","10.0","https://app.prolific.com/","en-US,en;q=0.5","60196480480c1403e32285a8","686d226cabeef709c732f8e1","686e3102b8e9f2e79060e001","60196480480c1403e32285a8","","","","","","","","","","","","","","","","","","","","","","","","","","","","","","","","","","","","","","","","","","","","","",""
"5890","","","{""yellow_ball"":[""Ball doesn‘t move and I get -1 penalty point""]}","survey-multi-select","31","676020","0.0-8.0-6.0-0.0","39","1","2025-07-09 09:07:03","7701e855f2ef39aa3fd6c71abdc6918a","95.68.75.96","Mozilla/5.0 (Windows NT 10.0; Win64; x64; rv:140.0) Gecko/20100101 Firefox/140.0","","Firefox","140.0","Windows","10.0","https://app.prolific.com/","en-US,en;q=0.5","60196480480c1403e32285a8","686d226cabeef709c732f8e1","686e3102b8e9f2e79060e001","60196480480c1403e32285a8","","","[0]","","","","quiz","","","","","","","","","","","","","","","","","","","","","","","","","","","","","","","","","","","","","true","",""
"801","","<p align='center'><b>CORRECT!</b> Indeed, the yellow ball never moves and you receive a penalty.</p>","0","html-button-response","32","676822","0.0-8.0-6.0-1.0","39","1","2025-07-09 09:07:03","7701e855f2ef39aa3fd6c71abdc6918a","95.68.75.96","Mozilla/5.0 (Windows NT 10.0; Win64; x64; rv:140.0) Gecko/20100101 Firefox/140.0","","Firefox","140.0","Windows","10.0","https://app.prolific.com/","en-US,en;q=0.5","60196480480c1403e32285a8","686d226cabeef709c732f8e1","686e3102b8e9f2e79060e001","60196480480c1403e32285a8","","","","","","","","","","","","","","","","","","","","","","","","","","","","","","","","","","","","","","","","","","","","","",""
"11709","","","{""blue_ball"":[""Ball always shakes and moves in a random direction"",""Ball doesn‘t move and I get -1 penalty point""]}","survey-multi-select","33","688532","0.0-8.0-7.0-0.0","39","1","2025-07-09 09:07:03","7701e855f2ef39aa3fd6c71abdc6918a","95.68.75.96","Mozilla/5.0 (Windows NT 10.0; Win64; x64; rv:140.0) Gecko/20100101 Firefox/140.0","","Firefox","140.0","Windows","10.0","https://app.prolific.com/","en-US,en;q=0.5","60196480480c1403e32285a8","686d226cabeef709c732f8e1","686e3102b8e9f2e79060e001","60196480480c1403e32285a8","","","[0]","","","","quiz","","","","","","","","","","","","","","","","","","","","","","","","","","","","","","","","","","","","","false","",""
"1796","","<p align='center'><b>INCORRECT.</b> The blue ball always shakes and moves randomly.</p>","0","html-button-response","34","690329","0.0-8.0-7.0-1.0","39","1","2025-07-09 09:07:03","7701e855f2ef39aa3fd6c71abdc6918a","95.68.75.96","Mozilla/5.0 (Windows NT 10.0; Win64; x64; rv:140.0) Gecko/20100101 Firefox/140.0","","Firefox","140.0","Windows","10.0","https://app.prolific.com/","en-US,en;q=0.5","60196480480c1403e32285a8","686d226cabeef709c732f8e1","686e3102b8e9f2e79060e001","60196480480c1403e32285a8","","","","","","","","","","","","","","","","","","","","","","","","","","","","","","","","","","","","","","","","","","","","","",""
"3444","","","{""blue_ball"":[""Ball always shakes and moves in a random direction""]}","survey-multi-select","35","693774","0.0-8.0-7.1-0.1","39","1","2025-07-09 09:07:03","7701e855f2ef39aa3fd6c71abdc6918a","95.68.75.96","Mozilla/5.0 (Windows NT 10.0; Win64; x64; rv:140.0) Gecko/20100101 Firefox/140.0","","Firefox","140.0","Windows","10.0","https://app.prolific.com/","en-US,en;q=0.5","60196480480c1403e32285a8","686d226cabeef709c732f8e1","686e3102b8e9f2e79060e001","60196480480c1403e32285a8","","","[0]","","","","quiz","","","","","","","","","","","","","","","","","","","","","","","","","","","","","","","","","","","","","true","",""
"1293","","<p align='center'><b>CORRECT!</b> Indeed, the blue ball always shakes and moves in a random direction. Also there is a penalty of -1 point.</p>","0","html-button-response","36","695067","0.0-8.0-7.1-1.1","39","1","2025-07-09 09:07:03","7701e855f2ef39aa3fd6c71abdc6918a","95.68.75.96","Mozilla/5.0 (Windows NT 10.0; Win64; x64; rv:140.0) Gecko/20100101 Firefox/140.0","","Firefox","140.0","Windows","10.0","https://app.prolific.com/","en-US,en;q=0.5","60196480480c1403e32285a8","686d226cabeef709c732f8e1","686e3102b8e9f2e79060e001","60196480480c1403e32285a8","","","","","","","","","","","","","","","","","","","","","","","","","","","","","","","","","","","","","","","","","","","","","",""
"10396","","","{""bonus"":[""When I reach all possible points""]}","survey-multi-select","37","705464","0.0-8.0-8.0-0.0","39","1","2025-07-09 09:07:03","7701e855f2ef39aa3fd6c71abdc6918a","95.68.75.96","Mozilla/5.0 (Windows NT 10.0; Win64; x64; rv:140.0) Gecko/20100101 Firefox/140.0","","Firefox","140.0","Windows","10.0","https://app.prolific.com/","en-US,en;q=0.5","60196480480c1403e32285a8","686d226cabeef709c732f8e1","686e3102b8e9f2e79060e001","60196480480c1403e32285a8","","","[0]","","","","quiz","","","","","","","","","","","","","","","","","","","","","","","","","","","","","","","","","","","","","false","",""
"1904","","<p align='center'><b>INCORRECT.</b> You receive 2 pounds extra when you reach 50% of points </p>","0","html-button-response","38","707369","0.0-8.0-8.0-1.0","39","1","2025-07-09 09:07:03","7701e855f2ef39aa3fd6c71abdc6918a","95.68.75.96","Mozilla/5.0 (Windows NT 10.0; Win64; x64; rv:140.0) Gecko/20100101 Firefox/140.0","","Firefox","140.0","Windows","10.0","https://app.prolific.com/","en-US,en;q=0.5","60196480480c1403e32285a8","686d226cabeef709c732f8e1","686e3102b8e9f2e79060e001","60196480480c1403e32285a8","","","","","","","","","","","","","","","","","","","","","","","","","","","","","","","","","","","","","","","","","","","","","",""
"1704","","","{""bonus"":[""When I reach 50% of points""]}","survey-multi-select","39","709074","0.0-8.0-8.1-0.1","39","1","2025-07-09 09:07:03","7701e855f2ef39aa3fd6c71abdc6918a","95.68.75.96","Mozilla/5.0 (Windows NT 10.0; Win64; x64; rv:140.0) Gecko/20100101 Firefox/140.0","","Firefox","140.0","Windows","10.0","https://app.prolific.com/","en-US,en;q=0.5","60196480480c1403e32285a8","686d226cabeef709c732f8e1","686e3102b8e9f2e79060e001","60196480480c1403e32285a8","","","[0]","","","","quiz","","","","","","","","","","","","","","","","","","","","","","","","","","","","","","","","","","","","","true","",""
"2394","","<p align='center'><b>CORRECT!</b> Indeed, you receive 2 pounds extra when you reach 50% of points.</p>","0","html-button-response","40","711468","0.0-8.0-8.1-1.1","39","1","2025-07-09 09:07:03","7701e855f2ef39aa3fd6c71abdc6918a","95.68.75.96","Mozilla/5.0 (Windows NT 10.0; Win64; x64; rv:140.0) Gecko/20100101 Firefox/140.0","","Firefox","140.0","Windows","10.0","https://app.prolific.com/","en-US,en;q=0.5","60196480480c1403e32285a8","686d226cabeef709c732f8e1","686e3102b8e9f2e79060e001","60196480480c1403e32285a8","","","","","","","","","","","","","","","","","","","","","","","","","","","","","","","","","","","","","","","","","","","","","",""
"3560","","","","instructions","41","715029","0.0-8.0-9.0","39","1","2025-07-09 09:07:03","7701e855f2ef39aa3fd6c71abdc6918a","95.68.75.96","Mozilla/5.0 (Windows NT 10.0; Win64; x64; rv:140.0) Gecko/20100101 Firefox/140.0","","Firefox","140.0","Windows","10.0","https://app.prolific.com/","en-US,en;q=0.5","60196480480c1403e32285a8","686d226cabeef709c732f8e1","686e3102b8e9f2e79060e001","60196480480c1403e32285a8","","[{""page_index"":0,""viewing_time"":3560}]","","","","","","","","","","","","","","","","","","","","","","","","","","","","","","","","","","","","","","","","","","","",""
"12762","","<p>Before you start with this game please answer the following three questions yourself. </p>
  <p>Through this game, we measure several aspects of your cognitive performance, such as reaction times, multi-tasking capabilities </p>
  <p>and the ability to assess the situation you are in.</p>
  <p></p>
  <p><b>How good do you usually are in such tasks?</b></p>","31","html-slider-response","42","727792","0.0-9.0-0.0","39","1","2025-07-09 09:07:03","7701e855f2ef39aa3fd6c71abdc6918a","95.68.75.96","Mozilla/5.0 (Windows NT 10.0; Win64; x64; rv:140.0) Gecko/20100101 Firefox/140.0","","Firefox","140.0","Windows","10.0","https://app.prolific.com/","en-US,en;q=0.5","60196480480c1403e32285a8","686d226cabeef709c732f8e1","686e3102b8e9f2e79060e001","60196480480c1403e32285a8","2025-07-09T09:19:10.712Z","","","","","","PreSkillQ","","","","","","","","","","","","","","","","","","","","","","","","","","","","","","","","","","","","","","50",""
"4869","","<div style=""width:500px;"">
  <p>How well do you think you will perform in this task compared to other participants?</p>
  </div>","36","html-slider-response","43","732663","0.0-9.0-1.0","39","1","2025-07-09 09:07:03","7701e855f2ef39aa3fd6c71abdc6918a","95.68.75.96","Mozilla/5.0 (Windows NT 10.0; Win64; x64; rv:140.0) Gecko/20100101 Firefox/140.0","","Firefox","140.0","Windows","10.0","https://app.prolific.com/","en-US,en;q=0.5","60196480480c1403e32285a8","686d226cabeef709c732f8e1","686e3102b8e9f2e79060e001","60196480480c1403e32285a8","2025-07-09T09:19:15.583Z","","","","","","PrePerfQ","","","","","","","","","","","","","","","","","","","","","","","","","","","","","","","","","","","","","","50",""
"3253","","<div style=""width:500px;"">
  <p>What best describes how you currently feel?</p>
  </div>","29","html-slider-response","44","735916","0.0-9.0-2.0","39","1","2025-07-09 09:07:03","7701e855f2ef39aa3fd6c71abdc6918a","95.68.75.96","Mozilla/5.0 (Windows NT 10.0; Win64; x64; rv:140.0) Gecko/20100101 Firefox/140.0","","Firefox","140.0","Windows","10.0","https://app.prolific.com/","en-US,en;q=0.5","60196480480c1403e32285a8","686d226cabeef709c732f8e1","686e3102b8e9f2e79060e001","60196480480c1403e32285a8","2025-07-09T09:19:18.836Z","","","","","","PreMotivationQ","","","","","","","","","","","","","","","","","","","","","","","","","","","","","","","","","","","","","","50",""
"","","","","ctl-task-cpt","45","763979","0.0-10.0-0.0","39","1","2025-07-09 09:07:03","7701e855f2ef39aa3fd6c71abdc6918a","95.68.75.96","Mozilla/5.0 (Windows NT 10.0; Win64; x64; rv:140.0) Gecko/20100101 Firefox/140.0","","Firefox","140.0","Windows","10.0","https://app.prolific.com/","en-US,en;q=0.5","60196480480c1403e32285a8","686d226cabeef709c732f8e1","686e3102b8e9f2e79060e001","60196480480c1403e32285a8","2025-07-09T09:19:46.899Z","","","","","","","","","","","","","","","","win-only","0","g1:NW,g2:SE","1","1","0","736588","1411","6424","25058","1","4","4","6","2","4","2","2","0","0.015151515151515152","1005","3000","2340","[""down"",""right""]","{""num_key_presses"":7,""num_perfect"":5,""num_errors"":2,""num_randdir"":0,""num_randdir_good_moves"":0,""num_whilered"":0,""num_whileblue"":1,""num_blue"":1,""num_good_moves"":6}","[412.57142857142856,420.27142551967074,0,415.57142857142856,420.27142551967074,100,415.57142857142856,420.27142551967074,208,415.57142857142856,420.27142551967074,317,447.57142857142856,462.27142551967074,426,566.5714285714286,605.2714255196707,533,615.5714285714286,661.2714255196707,639,681.5714285714286,725.2714255196707,747,694.5714285714286,729.2714255196707,854,714.5714285714286,739.2714255196707,962,740.5714285714286,750.2714255196707,1068,740.5714285714286,750.2714255196707,1178,740.5714285714286,750.2714255196707,1286,740.5714285714286,750.2714255196707,1394,716.5714285714286,705.2714255196707,1504,646.5714285714286,615.2714255196707,1611,635.5714285714286,602.2714255196707,1719,634.5714285714286,602.2714255196707,1826,634.5714285714286,602.2714255196707,1934,634.5714285714286,602.2714255196707,2043,634.5714285714286,602.2714255196707,2153,634.5714285714286,602.2714255196707,2261,634.5714285714286,602.2714255196707,2369,634.5714285714286,602.2714255196707,2478,634.5714285714286,602.2714255196707,2586,634.5714285714286,602.2714255196707,2696,634.5714285714286,602.2714255196707,2804,634.5714285714286,602.2714255196707,2913,634.5714285714286,602.2714255196707,3022,634.5714285714286,602.2714255196707,3131,634.5714285714286,602.2714255196707,3240,634.5714285714286,602.2714255196707,3350,634.5714285714286,602.2714255196707,3458,634.5714285714286,602.2714255196707,3567,634.5714285714286,602.2714255196707,3676,634.5714285714286,602.2714255196707,3785,634.5714285714286,602.2714255196707,3894,634.5714285714286,602.2714255196707,4002,634.5714285714286,602.2714255196707,4110,634.5714285714286,602.2714255196707,4220,634.5714285714286,602.2714255196707,4328,634.5714285714286,602.2714255196707,4437,634.5714285714286,602.2714255196707,4547,634.5714285714286,602.2714255196707,4656,634.5714285714286,602.2714255196707,4765,634.5714285714286,602.2714255196707,4874,634.5714285714286,602.2714255196707,4982]","[282,282,1000,0,-718,""error"",""-"",""-"",""no_move"",3994,3712,2375,1288,331,""while_blue"",""right"",""down"",""good_move"",7410,3416,2946,3994,470,""smooth"",""right"",""right"",""good_move"",10242,2832,2470.6,7410,361.4,""smooth"",""down"",""down"",""good_move"",12762,2520,2016.6,10242,503.4,""smooth"",""right"",""right"",""good_move"",15521,2759,2356.4,12762,402.6,""smooth"",""down"",""down"",""good_move"",18337,2816,2439.7,15521,376.3,""smooth"",""right"",""right"",""good_move""]","","",""
"5350","","<div style=""width:500px;"">
  <p>What determined the result of this run?</p>
  </div>","100","html-slider-response","46","769328","0.0-10.0-1.0","39","1","2025-07-09 09:07:03","7701e855f2ef39aa3fd6c71abdc6918a","95.68.75.96","Mozilla/5.0 (Windows NT 10.0; Win64; x64; rv:140.0) Gecko/20100101 Firefox/140.0","","Firefox","140.0","Windows","10.0","https://app.prolific.com/","en-US,en;q=0.5","60196480480c1403e32285a8","686d226cabeef709c732f8e1","686e3102b8e9f2e79060e001","60196480480c1403e32285a8","2025-07-09T09:19:52.248Z","","","","","","AttribQ","","","","","","","","","","","","","","","","","","","","","","","","","","","","","","","","","","","","","","50",""
"2546","","<div style=""width:500px;"">
  <p>How much control did you have over the ball?</p>
  </div>","100","html-slider-response","47","771875","0.0-10.0-2.0","39","1","2025-07-09 09:07:03","7701e855f2ef39aa3fd6c71abdc6918a","95.68.75.96","Mozilla/5.0 (Windows NT 10.0; Win64; x64; rv:140.0) Gecko/20100101 Firefox/140.0","","Firefox","140.0","Windows","10.0","https://app.prolific.com/","en-US,en;q=0.5","60196480480c1403e32285a8","686d226cabeef709c732f8e1","686e3102b8e9f2e79060e001","60196480480c1403e32285a8","2025-07-09T09:19:54.795Z","","","","","","ControlQ","","","","","","","","","","","","","","","","","","","","","","","","","","","","","","","","","","","","","","50",""
"3837","","<div style=""width:500px;"">
  <p>How would you describe your current emotional state?</p>
  </div>","23","html-slider-response","48","775713","0.0-10.0-3.0","39","1","2025-07-09 09:07:03","7701e855f2ef39aa3fd6c71abdc6918a","95.68.75.96","Mozilla/5.0 (Windows NT 10.0; Win64; x64; rv:140.0) Gecko/20100101 Firefox/140.0","","Firefox","140.0","Windows","10.0","https://app.prolific.com/","en-US,en;q=0.5","60196480480c1403e32285a8","686d226cabeef709c732f8e1","686e3102b8e9f2e79060e001","60196480480c1403e32285a8","2025-07-09T09:19:58.633Z","","","","","","StressQ","","","","","","","","","","","","","","","","","","","","","","","","","","","","","","","","","","","","","","50",""
"5237","","<div style=""width:500px;"">
  <p>What best describes how you currently feel?</p>
  </div>","86","html-slider-response","49","780951","0.0-10.0-4.0","39","1","2025-07-09 09:07:03","7701e855f2ef39aa3fd6c71abdc6918a","95.68.75.96","Mozilla/5.0 (Windows NT 10.0; Win64; x64; rv:140.0) Gecko/20100101 Firefox/140.0","","Firefox","140.0","Windows","10.0","https://app.prolific.com/","en-US,en;q=0.5","60196480480c1403e32285a8","686d226cabeef709c732f8e1","686e3102b8e9f2e79060e001","60196480480c1403e32285a8","2025-07-09T09:20:03.871Z","","","","","","MotivationQ","","","","","","","","","","","","","","","","","","","","","","","","","","","","","","","","","","","","","","50",""
"","","","","ctl-task-cpt","50","821667","0.0-10.0-0.1","39","1","2025-07-09 09:07:03","7701e855f2ef39aa3fd6c71abdc6918a","95.68.75.96","Mozilla/5.0 (Windows NT 10.0; Win64; x64; rv:140.0) Gecko/20100101 Firefox/140.0","","Firefox","140.0","Windows","10.0","https://app.prolific.com/","en-US,en;q=0.5","60196480480c1403e32285a8","686d226cabeef709c732f8e1","686e3102b8e9f2e79060e001","60196480480c1403e32285a8","2025-07-09T09:20:44.587Z","","","","","","","","","","","","","","","","win-only","2","g1:SE,g2:NW","0.9","2","0","781623","1576","6583","37705","1","4","8","6","2","8","7","9","2","0.06818181818181818","1061","3000","2130","[""left"",""up""]","{""num_key_presses"":8,""num_perfect"":6,""num_errors"":1,""num_randdir"":1,""num_randdir_good_moves"":1,""num_whilered"":0,""num_whileblue"":1,""num_blue"":3,""num_good_moves"":7}","[417.57142857142856,419.27142551967074,0,417.57142857142856,419.27142551967074,103,417.57142857142856,419.27142551967074,211,417.57142857142856,419.27142551967074,319,446.57142857142856,452.27142551967074,428,486.57142857142856,500.27142551967074,539,472.57142857142856,501.27142551967074,648,27.57142857142857,105.27142551967076,757,2.5714285714285694,78.27142551967076,864,9.57142857142857,67.27142551967076,972,21.57142857142857,63.27142551967076,1081,21.57142857142857,63.27142551967076,1190,25.57142857142857,67.27142551967076,1299,408.57142857142856,467.27142551967074,1408,428.57142857142856,487.27142551967074,1515,428.57142857142856,487.27142551967074,1624,428.57142857142856,487.27142551967074,1731,428.57142857142856,487.27142551967074,1838,428.57142857142856,487.27142551967074,1947,428.57142857142856,487.27142551967074,2056,428.57142857142856,487.27142551967074,2165,428.57142857142856,487.27142551967074,2274,428.57142857142856,487.27142551967074,2382,428.57142857142856,487.27142551967074,2492,428.57142857142856,487.27142551967074,2602,428.57142857142856,487.27142551967074,2712,428.57142857142856,487.27142551967074,2822,428.57142857142856,487.27142551967074,2930,428.57142857142856,487.27142551967074,3038,428.57142857142856,487.27142551967074,3146,428.57142857142856,487.27142551967074,3255,428.57142857142856,487.27142551967074,3363,428.57142857142856,487.27142551967074,3471,428.57142857142856,487.27142551967074,3580,428.57142857142856,487.27142551967074,3690,428.57142857142856,487.27142551967074,3797,428.57142857142856,487.27142551967074,3905,428.57142857142856,487.27142551967074,4013,428.57142857142856,487.27142551967074,4122,428.57142857142856,487.27142551967074,4230,428.57142857142856,487.27142551967074,4338,428.57142857142856,487.27142551967074,4447,428.57142857142856,487.27142551967074,4557,428.57142857142856,487.27142551967074,4665,428.57142857142856,487.27142551967074,4774,428.57142857142856,487.27142551967074,4883,428.57142857142856,487.27142551967074,4991]","[1463,1463,1000,0,463,""smooth"",""left"",""left"",""good_move"",4607,3144,2815.9,1463,328.1,""smooth"",""up"",""up"",""good_move"",7600,2993,2136,4607,857,""smooth"",""up"",""up"",""good_move"",10895,3295,2935.7,7600,359.3,""smooth"",""left"",""left"",""good_move"",13952,3057,2747,10895,310,""while_blue"",""up"",""down"",""bad_move"",20176,6224,2387.4,17415,373.6,""oops"",""up"",""left"",""good_move"",27695,7519,3130.5,24188,376.5,""smooth"",""up"",""up"",""good_move"",30840,3145,2308.5,27695,836.5,""smooth"",""up"",""up"",""good_move""]","","",""
"3622","","<div style=""width:500px;"">
  <p>What determined the result of this run?</p>
  </div>","93","html-slider-response","51","825290","0.0-10.0-1.1","39","1","2025-07-09 09:07:03","7701e855f2ef39aa3fd6c71abdc6918a","95.68.75.96","Mozilla/5.0 (Windows NT 10.0; Win64; x64; rv:140.0) Gecko/20100101 Firefox/140.0","","Firefox","140.0","Windows","10.0","https://app.prolific.com/","en-US,en;q=0.5","60196480480c1403e32285a8","686d226cabeef709c732f8e1","686e3102b8e9f2e79060e001","60196480480c1403e32285a8","2025-07-09T09:20:48.210Z","","","","","","AttribQ","","","","","","","","","","","","","","","","","","","","","","","","","","","","","","","","","","","","","","50",""
"2201","","<div style=""width:500px;"">
  <p>How much control did you have over the ball?</p>
  </div>","86","html-slider-response","52","827492","0.0-10.0-2.1","39","1","2025-07-09 09:07:03","7701e855f2ef39aa3fd6c71abdc6918a","95.68.75.96","Mozilla/5.0 (Windows NT 10.0; Win64; x64; rv:140.0) Gecko/20100101 Firefox/140.0","","Firefox","140.0","Windows","10.0","https://app.prolific.com/","en-US,en;q=0.5","60196480480c1403e32285a8","686d226cabeef709c732f8e1","686e3102b8e9f2e79060e001","60196480480c1403e32285a8","2025-07-09T09:20:50.412Z","","","","","","ControlQ","","","","","","","","","","","","","","","","","","","","","","","","","","","","","","","","","","","","","","50",""
"2937","","<div style=""width:500px;"">
  <p>How would you describe your current emotional state?</p>
  </div>","19","html-slider-response","53","830429","0.0-10.0-3.1","39","1","2025-07-09 09:07:03","7701e855f2ef39aa3fd6c71abdc6918a","95.68.75.96","Mozilla/5.0 (Windows NT 10.0; Win64; x64; rv:140.0) Gecko/20100101 Firefox/140.0","","Firefox","140.0","Windows","10.0","https://app.prolific.com/","en-US,en;q=0.5","60196480480c1403e32285a8","686d226cabeef709c732f8e1","686e3102b8e9f2e79060e001","60196480480c1403e32285a8","2025-07-09T09:20:53.349Z","","","","","","StressQ","","","","","","","","","","","","","","","","","","","","","","","","","","","","","","","","","","","","","","50",""
"3369","","<div style=""width:500px;"">
  <p>What best describes how you currently feel?</p>
  </div>","90","html-slider-response","54","833799","0.0-10.0-4.1","39","1","2025-07-09 09:07:03","7701e855f2ef39aa3fd6c71abdc6918a","95.68.75.96","Mozilla/5.0 (Windows NT 10.0; Win64; x64; rv:140.0) Gecko/20100101 Firefox/140.0","","Firefox","140.0","Windows","10.0","https://app.prolific.com/","en-US,en;q=0.5","60196480480c1403e32285a8","686d226cabeef709c732f8e1","686e3102b8e9f2e79060e001","60196480480c1403e32285a8","2025-07-09T09:20:56.719Z","","","","","","MotivationQ","","","","","","","","","","","","","","","","","","","","","","","","","","","","","","","","","","","","","","50",""
"","","","","ctl-task-cpt","55","876139","0.0-10.0-0.2","39","1","2025-07-09 09:07:03","7701e855f2ef39aa3fd6c71abdc6918a","95.68.75.96","Mozilla/5.0 (Windows NT 10.0; Win64; x64; rv:140.0) Gecko/20100101 Firefox/140.0","","Firefox","140.0","Windows","10.0","https://app.prolific.com/","en-US,en;q=0.5","60196480480c1403e32285a8","686d226cabeef709c732f8e1","686e3102b8e9f2e79060e001","60196480480c1403e32285a8","2025-07-09T09:21:39.059Z","","","","","","","","","","","","","","","","win-only","0","g1:NW,g2:SE","0.8","3","0","834471","1030","6044","39325","1","4","4","6","2","4","4","13","9","0.09848484848484848","1201","3000","2085","[""down"",""right""]","{""num_key_presses"":6,""num_perfect"":6,""num_errors"":0,""num_randdir"":0,""num_randdir_good_moves"":0,""num_whilered"":0,""num_whileblue"":0,""num_blue"":4,""num_good_moves"":6}","[414.57142857142856,406.27142551967074,0,414.57142857142856,406.27142551967074,100,414.57142857142856,406.27142551967074,208,414.57142857142856,406.27142551967074,315,414.57142857142856,406.27142551967074,423,464.57142857142856,425.27142551967074,529,610.5714285714286,536.2714255196707,636,618.5714285714286,548.2714255196707,745,624.5714285714286,637.2714255196707,853,748.5714285714286,793.2714255196707,960,762.5714285714286,822.2714255196707,1068,759.5714285714286,812.2714255196707,1176,756.5714285714286,794.2714255196707,1284,756.5714285714286,794.2714255196707,1393,702.5714285714286,776.2714255196707,1501,630.5714285714286,767.2714255196707,1610,603.5714285714286,771.2714255196707,1718,603.5714285714286,773.2714255196707,1827,603.5714285714286,773.2714255196707,1935,603.5714285714286,773.2714255196707,2044,603.5714285714286,773.2714255196707,2152,603.5714285714286,773.2714255196707,2261,603.5714285714286,773.2714255196707,2368,603.5714285714286,773.2714255196707,2478,603.5714285714286,773.2714255196707,2584,603.5714285714286,773.2714255196707,2692,603.5714285714286,773.2714255196707,2799,603.5714285714286,773.2714255196707,2908,603.5714285714286,773.2714255196707,3016,603.5714285714286,773.2714255196707,3128,603.5714285714286,773.2714255196707,3236,603.5714285714286,773.2714255196707,3345,603.5714285714286,773.2714255196707,3452,603.5714285714286,773.2714255196707,3561,603.5714285714286,773.2714255196707,3669,603.5714285714286,773.2714255196707,3776,603.5714285714286,773.2714255196707,3885,603.5714285714286,773.2714255196707,3993,603.5714285714286,773.2714255196707,4099,603.5714285714286,773.2714255196707,4208,603.5714285714286,773.2714255196707,4317,603.5714285714286,773.2714255196707,4424,603.5714285714286,773.2714255196707,4533,603.5714285714286,773.2714255196707,4641,603.5714285714286,773.2714255196707,4750,603.5714285714286,773.2714255196707,4859,603.5714285714286,773.2714255196707,4967]","[1491,1491,1000,0,491,""smooth"",""right"",""right"",""good_move"",12971,11480,2778,9684,509,""smooth"",""right"",""right"",""good_move"",20042,7071,3173,16455,414,""smooth"",""down"",""down"",""good_move"",23651,3608,3060.3,20043,547.7,""smooth"",""down"",""down"",""good_move"",30147,6496,2283.2,27319,544.8,""smooth"",""right"",""right"",""good_move"",33011,2864,2431.2,30147,432.8,""smooth"",""down"",""down"",""good_move""]","","",""
"3038","","<div style=""width:500px;"">
  <p>What determined the result of this run?</p>
  </div>","100","html-slider-response","56","879178","0.0-10.0-1.2","39","1","2025-07-09 09:07:03","7701e855f2ef39aa3fd6c71abdc6918a","95.68.75.96","Mozilla/5.0 (Windows NT 10.0; Win64; x64; rv:140.0) Gecko/20100101 Firefox/140.0","","Firefox","140.0","Windows","10.0","https://app.prolific.com/","en-US,en;q=0.5","60196480480c1403e32285a8","686d226cabeef709c732f8e1","686e3102b8e9f2e79060e001","60196480480c1403e32285a8","2025-07-09T09:21:42.098Z","","","","","","AttribQ","","","","","","","","","","","","","","","","","","","","","","","","","","","","","","","","","","","","","","50",""
"1784","","<div style=""width:500px;"">
  <p>How much control did you have over the ball?</p>
  </div>","100","html-slider-response","57","880963","0.0-10.0-2.2","39","1","2025-07-09 09:07:03","7701e855f2ef39aa3fd6c71abdc6918a","95.68.75.96","Mozilla/5.0 (Windows NT 10.0; Win64; x64; rv:140.0) Gecko/20100101 Firefox/140.0","","Firefox","140.0","Windows","10.0","https://app.prolific.com/","en-US,en;q=0.5","60196480480c1403e32285a8","686d226cabeef709c732f8e1","686e3102b8e9f2e79060e001","60196480480c1403e32285a8","2025-07-09T09:21:43.883Z","","","","","","ControlQ","","","","","","","","","","","","","","","","","","","","","","","","","","","","","","","","","","","","","","50",""
"2938","","<div style=""width:500px;"">
  <p>How would you describe your current emotional state?</p>
  </div>","13","html-slider-response","58","883901","0.0-10.0-3.2","39","1","2025-07-09 09:07:03","7701e855f2ef39aa3fd6c71abdc6918a","95.68.75.96","Mozilla/5.0 (Windows NT 10.0; Win64; x64; rv:140.0) Gecko/20100101 Firefox/140.0","","Firefox","140.0","Windows","10.0","https://app.prolific.com/","en-US,en;q=0.5","60196480480c1403e32285a8","686d226cabeef709c732f8e1","686e3102b8e9f2e79060e001","60196480480c1403e32285a8","2025-07-09T09:21:46.821Z","","","","","","StressQ","","","","","","","","","","","","","","","","","","","","","","","","","","","","","","","","","","","","","","50",""
"2055","","<div style=""width:500px;"">
  <p>What best describes how you currently feel?</p>
  </div>","93","html-slider-response","59","885957","0.0-10.0-4.2","39","1","2025-07-09 09:07:03","7701e855f2ef39aa3fd6c71abdc6918a","95.68.75.96","Mozilla/5.0 (Windows NT 10.0; Win64; x64; rv:140.0) Gecko/20100101 Firefox/140.0","","Firefox","140.0","Windows","10.0","https://app.prolific.com/","en-US,en;q=0.5","60196480480c1403e32285a8","686d226cabeef709c732f8e1","686e3102b8e9f2e79060e001","60196480480c1403e32285a8","2025-07-09T09:21:48.877Z","","","","","","MotivationQ","","","","","","","","","","","","","","","","","","","","","","","","","","","","","","","","","","","","","","50",""
"","","","","ctl-task-cpt","60","920917","0.0-10.0-0.3","39","1","2025-07-09 09:07:03","7701e855f2ef39aa3fd6c71abdc6918a","95.68.75.96","Mozilla/5.0 (Windows NT 10.0; Win64; x64; rv:140.0) Gecko/20100101 Firefox/140.0","","Firefox","140.0","Windows","10.0","https://app.prolific.com/","en-US,en;q=0.5","60196480480c1403e32285a8","686d226cabeef709c732f8e1","686e3102b8e9f2e79060e001","60196480480c1403e32285a8","2025-07-09T09:22:23.837Z","","","","","","","","","","","","","","","","win-only","0","g1:NW,g2:SE","0.7","4","0","886630","1163","6178","31948","1","4","8","6","2","8","8","21","13","0.1590909090909091","800","3000","1890","[""down"",""right""]","{""num_key_presses"":8,""num_perfect"":6,""num_errors"":0,""num_randdir"":2,""num_randdir_good_moves"":1,""num_whilered"":0,""num_whileblue"":0,""num_blue"":1,""num_good_moves"":7}","[404.57142857142856,420.27142551967074,0,404.57142857142856,420.27142551967074,106,408.57142857142856,420.27142551967074,215,410.57142857142856,423.27142551967074,324,522.5714285714286,535.2714255196707,430,626.5714285714286,636.2714255196707,538,693.5714285714286,701.2714255196707,645,715.5714285714286,716.2714255196707,754,723.5714285714286,723.2714255196707,864,721.5714285714286,723.2714255196707,971,627.5714285714286,705.2714255196707,1079,621.5714285714286,706.2714255196707,1187,621.5714285714286,706.2714255196707,1296,621.5714285714286,706.2714255196707,1405,621.5714285714286,706.2714255196707,1514,621.5714285714286,706.2714255196707,1624,621.5714285714286,706.2714255196707,1733,621.5714285714286,706.2714255196707,1841,621.5714285714286,706.2714255196707,1950,621.5714285714286,706.2714255196707,2057,621.5714285714286,706.2714255196707,2164,621.5714285714286,706.2714255196707,2271,621.5714285714286,706.2714255196707,2379,621.5714285714286,706.2714255196707,2488,621.5714285714286,706.2714255196707,2595,621.5714285714286,706.2714255196707,2706,621.5714285714286,706.2714255196707,2814,621.5714285714286,706.2714255196707,2923,621.5714285714286,706.2714255196707,3030,621.5714285714286,706.2714255196707,3139,621.5714285714286,706.2714255196707,3245,621.5714285714286,706.2714255196707,3353,621.5714285714286,706.2714255196707,3461,621.5714285714286,706.2714255196707,3569,621.5714285714286,706.2714255196707,3678,621.5714285714286,706.2714255196707,3787,621.5714285714286,706.2714255196707,3896,621.5714285714286,706.2714255196707,4004,621.5714285714286,706.2714255196707,4111,621.5714285714286,706.2714255196707,4220,621.5714285714286,706.2714255196707,4330,621.5714285714286,706.2714255196707,4440,621.5714285714286,706.2714255196707,4548,621.5714285714286,706.2714255196707,4657,621.5714285714286,706.2714255196707,4765,621.5714285714286,706.2714255196707,4874,621.5714285714286,706.2714255196707,4984]","[1461,1461,1000,0,461,""oops"",""right"",""left"",""bad_move"",4638,3177,1807.4,1461,1369.6,""oops"",""right"",""down"",""good_move"",10222,5584,1424.2,8287,510.8,""smooth"",""right"",""right"",""good_move"",12654,2432,1918.9,10222,513.1,""smooth"",""right"",""right"",""good_move"",15461,2807,2426.1,12654,380.9,""smooth"",""right"",""right"",""good_move"",18574,3113,2721.6,15461,391.4,""smooth"",""down"",""down"",""good_move"",22397,3823,3440,18574,383,""smooth"",""right"",""right"",""good_move"",25502,3105,2743.4,22397,361.6,""smooth"",""down"",""down"",""good_move""]","","",""
"2756","","<div style=""width:500px;"">
  <p>What determined the result of this run?</p>
  </div>","90","html-slider-response","61","923673","0.0-10.0-1.3","39","1","2025-07-09 09:07:03","7701e855f2ef39aa3fd6c71abdc6918a","95.68.75.96","Mozilla/5.0 (Windows NT 10.0; Win64; x64; rv:140.0) Gecko/20100101 Firefox/140.0","","Firefox","140.0","Windows","10.0","https://app.prolific.com/","en-US,en;q=0.5","60196480480c1403e32285a8","686d226cabeef709c732f8e1","686e3102b8e9f2e79060e001","60196480480c1403e32285a8","2025-07-09T09:22:26.593Z","","","","","","AttribQ","","","","","","","","","","","","","","","","","","","","","","","","","","","","","","","","","","","","","","50",""
"2877","","<div style=""width:500px;"">
  <p>How much control did you have over the ball?</p>
  </div>","95","html-slider-response","62","926551","0.0-10.0-2.3","39","1","2025-07-09 09:07:03","7701e855f2ef39aa3fd6c71abdc6918a","95.68.75.96","Mozilla/5.0 (Windows NT 10.0; Win64; x64; rv:140.0) Gecko/20100101 Firefox/140.0","","Firefox","140.0","Windows","10.0","https://app.prolific.com/","en-US,en;q=0.5","60196480480c1403e32285a8","686d226cabeef709c732f8e1","686e3102b8e9f2e79060e001","60196480480c1403e32285a8","2025-07-09T09:22:29.471Z","","","","","","ControlQ","","","","","","","","","","","","","","","","","","","","","","","","","","","","","","","","","","","","","","50",""
"2642","","<div style=""width:500px;"">
  <p>How would you describe your current emotional state?</p>
  </div>","10","html-slider-response","63","929192","0.0-10.0-3.3","39","1","2025-07-09 09:07:03","7701e855f2ef39aa3fd6c71abdc6918a","95.68.75.96","Mozilla/5.0 (Windows NT 10.0; Win64; x64; rv:140.0) Gecko/20100101 Firefox/140.0","","Firefox","140.0","Windows","10.0","https://app.prolific.com/","en-US,en;q=0.5","60196480480c1403e32285a8","686d226cabeef709c732f8e1","686e3102b8e9f2e79060e001","60196480480c1403e32285a8","2025-07-09T09:22:32.112Z","","","","","","StressQ","","","","","","","","","","","","","","","","","","","","","","","","","","","","","","","","","","","","","","50",""
"3417","","<div style=""width:500px;"">
  <p>What best describes how you currently feel?</p>
  </div>","96","html-slider-response","64","932610","0.0-10.0-4.3","39","1","2025-07-09 09:07:03","7701e855f2ef39aa3fd6c71abdc6918a","95.68.75.96","Mozilla/5.0 (Windows NT 10.0; Win64; x64; rv:140.0) Gecko/20100101 Firefox/140.0","","Firefox","140.0","Windows","10.0","https://app.prolific.com/","en-US,en;q=0.5","60196480480c1403e32285a8","686d226cabeef709c732f8e1","686e3102b8e9f2e79060e001","60196480480c1403e32285a8","2025-07-09T09:22:35.530Z","","","","","","MotivationQ","","","","","","","","","","","","","","","","","","","","","","","","","","","","","","","","","","","","","","50",""
"","","","","ctl-task-cpt","65","986514","0.0-10.0-0.4","39","1","2025-07-09 09:07:03","7701e855f2ef39aa3fd6c71abdc6918a","95.68.75.96","Mozilla/5.0 (Windows NT 10.0; Win64; x64; rv:140.0) Gecko/20100101 Firefox/140.0","","Firefox","140.0","Windows","10.0","https://app.prolific.com/","en-US,en;q=0.5","60196480480c1403e32285a8","686d226cabeef709c732f8e1","686e3102b8e9f2e79060e001","60196480480c1403e32285a8","2025-07-09T09:23:29.434Z","","","","","","","","","","","","","","","","win-only","1","g1:NE,g2:SW","0.6","5","0","933282","851","5865","50889","1","4","4","6","2","4","3","24","21","0.18181818181818182","1009","3000","1160","[""down"",""left""]","{""num_key_presses"":14,""num_perfect"":9,""num_errors"":1,""num_randdir"":4,""num_randdir_good_moves"":1,""num_whilered"":0,""num_whileblue"":1,""num_blue"":2,""num_good_moves"":10}","[420.57142857142856,425.27142551967074,0,420.57142857142856,425.27142551967074,106,420.57142857142856,425.27142551967074,215,420.57142857142856,425.27142551967074,322,420.57142857142856,425.27142551967074,431,323.57142857142856,528.2714255196707,538,176.57142857142856,652.2714255196707,647,63.57142857142857,739.2714255196707,755,33.57142857142857,769.2714255196707,862,23.57142857142857,790.2714255196707,971,23.57142857142857,790.2714255196707,1079,23.57142857142857,790.2714255196707,1187,70.57142857142857,772.2714255196707,1295,125.57142857142857,766.2714255196707,1403,204.57142857142856,804.2714255196707,1510,214.57142857142856,812.2714255196707,1617,216.57142857142856,812.2714255196707,1725,216.57142857142856,812.2714255196707,1834,216.57142857142856,812.2714255196707,1943,216.57142857142856,812.2714255196707,2050,216.57142857142856,812.2714255196707,2158,216.57142857142856,812.2714255196707,2266,216.57142857142856,812.2714255196707,2373,216.57142857142856,812.2714255196707,2482,216.57142857142856,812.2714255196707,2589,216.57142857142856,812.2714255196707,2698,216.57142857142856,812.2714255196707,2808,216.57142857142856,812.2714255196707,2917,216.57142857142856,812.2714255196707,3026,216.57142857142856,812.2714255196707,3134,216.57142857142856,812.2714255196707,3242,216.57142857142856,812.2714255196707,3350,216.57142857142856,812.2714255196707,3459,216.57142857142856,812.2714255196707,3569,216.57142857142856,812.2714255196707,3678,216.57142857142856,812.2714255196707,3788,216.57142857142856,812.2714255196707,3896,216.57142857142856,812.2714255196707,4005,216.57142857142856,812.2714255196707,4115,216.57142857142856,812.2714255196707,4225,216.57142857142856,812.2714255196707,4334,216.57142857142856,812.2714255196707,4443,216.57142857142856,812.2714255196707,4550,216.57142857142856,812.2714255196707,4659,216.57142857142856,812.2714255196707,4767,216.57142857142856,812.2714255196707,4875,216.57142857142856,812.2714255196707,4984]","[1458,1458,1000,0,458,""oops"",""left"",""right"",""bad_move"",4354,2896,2435.4,1458,460.6,""oops"",""down"",""up"",""bad_move"",8002,3648,3000.2,4354,647.8,""smooth"",""down"",""down"",""good_move"",14387,6385,2380.9,11485,521.1,""smooth"",""down"",""down"",""good_move"",17562,3175,2792.7,14387,382.3,""smooth"",""down"",""down"",""good_move"",20146,2584,2131.2,17562,452.8,""smooth"",""down"",""down"",""good_move"",23298,3152,2810.2,20146,341.8,""oops"",""left"",""left"",""good_move"",26274,2975,2537,23299,438,""smooth"",""left"",""left"",""good_move"",29538,3264,2928.6,26274,335.4,""smooth"",""left"",""left"",""good_move"",32866,3328,3019,29538,309,""while_blue"",""left"",""up"",""bad_move"",36075,3209,2776.8,32866,432.2,""oops"",""down"",""up"",""bad_move"",39347,3272,2513.9,36075,758.1,""smooth"",""down"",""down"",""good_move"",42139,2792,2392,39347,400,""smooth"",""down"",""down"",""good_move"",44747,2608,2143,42139,465,""smooth"",""left"",""left"",""good_move""]","","",""
"3017","","<div style=""width:500px;"">
  <p>What determined the result of this run?</p>
  </div>","90","html-slider-response","66","989531","0.0-10.0-1.4","39","1","2025-07-09 09:07:03","7701e855f2ef39aa3fd6c71abdc6918a","95.68.75.96","Mozilla/5.0 (Windows NT 10.0; Win64; x64; rv:140.0) Gecko/20100101 Firefox/140.0","","Firefox","140.0","Windows","10.0","https://app.prolific.com/","en-US,en;q=0.5","60196480480c1403e32285a8","686d226cabeef709c732f8e1","686e3102b8e9f2e79060e001","60196480480c1403e32285a8","2025-07-09T09:23:32.451Z","","","","","","AttribQ","","","","","","","","","","","","","","","","","","","","","","","","","","","","","","","","","","","","","","50",""
"2222","","<div style=""width:500px;"">
  <p>How much control did you have over the ball?</p>
  </div>","87","html-slider-response","67","991753","0.0-10.0-2.4","39","1","2025-07-09 09:07:03","7701e855f2ef39aa3fd6c71abdc6918a","95.68.75.96","Mozilla/5.0 (Windows NT 10.0; Win64; x64; rv:140.0) Gecko/20100101 Firefox/140.0","","Firefox","140.0","Windows","10.0","https://app.prolific.com/","en-US,en;q=0.5","60196480480c1403e32285a8","686d226cabeef709c732f8e1","686e3102b8e9f2e79060e001","60196480480c1403e32285a8","2025-07-09T09:23:34.673Z","","","","","","ControlQ","","","","","","","","","","","","","","","","","","","","","","","","","","","","","","","","","","","","","","50",""
"3128","","<div style=""width:500px;"">
  <p>How would you describe your current emotional state?</p>
  </div>","16","html-slider-response","68","994882","0.0-10.0-3.4","39","1","2025-07-09 09:07:03","7701e855f2ef39aa3fd6c71abdc6918a","95.68.75.96","Mozilla/5.0 (Windows NT 10.0; Win64; x64; rv:140.0) Gecko/20100101 Firefox/140.0","","Firefox","140.0","Windows","10.0","https://app.prolific.com/","en-US,en;q=0.5","60196480480c1403e32285a8","686d226cabeef709c732f8e1","686e3102b8e9f2e79060e001","60196480480c1403e32285a8","2025-07-09T09:23:37.802Z","","","","","","StressQ","","","","","","","","","","","","","","","","","","","","","","","","","","","","","","","","","","","","","","50",""
"1828","","<div style=""width:500px;"">
  <p>What best describes how you currently feel?</p>
  </div>","100","html-slider-response","69","996711","0.0-10.0-4.4","39","1","2025-07-09 09:07:03","7701e855f2ef39aa3fd6c71abdc6918a","95.68.75.96","Mozilla/5.0 (Windows NT 10.0; Win64; x64; rv:140.0) Gecko/20100101 Firefox/140.0","","Firefox","140.0","Windows","10.0","https://app.prolific.com/","en-US,en;q=0.5","60196480480c1403e32285a8","686d226cabeef709c732f8e1","686e3102b8e9f2e79060e001","60196480480c1403e32285a8","2025-07-09T09:23:39.631Z","","","","","","MotivationQ","","","","","","","","","","","","","","","","","","","","","","","","","","","","","","","","","","","","","","50",""
"","","","","ctl-task-cpt","70","1035683","0.0-10.0-0.5","39","1","2025-07-09 09:07:03","7701e855f2ef39aa3fd6c71abdc6918a","95.68.75.96","Mozilla/5.0 (Windows NT 10.0; Win64; x64; rv:140.0) Gecko/20100101 Firefox/140.0","","Firefox","140.0","Windows","10.0","https://app.prolific.com/","en-US,en;q=0.5","60196480480c1403e32285a8","686d226cabeef709c732f8e1","686e3102b8e9f2e79060e001","60196480480c1403e32285a8","2025-07-09T09:24:18.603Z","","","","","","","","","","","","","","","","win-only","2","g1:SE,g2:NW","0.5","6","0","997383","871","5873","35959","1","4","8","6","2","8","8","32","24","0.24242424242424243","1020","3000","1900","[""left"",""up""]","{""num_key_presses"":8,""num_perfect"":5,""num_errors"":0,""num_randdir"":3,""num_randdir_good_moves"":2,""num_whilered"":0,""num_whileblue"":0,""num_blue"":2,""num_good_moves"":7}","[419.57142857142856,422.27142551967074,0,419.57142857142856,422.27142551967074,102,419.57142857142856,422.27142551967074,210,421.57142857142856,422.27142551967074,319,474.57142857142856,462.27142551967074,428,540.5714285714286,530.2714255196707,536,354.57142857142856,338.27142551967074,645,255.57142857142856,205.27142551967074,754,173.57142857142856,150.27142551967074,862,126.57142857142857,112.27142551967076,970,91.57142857142857,73.27142551967076,1079,91.57142857142857,73.27142551967076,1186,396.57142857142856,452.27142551967074,1296,427.57142857142856,581.2714255196707,1405,427.57142857142856,593.2714255196707,1515,427.57142857142856,593.2714255196707,1622,427.57142857142856,593.2714255196707,1730,427.57142857142856,593.2714255196707,1839,427.57142857142856,593.2714255196707,1948,427.57142857142856,593.2714255196707,2057,427.57142857142856,593.2714255196707,2165,427.57142857142856,593.2714255196707,2273,427.57142857142856,593.2714255196707,2380,427.57142857142856,593.2714255196707,2488,427.57142857142856,593.2714255196707,2597,427.57142857142856,593.2714255196707,2707,427.57142857142856,593.2714255196707,2815,427.57142857142856,593.2714255196707,2923,427.57142857142856,593.2714255196707,3031,427.57142857142856,593.2714255196707,3141,427.57142857142856,593.2714255196707,3251,427.57142857142856,593.2714255196707,3360,427.57142857142856,593.2714255196707,3469,427.57142857142856,593.2714255196707,3577,427.57142857142856,593.2714255196707,3687,427.57142857142856,593.2714255196707,3793,427.57142857142856,593.2714255196707,3899,427.57142857142856,593.2714255196707,4008,427.57142857142856,593.2714255196707,4115,427.57142857142856,593.2714255196707,4224,427.57142857142856,593.2714255196707,4333,427.57142857142856,593.2714255196707,4442,427.57142857142856,593.2714255196707,4550,427.57142857142856,593.2714255196707,4660,427.57142857142856,593.2714255196707,4769,427.57142857142856,593.2714255196707,4877,427.57142857142856,593.2714255196707,4986]","[1541,1541,1000,0,541,""oops"",""left"",""up"",""good_move"",4549,3008,2441,1541,567,""smooth"",""left"",""left"",""good_move"",7630,3080,2712.1,4550,367.9,""oops"",""left"",""right"",""bad_move"",10181,2551,2023.5,7630,527.5,""smooth"",""left"",""left"",""good_move"",13302,3121,2704.1,10181,416.9,""smooth"",""up"",""up"",""good_move"",16446,3144,2730.7,13302,413.3,""smooth"",""left"",""left"",""good_move"",19510,3064,2386.6,16446,677.4,""smooth"",""left"",""left"",""good_move"",29806,10296,2145.4,27247,413.6,""oops"",""up"",""up"",""good_move""]","","",""
"4462","","<div style=""width:500px;"">
  <p>What determined the result of this run?</p>
  </div>","87","html-slider-response","71","1040146","0.0-10.0-1.5","39","1","2025-07-09 09:07:03","7701e855f2ef39aa3fd6c71abdc6918a","95.68.75.96","Mozilla/5.0 (Windows NT 10.0; Win64; x64; rv:140.0) Gecko/20100101 Firefox/140.0","","Firefox","140.0","Windows","10.0","https://app.prolific.com/","en-US,en;q=0.5","60196480480c1403e32285a8","686d226cabeef709c732f8e1","686e3102b8e9f2e79060e001","60196480480c1403e32285a8","2025-07-09T09:24:23.066Z","","","","","","AttribQ","","","","","","","","","","","","","","","","","","","","","","","","","","","","","","","","","","","","","","50",""
"2189","","<div style=""width:500px;"">
  <p>How much control did you have over the ball?</p>
  </div>","90","html-slider-response","72","1042335","0.0-10.0-2.5","39","1","2025-07-09 09:07:03","7701e855f2ef39aa3fd6c71abdc6918a","95.68.75.96","Mozilla/5.0 (Windows NT 10.0; Win64; x64; rv:140.0) Gecko/20100101 Firefox/140.0","","Firefox","140.0","Windows","10.0","https://app.prolific.com/","en-US,en;q=0.5","60196480480c1403e32285a8","686d226cabeef709c732f8e1","686e3102b8e9f2e79060e001","60196480480c1403e32285a8","2025-07-09T09:24:25.255Z","","","","","","ControlQ","","","","","","","","","","","","","","","","","","","","","","","","","","","","","","","","","","","","","","50",""
"3715","","<div style=""width:500px;"">
  <p>How would you describe your current emotional state?</p>
  </div>","12","html-slider-response","73","1046049","0.0-10.0-3.5","39","1","2025-07-09 09:07:03","7701e855f2ef39aa3fd6c71abdc6918a","95.68.75.96","Mozilla/5.0 (Windows NT 10.0; Win64; x64; rv:140.0) Gecko/20100101 Firefox/140.0","","Firefox","140.0","Windows","10.0","https://app.prolific.com/","en-US,en;q=0.5","60196480480c1403e32285a8","686d226cabeef709c732f8e1","686e3102b8e9f2e79060e001","60196480480c1403e32285a8","2025-07-09T09:24:28.969Z","","","","","","StressQ","","","","","","","","","","","","","","","","","","","","","","","","","","","","","","","","","","","","","","50",""
"2488","","<div style=""width:500px;"">
  <p>What best describes how you currently feel?</p>
  </div>","99","html-slider-response","74","1048538","0.0-10.0-4.5","39","1","2025-07-09 09:07:03","7701e855f2ef39aa3fd6c71abdc6918a","95.68.75.96","Mozilla/5.0 (Windows NT 10.0; Win64; x64; rv:140.0) Gecko/20100101 Firefox/140.0","","Firefox","140.0","Windows","10.0","https://app.prolific.com/","en-US,en;q=0.5","60196480480c1403e32285a8","686d226cabeef709c732f8e1","686e3102b8e9f2e79060e001","60196480480c1403e32285a8","2025-07-09T09:24:31.458Z","","","","","","MotivationQ","","","","","","","","","","","","","","","","","","","","","","","","","","","","","","","","","","","","","","50",""
"","","","","ctl-task-cpt","75","1087934","0.0-10.0-0.6","39","1","2025-07-09 09:07:03","7701e855f2ef39aa3fd6c71abdc6918a","95.68.75.96","Mozilla/5.0 (Windows NT 10.0; Win64; x64; rv:140.0) Gecko/20100101 Firefox/140.0","","Firefox","140.0","Windows","10.0","https://app.prolific.com/","en-US,en;q=0.5","60196480480c1403e32285a8","686d226cabeef709c732f8e1","686e3102b8e9f2e79060e001","60196480480c1403e32285a8","2025-07-09T09:25:10.854Z","","","","","","","","","","","","","","","","win-only","1","g1:NE,g2:SW","0.4","7","0","1049210","1300","6312","36382","1","4","8","6","2","8","7","39","32","0.29545454545454547","892","3000","1830","[""down"",""left""]","{""num_key_presses"":10,""num_perfect"":4,""num_errors"":1,""num_randdir"":5,""num_randdir_good_moves"":3,""num_whilered"":0,""num_whileblue"":1,""num_blue"":1,""num_good_moves"":8}","[414.57142857142856,428.27142551967074,0,414.57142857142856,428.27142551967074,103,414.57142857142856,428.27142551967074,212,414.57142857142856,428.27142551967074,319,414.57142857142856,428.27142551967074,429,350.57142857142856,505.27142551967074,538,208.57142857142856,642.2714255196707,648,114.57142857142857,742.2714255196707,756,71.57142857142857,796.2714255196707,861,66.57142857142857,801.2714255196707,971,66.57142857142857,801.2714255196707,1080,66.57142857142857,810.2714255196707,1189,46.57142857142857,892.2714255196707,1299,59.57142857142857,890.2714255196707,1406,59.57142857142857,890.2714255196707,1514,59.57142857142857,890.2714255196707,1623,59.57142857142857,890.2714255196707,1732,59.57142857142857,890.2714255196707,1840,59.57142857142857,890.2714255196707,1949,59.57142857142857,890.2714255196707,2057,59.57142857142857,890.2714255196707,2165,59.57142857142857,890.2714255196707,2275,59.57142857142857,890.2714255196707,2385,59.57142857142857,890.2714255196707,2494,59.57142857142857,890.2714255196707,2603,59.57142857142857,890.2714255196707,2710,59.57142857142857,890.2714255196707,2819,59.57142857142857,890.2714255196707,2928,59.57142857142857,890.2714255196707,3037,59.57142857142857,890.2714255196707,3145,59.57142857142857,890.2714255196707,3255,59.57142857142857,890.2714255196707,3364,59.57142857142857,890.2714255196707,3473,59.57142857142857,890.2714255196707,3582,59.57142857142857,890.2714255196707,3691,59.57142857142857,890.2714255196707,3801,59.57142857142857,890.2714255196707,3911,59.57142857142857,890.2714255196707,4021,59.57142857142857,890.2714255196707,4128,59.57142857142857,890.2714255196707,4236,59.57142857142857,890.2714255196707,4345,59.57142857142857,890.2714255196707,4453,59.57142857142857,890.2714255196707,4562,59.57142857142857,890.2714255196707,4668,59.57142857142857,890.2714255196707,4777,59.57142857142857,890.2714255196707,4886,59.57142857142857,890.2714255196707,4997]","[1475,1475,1000,0,475,""oops"",""down"",""down"",""good_move"",4804,3329,2850.1,1475,478.9,""oops"",""down"",""down"",""good_move"",8307,3503,3094.5,4804,408.5,""smooth"",""down"",""down"",""good_move"",11244,2937,2529.1,8307,407.9,""oops"",""left"",""left"",""good_move"",14340,3096,1890.9,11244,1205.1,""oops"",""left"",""right"",""bad_move"",17699,3359,2994.1,14340,364.9,""smooth"",""left"",""left"",""good_move"",20828,3129,2752.8,17699,376.2,""smooth"",""left"",""left"",""good_move"",23828,3000,2524.5,20828,475.5,""oops"",""left"",""up"",""bad_move"",26835,3007,2397.8,23828,609.2,""smooth"",""left"",""left"",""good_move"",29804,2969,2633,26835,336,""while_blue"",""down"",""down"",""good_move""]","","",""
"2985","","<div style=""width:500px;"">
  <p>What determined the result of this run?</p>
  </div>","97","html-slider-response","76","1090921","0.0-10.0-1.6","39","1","2025-07-09 09:07:03","7701e855f2ef39aa3fd6c71abdc6918a","95.68.75.96","Mozilla/5.0 (Windows NT 10.0; Win64; x64; rv:140.0) Gecko/20100101 Firefox/140.0","","Firefox","140.0","Windows","10.0","https://app.prolific.com/","en-US,en;q=0.5","60196480480c1403e32285a8","686d226cabeef709c732f8e1","686e3102b8e9f2e79060e001","60196480480c1403e32285a8","2025-07-09T09:25:13.841Z","","","","","","AttribQ","","","","","","","","","","","","","","","","","","","","","","","","","","","","","","","","","","","","","","50",""
"3084","","<div style=""width:500px;"">
  <p>How much control did you have over the ball?</p>
  </div>","89","html-slider-response","77","1094005","0.0-10.0-2.6","39","1","2025-07-09 09:07:03","7701e855f2ef39aa3fd6c71abdc6918a","95.68.75.96","Mozilla/5.0 (Windows NT 10.0; Win64; x64; rv:140.0) Gecko/20100101 Firefox/140.0","","Firefox","140.0","Windows","10.0","https://app.prolific.com/","en-US,en;q=0.5","60196480480c1403e32285a8","686d226cabeef709c732f8e1","686e3102b8e9f2e79060e001","60196480480c1403e32285a8","2025-07-09T09:25:16.925Z","","","","","","ControlQ","","","","","","","","","","","","","","","","","","","","","","","","","","","","","","","","","","","","","","50",""
"2117","","<div style=""width:500px;"">
  <p>How would you describe your current emotional state?</p>
  </div>","29","html-slider-response","78","1096123","0.0-10.0-3.6","39","1","2025-07-09 09:07:03","7701e855f2ef39aa3fd6c71abdc6918a","95.68.75.96","Mozilla/5.0 (Windows NT 10.0; Win64; x64; rv:140.0) Gecko/20100101 Firefox/140.0","","Firefox","140.0","Windows","10.0","https://app.prolific.com/","en-US,en;q=0.5","60196480480c1403e32285a8","686d226cabeef709c732f8e1","686e3102b8e9f2e79060e001","60196480480c1403e32285a8","2025-07-09T09:25:19.043Z","","","","","","StressQ","","","","","","","","","","","","","","","","","","","","","","","","","","","","","","","","","","","","","","50",""
"2135","","<div style=""width:500px;"">
  <p>What best describes how you currently feel?</p>
  </div>","100","html-slider-response","79","1098260","0.0-10.0-4.6","39","1","2025-07-09 09:07:03","7701e855f2ef39aa3fd6c71abdc6918a","95.68.75.96","Mozilla/5.0 (Windows NT 10.0; Win64; x64; rv:140.0) Gecko/20100101 Firefox/140.0","","Firefox","140.0","Windows","10.0","https://app.prolific.com/","en-US,en;q=0.5","60196480480c1403e32285a8","686d226cabeef709c732f8e1","686e3102b8e9f2e79060e001","60196480480c1403e32285a8","2025-07-09T09:25:21.180Z","","","","","","MotivationQ","","","","","","","","","","","","","","","","","","","","","","","","","","","","","","","","","","","","","","50",""
"","","","","ctl-task-cpt","80","1167349","0.0-10.0-0.7","39","1","2025-07-09 09:07:03","7701e855f2ef39aa3fd6c71abdc6918a","95.68.75.96","Mozilla/5.0 (Windows NT 10.0; Win64; x64; rv:140.0) Gecko/20100101 Firefox/140.0","","Firefox","140.0","Windows","10.0","https://app.prolific.com/","en-US,en;q=0.5","60196480480c1403e32285a8","686d226cabeef709c732f8e1","686e3102b8e9f2e79060e001","60196480480c1403e32285a8","2025-07-09T09:26:30.270Z","","","","","","","","","","","","","","","","win-only","1","g1:NE,g2:SW","0.3","8","0","1098932","843","5845","66080","1","4","4","6","2","4","4","43","39","0.32575757575757575","1033","3000","1120","[""down"",""left""]","{""num_key_presses"":14,""num_perfect"":3,""num_errors"":0,""num_randdir"":11,""num_randdir_good_moves"":7,""num_whilered"":0,""num_whileblue"":0,""num_blue"":5,""num_good_moves"":10}","[424.57142857142856,414.27142551967074,0,424.57142857142856,414.27142551967074,112,424.57142857142856,414.27142551967074,219,424.57142857142856,414.27142551967074,327,405.57142857142856,435.27142551967074,435,264.57142857142856,568.2714255196707,543,217.57142857142856,608.2714255196707,651,158.57142857142856,671.2714255196707,759,134.57142857142856,694.2714255196707,868,111.57142857142857,712.2714255196707,974,105.57142857142857,720.2714255196707,1081,105.57142857142857,720.2714255196707,1190,106.57142857142857,720.2714255196707,1297,148.57142857142856,724.2714255196707,1404,209.57142857142856,756.2714255196707,1514,309.57142857142856,792.2714255196707,1625,315.57142857142856,797.2714255196707,1734,315.57142857142856,797.2714255196707,1843,315.57142857142856,797.2714255196707,1953,315.57142857142856,797.2714255196707,2060,315.57142857142856,797.2714255196707,2170,315.57142857142856,797.2714255196707,2276,315.57142857142856,797.2714255196707,2385,315.57142857142856,797.2714255196707,2494,315.57142857142856,797.2714255196707,2603,315.57142857142856,797.2714255196707,2711,315.57142857142856,797.2714255196707,2820,315.57142857142856,797.2714255196707,2928,315.57142857142856,797.2714255196707,3036,315.57142857142856,797.2714255196707,3142,315.57142857142856,797.2714255196707,3250,315.57142857142856,797.2714255196707,3361,315.57142857142856,797.2714255196707,3470,315.57142857142856,797.2714255196707,3577,315.57142857142856,797.2714255196707,3685,315.57142857142856,797.2714255196707,3794,315.57142857142856,797.2714255196707,3902,315.57142857142856,797.2714255196707,4010,315.57142857142856,797.2714255196707,4120,315.57142857142856,797.2714255196707,4228,315.57142857142856,797.2714255196707,4337,315.57142857142856,797.2714255196707,4444,315.57142857142856,797.2714255196707,4553,315.57142857142856,797.2714255196707,4662,315.57142857142856,797.2714255196707,4770,315.57142857142856,797.2714255196707,4879,315.57142857142856,797.2714255196707,4986]","[4549,4549,2126.5,2013,409.5,""smooth"",""left"",""left"",""good_move"",7613,3064,2245.9,4549,818.1,""smooth"",""down"",""down"",""good_move"",11204,3591,3083.5,7613,507.5,""oops"",""left"",""left"",""good_move"",14237,3032,2635.6,11205,396.4,""oops"",""left"",""down"",""good_move"",17349,3112,2710.1,14237,401.9,""oops"",""left"",""right"",""bad_move"",20028,2679,2241.7,17349,437.3,""smooth"",""down"",""down"",""good_move"",25996,5968,2129.9,23483,383.1,""oops"",""left"",""up"",""bad_move"",33429,7433,3319.9,29648,461.1,""oops"",""left"",""down"",""good_move"",36725,3296,2871.8,33429,424.2,""oops"",""left"",""left"",""good_move"",43436,6711,2608.3,40374,453.7,""oops"",""left"",""up"",""bad_move"",50157,6721,2213.7,47442,501.3,""oops"",""left"",""left"",""good_move"",53261,3104,2389.9,50157,714.1,""oops"",""down"",""right"",""bad_move"",56949,3688,3326.6,53261,361.4,""oops"",""left"",""left"",""good_move"",59949,3000,2209.7,56949,790.3,""oops"",""down"",""down"",""good_move""]","","",""
"3465","","<div style=""width:500px;"">
  <p>What determined the result of this run?</p>
  </div>","30","html-slider-response","81","1170817","0.0-10.0-1.7","39","1","2025-07-09 09:07:03","7701e855f2ef39aa3fd6c71abdc6918a","95.68.75.96","Mozilla/5.0 (Windows NT 10.0; Win64; x64; rv:140.0) Gecko/20100101 Firefox/140.0","","Firefox","140.0","Windows","10.0","https://app.prolific.com/","en-US,en;q=0.5","60196480480c1403e32285a8","686d226cabeef709c732f8e1","686e3102b8e9f2e79060e001","60196480480c1403e32285a8","2025-07-09T09:26:33.737Z","","","","","","AttribQ","","","","","","","","","","","","","","","","","","","","","","","","","","","","","","","","","","","","","","50",""
"3693","","<div style=""width:500px;"">
  <p>How much control did you have over the ball?</p>
  </div>","60","html-slider-response","82","1174511","0.0-10.0-2.7","39","1","2025-07-09 09:07:03","7701e855f2ef39aa3fd6c71abdc6918a","95.68.75.96","Mozilla/5.0 (Windows NT 10.0; Win64; x64; rv:140.0) Gecko/20100101 Firefox/140.0","","Firefox","140.0","Windows","10.0","https://app.prolific.com/","en-US,en;q=0.5","60196480480c1403e32285a8","686d226cabeef709c732f8e1","686e3102b8e9f2e79060e001","60196480480c1403e32285a8","2025-07-09T09:26:37.431Z","","","","","","ControlQ","","","","","","","","","","","","","","","","","","","","","","","","","","","","","","","","","","","","","","50",""
"2954","","<div style=""width:500px;"">
  <p>How would you describe your current emotional state?</p>
  </div>","22","html-slider-response","83","1177465","0.0-10.0-3.7","39","1","2025-07-09 09:07:03","7701e855f2ef39aa3fd6c71abdc6918a","95.68.75.96","Mozilla/5.0 (Windows NT 10.0; Win64; x64; rv:140.0) Gecko/20100101 Firefox/140.0","","Firefox","140.0","Windows","10.0","https://app.prolific.com/","en-US,en;q=0.5","60196480480c1403e32285a8","686d226cabeef709c732f8e1","686e3102b8e9f2e79060e001","60196480480c1403e32285a8","2025-07-09T09:26:40.385Z","","","","","","StressQ","","","","","","","","","","","","","","","","","","","","","","","","","","","","","","","","","","","","","","50",""
"1929","","<div style=""width:500px;"">
  <p>What best describes how you currently feel?</p>
  </div>","100","html-slider-response","84","1179394","0.0-10.0-4.7","39","1","2025-07-09 09:07:03","7701e855f2ef39aa3fd6c71abdc6918a","95.68.75.96","Mozilla/5.0 (Windows NT 10.0; Win64; x64; rv:140.0) Gecko/20100101 Firefox/140.0","","Firefox","140.0","Windows","10.0","https://app.prolific.com/","en-US,en;q=0.5","60196480480c1403e32285a8","686d226cabeef709c732f8e1","686e3102b8e9f2e79060e001","60196480480c1403e32285a8","2025-07-09T09:26:42.314Z","","","","","","MotivationQ","","","","","","","","","","","","","","","","","","","","","","","","","","","","","","","","","","","","","","50",""
"","","","","ctl-task-cpt","85","1285172","0.0-10.0-0.8","39","1","2025-07-09 09:07:03","7701e855f2ef39aa3fd6c71abdc6918a","95.68.75.96","Mozilla/5.0 (Windows NT 10.0; Win64; x64; rv:140.0) Gecko/20100101 Firefox/140.0","","Firefox","140.0","Windows","10.0","https://app.prolific.com/","en-US,en;q=0.5","60196480480c1403e32285a8","686d226cabeef709c732f8e1","686e3102b8e9f2e79060e001","60196480480c1403e32285a8","2025-07-09T09:28:28.092Z","","","","","","","","","","","","","","","","win-only","2","g1:SE,g2:NW","0.2","9","0","1180066","1262","6276","102764","1","4","8","6","2","-8","-12","31","43","0.23484848484848486","933","3000","-970","[""left"",""up""]","{""num_key_presses"":29,""num_perfect"":5,""num_errors"":4,""num_randdir"":19,""num_randdir_good_moves"":9,""num_whilered"":1,""num_whileblue"":2,""num_blue"":6,""num_good_moves"":14}","[421.57142857142856,422.27142551967074,0,421.57142857142856,422.27142551967074,109,421.57142857142856,422.27142551967074,217,421.57142857142856,422.27142551967074,325,441.57142857142856,449.27142551967074,433,465.57142857142856,479.27142551967074,540,67.57142857142857,238.27142551967074,647,43.57142857142857,171.27142551967074,756,48.57142857142857,104.27142551967076,863,54.57142857142857,87.27142551967076,971,59.57142857142857,90.27142551967076,1079,232.57142857142856,242.27142551967074,1186,286.57142857142856,379.27142551967074,1294,285.57142857142856,391.27142551967074,1402,285.57142857142856,391.27142551967074,1510,285.57142857142856,391.27142551967074,1616,285.57142857142856,391.27142551967074,1726,285.57142857142856,391.27142551967074,1834,285.57142857142856,391.27142551967074,1943,285.57142857142856,391.27142551967074,2050,285.57142857142856,391.27142551967074,2159,285.57142857142856,391.27142551967074,2267,285.57142857142856,391.27142551967074,2375,285.57142857142856,391.27142551967074,2484,285.57142857142856,391.27142551967074,2591,285.57142857142856,391.27142551967074,2702,285.57142857142856,391.27142551967074,2810,285.57142857142856,391.27142551967074,2919,285.57142857142856,391.27142551967074,3028,285.57142857142856,391.27142551967074,3135,285.57142857142856,391.27142551967074,3243,285.57142857142856,391.27142551967074,3350,285.57142857142856,391.27142551967074,3459,285.57142857142856,391.27142551967074,3568,285.57142857142856,391.27142551967074,3679,285.57142857142856,391.27142551967074,3786,285.57142857142856,391.27142551967074,3895,285.57142857142856,391.27142551967074,4002,285.57142857142856,391.27142551967074,4112,285.57142857142856,391.27142551967074,4221,285.57142857142856,391.27142551967074,4329,285.57142857142856,391.27142551967074,4439,285.57142857142856,391.27142551967074,4549,285.57142857142856,391.27142551967074,4658,285.57142857142856,391.27142551967074,4767,285.57142857142856,391.27142551967074,4876,285.57142857142856,391.27142551967074,4984]","[8247,8247,2566.6,5188,492.4,""smooth"",""up"",""up"",""good_move"",11335,3088,2537.9,8247,550.1,""oops"",""left"",""right"",""bad_move"",14064,2729,2326.8,11335,402.2,""oops"",""up"",""right"",""bad_move"",19887,5823,1953.9,17510,423.1,""smooth"",""up"",""up"",""good_move"",26856,6969,2926.3,23525,404.7,""oops"",""left"",""left"",""good_move"",30192,3336,2864.1,26856,471.9,""oops"",""left"",""down"",""bad_move"",32791,2599,2085.5,30192,513.5,""oops"",""up"",""up"",""good_move"",35976,3184,2747.5,32792,436.5,""oops"",""right"",""left"",""good_move"",39088,3112,2189.7,35976,922.3,""oops"",""up"",""down"",""bad_move"",42064,2976,2550.6,39088,425.4,""oops"",""left"",""up"",""good_move"",45040,2976,2428.3,42064,547.7,""oops"",""left"",""right"",""bad_move"",47743,2703,2353,45040,350,""smooth"",""left"",""left"",""good_move"",50720,2977,2078.7,47743,898.3,""smooth"",""left"",""left"",""good_move"",53984,3264,2893.2,50720,370.8,""oops"",""left"",""left"",""good_move"",56952,2968,2201.5,53984,766.5,""oops"",""up"",""right"",""bad_move"",60072,3120,2803.7,56952,316.3,""oops"",""up"",""left"",""good_move"",63032,2960,2276.4,60072,683.6,""oops"",""up"",""down"",""bad_move"",65759,2727,2424.6,63032,302.4,""oops"",""up"",""left"",""good_move"",68960,3201,2893.5,65759,307.5,""oops"",""up"",""right"",""bad_move"",71696,2736,2427,68960,309,""while_blue"",""up"",""up"",""good_move"",74687,2991,2630,71696,361,""oops"",""up"",""right"",""bad_move"",78128,3441,3109.7,74687,331.3,""oops"",""up"",""right"",""bad_move"",81392,3264,2824.6,78128,439.4,""smooth"",""right"",""right"",""bad_move"",83848,2456,2103.6,81392,352.4,""oops"",""right"",""up"",""good_move"",87024,3176,2874.8,83848,301.2,""oops"",""left"",""left"",""good_move"",89967,2943,2623,87024,320,""while_blue"",""left"",""right"",""bad_move"",90560,593,1724.5,89967,-1131.5,""error"",""-"",""-"",""no_move"",91000,440,1724.5,89967,-691.5,""while_red"",""-"",""-"",""no_move"",92064,1504,1775.2,91574,-1285.2,""error"",""-"",""-"",""no_move""]","","",""
"2862","","<div style=""width:500px;"">
  <p>What determined the result of this run?</p>
  </div>","4","html-slider-response","86","1288035","0.0-10.0-1.8","39","1","2025-07-09 09:07:03","7701e855f2ef39aa3fd6c71abdc6918a","95.68.75.96","Mozilla/5.0 (Windows NT 10.0; Win64; x64; rv:140.0) Gecko/20100101 Firefox/140.0","","Firefox","140.0","Windows","10.0","https://app.prolific.com/","en-US,en;q=0.5","60196480480c1403e32285a8","686d226cabeef709c732f8e1","686e3102b8e9f2e79060e001","60196480480c1403e32285a8","2025-07-09T09:28:30.955Z","","","","","","AttribQ","","","","","","","","","","","","","","","","","","","","","","","","","","","","","","","","","","","","","","50",""
"3393","","<div style=""width:500px;"">
  <p>How much control did you have over the ball?</p>
  </div>","11","html-slider-response","87","1291428","0.0-10.0-2.8","39","1","2025-07-09 09:07:03","7701e855f2ef39aa3fd6c71abdc6918a","95.68.75.96","Mozilla/5.0 (Windows NT 10.0; Win64; x64; rv:140.0) Gecko/20100101 Firefox/140.0","","Firefox","140.0","Windows","10.0","https://app.prolific.com/","en-US,en;q=0.5","60196480480c1403e32285a8","686d226cabeef709c732f8e1","686e3102b8e9f2e79060e001","60196480480c1403e32285a8","2025-07-09T09:28:34.348Z","","","","","","ControlQ","","","","","","","","","","","","","","","","","","","","","","","","","","","","","","","","","","","","","","50",""
"2533","","<div style=""width:500px;"">
  <p>How would you describe your current emotional state?</p>
  </div>","86","html-slider-response","88","1293960","0.0-10.0-3.8","39","1","2025-07-09 09:07:03","7701e855f2ef39aa3fd6c71abdc6918a","95.68.75.96","Mozilla/5.0 (Windows NT 10.0; Win64; x64; rv:140.0) Gecko/20100101 Firefox/140.0","","Firefox","140.0","Windows","10.0","https://app.prolific.com/","en-US,en;q=0.5","60196480480c1403e32285a8","686d226cabeef709c732f8e1","686e3102b8e9f2e79060e001","60196480480c1403e32285a8","2025-07-09T09:28:36.880Z","","","","","","StressQ","","","","","","","","","","","","","","","","","","","","","","","","","","","","","","","","","","","","","","50",""
"2320","","<div style=""width:500px;"">
  <p>What best describes how you currently feel?</p>
  </div>","100","html-slider-response","89","1296282","0.0-10.0-4.8","39","1","2025-07-09 09:07:03","7701e855f2ef39aa3fd6c71abdc6918a","95.68.75.96","Mozilla/5.0 (Windows NT 10.0; Win64; x64; rv:140.0) Gecko/20100101 Firefox/140.0","","Firefox","140.0","Windows","10.0","https://app.prolific.com/","en-US,en;q=0.5","60196480480c1403e32285a8","686d226cabeef709c732f8e1","686e3102b8e9f2e79060e001","60196480480c1403e32285a8","2025-07-09T09:28:39.202Z","","","","","","MotivationQ","","","","","","","","","","","","","","","","","","","","","","","","","","","","","","","","","","","","","","50",""
