"rt","response_timestamp","stimulus","response","trial_type","trial_index","time_elapsed","internal_node_id","run_id","condition","recorded_at","source_code_version","ip","user_agent","device","browser","browser_version","platform","platform_version","referer","accept_language","PROLIFIC_PID","STUDY_ID","SESSION_ID","prolific_id","realtime","view_history","question_order","consent","success","question_id","eventType","responses","item_order","radio_event_ids","radio_event_times","key_event_times","mouse_event_times","straightlining","zigzagging","honeypot","which_type","canvas_config","goals_layout","control_level","trial_number","tutorial_trial_number","trial_start_time","phase1_start_time","phase2_start_time","phase3_start_time","goal_1_value","goal_1_distance","goal_2_value","goal_2_distance","goal_selected","outcome","outcome_total","participant_final_score","participant_initial_score","participant_final_score_prop","goal_choice_rt","allocated_time","allocated_time_remaining","goal_direction","counts","mouse_movements","key_presses","correct","slider_start","sub_question"
"10344","1752052288377","<p style='font-size:40px;line-height:1.25'><strong>Welcome to the experiment!</strong></p><p style='font-size:1.1em;line-height:1.25'>Thank you for your interest in our experiment! Before you begin, it is important that we obtain your informed consent to participate in the study.</p><p style='font-size:1.1em;line-height:1.25'>On the next screen will be an <strong>information sheet</strong> for you to read. To participate in the study we need you to read this information sheet and the following consent form carefully. If you agree with all the statements, please click the <strong>I agree</strong> button.</p><p style='font-size:1.1em;line-height:1.25'>Press <strong>Next</strong> to read the information sheet.</p>","0","custom-html-button-response","0","10345","0.0-0.0","135","1","2025-07-09 09:09:02","7701e855f2ef39aa3fd6c71abdc6918a","197.248.117.175","Mozilla/5.0 (Windows NT 10.0; Win64; x64) AppleWebKit/537.36 (KHTML, like Gecko) Chrome/138.0.0.0 Safari/537.36","WebKit","Chrome","138.0.0.0","Windows","10.0","https://app.prolific.com/","en-US,en;q=0.9","65fb13bebfa339f73b4cf76a","686d226cabeef709c732f8e1","686e3141b775df29d45e75f2","65fb13bebfa339f73b4cf76a","2025-07-09T09:11:28.378Z","","","","","","","","","","","","","","","","","","","","","","","","","","","","","","","","","","","","","","","","","","","","",""
"7798","","","","instructions","1","18144","0.0-1.0","135","1","2025-07-09 09:09:02","7701e855f2ef39aa3fd6c71abdc6918a","197.248.117.175","Mozilla/5.0 (Windows NT 10.0; Win64; x64) AppleWebKit/537.36 (KHTML, like Gecko) Chrome/138.0.0.0 Safari/537.36","WebKit","Chrome","138.0.0.0","Windows","10.0","https://app.prolific.com/","en-US,en;q=0.9","65fb13bebfa339f73b4cf76a","686d226cabeef709c732f8e1","686e3141b775df29d45e75f2","65fb13bebfa339f73b4cf76a","","[{""page_index"":0,""viewing_time"":5206},{""page_index"":1,""viewing_time"":2592}]","","","","","","","","","","","","","","","","","","","","","","","","","","","","","","","","","","","","","","","","","","","",""
"4280","","","{""Q0"":"""",""Q1"":"""",""Q2"":"""",""Q3"":"""",""Q4"":"""",""Q5"":"""",""Q6"":""I agree""}","survey-multi-choice","2","22426","0.0-2.0","135","1","2025-07-09 09:09:02","7701e855f2ef39aa3fd6c71abdc6918a","197.248.117.175","Mozilla/5.0 (Windows NT 10.0; Win64; x64) AppleWebKit/537.36 (KHTML, like Gecko) Chrome/138.0.0.0 Safari/537.36","WebKit","Chrome","138.0.0.0","Windows","10.0","https://app.prolific.com/","en-US,en;q=0.9","65fb13bebfa339f73b4cf76a","686d226cabeef709c732f8e1","686e3141b775df29d45e75f2","65fb13bebfa339f73b4cf76a","","","[0,1,2,3,4,5,6]","true","","","","","","","","","","","","","","","","","","","","","","","","","","","","","","","","","","","","","","","","","",""
"12334","","","","fullscreen","3","35772","0.0-4.0","135","1","2025-07-09 09:09:02","7701e855f2ef39aa3fd6c71abdc6918a","197.248.117.175","Mozilla/5.0 (Windows NT 10.0; Win64; x64) AppleWebKit/537.36 (KHTML, like Gecko) Chrome/138.0.0.0 Safari/537.36","WebKit","Chrome","138.0.0.0","Windows","10.0","https://app.prolific.com/","en-US,en;q=0.9","65fb13bebfa339f73b4cf76a","686d226cabeef709c732f8e1","686e3141b775df29d45e75f2","65fb13bebfa339f73b4cf76a","","","","","true","","","","","","","","","","","","","","","","","","","","","","","","","","","","","","","","","","","","","","","","",""
"5108","1752052318913"," <p style='font-size:1.1em;line-height:1.25'>Thank you for completing the consent form and closing all other tabs.</p><p style='font-size:1.1em;line-height:1.25'>We will now invite you to fill in some demographic information and questionnaires, before starting the game.<br>This will take about 5 minutes.<br></p><p style='font-size:1.1em;line-height:1.25'>Press the <strong>Next</strong> button to continue.</p>","0","custom-html-button-response","4","40880","0.0-5.0","135","1","2025-07-09 09:09:02","7701e855f2ef39aa3fd6c71abdc6918a","197.248.117.175","Mozilla/5.0 (Windows NT 10.0; Win64; x64) AppleWebKit/537.36 (KHTML, like Gecko) Chrome/138.0.0.0 Safari/537.36","WebKit","Chrome","138.0.0.0","Windows","10.0","https://app.prolific.com/","en-US,en;q=0.9","65fb13bebfa339f73b4cf76a","686d226cabeef709c732f8e1","686e3141b775df29d45e75f2","65fb13bebfa339f73b4cf76a","2025-07-09T09:11:58.913Z","","","","","","","","","","","","","","","","","","","","","","","","","","","","","","","","","","","","","","","","","","","","",""
"3262","","","{""age"":""30""}","survey-text","5","44144","0.0-6.0-0.0","135","1","2025-07-09 09:09:02","7701e855f2ef39aa3fd6c71abdc6918a","197.248.117.175","Mozilla/5.0 (Windows NT 10.0; Win64; x64) AppleWebKit/537.36 (KHTML, like Gecko) Chrome/138.0.0.0 Safari/537.36","WebKit","Chrome","138.0.0.0","Windows","10.0","https://app.prolific.com/","en-US,en;q=0.9","65fb13bebfa339f73b4cf76a","686d226cabeef709c732f8e1","686e3141b775df29d45e75f2","65fb13bebfa339f73b4cf76a","","","","","","0","demographics","","","","","","","","","","","","","","","","","","","","","","","","","","","","","","","","","","","","","","",""
"2160","","","{""gender_identity"":""female/woman""}","survey-multi-choice","6","46304","0.0-6.0-1.0","135","1","2025-07-09 09:09:02","7701e855f2ef39aa3fd6c71abdc6918a","197.248.117.175","Mozilla/5.0 (Windows NT 10.0; Win64; x64) AppleWebKit/537.36 (KHTML, like Gecko) Chrome/138.0.0.0 Safari/537.36","WebKit","Chrome","138.0.0.0","Windows","10.0","https://app.prolific.com/","en-US,en;q=0.9","65fb13bebfa339f73b4cf76a","686d226cabeef709c732f8e1","686e3141b775df29d45e75f2","65fb13bebfa339f73b4cf76a","","","[0]","","","1","demographics","","","","","","","","","","","","","","","","","","","","","","","","","","","","","","","","","","","","","","",""
"2136","","","{""assigned_sex"":""female""}","survey-multi-choice","7","48440","0.0-6.0-2.0","135","1","2025-07-09 09:09:02","7701e855f2ef39aa3fd6c71abdc6918a","197.248.117.175","Mozilla/5.0 (Windows NT 10.0; Win64; x64) AppleWebKit/537.36 (KHTML, like Gecko) Chrome/138.0.0.0 Safari/537.36","WebKit","Chrome","138.0.0.0","Windows","10.0","https://app.prolific.com/","en-US,en;q=0.9","65fb13bebfa339f73b4cf76a","686d226cabeef709c732f8e1","686e3141b775df29d45e75f2","65fb13bebfa339f73b4cf76a","","","[0]","","","2","demographics","","","","","","","","","","","","","","","","","","","","","","","","","","","","","","","","","","","","","","",""
"7463","","","{""menstrual_cycle"":""Yes""}","survey-multi-choice","8","55904","0.0-6.0-3.0","135","1","2025-07-09 09:09:02","7701e855f2ef39aa3fd6c71abdc6918a","197.248.117.175","Mozilla/5.0 (Windows NT 10.0; Win64; x64) AppleWebKit/537.36 (KHTML, like Gecko) Chrome/138.0.0.0 Safari/537.36","WebKit","Chrome","138.0.0.0","Windows","10.0","https://app.prolific.com/","en-US,en;q=0.9","65fb13bebfa339f73b4cf76a","686d226cabeef709c732f8e1","686e3141b775df29d45e75f2","65fb13bebfa339f73b4cf76a","","","[0]","","","4","demographics","","","","","","","","","","","","","","","","","","","","","","","","","","","","","","","","","","","","","","",""
"6192","","","{""education"":""Bachelor's Degree (e.g., BA)""}","survey-multi-choice","9","62097","0.0-6.0-4.0","135","1","2025-07-09 09:09:02","7701e855f2ef39aa3fd6c71abdc6918a","197.248.117.175","Mozilla/5.0 (Windows NT 10.0; Win64; x64) AppleWebKit/537.36 (KHTML, like Gecko) Chrome/138.0.0.0 Safari/537.36","WebKit","Chrome","138.0.0.0","Windows","10.0","https://app.prolific.com/","en-US,en;q=0.9","65fb13bebfa339f73b4cf76a","686d226cabeef709c732f8e1","686e3141b775df29d45e75f2","65fb13bebfa339f73b4cf76a","","","[0]","","","5","demographics","","","","","","","","","","","","","","","","","","","","","","","","","","","","","","","","","","","","","","",""
"3063","","","{""education"":""Bachelor's Degree (e.g., BA)""}","survey-multi-choice","10","65161","0.0-6.0-5.0","135","1","2025-07-09 09:09:02","7701e855f2ef39aa3fd6c71abdc6918a","197.248.117.175","Mozilla/5.0 (Windows NT 10.0; Win64; x64) AppleWebKit/537.36 (KHTML, like Gecko) Chrome/138.0.0.0 Safari/537.36","WebKit","Chrome","138.0.0.0","Windows","10.0","https://app.prolific.com/","en-US,en;q=0.9","65fb13bebfa339f73b4cf76a","686d226cabeef709c732f8e1","686e3141b775df29d45e75f2","65fb13bebfa339f73b4cf76a","2025-07-09T09:12:23.194Z","","[0]","","","6","demographics","","","","","","","","","","","","","","","","","","","","","","","","","","","","","","","","","","","","","","",""
"17630","","","{""mental_health_condition"":""NO"",""mental_health_treatment"":""NO"",""psychiatric_medication"":""NO""}","survey-text","11","82793","0.0-7.0-0.0","135","1","2025-07-09 09:09:02","7701e855f2ef39aa3fd6c71abdc6918a","197.248.117.175","Mozilla/5.0 (Windows NT 10.0; Win64; x64) AppleWebKit/537.36 (KHTML, like Gecko) Chrome/138.0.0.0 Safari/537.36","WebKit","Chrome","138.0.0.0","Windows","10.0","https://app.prolific.com/","en-US,en;q=0.9","65fb13bebfa339f73b4cf76a","686d226cabeef709c732f8e1","686e3141b775df29d45e75f2","65fb13bebfa339f73b4cf76a","2025-07-09T09:12:40.826Z","","","","","1","mental_health","","","","","","","","","","","","","","","","","","","","","","","","","","","","","","","","","","","","","","",""
"11406","","","{""depression_history"":[""Yes""]}","survey-multi-select","12","94201","0.0-7.0-1.0","135","1","2025-07-09 09:09:02","7701e855f2ef39aa3fd6c71abdc6918a","197.248.117.175","Mozilla/5.0 (Windows NT 10.0; Win64; x64) AppleWebKit/537.36 (KHTML, like Gecko) Chrome/138.0.0.0 Safari/537.36","WebKit","Chrome","138.0.0.0","Windows","10.0","https://app.prolific.com/","en-US,en;q=0.9","65fb13bebfa339f73b4cf76a","686d226cabeef709c732f8e1","686e3141b775df29d45e75f2","65fb13bebfa339f73b4cf76a","","","[0]","","","","mental_health","","","","","","","","","","","","","","","","","","","","","","","","","","","","","","","","","","","","","","",""
"10687","","","{""depression_episodes"":""more than 5"",""depression_recent"":""More than 1 year ago""}","survey-multi-choice","13","104889","0.0-7.0-2.0-0.0","135","1","2025-07-09 09:09:02","7701e855f2ef39aa3fd6c71abdc6918a","197.248.117.175","Mozilla/5.0 (Windows NT 10.0; Win64; x64) AppleWebKit/537.36 (KHTML, like Gecko) Chrome/138.0.0.0 Safari/537.36","WebKit","Chrome","138.0.0.0","Windows","10.0","https://app.prolific.com/","en-US,en;q=0.9","65fb13bebfa339f73b4cf76a","686d226cabeef709c732f8e1","686e3141b775df29d45e75f2","65fb13bebfa339f73b4cf76a","2025-07-09T09:13:02.922Z","","[0,1]","","","3","mental_health","","","","","","","","","","","","","","","","","","","","","","","","","","","","","","","","","","","","","","",""
"80800.19999980927","","","","survey-template","14","185692","0.0-7.0-3.0","135","1","2025-07-09 09:09:02","7701e855f2ef39aa3fd6c71abdc6918a","197.248.117.175","Mozilla/5.0 (Windows NT 10.0; Win64; x64) AppleWebKit/537.36 (KHTML, like Gecko) Chrome/138.0.0.0 Safari/537.36","WebKit","Chrome","138.0.0.0","Windows","10.0","https://app.prolific.com/","en-US,en;q=0.9","65fb13bebfa339f73b4cf76a","686d226cabeef709c732f8e1","686e3141b775df29d45e75f2","65fb13bebfa339f73b4cf76a","2025-07-09T09:14:23.725Z","","","","","","ius","{""Q01"":""3"",""Q02"":""2"",""Q03"":""4"",""Q04"":""4"",""Q05"":""4"",""Q06"":""4"",""Q07"":""2"",""Q08"":""0"",""Q09"":""4"",""Q10"":""3"",""Q11"":""3"",""Q12"":""3"",""Q13"":""2""}","[0,1,2,3,4,5,6,7,8,9,10,11,12]","[""Q01"",""Q02"",""Q03"",""Q04"",""Q05"",""Q06"",""Q07"",""Q08"",""Q09"",""Q10"",""Q11"",""Q12"",""Q13""]","[3997.9000000953674,8557.799999713898,12837.699999809265,21813.699999809265,25661.699999809265,31189.799999713898,34702.7999997139,61462,65517.699999809265,69734.2999997139,72821.7999997139,74797.69999980927,78422.19999980927]","[]","[3997.9000000953674,8557.799999713898,11541.799999713898,12837.699999809265,21813.699999809265,24621.799999713898,25661.699999809265,31189.799999713898,34702.7999997139,61462,65517.699999809265,69734.2999997139,72821.7999997139,74797.69999980927,78422.19999980927,80797.69999980927]","0.38461538461538464","0.3333333333333333","0","","","","","","","","","","","","","","","","","","","","","","","","","","","","","",""
"4300","1752052468026","<p style='font-size:1.1em;line-height:1.25'>In the following, we will ask you a few questions relating to your experiences over the past month.<br></p><p style='font-size:1.1em;line-height:1.25'>Press the <strong>Next</strong> button to continue.</p>","0","custom-html-button-response","15","189993","0.0-7.0-4.0","135","1","2025-07-09 09:09:02","7701e855f2ef39aa3fd6c71abdc6918a","197.248.117.175","Mozilla/5.0 (Windows NT 10.0; Win64; x64) AppleWebKit/537.36 (KHTML, like Gecko) Chrome/138.0.0.0 Safari/537.36","WebKit","Chrome","138.0.0.0","Windows","10.0","https://app.prolific.com/","en-US,en;q=0.9","65fb13bebfa339f73b4cf76a","686d226cabeef709c732f8e1","686e3141b775df29d45e75f2","65fb13bebfa339f73b4cf76a","2025-07-09T09:14:28.026Z","","","","","","","","","","","","","","","","","","","","","","","","","","","","","","","","","","","","","","","","","","","","",""
"42329.199999809265","","","","survey-template","16","232324","0.0-7.0-5.0","135","1","2025-07-09 09:09:02","7701e855f2ef39aa3fd6c71abdc6918a","197.248.117.175","Mozilla/5.0 (Windows NT 10.0; Win64; x64) AppleWebKit/537.36 (KHTML, like Gecko) Chrome/138.0.0.0 Safari/537.36","WebKit","Chrome","138.0.0.0","Windows","10.0","https://app.prolific.com/","en-US,en;q=0.9","65fb13bebfa339f73b4cf76a","686d226cabeef709c732f8e1","686e3141b775df29d45e75f2","65fb13bebfa339f73b4cf76a","2025-07-09T09:15:10.357Z","","","","","","pss","{""Q01"":""3"",""Q02"":""3"",""Q03"":""3"",""Q04"":""2"",""Q05"":""2"",""Q06"":""3"",""Q07"":""1"",""Q08"":""2"",""Q09"":""4"",""Q10"":""4""}","[0,1,2,3,4,5,6,7,8,9]","[""Q01"",""Q02"",""Q03"",""Q04"",""Q05"",""Q06"",""Q07"",""Q08"",""Q09"",""Q10""]","[5966.599999904633,9702.699999809265,15838.599999904633,20990.699999809265,24646.699999809265,27158.599999904633,29742.799999713898,32414.699999809265,35478.59999990463,38630.5]","[]","[0,3302.5999999046326,5966.599999904633,9702.699999809265,12414.400000095367,15838.599999904633,20990.699999809265,24646.699999809265,27158.599999904633,29742.799999713898,32414.699999809265,35478.59999990463,38630.5,42326.7999997139]","0.5","0.3333333333333333","0","","","","","","","","","","","","","","","","","","","","","","","","","","","","","",""
"3020","1752052513377","<p style='font-size:1.1em;line-height:1.25'>Thank you for your answers! Now we will ask you a few more questions relating to your feelings in the last 24 hours.<br></p><p style='font-size:1.1em;line-height:1.25'>Press the <strong>Next</strong> button to continue.</p>","0","custom-html-button-response","17","235345","0.0-7.0-6.0","135","1","2025-07-09 09:09:02","7701e855f2ef39aa3fd6c71abdc6918a","197.248.117.175","Mozilla/5.0 (Windows NT 10.0; Win64; x64) AppleWebKit/537.36 (KHTML, like Gecko) Chrome/138.0.0.0 Safari/537.36","WebKit","Chrome","138.0.0.0","Windows","10.0","https://app.prolific.com/","en-US,en;q=0.9","65fb13bebfa339f73b4cf76a","686d226cabeef709c732f8e1","686e3141b775df29d45e75f2","65fb13bebfa339f73b4cf76a","2025-07-09T09:15:13.378Z","","","","","","","","","","","","","","","","","","","","","","","","","","","","","","","","","","","","","","","","","","","","",""
"70417.69999980927","","","","survey-template","18","305765","0.0-7.0-7.0","135","1","2025-07-09 09:09:02","7701e855f2ef39aa3fd6c71abdc6918a","197.248.117.175","Mozilla/5.0 (Windows NT 10.0; Win64; x64) AppleWebKit/537.36 (KHTML, like Gecko) Chrome/138.0.0.0 Safari/537.36","WebKit","Chrome","138.0.0.0","Windows","10.0","https://app.prolific.com/","en-US,en;q=0.9","65fb13bebfa339f73b4cf76a","686d226cabeef709c732f8e1","686e3141b775df29d45e75f2","65fb13bebfa339f73b4cf76a","2025-07-09T09:16:23.799Z","","","","","","drsp","{""Q01"":""3"",""Q02"":""2"",""Q03"":""2"",""Q04"":""5"",""Q05"":""5"",""Q06"":""4"",""Q07"":""3"",""Q08"":""4"",""Q09"":""3"",""Q10"":""4"",""Q11"":""5"",""Q12"":""4"",""Q13"":""4"",""Q14"":""2"",""Q15"":""2"",""Q16"":""5"",""Q17"":""5"",""Q18"":""5"",""Q19"":""2"",""Q20"":""3"",""Q21"":""4""}","[0,1,2,3,4,5,6,7,8,9,10,11,12,13,14,15,16,17,18,19,20]","[""Q01"",""Q02"",""Q03"",""Q04"",""Q05"",""Q06"",""Q07"",""Q08"",""Q09"",""Q10"",""Q11"",""Q12"",""Q14"",""Q15"",""Q16"",""Q18"",""Q19"",""Q19"",""Q20"",""Q20"",""Q21"",""Q21"",""Q13"",""Q17""]","[4534.299999713898,5638.099999904633,7325.799999713898,11023,11678.199999809265,14782.199999809265,16326.299999713898,20814.199999809265,23326.199999809265,25390.099999904633,27422.199999809265,29686.099999904633,34278.199999809265,36750.199999809265,38669.90000009537,43294.199999809265,47638.199999809265,48758.09999990463,52214,52950.09999990463,55502.09999990463,56534,63390.199999809265,68470.2999997139]","[]","[0,4534.299999713898,5638.099999904633,7325.799999713898,9822.099999904633,11023,11678.199999809265,14782.199999809265,16326.299999713898,19350.299999713898,20814.199999809265,23326.199999809265,25390.099999904633,27422.199999809265,29686.099999904633,31414.400000095367,34278.199999809265,36750.199999809265,38669.90000009537,40310.199999809265,43294.199999809265,47638.199999809265,48758.09999990463,52214,52950.09999990463,55502.09999990463,56534,57174.2999997139,62486,63390.199999809265,65445.7999997139,68470.2999997139,70414.09999990463]","0.2857142857142857","0.5","0","","","","","","","","","","","","","","","","","","","","","","","","","","","","","",""
"8875.200000286102","","","","survey-template","19","314642","0.0-7.0-8.0","135","1","2025-07-09 09:09:02","7701e855f2ef39aa3fd6c71abdc6918a","197.248.117.175","Mozilla/5.0 (Windows NT 10.0; Win64; x64) AppleWebKit/537.36 (KHTML, like Gecko) Chrome/138.0.0.0 Safari/537.36","WebKit","Chrome","138.0.0.0","Windows","10.0","https://app.prolific.com/","en-US,en;q=0.9","65fb13bebfa339f73b4cf76a","686d226cabeef709c732f8e1","686e3141b775df29d45e75f2","65fb13bebfa339f73b4cf76a","2025-07-09T09:16:32.675Z","","","","","","stress","{""Q01"":""5"",""Q02"":""0"",""Q03"":""4""}","[0,1,2]","[""Q01"",""Q02"",""Q03""]","[2538.4000000953674,6074.400000095367,8283.300000190735]","[]","[2538.4000000953674,4642.300000190735,6074.400000095367,8283.300000190735,8874.300000190735]","0.6666666666666666","0.5","0","","","","","","","","","","","","","","","","","","","","","","","","","","","","","",""
"125118","","","","instructions","20","439761","0.0-8.0-0.0","135","1","2025-07-09 09:09:02","7701e855f2ef39aa3fd6c71abdc6918a","197.248.117.175","Mozilla/5.0 (Windows NT 10.0; Win64; x64) AppleWebKit/537.36 (KHTML, like Gecko) Chrome/138.0.0.0 Safari/537.36","WebKit","Chrome","138.0.0.0","Windows","10.0","https://app.prolific.com/","en-US,en;q=0.9","65fb13bebfa339f73b4cf76a","686d226cabeef709c732f8e1","686e3141b775df29d45e75f2","65fb13bebfa339f73b4cf76a","","[{""page_index"":0,""viewing_time"":40566},{""page_index"":1,""viewing_time"":31664},{""page_index"":2,""viewing_time"":24968},{""page_index"":3,""viewing_time"":27920}]","","","","","","","","","","","","","","","","","","","","","","","","","","","","","","","","","","","","","","","","","","","",""
"","","","","ctl-task-cpt","21","459336","0.0-8.0-1.0","135","1","2025-07-09 09:09:02","7701e855f2ef39aa3fd6c71abdc6918a","197.248.117.175","Mozilla/5.0 (Windows NT 10.0; Win64; x64) AppleWebKit/537.36 (KHTML, like Gecko) Chrome/138.0.0.0 Safari/537.36","WebKit","Chrome","138.0.0.0","Windows","10.0","https://app.prolific.com/","en-US,en;q=0.9","65fb13bebfa339f73b4cf76a","686d226cabeef709c732f8e1","686e3141b775df29d45e75f2","65fb13bebfa339f73b4cf76a","","","","","","","","","","","","","","","","","win-only","0","g1:NW,g2:SE","1","0","1","443882.9","1895.9","5896.7","16568.6","2","4","4","6","1","-2","-4","0","0","0","4000.7","4000","-3005","[""left"",""up""]","{""num_key_presses"":3,""num_perfect"":1,""num_errors"":2,""num_randdir"":0,""num_randdir_good_moves"":0,""num_whilered"":0,""num_whileblue"":0,""num_blue"":0,""num_good_moves"":0}","[300.22232142857143,296.12857142857143,0.2,300.22232142857143,296.12857142857143,105.1,300.22232142857143,296.12857142857143,205.1,300.22232142857143,296.12857142857143,305.4,300.22232142857143,296.12857142857143,410.5,300.22232142857143,296.12857142857143,510.5,299.22232142857143,296.12857142857143,615.9,302.22232142857143,296.12857142857143,720.4,302.22232142857143,296.12857142857143,824.7,302.22232142857143,296.12857142857143,930.2,302.22232142857143,295.12857142857143,1036.1,302.22232142857143,295.12857142857143,1139.8,303.22232142857143,295.12857142857143,1239.8,305.22232142857143,294.12857142857143,1339.9,307.22232142857143,291.12857142857143,1444.8,307.22232142857143,291.12857142857143,1549.9,307.22232142857143,291.12857142857143,1650.4,308.22232142857143,291.12857142857143,1755.2,308.22232142857143,291.12857142857143,1860.3,308.22232142857143,291.12857142857143,1965.2,308.22232142857143,291.12857142857143,2065.6,308.22232142857143,291.12857142857143,2170.3,248.22232142857143,286.12857142857143,2275.2,237.22232142857143,265.12857142857143,2375.2,236.22232142857143,258.12857142857143,2475.6,217.22232142857143,244.12857142857143,2580.2,250.22232142857143,258.12857142857143,2688.6,165.22232142857143,212.12857142857143,2789.5,139.22232142857143,158.12857142857143,2889.7,211.22232142857143,206.12857142857143,2990,227.22232142857143,233.12857142857143,3090.2,228.22232142857143,232.12857142857143,3190.2,235.22232142857143,229.12857142857143,3294.6,233.22232142857143,227.12857142857143,3395.4,232.22232142857143,227.12857142857143,3500.3,232.22232142857143,227.12857142857143,3600.7,232.22232142857143,227.12857142857143,3700.7,232.22232142857143,227.12857142857143,3805.7,232.22232142857143,227.12857142857143,3910.5]","[1192.2,1192.2,1000,0,192.2,""smooth"",""right"",""right"",""bad_move"",2452.6,1260,2599.2,1192.6,-1339.2,""error"",""-"",""-"",""no_move"",3669.1,1216.2,3170.1,3454.2,-2955.2,""error"",""-"",""-"",""no_move""]","","",""
"11529","","","","instructions","22","470865","0.0-8.0-2.0","135","1","2025-07-09 09:09:02","7701e855f2ef39aa3fd6c71abdc6918a","197.248.117.175","Mozilla/5.0 (Windows NT 10.0; Win64; x64) AppleWebKit/537.36 (KHTML, like Gecko) Chrome/138.0.0.0 Safari/537.36","WebKit","Chrome","138.0.0.0","Windows","10.0","https://app.prolific.com/","en-US,en;q=0.9","65fb13bebfa339f73b4cf76a","686d226cabeef709c732f8e1","686e3141b775df29d45e75f2","65fb13bebfa339f73b4cf76a","","[{""page_index"":0,""viewing_time"":11528}]","","","","","","","","","","","","","","","","","","","","","","","","","","","","","","","","","","","","","","","","","","","",""
"","","","","ctl-task-cpt","23","530207","0.0-8.0-3.0","135","1","2025-07-09 09:09:02","7701e855f2ef39aa3fd6c71abdc6918a","197.248.117.175","Mozilla/5.0 (Windows NT 10.0; Win64; x64) AppleWebKit/537.36 (KHTML, like Gecko) Chrome/138.0.0.0 Safari/537.36","WebKit","Chrome","138.0.0.0","Windows","10.0","https://app.prolific.com/","en-US,en;q=0.9","65fb13bebfa339f73b4cf76a","686d226cabeef709c732f8e1","686e3141b775df29d45e75f2","65fb13bebfa339f73b4cf76a","","","","","","","","","","","","","","","","","win-only","0","g1:NW,g2:SE","0.35","0","3","474985.2","7393.3","11396","56326.5","2","4","8","6","1","-2","-14","0","0","0","4002.7","4000","-3010","[""left"",""up""]","{""num_key_presses"":22,""num_perfect"":2,""num_errors"":12,""num_randdir"":4,""num_randdir_good_moves"":1,""num_whilered"":4,""num_whileblue"":0,""num_blue"":1,""num_good_moves"":3}","[297.22232142857143,293.12857142857143,0.2,297.22232142857143,293.12857142857143,102.6,297.22232142857143,293.12857142857143,207.1,297.22232142857143,293.12857142857143,307.8,297.22232142857143,293.12857142857143,412.6,297.22232142857143,293.12857142857143,513.2,297.22232142857143,293.12857142857143,617.2,297.22232142857143,293.12857142857143,717.6,297.22232142857143,293.12857142857143,817.6,297.22232142857143,293.12857142857143,922.4,297.22232142857143,293.12857142857143,1022.6,297.22232142857143,293.12857142857143,1122.6,297.22232142857143,293.12857142857143,1223,297.22232142857143,293.12857142857143,1327.2,297.22232142857143,293.12857142857143,1433,297.22232142857143,293.12857142857143,1537.7,297.22232142857143,293.12857142857143,1642.4,297.22232142857143,293.12857142857143,1748.2,297.22232142857143,293.12857142857143,1852.4,297.22232142857143,293.12857142857143,1952.4,297.22232142857143,293.12857142857143,2052.5,297.22232142857143,293.12857142857143,2157.5,297.22232142857143,293.12857142857143,2258.8,297.22232142857143,293.12857142857143,2362.5,297.22232142857143,293.12857142857143,2462.6,297.22232142857143,293.12857142857143,2562.6,297.22232142857143,293.12857142857143,2663,297.22232142857143,293.12857142857143,2763.4,297.22232142857143,293.12857142857143,2867.1,297.22232142857143,293.12857142857143,2973.3,297.22232142857143,293.12857142857143,3077.4,297.22232142857143,293.12857142857143,3178.6,297.22232142857143,293.12857142857143,3282.4,297.22232142857143,293.12857142857143,3383,297.22232142857143,293.12857142857143,3483.1,297.22232142857143,293.12857142857143,3588.4,297.22232142857143,293.12857142857143,3688.8,297.22232142857143,293.12857142857143,3793.1,297.22232142857143,293.12857142857143,3898.8]","[299.3,299.3,1000,0,-700.7,""error"",""-"",""-"",""no_move"",1187.1,887.6,1000,0,187.1,""while_red"",""-"",""-"",""no_move"",2037.7,1738.2,2330,1301.3,-1593.6,""error"",""-"",""-"",""no_move"",2795,757,2330,1301.3,-836.3,""while_red"",""-"",""-"",""no_move"",6491.4,4453.4,2929.1,3039.7,522.6,""oops"",""left"",""right"",""bad_move"",7019.1,527.4,2709.5,6491.7,-2182.1,""error"",""-"",""-"",""no_move"",7613.3,594,2709.5,6491.7,-1587.9,""while_red"",""-"",""-"",""no_move"",11786.8,4767.5,2090.4,8024.8,1671.6,""oops"",""left"",""right"",""bad_move"",12242.9,455.9,2599.2,11787,-2143.3,""error"",""-"",""-"",""no_move"",14115.3,1872.3,2152.1,13244.8,-1281.6,""error"",""-"",""-"",""no_move"",18595.2,4479.6,2850.7,15119.9,624.6,""smooth"",""left"",""left"",""good_move"",19002.9,407.3,2774.8,18595.6,-2367.5,""error"",""-"",""-"",""no_move"",19291.1,288,2774.8,18595.6,-2079.3,""while_red"",""-"",""-"",""no_move"",20611.3,1608.2,2462.6,20004.7,-1856,""error"",""-"",""-"",""no_move"",22075.3,1463.9,2572.5,21614.8,-2112,""error"",""-"",""-"",""no_move"",25483.3,3407.9,2084.2,23080.2,318.9,""oops"",""left"",""up"",""good_move"",26356.6,873.1,2569.4,25483.5,-1696.3,""error"",""-"",""-"",""no_move"",28067.5,1710.8,2888.9,27360.3,-2181.7,""error"",""-"",""-"",""no_move"",35283.3,7215.6,2586.9,32305.8,390.6,""smooth"",""left"",""left"",""good_move"",35643.1,359.6,2396.9,35283.5,-2037.2,""error"",""-"",""-"",""no_move"",39810.7,4167.5,2694.5,36645.9,470.4,""oops"",""left"",""down"",""bad_move"",41571.2,1760.3,1779.1,39810.9,-18.8,""error"",""-"",""-"",""no_move""]","","",""
"30409","","","","instructions","24","560617","0.0-8.0-4.0","135","1","2025-07-09 09:09:02","7701e855f2ef39aa3fd6c71abdc6918a","197.248.117.175","Mozilla/5.0 (Windows NT 10.0; Win64; x64) AppleWebKit/537.36 (KHTML, like Gecko) Chrome/138.0.0.0 Safari/537.36","WebKit","Chrome","138.0.0.0","Windows","10.0","https://app.prolific.com/","en-US,en;q=0.9","65fb13bebfa339f73b4cf76a","686d226cabeef709c732f8e1","686e3141b775df29d45e75f2","65fb13bebfa339f73b4cf76a","","[{""page_index"":0,""viewing_time"":7074},{""page_index"":1,""viewing_time"":23335}]","","","","","","","","","","","","","","","","","","","","","","","","","","","","","","","","","","","","","","","","","","","",""
"18087","","","{""green_ball"":[""Ball always moves in the direction I press""]}","survey-multi-select","25","578706","0.0-8.0-5.0-0.0","135","1","2025-07-09 09:09:02","7701e855f2ef39aa3fd6c71abdc6918a","197.248.117.175","Mozilla/5.0 (Windows NT 10.0; Win64; x64) AppleWebKit/537.36 (KHTML, like Gecko) Chrome/138.0.0.0 Safari/537.36","WebKit","Chrome","138.0.0.0","Windows","10.0","https://app.prolific.com/","en-US,en;q=0.9","65fb13bebfa339f73b4cf76a","686d226cabeef709c732f8e1","686e3141b775df29d45e75f2","65fb13bebfa339f73b4cf76a","","","[0]","","","","quiz","","","","","","","","","","","","","","","","","","","","","","","","","","","","","","","","","","","","","false","",""
"5454","","<p align='center'><b>INCORRECT.</b> Usually the green ball moves in the indicated direction, but sometimes it shakes and moves randomly. </p>","0","html-button-response","26","584162","0.0-8.0-5.0-1.0","135","1","2025-07-09 09:09:02","7701e855f2ef39aa3fd6c71abdc6918a","197.248.117.175","Mozilla/5.0 (Windows NT 10.0; Win64; x64) AppleWebKit/537.36 (KHTML, like Gecko) Chrome/138.0.0.0 Safari/537.36","WebKit","Chrome","138.0.0.0","Windows","10.0","https://app.prolific.com/","en-US,en;q=0.9","65fb13bebfa339f73b4cf76a","686d226cabeef709c732f8e1","686e3141b775df29d45e75f2","65fb13bebfa339f73b4cf76a","","","","","","","","","","","","","","","","","","","","","","","","","","","","","","","","","","","","","","","","","","","","","",""
"6022","","","{""green_ball"":[""Ball sometimes shakes and moves in a random direction""]}","survey-multi-select","27","590186","0.0-8.0-5.1-0.1","135","1","2025-07-09 09:09:02","7701e855f2ef39aa3fd6c71abdc6918a","197.248.117.175","Mozilla/5.0 (Windows NT 10.0; Win64; x64) AppleWebKit/537.36 (KHTML, like Gecko) Chrome/138.0.0.0 Safari/537.36","WebKit","Chrome","138.0.0.0","Windows","10.0","https://app.prolific.com/","en-US,en;q=0.9","65fb13bebfa339f73b4cf76a","686d226cabeef709c732f8e1","686e3141b775df29d45e75f2","65fb13bebfa339f73b4cf76a","","","[0]","","","","quiz","","","","","","","","","","","","","","","","","","","","","","","","","","","","","","","","","","","","","true","",""
"2023","","<p align='center'><b>CORRECT!</b> Indeed, the green ball may sometimes shake and move in a random direction.</p>","0","html-button-response","28","592209","0.0-8.0-5.1-1.1","135","1","2025-07-09 09:09:02","7701e855f2ef39aa3fd6c71abdc6918a","197.248.117.175","Mozilla/5.0 (Windows NT 10.0; Win64; x64) AppleWebKit/537.36 (KHTML, like Gecko) Chrome/138.0.0.0 Safari/537.36","WebKit","Chrome","138.0.0.0","Windows","10.0","https://app.prolific.com/","en-US,en;q=0.9","65fb13bebfa339f73b4cf76a","686d226cabeef709c732f8e1","686e3141b775df29d45e75f2","65fb13bebfa339f73b4cf76a","","","","","","","","","","","","","","","","","","","","","","","","","","","","","","","","","","","","","","","","","","","","","",""
"14983","","","{""yellow_ball"":[""Ball doesn‘t move and I get -1 penalty point""]}","survey-multi-select","29","607194","0.0-8.0-6.0-0.0","135","1","2025-07-09 09:09:02","7701e855f2ef39aa3fd6c71abdc6918a","197.248.117.175","Mozilla/5.0 (Windows NT 10.0; Win64; x64) AppleWebKit/537.36 (KHTML, like Gecko) Chrome/138.0.0.0 Safari/537.36","WebKit","Chrome","138.0.0.0","Windows","10.0","https://app.prolific.com/","en-US,en;q=0.9","65fb13bebfa339f73b4cf76a","686d226cabeef709c732f8e1","686e3141b775df29d45e75f2","65fb13bebfa339f73b4cf76a","","","[0]","","","","quiz","","","","","","","","","","","","","","","","","","","","","","","","","","","","","","","","","","","","","true","",""
"1174","","<p align='center'><b>CORRECT!</b> Indeed, the yellow ball never moves and you receive a penalty.</p>","0","html-button-response","30","608370","0.0-8.0-6.0-1.0","135","1","2025-07-09 09:09:02","7701e855f2ef39aa3fd6c71abdc6918a","197.248.117.175","Mozilla/5.0 (Windows NT 10.0; Win64; x64) AppleWebKit/537.36 (KHTML, like Gecko) Chrome/138.0.0.0 Safari/537.36","WebKit","Chrome","138.0.0.0","Windows","10.0","https://app.prolific.com/","en-US,en;q=0.9","65fb13bebfa339f73b4cf76a","686d226cabeef709c732f8e1","686e3141b775df29d45e75f2","65fb13bebfa339f73b4cf76a","","","","","","","","","","","","","","","","","","","","","","","","","","","","","","","","","","","","","","","","","","","","","",""
"10295","","","{""blue_ball"":[""Ball always shakes and moves in a random direction""]}","survey-multi-select","31","618666","0.0-8.0-7.0-0.0","135","1","2025-07-09 09:09:02","7701e855f2ef39aa3fd6c71abdc6918a","197.248.117.175","Mozilla/5.0 (Windows NT 10.0; Win64; x64) AppleWebKit/537.36 (KHTML, like Gecko) Chrome/138.0.0.0 Safari/537.36","WebKit","Chrome","138.0.0.0","Windows","10.0","https://app.prolific.com/","en-US,en;q=0.9","65fb13bebfa339f73b4cf76a","686d226cabeef709c732f8e1","686e3141b775df29d45e75f2","65fb13bebfa339f73b4cf76a","","","[0]","","","","quiz","","","","","","","","","","","","","","","","","","","","","","","","","","","","","","","","","","","","","true","",""
"1023","","<p align='center'><b>CORRECT!</b> Indeed, the blue ball always shakes and moves in a random direction. Also there is a penalty of -1 point.</p>","0","html-button-response","32","619690","0.0-8.0-7.0-1.0","135","1","2025-07-09 09:09:02","7701e855f2ef39aa3fd6c71abdc6918a","197.248.117.175","Mozilla/5.0 (Windows NT 10.0; Win64; x64) AppleWebKit/537.36 (KHTML, like Gecko) Chrome/138.0.0.0 Safari/537.36","WebKit","Chrome","138.0.0.0","Windows","10.0","https://app.prolific.com/","en-US,en;q=0.9","65fb13bebfa339f73b4cf76a","686d226cabeef709c732f8e1","686e3141b775df29d45e75f2","65fb13bebfa339f73b4cf76a","","","","","","","","","","","","","","","","","","","","","","","","","","","","","","","","","","","","","","","","","","","","","",""
"17959","","","{""bonus"":[""When I reach 50% of points""]}","survey-multi-select","33","637650","0.0-8.0-8.0-0.0","135","1","2025-07-09 09:09:02","7701e855f2ef39aa3fd6c71abdc6918a","197.248.117.175","Mozilla/5.0 (Windows NT 10.0; Win64; x64) AppleWebKit/537.36 (KHTML, like Gecko) Chrome/138.0.0.0 Safari/537.36","WebKit","Chrome","138.0.0.0","Windows","10.0","https://app.prolific.com/","en-US,en;q=0.9","65fb13bebfa339f73b4cf76a","686d226cabeef709c732f8e1","686e3141b775df29d45e75f2","65fb13bebfa339f73b4cf76a","","","[0]","","","","quiz","","","","","","","","","","","","","","","","","","","","","","","","","","","","","","","","","","","","","true","",""
"878","","<p align='center'><b>CORRECT!</b> Indeed, you receive 2 pounds extra when you reach 50% of points.</p>","0","html-button-response","34","638529","0.0-8.0-8.0-1.0","135","1","2025-07-09 09:09:02","7701e855f2ef39aa3fd6c71abdc6918a","197.248.117.175","Mozilla/5.0 (Windows NT 10.0; Win64; x64) AppleWebKit/537.36 (KHTML, like Gecko) Chrome/138.0.0.0 Safari/537.36","WebKit","Chrome","138.0.0.0","Windows","10.0","https://app.prolific.com/","en-US,en;q=0.9","65fb13bebfa339f73b4cf76a","686d226cabeef709c732f8e1","686e3141b775df29d45e75f2","65fb13bebfa339f73b4cf76a","","","","","","","","","","","","","","","","","","","","","","","","","","","","","","","","","","","","","","","","","","","","","",""
"2640","","","","instructions","35","641170","0.0-8.0-9.0","135","1","2025-07-09 09:09:02","7701e855f2ef39aa3fd6c71abdc6918a","197.248.117.175","Mozilla/5.0 (Windows NT 10.0; Win64; x64) AppleWebKit/537.36 (KHTML, like Gecko) Chrome/138.0.0.0 Safari/537.36","WebKit","Chrome","138.0.0.0","Windows","10.0","https://app.prolific.com/","en-US,en;q=0.9","65fb13bebfa339f73b4cf76a","686d226cabeef709c732f8e1","686e3141b775df29d45e75f2","65fb13bebfa339f73b4cf76a","","[{""page_index"":0,""viewing_time"":2640}]","","","","","","","","","","","","","","","","","","","","","","","","","","","","","","","","","","","","","","","","","","","",""
"6719","","<p>Before you start with this game please answer the following three questions yourself. </p>
  <p>Through this game, we measure several aspects of your cognitive performance, such as reaction times, multi-tasking capabilities </p>
  <p>and the ability to assess the situation you are in.</p>
  <p></p>
  <p><b>How good do you usually are in such tasks?</b></p>","77","html-slider-response","36","647889","0.0-9.0-0.0","135","1","2025-07-09 09:09:02","7701e855f2ef39aa3fd6c71abdc6918a","197.248.117.175","Mozilla/5.0 (Windows NT 10.0; Win64; x64) AppleWebKit/537.36 (KHTML, like Gecko) Chrome/138.0.0.0 Safari/537.36","WebKit","Chrome","138.0.0.0","Windows","10.0","https://app.prolific.com/","en-US,en;q=0.9","65fb13bebfa339f73b4cf76a","686d226cabeef709c732f8e1","686e3141b775df29d45e75f2","65fb13bebfa339f73b4cf76a","2025-07-09T09:22:05.922Z","","","","","","PreSkillQ","","","","","","","","","","","","","","","","","","","","","","","","","","","","","","","","","","","","","","50",""
"3615","","<div style=""width:500px;"">
  <p>How well do you think you will perform in this task compared to other participants?</p>
  </div>","64","html-slider-response","37","651505","0.0-9.0-1.0","135","1","2025-07-09 09:09:02","7701e855f2ef39aa3fd6c71abdc6918a","197.248.117.175","Mozilla/5.0 (Windows NT 10.0; Win64; x64) AppleWebKit/537.36 (KHTML, like Gecko) Chrome/138.0.0.0 Safari/537.36","WebKit","Chrome","138.0.0.0","Windows","10.0","https://app.prolific.com/","en-US,en;q=0.9","65fb13bebfa339f73b4cf76a","686d226cabeef709c732f8e1","686e3141b775df29d45e75f2","65fb13bebfa339f73b4cf76a","2025-07-09T09:22:09.538Z","","","","","","PrePerfQ","","","","","","","","","","","","","","","","","","","","","","","","","","","","","","","","","","","","","","50",""
"4000","","<div style=""width:500px;"">
  <p>What best describes how you currently feel?</p>
  </div>","93","html-slider-response","38","655506","0.0-9.0-2.0","135","1","2025-07-09 09:09:02","7701e855f2ef39aa3fd6c71abdc6918a","197.248.117.175","Mozilla/5.0 (Windows NT 10.0; Win64; x64) AppleWebKit/537.36 (KHTML, like Gecko) Chrome/138.0.0.0 Safari/537.36","WebKit","Chrome","138.0.0.0","Windows","10.0","https://app.prolific.com/","en-US,en;q=0.9","65fb13bebfa339f73b4cf76a","686d226cabeef709c732f8e1","686e3141b775df29d45e75f2","65fb13bebfa339f73b4cf76a","2025-07-09T09:22:13.539Z","","","","","","PreMotivationQ","","","","","","","","","","","","","","","","","","","","","","","","","","","","","","","","","","","","","","50",""
"","","","","ctl-task-cpt","39","698272","0.0-10.0-0.0","135","1","2025-07-09 09:09:02","7701e855f2ef39aa3fd6c71abdc6918a","197.248.117.175","Mozilla/5.0 (Windows NT 10.0; Win64; x64) AppleWebKit/537.36 (KHTML, like Gecko) Chrome/138.0.0.0 Safari/537.36","WebKit","Chrome","138.0.0.0","Windows","10.0","https://app.prolific.com/","en-US,en;q=0.9","65fb13bebfa339f73b4cf76a","686d226cabeef709c732f8e1","686e3141b775df29d45e75f2","65fb13bebfa339f73b4cf76a","2025-07-09T09:22:56.305Z","","","","","","","","","","","","","","","","win-only","0","g1:NW,g2:SE","1","1","0","659626.6","4514.5","9516.1","39745.2","1","4","8","6","2","-8","-11","0","0","0","5001.6","3000","-3015","[""down"",""right""]","{""num_key_presses"":9,""num_perfect"":5,""num_errors"":3,""num_randdir"":0,""num_randdir_good_moves"":0,""num_whilered"":1,""num_whileblue"":0,""num_blue"":3,""num_good_moves"":4}","[298.22232142857143,298.12857142857143,0,298.22232142857143,298.12857142857143,101.3,298.22232142857143,298.12857142857143,205.9,298.22232142857143,298.12857142857143,306.6,298.22232142857143,298.12857142857143,411.3,298.22232142857143,298.12857142857143,515.6,298.22232142857143,298.12857142857143,616.4,298.22232142857143,298.12857142857143,721.5,298.22232142857143,298.12857142857143,825.6,298.22232142857143,298.12857142857143,926.2,298.22232142857143,298.12857142857143,1026.5,298.22232142857143,298.12857142857143,1126.6,298.22232142857143,298.12857142857143,1226.8,298.22232142857143,298.12857142857143,1330.9,298.22232142857143,298.12857142857143,1432.6,298.22232142857143,298.12857142857143,1536.3,298.22232142857143,298.12857142857143,1636.4,298.22232142857143,298.12857142857143,1741.1,298.22232142857143,298.12857142857143,1841.7,298.22232142857143,298.12857142857143,1945.7,298.22232142857143,298.12857142857143,2045.8,298.22232142857143,298.12857142857143,2146.1,298.22232142857143,298.12857142857143,2246.3,298.22232142857143,298.12857142857143,2350.6,298.22232142857143,298.12857142857143,2450.7,298.22232142857143,298.12857142857143,2551.7,298.22232142857143,298.12857142857143,2651.7,298.22232142857143,298.12857142857143,2756.9,298.22232142857143,298.12857142857143,2861.7,298.22232142857143,298.12857142857143,2967.4,298.22232142857143,298.12857142857143,3071.3,298.22232142857143,298.12857142857143,3176.4,298.22232142857143,298.12857142857143,3281.2,298.22232142857143,298.12857142857143,3381.3,298.22232142857143,298.12857142857143,3487,298.22232142857143,298.12857142857143,3591.1,298.22232142857143,298.12857142857143,3696.4,298.22232142857143,298.12857142857143,3801.6,298.22232142857143,298.12857142857143,3901.9,298.22232142857143,298.12857142857143,4006.6,298.22232142857143,298.12857142857143,4110.9,298.22232142857143,298.12857142857143,4211.4,298.22232142857143,298.12857142857143,4311.9,298.22232142857143,298.12857142857143,4412.2,298.22232142857143,298.12857142857143,4516,298.22232142857143,298.12857142857143,4617.6,298.22232142857143,298.12857142857143,4721.2,298.22232142857143,298.12857142857143,4826.5,298.22232142857143,298.12857142857143,4930.6]","[1402,1402,1000,0,402,""smooth"",""left"",""left"",""bad_move"",2289.7,887.3,2935.4,1402.4,-2048.1,""error"",""-"",""-"",""no_move"",10514.1,8224.3,3131.5,7034.9,347.7,""smooth"",""down"",""down"",""good_move"",10753.4,239,2686.3,10514.4,-2447.2,""error"",""-"",""-"",""no_move"",10953.6,200.1,2686.3,10514.4,-2247.1,""while_red"",""-"",""-"",""no_move"",17745.1,6991.6,2100.1,15154.3,490.7,""smooth"",""down"",""down"",""good_move"",18113.5,368.2,1968.1,17745.3,-1599.9,""error"",""-"",""-"",""no_move"",21065.5,2951.9,1427.2,19114.2,524.1,""smooth"",""down"",""down"",""good_move"",24577.2,3511.5,2372,21065.7,1139.5,""smooth"",""right"",""right"",""good_move""]","","",""
"8409","","<div style=""width:500px;"">
  <p>What determined the result of this run?</p>
  </div>","51","html-slider-response","40","706681","0.0-10.0-1.0","135","1","2025-07-09 09:09:02","7701e855f2ef39aa3fd6c71abdc6918a","197.248.117.175","Mozilla/5.0 (Windows NT 10.0; Win64; x64) AppleWebKit/537.36 (KHTML, like Gecko) Chrome/138.0.0.0 Safari/537.36","WebKit","Chrome","138.0.0.0","Windows","10.0","https://app.prolific.com/","en-US,en;q=0.9","65fb13bebfa339f73b4cf76a","686d226cabeef709c732f8e1","686e3141b775df29d45e75f2","65fb13bebfa339f73b4cf76a","2025-07-09T09:23:04.715Z","","","","","","AttribQ","","","","","","","","","","","","","","","","","","","","","","","","","","","","","","","","","","","","","","50",""
"6839","","<div style=""width:500px;"">
  <p>How much control did you have over the ball?</p>
  </div>","43","html-slider-response","41","713521","0.0-10.0-2.0","135","1","2025-07-09 09:09:02","7701e855f2ef39aa3fd6c71abdc6918a","197.248.117.175","Mozilla/5.0 (Windows NT 10.0; Win64; x64) AppleWebKit/537.36 (KHTML, like Gecko) Chrome/138.0.0.0 Safari/537.36","WebKit","Chrome","138.0.0.0","Windows","10.0","https://app.prolific.com/","en-US,en;q=0.9","65fb13bebfa339f73b4cf76a","686d226cabeef709c732f8e1","686e3141b775df29d45e75f2","65fb13bebfa339f73b4cf76a","2025-07-09T09:23:11.555Z","","","","","","ControlQ","","","","","","","","","","","","","","","","","","","","","","","","","","","","","","","","","","","","","","50",""
"5184","","<div style=""width:500px;"">
  <p>How would you describe your current emotional state?</p>
  </div>","51","html-slider-response","42","718706","0.0-10.0-3.0","135","1","2025-07-09 09:09:02","7701e855f2ef39aa3fd6c71abdc6918a","197.248.117.175","Mozilla/5.0 (Windows NT 10.0; Win64; x64) AppleWebKit/537.36 (KHTML, like Gecko) Chrome/138.0.0.0 Safari/537.36","WebKit","Chrome","138.0.0.0","Windows","10.0","https://app.prolific.com/","en-US,en;q=0.9","65fb13bebfa339f73b4cf76a","686d226cabeef709c732f8e1","686e3141b775df29d45e75f2","65fb13bebfa339f73b4cf76a","2025-07-09T09:23:16.739Z","","","","","","StressQ","","","","","","","","","","","","","","","","","","","","","","","","","","","","","","","","","","","","","","50",""
"7174","","<div style=""width:500px;"">
  <p>What best describes how you currently feel?</p>
  </div>","59","html-slider-response","43","725881","0.0-10.0-4.0","135","1","2025-07-09 09:09:02","7701e855f2ef39aa3fd6c71abdc6918a","197.248.117.175","Mozilla/5.0 (Windows NT 10.0; Win64; x64) AppleWebKit/537.36 (KHTML, like Gecko) Chrome/138.0.0.0 Safari/537.36","WebKit","Chrome","138.0.0.0","Windows","10.0","https://app.prolific.com/","en-US,en;q=0.9","65fb13bebfa339f73b4cf76a","686d226cabeef709c732f8e1","686e3141b775df29d45e75f2","65fb13bebfa339f73b4cf76a","2025-07-09T09:23:23.914Z","","","","","","MotivationQ","","","","","","","","","","","","","","","","","","","","","","","","","","","","","","","","","","","","","","50",""
"","","","","ctl-task-cpt","44","748703","0.0-10.0-0.1","135","1","2025-07-09 09:09:02","7701e855f2ef39aa3fd6c71abdc6918a","197.248.117.175","Mozilla/5.0 (Windows NT 10.0; Win64; x64) AppleWebKit/537.36 (KHTML, like Gecko) Chrome/138.0.0.0 Safari/537.36","WebKit","Chrome","138.0.0.0","Windows","10.0","https://app.prolific.com/","en-US,en;q=0.9","65fb13bebfa339f73b4cf76a","686d226cabeef709c732f8e1","686e3141b775df29d45e75f2","65fb13bebfa339f73b4cf76a","2025-07-09T09:23:46.736Z","","","","","","","","","","","","","","","","win-only","2","g1:SE,g2:NW","0.9","2","0","730001.6","2899.4","7901.1","19801.2","1","4","4","6","1","1","0","0","0","0","5001.7","3000","800","[""down"",""right""]","{""num_key_presses"":5,""num_perfect"":3,""num_errors"":1,""num_randdir"":1,""num_randdir_good_moves"":1,""num_whilered"":0,""num_whileblue"":0,""num_blue"":0,""num_good_moves"":4}","[293.22232142857143,294.12857142857143,0.2,293.22232142857143,294.12857142857143,101.1,293.22232142857143,294.12857142857143,201.5,293.22232142857143,294.12857142857143,301.8,293.22232142857143,294.12857142857143,402,293.22232142857143,292.12857142857143,502.5,293.22232142857143,292.12857142857143,603,293.22232142857143,292.12857142857143,703.1,293.22232142857143,292.12857142857143,803.9,293.22232142857143,292.12857142857143,904.4,293.22232142857143,292.12857142857143,1006.2,293.22232142857143,292.12857142857143,1111.8,293.22232142857143,292.12857142857143,1221.5,293.22232142857143,292.12857142857143,1321.8,293.22232142857143,292.12857142857143,1426.8,293.22232142857143,292.12857142857143,1531.2,293.22232142857143,292.12857142857143,1631.5,293.22232142857143,292.12857142857143,1740.4,293.22232142857143,292.12857142857143,1840.8,293.22232142857143,292.12857142857143,1941.7,293.22232142857143,292.12857142857143,2047,293.22232142857143,292.12857142857143,2147.8,293.22232142857143,292.12857142857143,2252.1,293.22232142857143,292.12857142857143,2359.5,293.22232142857143,292.12857142857143,2459.8,293.22232142857143,292.12857142857143,2561.7,293.22232142857143,292.12857142857143,2662,293.22232142857143,292.12857142857143,2762.1,293.22232142857143,292.12857142857143,2866.4,293.22232142857143,292.12857142857143,2966.5,293.22232142857143,292.12857142857143,3072.6,293.22232142857143,292.12857142857143,3178.6,293.22232142857143,292.12857142857143,3279.2,293.22232142857143,292.12857142857143,3379.4,293.22232142857143,292.12857142857143,3479.6,293.22232142857143,292.12857142857143,3579.9,293.22232142857143,292.12857142857143,3680.9,293.22232142857143,292.12857142857143,3786.8,293.22232142857143,292.12857142857143,3891.5,293.22232142857143,292.12857142857143,3998.2,293.22232142857143,292.12857142857143,4098.9,293.22232142857143,292.12857142857143,4199,293.22232142857143,292.12857142857143,4299.4,293.22232142857143,292.12857142857143,4399.4,293.22232142857143,292.12857142857143,4500.2,293.22232142857143,292.12857142857143,4600.6,293.22232142857143,292.12857142857143,4700.7,293.22232142857143,292.12857142857143,4807.7,293.22232142857143,292.12857142857143,4910.9]","[1938.8,1938.8,1000,0,938.8,""smooth"",""down"",""down"",""good_move"",2691.8,752.6,2695.3,1939.2,-1942.7,""error"",""-"",""-"",""no_move"",6465.1,3773.2,2274.8,3696.6,493.7,""smooth"",""down"",""down"",""good_move"",8873.7,2408.4,1781.8,6465.3,626.6,""smooth"",""right"",""right"",""good_move"",11807.2,2933.2,2503.3,8874,429.9,""oops"",""right"",""right"",""good_move""]","","",""
"5610","","<div style=""width:500px;"">
  <p>What determined the result of this run?</p>
  </div>","62","html-slider-response","45","754314","0.0-10.0-1.1","135","1","2025-07-09 09:09:02","7701e855f2ef39aa3fd6c71abdc6918a","197.248.117.175","Mozilla/5.0 (Windows NT 10.0; Win64; x64) AppleWebKit/537.36 (KHTML, like Gecko) Chrome/138.0.0.0 Safari/537.36","WebKit","Chrome","138.0.0.0","Windows","10.0","https://app.prolific.com/","en-US,en;q=0.9","65fb13bebfa339f73b4cf76a","686d226cabeef709c732f8e1","686e3141b775df29d45e75f2","65fb13bebfa339f73b4cf76a","2025-07-09T09:23:52.347Z","","","","","","AttribQ","","","","","","","","","","","","","","","","","","","","","","","","","","","","","","","","","","","","","","50",""
"2480","","<div style=""width:500px;"">
  <p>How much control did you have over the ball?</p>
  </div>","65","html-slider-response","46","756794","0.0-10.0-2.1","135","1","2025-07-09 09:09:02","7701e855f2ef39aa3fd6c71abdc6918a","197.248.117.175","Mozilla/5.0 (Windows NT 10.0; Win64; x64) AppleWebKit/537.36 (KHTML, like Gecko) Chrome/138.0.0.0 Safari/537.36","WebKit","Chrome","138.0.0.0","Windows","10.0","https://app.prolific.com/","en-US,en;q=0.9","65fb13bebfa339f73b4cf76a","686d226cabeef709c732f8e1","686e3141b775df29d45e75f2","65fb13bebfa339f73b4cf76a","2025-07-09T09:23:54.827Z","","","","","","ControlQ","","","","","","","","","","","","","","","","","","","","","","","","","","","","","","","","","","","","","","50",""
"3535","","<div style=""width:500px;"">
  <p>How would you describe your current emotional state?</p>
  </div>","74","html-slider-response","47","760330","0.0-10.0-3.1","135","1","2025-07-09 09:09:02","7701e855f2ef39aa3fd6c71abdc6918a","197.248.117.175","Mozilla/5.0 (Windows NT 10.0; Win64; x64) AppleWebKit/537.36 (KHTML, like Gecko) Chrome/138.0.0.0 Safari/537.36","WebKit","Chrome","138.0.0.0","Windows","10.0","https://app.prolific.com/","en-US,en;q=0.9","65fb13bebfa339f73b4cf76a","686d226cabeef709c732f8e1","686e3141b775df29d45e75f2","65fb13bebfa339f73b4cf76a","2025-07-09T09:23:58.363Z","","","","","","StressQ","","","","","","","","","","","","","","","","","","","","","","","","","","","","","","","","","","","","","","50",""
"2815","","<div style=""width:500px;"">
  <p>What best describes how you currently feel?</p>
  </div>","68","html-slider-response","48","763145","0.0-10.0-4.1","135","1","2025-07-09 09:09:02","7701e855f2ef39aa3fd6c71abdc6918a","197.248.117.175","Mozilla/5.0 (Windows NT 10.0; Win64; x64) AppleWebKit/537.36 (KHTML, like Gecko) Chrome/138.0.0.0 Safari/537.36","WebKit","Chrome","138.0.0.0","Windows","10.0","https://app.prolific.com/","en-US,en;q=0.9","65fb13bebfa339f73b4cf76a","686d226cabeef709c732f8e1","686e3141b775df29d45e75f2","65fb13bebfa339f73b4cf76a","2025-07-09T09:24:01.178Z","","","","","","MotivationQ","","","","","","","","","","","","","","","","","","","","","","","","","","","","","","","","","","","","","","50",""
"","","","","ctl-task-cpt","49","787022","0.0-10.0-0.2","135","1","2025-07-09 09:09:02","7701e855f2ef39aa3fd6c71abdc6918a","197.248.117.175","Mozilla/5.0 (Windows NT 10.0; Win64; x64) AppleWebKit/537.36 (KHTML, like Gecko) Chrome/138.0.0.0 Safari/537.36","WebKit","Chrome","138.0.0.0","Windows","10.0","https://app.prolific.com/","en-US,en;q=0.9","65fb13bebfa339f73b4cf76a","686d226cabeef709c732f8e1","686e3141b775df29d45e75f2","65fb13bebfa339f73b4cf76a","2025-07-09T09:24:25.055Z","","","","","","","","","","","","","","","","win-only","2","g1:SE,g2:NW","0.8","3","0","767265.5","2415.9","7416.9","20870.4","1","4","4","6","1","1","1","1","0","0.007575757575757576","5001","3000","1900","[""down"",""right""]","{""num_key_presses"":4,""num_perfect"":4,""num_errors"":0,""num_randdir"":0,""num_randdir_good_moves"":0,""num_whilered"":0,""num_whileblue"":0,""num_blue"":1,""num_good_moves"":4}","[301.22232142857143,295.12857142857143,0.2,301.22232142857143,295.12857142857143,100.9,301.22232142857143,295.12857142857143,205.3,301.22232142857143,295.12857142857143,310.6,300.22232142857143,295.12857142857143,418.3,300.22232142857143,295.12857142857143,519.3,300.22232142857143,295.12857142857143,620.6,300.22232142857143,295.12857142857143,724.6,300.22232142857143,295.12857142857143,825.8,300.22232142857143,295.12857142857143,930.5,300.22232142857143,295.12857142857143,1037.2,300.22232142857143,295.12857142857143,1137.8,300.22232142857143,295.12857142857143,1240.3,300.22232142857143,295.12857142857143,1341,300.22232142857143,295.12857142857143,1445.5,300.22232142857143,295.12857142857143,1555.5,300.22232142857143,295.12857142857143,1657.5,300.22232142857143,295.12857142857143,1759.9,300.22232142857143,295.12857142857143,1860.1,300.22232142857143,295.12857142857143,1960.1,300.22232142857143,295.12857142857143,2064.3,300.22232142857143,295.12857142857143,2164.7,300.22232142857143,295.12857142857143,2265,300.22232142857143,295.12857142857143,2374.7,300.22232142857143,295.12857142857143,2475.2,300.22232142857143,295.12857142857143,2575.8,300.22232142857143,295.12857142857143,2676.5,300.22232142857143,295.12857142857143,2776.7,299.22232142857143,296.12857142857143,2877.1,299.22232142857143,296.12857142857143,2977.3,299.22232142857143,296.12857142857143,3077.5,299.22232142857143,296.12857142857143,3177.7,299.22232142857143,296.12857142857143,3278.3,299.22232142857143,296.12857142857143,3378.4,299.22232142857143,296.12857142857143,3478.4,299.22232142857143,296.12857142857143,3578.9,299.22232142857143,296.12857142857143,3679.3,299.22232142857143,296.12857142857143,3779.6,299.22232142857143,296.12857142857143,3880.4,299.22232142857143,296.12857142857143,3981.6,299.22232142857143,296.12857142857143,4084.6,299.22232142857143,296.12857142857143,4184.9,299.22232142857143,296.12857142857143,4290.6,299.22232142857143,296.12857142857143,4398.3,299.22232142857143,296.12857142857143,4498.9,299.22232142857143,296.12857142857143,4599.5,299.22232142857143,296.12857142857143,4699.7,299.22232142857143,296.12857142857143,4804.4,299.22232142857143,296.12857142857143,4905]","[1069.6,1069.6,1000,0,69.6,""smooth"",""down"",""down"",""good_move"",4080.8,3011,2563,1069.8,448,""smooth"",""down"",""down"",""good_move"",6774,2693.1,2276.8,4080.9,416.3,""smooth"",""right"",""right"",""good_move"",13349.6,6575.4,2532.7,10494.4,322.5,""smooth"",""right"",""right"",""good_move""]","","",""
"2595","","<div style=""width:500px;"">
  <p>What determined the result of this run?</p>
  </div>","77","html-slider-response","50","789618","0.0-10.0-1.2","135","1","2025-07-09 09:09:02","7701e855f2ef39aa3fd6c71abdc6918a","197.248.117.175","Mozilla/5.0 (Windows NT 10.0; Win64; x64) AppleWebKit/537.36 (KHTML, like Gecko) Chrome/138.0.0.0 Safari/537.36","WebKit","Chrome","138.0.0.0","Windows","10.0","https://app.prolific.com/","en-US,en;q=0.9","65fb13bebfa339f73b4cf76a","686d226cabeef709c732f8e1","686e3141b775df29d45e75f2","65fb13bebfa339f73b4cf76a","2025-07-09T09:24:27.651Z","","","","","","AttribQ","","","","","","","","","","","","","","","","","","","","","","","","","","","","","","","","","","","","","","50",""
"1927","","<div style=""width:500px;"">
  <p>How much control did you have over the ball?</p>
  </div>","71","html-slider-response","51","791546","0.0-10.0-2.2","135","1","2025-07-09 09:09:02","7701e855f2ef39aa3fd6c71abdc6918a","197.248.117.175","Mozilla/5.0 (Windows NT 10.0; Win64; x64) AppleWebKit/537.36 (KHTML, like Gecko) Chrome/138.0.0.0 Safari/537.36","WebKit","Chrome","138.0.0.0","Windows","10.0","https://app.prolific.com/","en-US,en;q=0.9","65fb13bebfa339f73b4cf76a","686d226cabeef709c732f8e1","686e3141b775df29d45e75f2","65fb13bebfa339f73b4cf76a","2025-07-09T09:24:29.579Z","","","","","","ControlQ","","","","","","","","","","","","","","","","","","","","","","","","","","","","","","","","","","","","","","50",""
"1727","","<div style=""width:500px;"">
  <p>How would you describe your current emotional state?</p>
  </div>","79","html-slider-response","52","793274","0.0-10.0-3.2","135","1","2025-07-09 09:09:02","7701e855f2ef39aa3fd6c71abdc6918a","197.248.117.175","Mozilla/5.0 (Windows NT 10.0; Win64; x64) AppleWebKit/537.36 (KHTML, like Gecko) Chrome/138.0.0.0 Safari/537.36","WebKit","Chrome","138.0.0.0","Windows","10.0","https://app.prolific.com/","en-US,en;q=0.9","65fb13bebfa339f73b4cf76a","686d226cabeef709c732f8e1","686e3141b775df29d45e75f2","65fb13bebfa339f73b4cf76a","2025-07-09T09:24:31.307Z","","","","","","StressQ","","","","","","","","","","","","","","","","","","","","","","","","","","","","","","","","","","","","","","50",""
"1816","","<div style=""width:500px;"">
  <p>What best describes how you currently feel?</p>
  </div>","78","html-slider-response","53","795090","0.0-10.0-4.2","135","1","2025-07-09 09:09:02","7701e855f2ef39aa3fd6c71abdc6918a","197.248.117.175","Mozilla/5.0 (Windows NT 10.0; Win64; x64) AppleWebKit/537.36 (KHTML, like Gecko) Chrome/138.0.0.0 Safari/537.36","WebKit","Chrome","138.0.0.0","Windows","10.0","https://app.prolific.com/","en-US,en;q=0.9","65fb13bebfa339f73b4cf76a","686d226cabeef709c732f8e1","686e3141b775df29d45e75f2","65fb13bebfa339f73b4cf76a","2025-07-09T09:24:33.123Z","","","","","","MotivationQ","","","","","","","","","","","","","","","","","","","","","","","","","","","","","","","","","","","","","","50",""
"","","","","ctl-task-cpt","54","835761","0.0-10.0-0.3","135","1","2025-07-09 09:09:02","7701e855f2ef39aa3fd6c71abdc6918a","197.248.117.175","Mozilla/5.0 (Windows NT 10.0; Win64; x64) AppleWebKit/537.36 (KHTML, like Gecko) Chrome/138.0.0.0 Safari/537.36","WebKit","Chrome","138.0.0.0","Windows","10.0","https://app.prolific.com/","en-US,en;q=0.9","65fb13bebfa339f73b4cf76a","686d226cabeef709c732f8e1","686e3141b775df29d45e75f2","65fb13bebfa339f73b4cf76a","2025-07-09T09:25:13.794Z","","","","","","","","","","","","","","","","win-only","2","g1:SE,g2:NW","0.7","4","0","799210.6","5055.6","10057.8","37651.8","1","4","8","6","2","8","6","7","1","0.05303030303030303","5002.2","3000","75","[""left"",""up""]","{""num_key_presses"":9,""num_perfect"":5,""num_errors"":2,""num_randdir"":2,""num_randdir_good_moves"":1,""num_whilered"":0,""num_whileblue"":1,""num_blue"":2,""num_good_moves"":7}","[293.22232142857143,300.12857142857143,0.2,293.22232142857143,300.12857142857143,105.9,293.22232142857143,300.12857142857143,210.6,292.22232142857143,300.12857142857143,316.2,292.22232142857143,300.12857142857143,422.2,292.22232142857143,305.12857142857143,526,296.22232142857143,332.12857142857143,631.3,310.22232142857143,362.12857142857143,734.9,313.22232142857143,370.12857142857143,837.3,313.22232142857143,370.12857142857143,937.3,313.22232142857143,370.12857142857143,1040.9,313.22232142857143,370.12857142857143,1146,313.22232142857143,370.12857142857143,1250.8,313.22232142857143,370.12857142857143,1350.8,313.22232142857143,370.12857142857143,1450.8,313.22232142857143,370.12857142857143,1551.6,313.22232142857143,370.12857142857143,1654.7,313.22232142857143,370.12857142857143,1755.3,313.22232142857143,370.12857142857143,1855.6,313.22232142857143,370.12857142857143,1955.7,313.22232142857143,370.12857142857143,2055.9,313.22232142857143,370.12857142857143,2156.2,313.22232142857143,370.12857142857143,2260.3,313.22232142857143,370.12857142857143,2360.6,313.22232142857143,370.12857142857143,2461.6,313.22232142857143,370.12857142857143,2565,313.22232142857143,370.12857142857143,2665.7,313.22232142857143,370.12857142857143,2770.7,313.22232142857143,370.12857142857143,2875.3,313.22232142857143,370.12857142857143,2976.6,313.22232142857143,370.12857142857143,3077.3,313.22232142857143,370.12857142857143,3180.2,313.22232142857143,370.12857142857143,3280.5,313.22232142857143,370.12857142857143,3385.5,313.22232142857143,370.12857142857143,3486,313.22232142857143,370.12857142857143,3590.7,313.22232142857143,370.12857142857143,3690.7,313.22232142857143,370.12857142857143,3795.8,313.22232142857143,370.12857142857143,3897.4,313.22232142857143,370.12857142857143,4000.7,313.22232142857143,370.12857142857143,4104.7,313.22232142857143,370.12857142857143,4205.1,313.22232142857143,370.12857142857143,4305.1,313.22232142857143,370.12857142857143,4410.5,313.22232142857143,370.12857142857143,4510.6,313.22232142857143,370.12857142857143,4615.5,313.22232142857143,370.12857142857143,4715.5,313.22232142857143,370.12857142857143,4822.1,313.22232142857143,370.12857142857143,4923]","[1539.6,1539.6,1000,0,539.6,""smooth"",""up"",""up"",""good_move"",5124,3584.1,3138.3,1539.9,445.8,""smooth"",""up"",""up"",""good_move"",8067.8,2943.7,2510.4,5124.1,433.3,""oops"",""up"",""left"",""good_move"",12499.8,4431.8,2255.8,11628.6,-1384.6,""error"",""-"",""-"",""no_move"",15843.6,3343.7,1941.8,13503.7,398.1,""smooth"",""left"",""left"",""good_move"",18387.7,2543.9,2168.3,15843.8,375.6,""oops"",""left"",""right"",""bad_move"",21395.7,3007.7,2709.8,18388,297.9,""while_blue"",""left"",""up"",""good_move"",24500.9,3105,2801.8,21395.9,303.2,""smooth"",""left"",""left"",""good_move"",27499.9,2998.9,2525.6,24501,473.3,""smooth"",""left"",""left"",""good_move""]","","",""
"3648","","<div style=""width:500px;"">
  <p>What determined the result of this run?</p>
  </div>","73","html-slider-response","55","839410","0.0-10.0-1.3","135","1","2025-07-09 09:09:02","7701e855f2ef39aa3fd6c71abdc6918a","197.248.117.175","Mozilla/5.0 (Windows NT 10.0; Win64; x64) AppleWebKit/537.36 (KHTML, like Gecko) Chrome/138.0.0.0 Safari/537.36","WebKit","Chrome","138.0.0.0","Windows","10.0","https://app.prolific.com/","en-US,en;q=0.9","65fb13bebfa339f73b4cf76a","686d226cabeef709c732f8e1","686e3141b775df29d45e75f2","65fb13bebfa339f73b4cf76a","2025-07-09T09:25:17.443Z","","","","","","AttribQ","","","","","","","","","","","","","","","","","","","","","","","","","","","","","","","","","","","","","","50",""
"4679","","<div style=""width:500px;"">
  <p>How much control did you have over the ball?</p>
  </div>","73","html-slider-response","56","844090","0.0-10.0-2.3","135","1","2025-07-09 09:09:02","7701e855f2ef39aa3fd6c71abdc6918a","197.248.117.175","Mozilla/5.0 (Windows NT 10.0; Win64; x64) AppleWebKit/537.36 (KHTML, like Gecko) Chrome/138.0.0.0 Safari/537.36","WebKit","Chrome","138.0.0.0","Windows","10.0","https://app.prolific.com/","en-US,en;q=0.9","65fb13bebfa339f73b4cf76a","686d226cabeef709c732f8e1","686e3141b775df29d45e75f2","65fb13bebfa339f73b4cf76a","2025-07-09T09:25:22.123Z","","","","","","ControlQ","","","","","","","","","","","","","","","","","","","","","","","","","","","","","","","","","","","","","","50",""
"3143","","<div style=""width:500px;"">
  <p>How would you describe your current emotional state?</p>
  </div>","74","html-slider-response","57","847234","0.0-10.0-3.3","135","1","2025-07-09 09:09:02","7701e855f2ef39aa3fd6c71abdc6918a","197.248.117.175","Mozilla/5.0 (Windows NT 10.0; Win64; x64) AppleWebKit/537.36 (KHTML, like Gecko) Chrome/138.0.0.0 Safari/537.36","WebKit","Chrome","138.0.0.0","Windows","10.0","https://app.prolific.com/","en-US,en;q=0.9","65fb13bebfa339f73b4cf76a","686d226cabeef709c732f8e1","686e3141b775df29d45e75f2","65fb13bebfa339f73b4cf76a","2025-07-09T09:25:25.267Z","","","","","","StressQ","","","","","","","","","","","","","","","","","","","","","","","","","","","","","","","","","","","","","","50",""
"2144","","<div style=""width:500px;"">
  <p>What best describes how you currently feel?</p>
  </div>","73","html-slider-response","58","849378","0.0-10.0-4.3","135","1","2025-07-09 09:09:02","7701e855f2ef39aa3fd6c71abdc6918a","197.248.117.175","Mozilla/5.0 (Windows NT 10.0; Win64; x64) AppleWebKit/537.36 (KHTML, like Gecko) Chrome/138.0.0.0 Safari/537.36","WebKit","Chrome","138.0.0.0","Windows","10.0","https://app.prolific.com/","en-US,en;q=0.9","65fb13bebfa339f73b4cf76a","686d226cabeef709c732f8e1","686e3141b775df29d45e75f2","65fb13bebfa339f73b4cf76a","2025-07-09T09:25:27.411Z","","","","","","MotivationQ","","","","","","","","","","","","","","","","","","","","","","","","","","","","","","","","","","","","","","50",""
"","","","","ctl-task-cpt","59","884784","0.0-10.0-0.4","135","1","2025-07-09 09:09:02","7701e855f2ef39aa3fd6c71abdc6918a","197.248.117.175","Mozilla/5.0 (Windows NT 10.0; Win64; x64) AppleWebKit/537.36 (KHTML, like Gecko) Chrome/138.0.0.0 Safari/537.36","WebKit","Chrome","138.0.0.0","Windows","10.0","https://app.prolific.com/","en-US,en;q=0.9","65fb13bebfa339f73b4cf76a","686d226cabeef709c732f8e1","686e3141b775df29d45e75f2","65fb13bebfa339f73b4cf76a","2025-07-09T09:26:02.817Z","","","","","","","","","","","","","","","","win-only","3","g1:SW,g2:NE","0.6","5","0","853497.8","5487.7","10490.8","32386.9","1","4","4","6","2","-4","-4","3","7","0.022727272727272728","5003.1","3000","-3015","[""up"",""right""]","{""num_key_presses"":7,""num_perfect"":4,""num_errors"":0,""num_randdir"":3,""num_randdir_good_moves"":2,""num_whilered"":0,""num_whileblue"":0,""num_blue"":0,""num_good_moves"":6}","[298.22232142857143,297.12857142857143,0.2,298.22232142857143,297.12857142857143,103.5,298.22232142857143,297.12857142857143,203.6,298.22232142857143,297.12857142857143,308.4,298.22232142857143,297.12857142857143,412.4,298.22232142857143,297.12857142857143,512.5,298.22232142857143,299.12857142857143,618.2,298.22232142857143,300.12857142857143,718.4,298.22232142857143,301.12857142857143,822.5,298.22232142857143,303.12857142857143,923.3,298.22232142857143,305.12857142857143,1027.5,298.22232142857143,305.12857142857143,1127.7,298.22232142857143,305.12857142857143,1234.1,298.22232142857143,305.12857142857143,1334.3,298.22232142857143,305.12857142857143,1438.1,298.22232142857143,305.12857142857143,1543.3,298.22232142857143,305.12857142857143,1643.6,298.22232142857143,305.12857142857143,1747.6,298.22232142857143,305.12857142857143,1848.4,298.22232142857143,305.12857142857143,1949.3,298.22232142857143,305.12857142857143,2052.8,298.22232142857143,305.12857142857143,2152.8,298.22232142857143,305.12857142857143,2253.2,298.22232142857143,305.12857142857143,2358.2,298.22232142857143,305.12857142857143,2462.6,298.22232142857143,305.12857142857143,2564,298.22232142857143,305.12857142857143,2668.5,298.22232142857143,305.12857142857143,2772.8,298.22232142857143,305.12857142857143,2874.4,298.22232142857143,305.12857142857143,2978.4,300.22232142857143,306.12857142857143,3083.2,301.22232142857143,306.12857142857143,3188,302.22232142857143,306.12857142857143,3288.3,302.22232142857143,306.12857142857143,3389,302.22232142857143,306.12857142857143,3493.4,302.22232142857143,306.12857142857143,3598.5,302.22232142857143,306.12857142857143,3704.3,302.22232142857143,306.12857142857143,3808.1,302.22232142857143,306.12857142857143,3913.3,302.22232142857143,306.12857142857143,4018.7,302.22232142857143,306.12857142857143,4122.7,303.22232142857143,306.12857142857143,4223.1,303.22232142857143,306.12857142857143,4327.5,303.22232142857143,306.12857142857143,4427.8,303.22232142857143,306.12857142857143,4534,303.22232142857143,306.12857142857143,4637.8,303.22232142857143,306.12857142857143,4739.3,303.22232142857143,306.12857142857143,4842.7,303.22232142857143,306.12857142857143,4943.2]","[1043.6,1043.6,1000,0,43.6,""smooth"",""up"",""up"",""good_move"",4011.2,2967.3,2516.5,1043.9,450.8,""oops"",""up"",""right"",""good_move"",6851.7,2840.2,2406.2,4011.5,434,""smooth"",""up"",""up"",""good_move"",9627.2,2775.4,2043.4,6851.9,731.9,""oops"",""up"",""left"",""bad_move"",13243.2,3615.8,3162.8,9627.4,453,""oops"",""up"",""right"",""good_move"",16147.2,2903.8,2590.3,13243.4,313.5,""smooth"",""right"",""right"",""good_move"",18939.6,2792.2,2493.8,16147.4,298.4,""smooth"",""right"",""right"",""good_move""]","","",""
"2506","","<div style=""width:500px;"">
  <p>What determined the result of this run?</p>
  </div>","63","html-slider-response","60","887291","0.0-10.0-1.4","135","1","2025-07-09 09:09:02","7701e855f2ef39aa3fd6c71abdc6918a","197.248.117.175","Mozilla/5.0 (Windows NT 10.0; Win64; x64) AppleWebKit/537.36 (KHTML, like Gecko) Chrome/138.0.0.0 Safari/537.36","WebKit","Chrome","138.0.0.0","Windows","10.0","https://app.prolific.com/","en-US,en;q=0.9","65fb13bebfa339f73b4cf76a","686d226cabeef709c732f8e1","686e3141b775df29d45e75f2","65fb13bebfa339f73b4cf76a","2025-07-09T09:26:05.324Z","","","","","","AttribQ","","","","","","","","","","","","","","","","","","","","","","","","","","","","","","","","","","","","","","50",""
"1495","","<div style=""width:500px;"">
  <p>How much control did you have over the ball?</p>
  </div>","67","html-slider-response","61","888786","0.0-10.0-2.4","135","1","2025-07-09 09:09:02","7701e855f2ef39aa3fd6c71abdc6918a","197.248.117.175","Mozilla/5.0 (Windows NT 10.0; Win64; x64) AppleWebKit/537.36 (KHTML, like Gecko) Chrome/138.0.0.0 Safari/537.36","WebKit","Chrome","138.0.0.0","Windows","10.0","https://app.prolific.com/","en-US,en;q=0.9","65fb13bebfa339f73b4cf76a","686d226cabeef709c732f8e1","686e3141b775df29d45e75f2","65fb13bebfa339f73b4cf76a","2025-07-09T09:26:06.819Z","","","","","","ControlQ","","","","","","","","","","","","","","","","","","","","","","","","","","","","","","","","","","","","","","50",""
"1767","","<div style=""width:500px;"">
  <p>How would you describe your current emotional state?</p>
  </div>","66","html-slider-response","62","890554","0.0-10.0-3.4","135","1","2025-07-09 09:09:02","7701e855f2ef39aa3fd6c71abdc6918a","197.248.117.175","Mozilla/5.0 (Windows NT 10.0; Win64; x64) AppleWebKit/537.36 (KHTML, like Gecko) Chrome/138.0.0.0 Safari/537.36","WebKit","Chrome","138.0.0.0","Windows","10.0","https://app.prolific.com/","en-US,en;q=0.9","65fb13bebfa339f73b4cf76a","686d226cabeef709c732f8e1","686e3141b775df29d45e75f2","65fb13bebfa339f73b4cf76a","2025-07-09T09:26:08.587Z","","","","","","StressQ","","","","","","","","","","","","","","","","","","","","","","","","","","","","","","","","","","","","","","50",""
"1695","","<div style=""width:500px;"">
  <p>What best describes how you currently feel?</p>
  </div>","71","html-slider-response","63","892250","0.0-10.0-4.4","135","1","2025-07-09 09:09:02","7701e855f2ef39aa3fd6c71abdc6918a","197.248.117.175","Mozilla/5.0 (Windows NT 10.0; Win64; x64) AppleWebKit/537.36 (KHTML, like Gecko) Chrome/138.0.0.0 Safari/537.36","WebKit","Chrome","138.0.0.0","Windows","10.0","https://app.prolific.com/","en-US,en;q=0.9","65fb13bebfa339f73b4cf76a","686d226cabeef709c732f8e1","686e3141b775df29d45e75f2","65fb13bebfa339f73b4cf76a","2025-07-09T09:26:10.283Z","","","","","","MotivationQ","","","","","","","","","","","","","","","","","","","","","","","","","","","","","","","","","","","","","","50",""
"","","","","ctl-task-cpt","64","933329","0.0-10.0-0.5","135","1","2025-07-09 09:09:02","7701e855f2ef39aa3fd6c71abdc6918a","197.248.117.175","Mozilla/5.0 (Windows NT 10.0; Win64; x64) AppleWebKit/537.36 (KHTML, like Gecko) Chrome/138.0.0.0 Safari/537.36","WebKit","Chrome","138.0.0.0","Windows","10.0","https://app.prolific.com/","en-US,en;q=0.9","65fb13bebfa339f73b4cf76a","686d226cabeef709c732f8e1","686e3141b775df29d45e75f2","65fb13bebfa339f73b4cf76a","2025-07-09T09:26:51.362Z","","","","","","","","","","","","","","","","win-only","1","g1:NE,g2:SW","0.5","6","0","896369.4","1351.9","6355.5","38061.2","1","4","8","6","1","-1","-2","1","3","0.007575757575757576","5003.6","3000","-3010","[""up"",""right""]","{""num_key_presses"":10,""num_perfect"":4,""num_errors"":1,""num_randdir"":5,""num_randdir_good_moves"":2,""num_whilered"":0,""num_whileblue"":1,""num_blue"":1,""num_good_moves"":6}","[296.22232142857143,289.12857142857143,0.2,296.22232142857143,289.12857142857143,105.3,295.22232142857143,288.12857142857143,208.8,295.22232142857143,288.12857142857143,309.2,295.22232142857143,288.12857142857143,409.6,295.22232142857143,288.12857142857143,510.5,295.22232142857143,288.12857142857143,614.3,309.22232142857143,292.12857142857143,719.2,312.22232142857143,292.12857142857143,819.6,313.22232142857143,293.12857142857143,924.2,313.22232142857143,293.12857142857143,1024.9,314.22232142857143,293.12857142857143,1131.3,314.22232142857143,293.12857142857143,1234.8,314.22232142857143,293.12857142857143,1335,314.22232142857143,293.12857142857143,1438.2,314.22232142857143,293.12857142857143,1539.2,314.22232142857143,293.12857142857143,1645.1,314.22232142857143,293.12857142857143,1745.1,314.22232142857143,293.12857142857143,1848.8,314.22232142857143,293.12857142857143,1949.8,320.22232142857143,289.12857142857143,2052.9,329.22232142857143,282.12857142857143,2154.9,338.22232142857143,277.12857142857143,2254.9,341.22232142857143,274.12857142857143,2364.9,342.22232142857143,273.12857142857143,2469.4,342.22232142857143,273.12857142857143,2574.6,342.22232142857143,273.12857142857143,2680.1,342.22232142857143,272.12857142857143,2784.2,342.22232142857143,272.12857142857143,2884.6,342.22232142857143,272.12857142857143,2984.7,342.22232142857143,272.12857142857143,3085.3,342.22232142857143,272.12857142857143,3189.2,342.22232142857143,272.12857142857143,3293.8,342.22232142857143,272.12857142857143,3394.7,342.22232142857143,272.12857142857143,3498.5,342.22232142857143,272.12857142857143,3599.2,342.22232142857143,272.12857142857143,3704.3,342.22232142857143,272.12857142857143,3809.6,342.22232142857143,272.12857142857143,3915.2,342.22232142857143,272.12857142857143,4019.2,342.22232142857143,272.12857142857143,4124.9,342.22232142857143,272.12857142857143,4228.8,342.22232142857143,272.12857142857143,4329.5,342.22232142857143,272.12857142857143,4434.7,342.22232142857143,272.12857142857143,4540.2,342.22232142857143,272.12857142857143,4643.6,342.22232142857143,272.12857142857143,4748.7,342.22232142857143,272.12857142857143,4848.8,342.22232142857143,272.12857142857143,4949.1]","[1251,1251,1000,0,251,""oops"",""up"",""right"",""good_move"",3579.5,2328.1,1910.1,1251.4,418,""smooth"",""right"",""right"",""good_move"",6651.3,3071.7,2686.3,3579.6,385.4,""oops"",""up"",""left"",""bad_move"",9915,3263.5,2863.6,6651.5,399.9,""smooth"",""up"",""up"",""good_move"",13451,3535.8,3211.2,9915.2,324.6,""smooth"",""up"",""up"",""good_move"",15875.1,2424.1,2104,13451.1,320.1,""while_blue"",""right"",""left"",""bad_move"",18906.9,3031.3,2706.1,15875.6,325.2,""oops"",""right"",""right"",""good_move"",22523.1,3616,3293.9,18907.1,322.1,""oops"",""right"",""down"",""bad_move"",25531.5,3008.2,2720.5,22523.3,287.7,""smooth"",""up"",""up"",""good_move"",28818.9,3287.3,2992.2,25531.6,295.1,""oops"",""right"",""down"",""bad_move""]","","",""
"4400","","<div style=""width:500px;"">
  <p>What determined the result of this run?</p>
  </div>","46","html-slider-response","65","937730","0.0-10.0-1.5","135","1","2025-07-09 09:09:02","7701e855f2ef39aa3fd6c71abdc6918a","197.248.117.175","Mozilla/5.0 (Windows NT 10.0; Win64; x64) AppleWebKit/537.36 (KHTML, like Gecko) Chrome/138.0.0.0 Safari/537.36","WebKit","Chrome","138.0.0.0","Windows","10.0","https://app.prolific.com/","en-US,en;q=0.9","65fb13bebfa339f73b4cf76a","686d226cabeef709c732f8e1","686e3141b775df29d45e75f2","65fb13bebfa339f73b4cf76a","2025-07-09T09:26:55.763Z","","","","","","AttribQ","","","","","","","","","","","","","","","","","","","","","","","","","","","","","","","","","","","","","","50",""
"3672","","<div style=""width:500px;"">
  <p>How much control did you have over the ball?</p>
  </div>","36","html-slider-response","66","941402","0.0-10.0-2.5","135","1","2025-07-09 09:09:02","7701e855f2ef39aa3fd6c71abdc6918a","197.248.117.175","Mozilla/5.0 (Windows NT 10.0; Win64; x64) AppleWebKit/537.36 (KHTML, like Gecko) Chrome/138.0.0.0 Safari/537.36","WebKit","Chrome","138.0.0.0","Windows","10.0","https://app.prolific.com/","en-US,en;q=0.9","65fb13bebfa339f73b4cf76a","686d226cabeef709c732f8e1","686e3141b775df29d45e75f2","65fb13bebfa339f73b4cf76a","2025-07-09T09:26:59.435Z","","","","","","ControlQ","","","","","","","","","","","","","","","","","","","","","","","","","","","","","","","","","","","","","","50",""
"2447","","<div style=""width:500px;"">
  <p>How would you describe your current emotional state?</p>
  </div>","61","html-slider-response","67","943850","0.0-10.0-3.5","135","1","2025-07-09 09:09:02","7701e855f2ef39aa3fd6c71abdc6918a","197.248.117.175","Mozilla/5.0 (Windows NT 10.0; Win64; x64) AppleWebKit/537.36 (KHTML, like Gecko) Chrome/138.0.0.0 Safari/537.36","WebKit","Chrome","138.0.0.0","Windows","10.0","https://app.prolific.com/","en-US,en;q=0.9","65fb13bebfa339f73b4cf76a","686d226cabeef709c732f8e1","686e3141b775df29d45e75f2","65fb13bebfa339f73b4cf76a","2025-07-09T09:27:01.883Z","","","","","","StressQ","","","","","","","","","","","","","","","","","","","","","","","","","","","","","","","","","","","","","","50",""
"2983","","<div style=""width:500px;"">
  <p>What best describes how you currently feel?</p>
  </div>","44","html-slider-response","68","946834","0.0-10.0-4.5","135","1","2025-07-09 09:09:02","7701e855f2ef39aa3fd6c71abdc6918a","197.248.117.175","Mozilla/5.0 (Windows NT 10.0; Win64; x64) AppleWebKit/537.36 (KHTML, like Gecko) Chrome/138.0.0.0 Safari/537.36","WebKit","Chrome","138.0.0.0","Windows","10.0","https://app.prolific.com/","en-US,en;q=0.9","65fb13bebfa339f73b4cf76a","686d226cabeef709c732f8e1","686e3141b775df29d45e75f2","65fb13bebfa339f73b4cf76a","2025-07-09T09:27:04.867Z","","","","","","MotivationQ","","","","","","","","","","","","","","","","","","","","","","","","","","","","","","","","","","","","","","50",""
"","","","","ctl-task-cpt","69","996778","0.0-10.0-0.6","135","1","2025-07-09 09:09:02","7701e855f2ef39aa3fd6c71abdc6918a","197.248.117.175","Mozilla/5.0 (Windows NT 10.0; Win64; x64) AppleWebKit/537.36 (KHTML, like Gecko) Chrome/138.0.0.0 Safari/537.36","WebKit","Chrome","138.0.0.0","Windows","10.0","https://app.prolific.com/","en-US,en;q=0.9","65fb13bebfa339f73b4cf76a","686d226cabeef709c732f8e1","686e3141b775df29d45e75f2","65fb13bebfa339f73b4cf76a","2025-07-09T09:27:54.811Z","","","","","","","","","","","","","","","","win-only","2","g1:SE,g2:NW","0.4","7","0","950953.4","1266.8","6271.2","46925.8","1","4","8","6","1","-1","-5","0","1","0","5004.4","3000","-3005","[""down"",""right""]","{""num_key_presses"":10,""num_perfect"":1,""num_errors"":4,""num_randdir"":5,""num_randdir_good_moves"":0,""num_whilered"":0,""num_whileblue"":3,""num_blue"":6,""num_good_moves"":3}","[302.22232142857143,297.12857142857143,0.2,302.22232142857143,297.12857142857143,105,300.22232142857143,296.12857142857143,209.7,300.22232142857143,295.12857142857143,313.9,300.22232142857143,295.12857142857143,419.9,300.22232142857143,295.12857142857143,521.4,300.22232142857143,295.12857142857143,623.8,300.22232142857143,295.12857142857143,724.5,300.22232142857143,295.12857142857143,828.8,300.22232142857143,295.12857142857143,934.3,300.22232142857143,295.12857142857143,1034.5,300.22232142857143,295.12857142857143,1134.6,300.22232142857143,295.12857142857143,1238.9,300.22232142857143,295.12857142857143,1341.8,300.22232142857143,295.12857142857143,1444.3,300.22232142857143,295.12857142857143,1548.6,300.22232142857143,295.12857142857143,1648.8,300.22232142857143,295.12857142857143,1749.1,300.22232142857143,295.12857142857143,1854.1,300.22232142857143,295.12857142857143,1954.2,300.22232142857143,295.12857142857143,2054.9,300.22232142857143,295.12857142857143,2160.2,300.22232142857143,295.12857142857143,2264.6,300.22232142857143,295.12857142857143,2369.1,300.22232142857143,295.12857142857143,2469.5,300.22232142857143,295.12857142857143,2575.9,300.22232142857143,295.12857142857143,2679.8,300.22232142857143,295.12857142857143,2783.3,300.22232142857143,295.12857142857143,2883.9,300.22232142857143,295.12857142857143,2984,300.22232142857143,295.12857142857143,3084.5,300.22232142857143,295.12857142857143,3188.8,300.22232142857143,295.12857142857143,3290.1,300.22232142857143,295.12857142857143,3393.7,300.22232142857143,295.12857142857143,3493.7,300.22232142857143,295.12857142857143,3599.7,300.22232142857143,295.12857142857143,3704.6,300.22232142857143,295.12857142857143,3809.6,300.22232142857143,295.12857142857143,3910.6,300.22232142857143,295.12857142857143,4015.4,300.22232142857143,295.12857142857143,4119.1,300.22232142857143,295.12857142857143,4219.4,300.22232142857143,295.12857142857143,4324,300.22232142857143,295.12857142857143,4424.9,300.22232142857143,295.12857142857143,4530.1,300.22232142857143,295.12857142857143,4635.8,300.22232142857143,295.12857142857143,4738.8,300.22232142857143,295.12857142857143,4838.9,300.22232142857143,295.12857142857143,4944.6]","[1050,1050,1001.7,0,48.3,""while_blue"",""right"",""up"",""bad_move"",4159.6,3109.4,2717.1,1050.2,392.3,""oops"",""down"",""left"",""bad_move"",10175.1,6015.4,2159.1,7649.8,366.3,""oops"",""down"",""left"",""bad_move"",13719.1,3543.7,2802.2,10175.4,741.5,""smooth"",""down"",""down"",""good_move"",15984.1,2264.7,1885.8,13719.4,378.9,""oops"",""down"",""up"",""bad_move"",19766,3781.5,3434.6,15984.5,346.9,""while_blue"",""down"",""down"",""good_move"",25815.5,6049.4,2618.2,22861.3,336,""while_blue"",""down"",""right"",""good_move"",28823.4,3007.8,2645.2,25815.6,362.6,""oops"",""down"",""left"",""bad_move"",34279.1,5455.4,1815.7,32079.3,384.1,""oops"",""down"",""left"",""bad_move"",36879.4,2600.1,3201.6,34279.3,-601.5,""error"",""-"",""-"",""no_move""]","","",""
"6903","","<div style=""width:500px;"">
  <p>What determined the result of this run?</p>
  </div>","10","html-slider-response","70","1003682","0.0-10.0-1.6","135","1","2025-07-09 09:09:02","7701e855f2ef39aa3fd6c71abdc6918a","197.248.117.175","Mozilla/5.0 (Windows NT 10.0; Win64; x64) AppleWebKit/537.36 (KHTML, like Gecko) Chrome/138.0.0.0 Safari/537.36","WebKit","Chrome","138.0.0.0","Windows","10.0","https://app.prolific.com/","en-US,en;q=0.9","65fb13bebfa339f73b4cf76a","686d226cabeef709c732f8e1","686e3141b775df29d45e75f2","65fb13bebfa339f73b4cf76a","2025-07-09T09:28:01.715Z","","","","","","AttribQ","","","","","","","","","","","","","","","","","","","","","","","","","","","","","","","","","","","","","","50",""
"2983","","<div style=""width:500px;"">
  <p>How much control did you have over the ball?</p>
  </div>","7","html-slider-response","71","1006666","0.0-10.0-2.6","135","1","2025-07-09 09:09:02","7701e855f2ef39aa3fd6c71abdc6918a","197.248.117.175","Mozilla/5.0 (Windows NT 10.0; Win64; x64) AppleWebKit/537.36 (KHTML, like Gecko) Chrome/138.0.0.0 Safari/537.36","WebKit","Chrome","138.0.0.0","Windows","10.0","https://app.prolific.com/","en-US,en;q=0.9","65fb13bebfa339f73b4cf76a","686d226cabeef709c732f8e1","686e3141b775df29d45e75f2","65fb13bebfa339f73b4cf76a","2025-07-09T09:28:04.699Z","","","","","","ControlQ","","","","","","","","","","","","","","","","","","","","","","","","","","","","","","","","","","","","","","50",""
"4559","","<div style=""width:500px;"">
  <p>How would you describe your current emotional state?</p>
  </div>","73","html-slider-response","72","1011226","0.0-10.0-3.6","135","1","2025-07-09 09:09:02","7701e855f2ef39aa3fd6c71abdc6918a","197.248.117.175","Mozilla/5.0 (Windows NT 10.0; Win64; x64) AppleWebKit/537.36 (KHTML, like Gecko) Chrome/138.0.0.0 Safari/537.36","WebKit","Chrome","138.0.0.0","Windows","10.0","https://app.prolific.com/","en-US,en;q=0.9","65fb13bebfa339f73b4cf76a","686d226cabeef709c732f8e1","686e3141b775df29d45e75f2","65fb13bebfa339f73b4cf76a","2025-07-09T09:28:09.259Z","","","","","","StressQ","","","","","","","","","","","","","","","","","","","","","","","","","","","","","","","","","","","","","","50",""
"3575","","<div style=""width:500px;"">
  <p>What best describes how you currently feel?</p>
  </div>","38","html-slider-response","73","1014802","0.0-10.0-4.6","135","1","2025-07-09 09:09:02","7701e855f2ef39aa3fd6c71abdc6918a","197.248.117.175","Mozilla/5.0 (Windows NT 10.0; Win64; x64) AppleWebKit/537.36 (KHTML, like Gecko) Chrome/138.0.0.0 Safari/537.36","WebKit","Chrome","138.0.0.0","Windows","10.0","https://app.prolific.com/","en-US,en;q=0.9","65fb13bebfa339f73b4cf76a","686d226cabeef709c732f8e1","686e3141b775df29d45e75f2","65fb13bebfa339f73b4cf76a","2025-07-09T09:28:12.835Z","","","","","","MotivationQ","","","","","","","","","","","","","","","","","","","","","","","","","","","","","","","","","","","","","","50",""
"","","","","ctl-task-cpt","74","1055515","0.0-10.0-0.7","135","1","2025-07-09 09:09:02","7701e855f2ef39aa3fd6c71abdc6918a","197.248.117.175","Mozilla/5.0 (Windows NT 10.0; Win64; x64) AppleWebKit/537.36 (KHTML, like Gecko) Chrome/138.0.0.0 Safari/537.36","WebKit","Chrome","138.0.0.0","Windows","10.0","https://app.prolific.com/","en-US,en;q=0.9","65fb13bebfa339f73b4cf76a","686d226cabeef709c732f8e1","686e3141b775df29d45e75f2","65fb13bebfa339f73b4cf76a","2025-07-09T09:28:53.548Z","","","","","","","","","","","","","","","","win-only","0","g1:NW,g2:SE","0.3","8","0","1018921.5","1823.9","6826.1","37695.7","1","4","4","6","1","1","1","1","0","0.007575757575757576","5002.2","3000","575","[""left"",""up""]","{""num_key_presses"":8,""num_perfect"":3,""num_errors"":0,""num_randdir"":5,""num_randdir_good_moves"":3,""num_whilered"":0,""num_whileblue"":0,""num_blue"":2,""num_good_moves"":6}","[302.22232142857143,293.12857142857143,0.2,302.22232142857143,293.12857142857143,101.5,302.22232142857143,293.12857142857143,201.6,302.22232142857143,293.12857142857143,302.1,302.22232142857143,293.12857142857143,407.3,302.22232142857143,293.12857142857143,507.5,302.22232142857143,293.12857142857143,612.7,301.22232142857143,295.12857142857143,719.3,301.22232142857143,295.12857142857143,822.4,301.22232142857143,295.12857142857143,923,301.22232142857143,295.12857142857143,1027.2,301.22232142857143,295.12857142857143,1132.3,301.22232142857143,295.12857142857143,1232.3,301.22232142857143,295.12857142857143,1333,301.22232142857143,295.12857142857143,1437.3,300.22232142857143,296.12857142857143,1541.5,300.22232142857143,296.12857142857143,1643.8,300.22232142857143,296.12857142857143,1747.5,300.22232142857143,296.12857142857143,1852.1,300.22232142857143,296.12857142857143,1952.9,300.22232142857143,296.12857142857143,2057.3,300.22232142857143,296.12857142857143,2158.6,300.22232142857143,296.12857142857143,2262.3,300.22232142857143,296.12857142857143,2363.2,300.22232142857143,296.12857142857143,2467,300.22232142857143,296.12857142857143,2568.3,300.22232142857143,296.12857142857143,2672.7,300.22232142857143,296.12857142857143,2773.9,300.22232142857143,296.12857142857143,2878.2,300.22232142857143,296.12857142857143,2981.7,300.22232142857143,296.12857142857143,3082.6,300.22232142857143,296.12857142857143,3188.7,300.22232142857143,296.12857142857143,3291.9,300.22232142857143,296.12857142857143,3397.5,300.22232142857143,296.12857142857143,3503,300.22232142857143,296.12857142857143,3608.3,300.22232142857143,296.12857142857143,3714.4,300.22232142857143,296.12857142857143,3817.4,300.22232142857143,296.12857142857143,3917.5,300.22232142857143,296.12857142857143,4017.8,300.22232142857143,296.12857142857143,4122.9,300.22232142857143,296.12857142857143,4227.4,300.22232142857143,296.12857142857143,4333,299.22232142857143,296.12857142857143,4438,299.22232142857143,296.12857142857143,4542.1,299.22232142857143,296.12857142857143,4646.7,299.22232142857143,296.12857142857143,4747.3,299.22232142857143,296.12857142857143,4847.3,299.22232142857143,296.12857142857143,4952.2]","[1044.2,1044.2,1000,0,44.2,""oops"",""up"",""up"",""good_move"",10676.2,9631.7,1745.9,8570.5,359.8,""smooth"",""left"",""left"",""good_move"",14148.2,3471.8,3081.4,10676.4,390.4,""oops"",""left"",""right"",""bad_move"",17220.2,3071.9,2729.8,14148.3,342.1,""smooth"",""left"",""left"",""good_move"",20749.8,3529.4,3190.5,17220.4,338.9,""smooth"",""left"",""left"",""good_move"",23972.1,3222.1,2891.1,20750,331,""oops"",""up"",""down"",""bad_move"",27645.9,3673.5,3349.9,23972.4,323.6,""oops"",""up"",""up"",""good_move"",30780.6,3134.4,2787.4,27646.2,347,""oops"",""up"",""up"",""good_move""]","","",""
"3614","","<div style=""width:500px;"">
  <p>What determined the result of this run?</p>
  </div>","65","html-slider-response","75","1059130","0.0-10.0-1.7","135","1","2025-07-09 09:09:02","7701e855f2ef39aa3fd6c71abdc6918a","197.248.117.175","Mozilla/5.0 (Windows NT 10.0; Win64; x64) AppleWebKit/537.36 (KHTML, like Gecko) Chrome/138.0.0.0 Safari/537.36","WebKit","Chrome","138.0.0.0","Windows","10.0","https://app.prolific.com/","en-US,en;q=0.9","65fb13bebfa339f73b4cf76a","686d226cabeef709c732f8e1","686e3141b775df29d45e75f2","65fb13bebfa339f73b4cf76a","2025-07-09T09:28:57.163Z","","","","","","AttribQ","","","","","","","","","","","","","","","","","","","","","","","","","","","","","","","","","","","","","","50",""
"1656","","<div style=""width:500px;"">
  <p>How much control did you have over the ball?</p>
  </div>","68","html-slider-response","76","1060786","0.0-10.0-2.7","135","1","2025-07-09 09:09:02","7701e855f2ef39aa3fd6c71abdc6918a","197.248.117.175","Mozilla/5.0 (Windows NT 10.0; Win64; x64) AppleWebKit/537.36 (KHTML, like Gecko) Chrome/138.0.0.0 Safari/537.36","WebKit","Chrome","138.0.0.0","Windows","10.0","https://app.prolific.com/","en-US,en;q=0.9","65fb13bebfa339f73b4cf76a","686d226cabeef709c732f8e1","686e3141b775df29d45e75f2","65fb13bebfa339f73b4cf76a","2025-07-09T09:28:58.819Z","","","","","","ControlQ","","","","","","","","","","","","","","","","","","","","","","","","","","","","","","","","","","","","","","50",""
"2719","","<div style=""width:500px;"">
  <p>How would you describe your current emotional state?</p>
  </div>","35","html-slider-response","77","1063506","0.0-10.0-3.7","135","1","2025-07-09 09:09:02","7701e855f2ef39aa3fd6c71abdc6918a","197.248.117.175","Mozilla/5.0 (Windows NT 10.0; Win64; x64) AppleWebKit/537.36 (KHTML, like Gecko) Chrome/138.0.0.0 Safari/537.36","WebKit","Chrome","138.0.0.0","Windows","10.0","https://app.prolific.com/","en-US,en;q=0.9","65fb13bebfa339f73b4cf76a","686d226cabeef709c732f8e1","686e3141b775df29d45e75f2","65fb13bebfa339f73b4cf76a","2025-07-09T09:29:01.539Z","","","","","","StressQ","","","","","","","","","","","","","","","","","","","","","","","","","","","","","","","","","","","","","","50",""
"3471","","<div style=""width:500px;"">
  <p>What best describes how you currently feel?</p>
  </div>","59","html-slider-response","78","1066978","0.0-10.0-4.7","135","1","2025-07-09 09:09:02","7701e855f2ef39aa3fd6c71abdc6918a","197.248.117.175","Mozilla/5.0 (Windows NT 10.0; Win64; x64) AppleWebKit/537.36 (KHTML, like Gecko) Chrome/138.0.0.0 Safari/537.36","WebKit","Chrome","138.0.0.0","Windows","10.0","https://app.prolific.com/","en-US,en;q=0.9","65fb13bebfa339f73b4cf76a","686d226cabeef709c732f8e1","686e3141b775df29d45e75f2","65fb13bebfa339f73b4cf76a","2025-07-09T09:29:05.011Z","","","","","","MotivationQ","","","","","","","","","","","","","","","","","","","","","","","","","","","","","","","","","","","","","","50",""
"","","","","ctl-task-cpt","79","1104318","0.0-10.0-0.8","135","1","2025-07-09 09:09:02","7701e855f2ef39aa3fd6c71abdc6918a","197.248.117.175","Mozilla/5.0 (Windows NT 10.0; Win64; x64) AppleWebKit/537.36 (KHTML, like Gecko) Chrome/138.0.0.0 Safari/537.36","WebKit","Chrome","138.0.0.0","Windows","10.0","https://app.prolific.com/","en-US,en;q=0.9","65fb13bebfa339f73b4cf76a","686d226cabeef709c732f8e1","686e3141b775df29d45e75f2","65fb13bebfa339f73b4cf76a","2025-07-09T09:29:42.351Z","","","","","","","","","","","","","","","","win-only","0","g1:NW,g2:SE","0.2","9","0","1071097.4","1536.2","6541","34320.3","1","4","4","6","1","-1","-1","0","1","0","5004.8","3000","-3015","[""left"",""up""]","{""num_key_presses"":8,""num_perfect"":2,""num_errors"":0,""num_randdir"":6,""num_randdir_good_moves"":2,""num_whilered"":0,""num_whileblue"":0,""num_blue"":0,""num_good_moves"":4}","[299.22232142857143,295.12857142857143,0.2,299.22232142857143,295.12857142857143,108.9,299.22232142857143,295.12857142857143,209.7,299.22232142857143,295.12857142857143,309.7,299.22232142857143,295.12857142857143,410,299.22232142857143,295.12857142857143,515.1,299.22232142857143,295.12857142857143,619.2,298.22232142857143,296.12857142857143,719.7,297.22232142857143,299.12857142857143,827,296.22232142857143,300.12857142857143,932.3,296.22232142857143,301.12857142857143,1034.8,296.22232142857143,301.12857142857143,1134.8,296.22232142857143,301.12857142857143,1235.4,296.22232142857143,301.12857142857143,1339.7,296.22232142857143,301.12857142857143,1440.2,295.22232142857143,301.12857142857143,1544.2,295.22232142857143,301.12857142857143,1645.1,295.22232142857143,301.12857142857143,1750.1,294.22232142857143,302.12857142857143,1854.4,294.22232142857143,302.12857142857143,1960.1,293.22232142857143,302.12857142857143,2064.4,293.22232142857143,302.12857142857143,2165.6,293.22232142857143,302.12857142857143,2268.8,293.22232142857143,302.12857142857143,2370.6,293.22232142857143,302.12857142857143,2474.9,293.22232142857143,302.12857142857143,2579.9,293.22232142857143,302.12857142857143,2680,293.22232142857143,302.12857142857143,2784.9,292.22232142857143,302.12857142857143,2889,292.22232142857143,302.12857142857143,2989.3,292.22232142857143,302.12857142857143,3089.7,291.22232142857143,302.12857142857143,3194.9,291.22232142857143,302.12857142857143,3295.5,290.22232142857143,302.12857142857143,3399.1,290.22232142857143,302.12857142857143,3500.2,290.22232142857143,302.12857142857143,3608,290.22232142857143,302.12857142857143,3710.7,290.22232142857143,302.12857142857143,3815.2,290.22232142857143,302.12857142857143,3919.9,290.22232142857143,302.12857142857143,4020.9,290.22232142857143,302.12857142857143,4126.9,290.22232142857143,302.12857142857143,4229.6,290.22232142857143,302.12857142857143,4334.6,290.22232142857143,302.12857142857143,4440.4,290.22232142857143,302.12857142857143,4544.7,290.22232142857143,302.12857142857143,4649.3,290.22232142857143,302.12857142857143,4750.3,290.22232142857143,302.12857142857143,4854.8,290.22232142857143,302.12857142857143,4955.1]","[1377.8,1377.8,1000,0,377.8,""smooth"",""up"",""up"",""good_move"",4761.4,3383.4,2996.7,1378,386.7,""smooth"",""up"",""up"",""good_move"",8377.5,3616,3222,4761.5,394,""oops"",""left"",""down"",""bad_move"",11281.2,2903.5,2549.7,8377.7,353.8,""oops"",""left"",""right"",""bad_move"",14274.1,2992.6,2666.2,11281.5,326.4,""oops"",""left"",""left"",""good_move"",17849.7,3575.4,3155.7,14274.3,419.7,""oops"",""left"",""right"",""bad_move"",21665.3,3815.3,3452.3,17850,363,""oops"",""left"",""left"",""good_move"",25105.8,3440.3,3057.7,21665.5,382.6,""oops"",""left"",""down"",""bad_move""]","","",""
"3619","","<div style=""width:500px;"">
  <p>What determined the result of this run?</p>
  </div>","0","html-slider-response","80","1107938","0.0-10.0-1.8","135","1","2025-07-09 09:09:02","7701e855f2ef39aa3fd6c71abdc6918a","197.248.117.175","Mozilla/5.0 (Windows NT 10.0; Win64; x64) AppleWebKit/537.36 (KHTML, like Gecko) Chrome/138.0.0.0 Safari/537.36","WebKit","Chrome","138.0.0.0","Windows","10.0","https://app.prolific.com/","en-US,en;q=0.9","65fb13bebfa339f73b4cf76a","686d226cabeef709c732f8e1","686e3141b775df29d45e75f2","65fb13bebfa339f73b4cf76a","2025-07-09T09:29:45.971Z","","","","","","AttribQ","","","","","","","","","","","","","","","","","","","","","","","","","","","","","","","","","","","","","","50",""
"3262","","<div style=""width:500px;"">
  <p>How much control did you have over the ball?</p>
  </div>","2","html-slider-response","81","1111202","0.0-10.0-2.8","135","1","2025-07-09 09:09:02","7701e855f2ef39aa3fd6c71abdc6918a","197.248.117.175","Mozilla/5.0 (Windows NT 10.0; Win64; x64) AppleWebKit/537.36 (KHTML, like Gecko) Chrome/138.0.0.0 Safari/537.36","WebKit","Chrome","138.0.0.0","Windows","10.0","https://app.prolific.com/","en-US,en;q=0.9","65fb13bebfa339f73b4cf76a","686d226cabeef709c732f8e1","686e3141b775df29d45e75f2","65fb13bebfa339f73b4cf76a","2025-07-09T09:29:49.235Z","","","","","","ControlQ","","","","","","","","","","","","","","","","","","","","","","","","","","","","","","","","","","","","","","50",""
"3975","","<div style=""width:500px;"">
  <p>How would you describe your current emotional state?</p>
  </div>","86","html-slider-response","82","1115178","0.0-10.0-3.8","135","1","2025-07-09 09:09:02","7701e855f2ef39aa3fd6c71abdc6918a","197.248.117.175","Mozilla/5.0 (Windows NT 10.0; Win64; x64) AppleWebKit/537.36 (KHTML, like Gecko) Chrome/138.0.0.0 Safari/537.36","WebKit","Chrome","138.0.0.0","Windows","10.0","https://app.prolific.com/","en-US,en;q=0.9","65fb13bebfa339f73b4cf76a","686d226cabeef709c732f8e1","686e3141b775df29d45e75f2","65fb13bebfa339f73b4cf76a","2025-07-09T09:29:53.211Z","","","","","","StressQ","","","","","","","","","","","","","","","","","","","","","","","","","","","","","","","","","","","","","","50",""
"3007","","<div style=""width:500px;"">
  <p>What best describes how you currently feel?</p>
  </div>","56","html-slider-response","83","1118186","0.0-10.0-4.8","135","1","2025-07-09 09:09:02","7701e855f2ef39aa3fd6c71abdc6918a","197.248.117.175","Mozilla/5.0 (Windows NT 10.0; Win64; x64) AppleWebKit/537.36 (KHTML, like Gecko) Chrome/138.0.0.0 Safari/537.36","WebKit","Chrome","138.0.0.0","Windows","10.0","https://app.prolific.com/","en-US,en;q=0.9","65fb13bebfa339f73b4cf76a","686d226cabeef709c732f8e1","686e3141b775df29d45e75f2","65fb13bebfa339f73b4cf76a","2025-07-09T09:29:56.219Z","","","","","","MotivationQ","","","","","","","","","","","","","","","","","","","","","","","","","","","","","","","","","","","","","","50",""
