"rt","response_timestamp","stimulus","response","trial_type","trial_index","time_elapsed","internal_node_id","run_id","condition","recorded_at","source_code_version","ip","user_agent","device","browser","browser_version","platform","platform_version","referer","accept_language","PROLIFIC_PID","STUDY_ID","SESSION_ID","prolific_id","realtime","view_history","question_order","consent","success","question_id","eventType","responses","item_order","radio_event_ids","radio_event_times","key_event_times","mouse_event_times","straightlining","zigzagging","honeypot","which_type","canvas_config","goals_layout","control_level","trial_number","tutorial_trial_number","trial_start_time","phase1_start_time","phase2_start_time","phase3_start_time","goal_1_value","goal_1_distance","goal_2_value","goal_2_distance","goal_selected","outcome","outcome_total","participant_final_score","participant_initial_score","participant_final_score_prop","goal_choice_rt","allocated_time","allocated_time_remaining","goal_direction","counts","mouse_movements","key_presses","correct","slider_start"
"23483","1752055207807","<p style='font-size:40px;line-height:1.25'><strong>Welcome to the experiment!</strong></p><p style='font-size:1.1em;line-height:1.25'>Thank you for your interest in our experiment! Before you begin, it is important that we obtain your informed consent to participate in the study.</p><p style='font-size:1.1em;line-height:1.25'>On the next screen will be an <strong>information sheet</strong> for you to read. To participate in the study we need you to read this information sheet and the following consent form carefully. If you agree with all the statements, please click the <strong>I agree</strong> button.</p><p style='font-size:1.1em;line-height:1.25'>Press <strong>Next</strong> to read the information sheet.</p>","0","custom-html-button-response","0","23489","0.0-0.0","248","1","2025-07-09 09:59:42","7701e855f2ef39aa3fd6c71abdc6918a","41.145.197.56","Mozilla/5.0 (X11; Linux x86_64) AppleWebKit/537.36 (KHTML, like Gecko) Chrome/138.0.0.0 Safari/537.36","WebKit","Chrome","138.0.0.0","Linux","","https://app.prolific.com/","en-GB,en-US;q=0.9,en;q=0.8,ar;q=0.7","667b1ca693a1d52a0447f22f","686d226cabeef709c732f8e1","686e313d7eb80da74ad69479","667b1ca693a1d52a0447f22f","2025-07-09T10:00:07.813Z","","","","","","","","","","","","","","","","","","","","","","","","","","","","","","","","","","","","","","","","","","","",""
"2332","","","","instructions","1","25825","0.0-1.0","248","1","2025-07-09 09:59:42","7701e855f2ef39aa3fd6c71abdc6918a","41.145.197.56","Mozilla/5.0 (X11; Linux x86_64) AppleWebKit/537.36 (KHTML, like Gecko) Chrome/138.0.0.0 Safari/537.36","WebKit","Chrome","138.0.0.0","Linux","","https://app.prolific.com/","en-GB,en-US;q=0.9,en;q=0.8,ar;q=0.7","667b1ca693a1d52a0447f22f","686d226cabeef709c732f8e1","686e313d7eb80da74ad69479","667b1ca693a1d52a0447f22f","","[{""page_index"":0,""viewing_time"":1267},{""page_index"":1,""viewing_time"":1064}]","","","","","","","","","","","","","","","","","","","","","","","","","","","","","","","","","","","","","","","","","","",""
"2630","","","{""Q0"":"""",""Q1"":"""",""Q2"":"""",""Q3"":"""",""Q4"":"""",""Q5"":"""",""Q6"":""I agree""}","survey-multi-choice","2","28461","0.0-2.0","248","1","2025-07-09 09:59:42","7701e855f2ef39aa3fd6c71abdc6918a","41.145.197.56","Mozilla/5.0 (X11; Linux x86_64) AppleWebKit/537.36 (KHTML, like Gecko) Chrome/138.0.0.0 Safari/537.36","WebKit","Chrome","138.0.0.0","Linux","","https://app.prolific.com/","en-GB,en-US;q=0.9,en;q=0.8,ar;q=0.7","667b1ca693a1d52a0447f22f","686d226cabeef709c732f8e1","686e313d7eb80da74ad69479","667b1ca693a1d52a0447f22f","","","[0,1,2,3,4,5,6]","true","","","","","","","","","","","","","","","","","","","","","","","","","","","","","","","","","","","","","","","","",""
"931","","","","fullscreen","3","30398","0.0-4.0","248","1","2025-07-09 09:59:42","7701e855f2ef39aa3fd6c71abdc6918a","41.145.197.56","Mozilla/5.0 (X11; Linux x86_64) AppleWebKit/537.36 (KHTML, like Gecko) Chrome/138.0.0.0 Safari/537.36","WebKit","Chrome","138.0.0.0","Linux","","https://app.prolific.com/","en-GB,en-US;q=0.9,en;q=0.8,ar;q=0.7","667b1ca693a1d52a0447f22f","686d226cabeef709c732f8e1","686e313d7eb80da74ad69479","667b1ca693a1d52a0447f22f","","","","","true","","","","","","","","","","","","","","","","","","","","","","","","","","","","","","","","","","","","","","","",""
"973","1752055215697"," <p style='font-size:1.1em;line-height:1.25'>Thank you for completing the consent form and closing all other tabs.</p><p style='font-size:1.1em;line-height:1.25'>We will now invite you to fill in some demographic information and questionnaires, before starting the game.<br>This will take about 5 minutes.<br></p><p style='font-size:1.1em;line-height:1.25'>Press the <strong>Next</strong> button to continue.</p>","0","custom-html-button-response","4","31375","0.0-5.0","248","1","2025-07-09 09:59:42","7701e855f2ef39aa3fd6c71abdc6918a","41.145.197.56","Mozilla/5.0 (X11; Linux x86_64) AppleWebKit/537.36 (KHTML, like Gecko) Chrome/138.0.0.0 Safari/537.36","WebKit","Chrome","138.0.0.0","Linux","","https://app.prolific.com/","en-GB,en-US;q=0.9,en;q=0.8,ar;q=0.7","667b1ca693a1d52a0447f22f","686d226cabeef709c732f8e1","686e313d7eb80da74ad69479","667b1ca693a1d52a0447f22f","2025-07-09T10:00:15.698Z","","","","","","","","","","","","","","","","","","","","","","","","","","","","","","","","","","","","","","","","","","","",""
"7820","","","{""age"":""30""}","survey-text","5","39201","0.0-6.0-0.0","248","1","2025-07-09 09:59:42","7701e855f2ef39aa3fd6c71abdc6918a","41.145.197.56","Mozilla/5.0 (X11; Linux x86_64) AppleWebKit/537.36 (KHTML, like Gecko) Chrome/138.0.0.0 Safari/537.36","WebKit","Chrome","138.0.0.0","Linux","","https://app.prolific.com/","en-GB,en-US;q=0.9,en;q=0.8,ar;q=0.7","667b1ca693a1d52a0447f22f","686d226cabeef709c732f8e1","686e313d7eb80da74ad69479","667b1ca693a1d52a0447f22f","","","","","","0","demographics","","","","","","","","","","","","","","","","","","","","","","","","","","","","","","","","","","","","","",""
"2886","","","{""gender_identity"":""female/woman""}","survey-multi-choice","6","42094","0.0-6.0-1.0","248","1","2025-07-09 09:59:42","7701e855f2ef39aa3fd6c71abdc6918a","41.145.197.56","Mozilla/5.0 (X11; Linux x86_64) AppleWebKit/537.36 (KHTML, like Gecko) Chrome/138.0.0.0 Safari/537.36","WebKit","Chrome","138.0.0.0","Linux","","https://app.prolific.com/","en-GB,en-US;q=0.9,en;q=0.8,ar;q=0.7","667b1ca693a1d52a0447f22f","686d226cabeef709c732f8e1","686e313d7eb80da74ad69479","667b1ca693a1d52a0447f22f","","","[0]","","","1","demographics","","","","","","","","","","","","","","","","","","","","","","","","","","","","","","","","","","","","","",""
"1444","","","{""assigned_sex"":""female""}","survey-multi-choice","7","43544","0.0-6.0-2.0","248","1","2025-07-09 09:59:42","7701e855f2ef39aa3fd6c71abdc6918a","41.145.197.56","Mozilla/5.0 (X11; Linux x86_64) AppleWebKit/537.36 (KHTML, like Gecko) Chrome/138.0.0.0 Safari/537.36","WebKit","Chrome","138.0.0.0","Linux","","https://app.prolific.com/","en-GB,en-US;q=0.9,en;q=0.8,ar;q=0.7","667b1ca693a1d52a0447f22f","686d226cabeef709c732f8e1","686e313d7eb80da74ad69479","667b1ca693a1d52a0447f22f","","","[0]","","","2","demographics","","","","","","","","","","","","","","","","","","","","","","","","","","","","","","","","","","","","","",""
"2724","","","{""menstrual_cycle"":""Yes""}","survey-multi-choice","8","46274","0.0-6.0-3.0","248","1","2025-07-09 09:59:42","7701e855f2ef39aa3fd6c71abdc6918a","41.145.197.56","Mozilla/5.0 (X11; Linux x86_64) AppleWebKit/537.36 (KHTML, like Gecko) Chrome/138.0.0.0 Safari/537.36","WebKit","Chrome","138.0.0.0","Linux","","https://app.prolific.com/","en-GB,en-US;q=0.9,en;q=0.8,ar;q=0.7","667b1ca693a1d52a0447f22f","686d226cabeef709c732f8e1","686e313d7eb80da74ad69479","667b1ca693a1d52a0447f22f","","","[0]","","","4","demographics","","","","","","","","","","","","","","","","","","","","","","","","","","","","","","","","","","","","","",""
"4267","","","{""education"":""Bachelor's Degree (e.g., BA)""}","survey-multi-choice","9","50548","0.0-6.0-4.0","248","1","2025-07-09 09:59:42","7701e855f2ef39aa3fd6c71abdc6918a","41.145.197.56","Mozilla/5.0 (X11; Linux x86_64) AppleWebKit/537.36 (KHTML, like Gecko) Chrome/138.0.0.0 Safari/537.36","WebKit","Chrome","138.0.0.0","Linux","","https://app.prolific.com/","en-GB,en-US;q=0.9,en;q=0.8,ar;q=0.7","667b1ca693a1d52a0447f22f","686d226cabeef709c732f8e1","686e313d7eb80da74ad69479","667b1ca693a1d52a0447f22f","","","[0]","","","5","demographics","","","","","","","","","","","","","","","","","","","","","","","","","","","","","","","","","","","","","",""
"2570","","","{""education"":""Master's Degree (e.g., MSc)""}","survey-multi-choice","10","53124","0.0-6.0-5.0","248","1","2025-07-09 09:59:42","7701e855f2ef39aa3fd6c71abdc6918a","41.145.197.56","Mozilla/5.0 (X11; Linux x86_64) AppleWebKit/537.36 (KHTML, like Gecko) Chrome/138.0.0.0 Safari/537.36","WebKit","Chrome","138.0.0.0","Linux","","https://app.prolific.com/","en-GB,en-US;q=0.9,en;q=0.8,ar;q=0.7","667b1ca693a1d52a0447f22f","686d226cabeef709c732f8e1","686e313d7eb80da74ad69479","667b1ca693a1d52a0447f22f","2025-07-09T10:00:37.447Z","","[0]","","","6","demographics","","","","","","","","","","","","","","","","","","","","","","","","","","","","","","","","","","","","","",""
"11582","","","{""mental_health_condition"":""No"",""mental_health_treatment"":""No"",""psychiatric_medication"":""None""}","survey-text","11","64719","0.0-7.0-0.0","248","1","2025-07-09 09:59:42","7701e855f2ef39aa3fd6c71abdc6918a","41.145.197.56","Mozilla/5.0 (X11; Linux x86_64) AppleWebKit/537.36 (KHTML, like Gecko) Chrome/138.0.0.0 Safari/537.36","WebKit","Chrome","138.0.0.0","Linux","","https://app.prolific.com/","en-GB,en-US;q=0.9,en;q=0.8,ar;q=0.7","667b1ca693a1d52a0447f22f","686d226cabeef709c732f8e1","686e313d7eb80da74ad69479","667b1ca693a1d52a0447f22f","2025-07-09T10:00:49.042Z","","","","","1","mental_health","","","","","","","","","","","","","","","","","","","","","","","","","","","","","","","","","","","","","",""
"12620","","","{""depression_history"":[""Yes""]}","survey-multi-select","12","77354","0.0-7.0-1.0","248","1","2025-07-09 09:59:42","7701e855f2ef39aa3fd6c71abdc6918a","41.145.197.56","Mozilla/5.0 (X11; Linux x86_64) AppleWebKit/537.36 (KHTML, like Gecko) Chrome/138.0.0.0 Safari/537.36","WebKit","Chrome","138.0.0.0","Linux","","https://app.prolific.com/","en-GB,en-US;q=0.9,en;q=0.8,ar;q=0.7","667b1ca693a1d52a0447f22f","686d226cabeef709c732f8e1","686e313d7eb80da74ad69479","667b1ca693a1d52a0447f22f","","","[0]","","","","mental_health","","","","","","","","","","","","","","","","","","","","","","","","","","","","","","","","","","","","","",""
"5145","","","{""depression_episodes"":""more than 5"",""depression_recent"":""Within the past year""}","survey-multi-choice","13","82506","0.0-7.0-2.0-0.0","248","1","2025-07-09 09:59:42","7701e855f2ef39aa3fd6c71abdc6918a","41.145.197.56","Mozilla/5.0 (X11; Linux x86_64) AppleWebKit/537.36 (KHTML, like Gecko) Chrome/138.0.0.0 Safari/537.36","WebKit","Chrome","138.0.0.0","Linux","","https://app.prolific.com/","en-GB,en-US;q=0.9,en;q=0.8,ar;q=0.7","667b1ca693a1d52a0447f22f","686d226cabeef709c732f8e1","686e313d7eb80da74ad69479","667b1ca693a1d52a0447f22f","2025-07-09T10:01:06.829Z","","[0,1]","","","3","mental_health","","","","","","","","","","","","","","","","","","","","","","","","","","","","","","","","","","","","","",""
"19169.30000001192","","","","survey-template","14","101694","0.0-7.0-3.0","248","1","2025-07-09 09:59:42","7701e855f2ef39aa3fd6c71abdc6918a","41.145.197.56","Mozilla/5.0 (X11; Linux x86_64) AppleWebKit/537.36 (KHTML, like Gecko) Chrome/138.0.0.0 Safari/537.36","WebKit","Chrome","138.0.0.0","Linux","","https://app.prolific.com/","en-GB,en-US;q=0.9,en;q=0.8,ar;q=0.7","667b1ca693a1d52a0447f22f","686d226cabeef709c732f8e1","686e313d7eb80da74ad69479","667b1ca693a1d52a0447f22f","2025-07-09T10:01:26.017Z","","","","","","ius","{""Q01"":""3"",""Q02"":""3"",""Q03"":""3"",""Q04"":""3"",""Q05"":""3"",""Q06"":""3"",""Q07"":""3"",""Q08"":""0"",""Q09"":""3"",""Q10"":""3"",""Q11"":""3"",""Q12"":""3"",""Q13"":""3""}","[0,1,2,3,4,5,6,7,8,9,10,11,12]","[""Q08"",""Q01"",""Q02"",""Q03"",""Q05"",""Q07"",""Q09"",""Q10"",""Q11"",""Q12"",""Q13"",""Q04"",""Q06""]","[4079,5496,5863.200000017881,6183.100000023842,7010.800000011921,7978.5,8783.40000000596,9176.200000017881,9496,10797.800000011921,11042.90000000596,14387.5,17345.90000000596]","[]","[4079,5496,5863.200000017881,6183.100000023842,6577.9000000059605,7010.800000011921,7405.9000000059605,7978.5,8783.40000000596,9176.200000017881,9496,9845,10176.40000000596,10797.800000011921,11042.90000000596,11844.800000011921,13647.700000017881,14387.5,15301.200000017881,17345.90000000596,19157.100000023842]","0.9230769230769231","0","0","","","","","","","","","","","","","","","","","","","","","","","","","","","","",""
"1103","1752055287122","<p style='font-size:1.1em;line-height:1.25'>In the following, we will ask you a few questions relating to your experiences over the past month.<br></p><p style='font-size:1.1em;line-height:1.25'>Press the <strong>Next</strong> button to continue.</p>","0","custom-html-button-response","15","102801","0.0-7.0-4.0","248","1","2025-07-09 09:59:42","7701e855f2ef39aa3fd6c71abdc6918a","41.145.197.56","Mozilla/5.0 (X11; Linux x86_64) AppleWebKit/537.36 (KHTML, like Gecko) Chrome/138.0.0.0 Safari/537.36","WebKit","Chrome","138.0.0.0","Linux","","https://app.prolific.com/","en-GB,en-US;q=0.9,en;q=0.8,ar;q=0.7","667b1ca693a1d52a0447f22f","686d226cabeef709c732f8e1","686e313d7eb80da74ad69479","667b1ca693a1d52a0447f22f","2025-07-09T10:01:27.124Z","","","","","","","","","","","","","","","","","","","","","","","","","","","","","","","","","","","","","","","","","","","",""
"12621","","","","survey-template","16","115439","0.0-7.0-5.0","248","1","2025-07-09 09:59:42","7701e855f2ef39aa3fd6c71abdc6918a","41.145.197.56","Mozilla/5.0 (X11; Linux x86_64) AppleWebKit/537.36 (KHTML, like Gecko) Chrome/138.0.0.0 Safari/537.36","WebKit","Chrome","138.0.0.0","Linux","","https://app.prolific.com/","en-GB,en-US;q=0.9,en;q=0.8,ar;q=0.7","667b1ca693a1d52a0447f22f","686d226cabeef709c732f8e1","686e313d7eb80da74ad69479","667b1ca693a1d52a0447f22f","2025-07-09T10:01:39.762Z","","","","","","pss","{""Q01"":""2"",""Q02"":""2"",""Q03"":""2"",""Q04"":""2"",""Q05"":""2"",""Q06"":""2"",""Q07"":""2"",""Q08"":""2"",""Q09"":""2"",""Q10"":""2""}","[0,1,2,3,4,5,6,7,8,9]","[""Q01"",""Q02"",""Q03"",""Q04"",""Q05"",""Q06"",""Q07"",""Q08"",""Q09"",""Q10""]","[6387,7703.299999982119,8238.199999988079,8715.59999999404,9083.09999999404,9449.299999982119,10357.09999999404,10860.5,11248.699999988079,11630.699999988079]","[]","[0.09999999403953552,6387,6740.5,7141.799999982119,7703.299999982119,8238.199999988079,8715.59999999404,9083.09999999404,9449.299999982119,9837.699999988079,10357.09999999404,10860.5,11248.699999988079,11630.699999988079,12611.799999982119]","1","0","0","","","","","","","","","","","","","","","","","","","","","","","","","","","","",""
"1202","1752055300966","<p style='font-size:1.1em;line-height:1.25'>Thank you for your answers! Now we will ask you a few more questions relating to your feelings in the last 24 hours.<br></p><p style='font-size:1.1em;line-height:1.25'>Press the <strong>Next</strong> button to continue.</p>","0","custom-html-button-response","17","116644","0.0-7.0-6.0","248","1","2025-07-09 09:59:42","7701e855f2ef39aa3fd6c71abdc6918a","41.145.197.56","Mozilla/5.0 (X11; Linux x86_64) AppleWebKit/537.36 (KHTML, like Gecko) Chrome/138.0.0.0 Safari/537.36","WebKit","Chrome","138.0.0.0","Linux","","https://app.prolific.com/","en-GB,en-US;q=0.9,en;q=0.8,ar;q=0.7","667b1ca693a1d52a0447f22f","686d226cabeef709c732f8e1","686e313d7eb80da74ad69479","667b1ca693a1d52a0447f22f","2025-07-09T10:01:40.967Z","","","","","","","","","","","","","","","","","","","","","","","","","","","","","","","","","","","","","","","","","","","",""
"16089.40000000596","","","","survey-template","18","132757","0.0-7.0-7.0","248","1","2025-07-09 09:59:42","7701e855f2ef39aa3fd6c71abdc6918a","41.145.197.56","Mozilla/5.0 (X11; Linux x86_64) AppleWebKit/537.36 (KHTML, like Gecko) Chrome/138.0.0.0 Safari/537.36","WebKit","Chrome","138.0.0.0","Linux","","https://app.prolific.com/","en-GB,en-US;q=0.9,en;q=0.8,ar;q=0.7","667b1ca693a1d52a0447f22f","686d226cabeef709c732f8e1","686e313d7eb80da74ad69479","667b1ca693a1d52a0447f22f","2025-07-09T10:01:57.080Z","","","","","","drsp","{""Q01"":""0"",""Q02"":""0"",""Q03"":""0"",""Q04"":""0"",""Q05"":""0"",""Q06"":""0"",""Q07"":""0"",""Q08"":""0"",""Q09"":""0"",""Q10"":""0"",""Q11"":""0"",""Q12"":""0"",""Q13"":""1"",""Q14"":""1"",""Q15"":""1"",""Q16"":""1"",""Q17"":""0"",""Q18"":""1"",""Q19"":""0"",""Q20"":""1"",""Q21"":""1""}","[0,1,2,3,4,5,6,7,8,9,10,11,12,13,14,15,16,17,18,19,20]","[""Q01"",""Q02"",""Q03"",""Q04"",""Q05"",""Q06"",""Q07"",""Q08"",""Q09"",""Q10"",""Q11"",""Q12"",""Q14"",""Q14"",""Q15"",""Q16"",""Q17"",""Q18"",""Q19"",""Q20"",""Q21"",""Q13""]","[2382.5,2670.5,2989.300000011921,3453.2000000178814,3775.2000000178814,4138.700000017881,4505,4904.5,5808.100000023842,6138.600000023842,6459,6812.5,7571,8016,8536.40000000596,8894.200000017881,9486.5,10099.800000011921,10505.700000017881,12049.800000011921,12424.100000023842,14633.700000017881]","[]","[0.20000001788139343,2382.5,2670.5,2989.300000011921,3453.2000000178814,3775.2000000178814,4138.700000017881,4505,4904.5,5289.100000023842,5808.100000023842,6138.600000023842,6459,6812.5,7150.100000023842,7571,8016,8536.40000000596,8894.200000017881,9486.5,10099.800000011921,10505.700000017881,11167.700000017881,12049.800000011921,12424.100000023842,14633.700000017881,16071.40000000596]","0.6666666666666666","0.25","0","","","","","","","","","","","","","","","","","","","","","","","","","","","","",""
"3199.4000000059605","","","","survey-template","19","135964","0.0-7.0-8.0","248","1","2025-07-09 09:59:42","7701e855f2ef39aa3fd6c71abdc6918a","41.145.197.56","Mozilla/5.0 (X11; Linux x86_64) AppleWebKit/537.36 (KHTML, like Gecko) Chrome/138.0.0.0 Safari/537.36","WebKit","Chrome","138.0.0.0","Linux","","https://app.prolific.com/","en-GB,en-US;q=0.9,en;q=0.8,ar;q=0.7","667b1ca693a1d52a0447f22f","686d226cabeef709c732f8e1","686e313d7eb80da74ad69479","667b1ca693a1d52a0447f22f","2025-07-09T10:02:00.288Z","","","","","","stress","{""Q01"":""0"",""Q02"":""5"",""Q03"":""0""}","[0,1,2]","[""Q01"",""Q02"",""Q03""]","[1865.9000000059605,2281.7000000178814,2584.7000000178814]","[]","[1865.9000000059605,2281.7000000178814,2584.7000000178814,3194.2000000178814]","1","0","0","","","","","","","","","","","","","","","","","","","","","","","","","","","","",""
"25424","","","","instructions","20","161392","0.0-8.0-0.0","248","1","2025-07-09 09:59:42","7701e855f2ef39aa3fd6c71abdc6918a","41.145.197.56","Mozilla/5.0 (X11; Linux x86_64) AppleWebKit/537.36 (KHTML, like Gecko) Chrome/138.0.0.0 Safari/537.36","WebKit","Chrome","138.0.0.0","Linux","","https://app.prolific.com/","en-GB,en-US;q=0.9,en;q=0.8,ar;q=0.7","667b1ca693a1d52a0447f22f","686d226cabeef709c732f8e1","686e313d7eb80da74ad69479","667b1ca693a1d52a0447f22f","","[{""page_index"":0,""viewing_time"":1249},{""page_index"":1,""viewing_time"":14588},{""page_index"":2,""viewing_time"":7065},{""page_index"":3,""viewing_time"":2520}]","","","","","","","","","","","","","","","","","","","","","","","","","","","","","","","","","","","","","","","","","","",""
"","","","","ctl-task-cpt","21","180047","0.0-8.0-1.0","248","1","2025-07-09 09:59:42","7701e855f2ef39aa3fd6c71abdc6918a","41.145.197.56","Mozilla/5.0 (X11; Linux x86_64) AppleWebKit/537.36 (KHTML, like Gecko) Chrome/138.0.0.0 Safari/537.36","WebKit","Chrome","138.0.0.0","Linux","","https://app.prolific.com/","en-GB,en-US;q=0.9,en;q=0.8,ar;q=0.7","667b1ca693a1d52a0447f22f","686d226cabeef709c732f8e1","686e313d7eb80da74ad69479","667b1ca693a1d52a0447f22f","","","","","","","","","","","","","","","","","win-only","1","g1:NE,g2:SW","1","0","1","164120.2","4013.8","8017.4","15643.6","2","4","4","6","2","-4","-4","0","0","0","4003.4","4000","-2755","[""down"",""left""]","{""num_key_presses"":0,""num_perfect"":0,""num_errors"":0,""num_randdir"":0,""num_randdir_good_moves"":0,""num_whilered"":0,""num_whileblue"":0,""num_blue"":0,""num_good_moves"":0}","[736.5591300185724,745.6423303562215,1,736.5591300185724,745.6423303562215,103.6,736.5591300185724,745.6423303562215,207.4,736.5591300185724,745.6423303562215,333.7,736.5591300185724,745.6423303562215,438.5,736.5591300185724,745.6423303562215,542.5,736.5591300185724,745.6423303562215,644.4,736.5591300185724,745.6423303562215,747,736.5591300185724,745.6423303562215,847.7,736.5591300185724,745.6423303562215,947.7,736.5591300185724,745.6423303562215,1048.3,736.5591300185724,745.6423303562215,1182.3,736.5591300185724,745.6423303562215,1286.6,736.5591300185724,745.6423303562215,1387.4,736.5591300185724,745.6423303562215,1487.5,736.5591300185724,745.6423303562215,1587.5,736.5591300185724,745.6423303562215,1693.5,736.5591300185724,745.6423303562215,1797.7,736.5591300185724,745.6423303562215,1897.7,736.5591300185724,745.6423303562215,1998.1,736.5591300185724,745.6423303562215,2102.2,736.5591300185724,745.6423303562215,2207.2,736.5591300185724,745.6423303562215,2307.9,736.5591300185724,745.6423303562215,2427.1,736.5591300185724,745.6423303562215,2541.7,736.5591300185724,745.6423303562215,2642.2,736.5591300185724,745.6423303562215,2742.8,736.5591300185724,745.6423303562215,2847.7,736.5591300185724,745.6423303562215,2948.7,736.5591300185724,745.6423303562215,3048.8,736.5591300185724,745.6423303562215,3152.4,736.5591300185724,745.6423303562215,3257.2,736.5591300185724,745.6423303562215,3399,736.5591300185724,745.6423303562215,3503.1,736.5591300185724,745.6423303562215,3618,736.5591300185724,745.6423303562215,3725.9,736.5591300185724,745.6423303562215,3837.9,736.5591300185724,745.6423303562215,3942.1]","[]","",""
"41794","","","","instructions","22","221843","0.0-8.0-2.0","248","1","2025-07-09 09:59:42","7701e855f2ef39aa3fd6c71abdc6918a","41.145.197.56","Mozilla/5.0 (X11; Linux x86_64) AppleWebKit/537.36 (KHTML, like Gecko) Chrome/138.0.0.0 Safari/537.36","WebKit","Chrome","138.0.0.0","Linux","","https://app.prolific.com/","en-GB,en-US;q=0.9,en;q=0.8,ar;q=0.7","667b1ca693a1d52a0447f22f","686d226cabeef709c732f8e1","686e313d7eb80da74ad69479","667b1ca693a1d52a0447f22f","","[{""page_index"":0,""viewing_time"":41793}]","","","","","","","","","","","","","","","","","","","","","","","","","","","","","","","","","","","","","","","","","","",""
"","","","","ctl-task-cpt","23","243976","0.0-8.0-3.0","248","1","2025-07-09 09:59:42","7701e855f2ef39aa3fd6c71abdc6918a","41.145.197.56","Mozilla/5.0 (X11; Linux x86_64) AppleWebKit/537.36 (KHTML, like Gecko) Chrome/138.0.0.0 Safari/537.36","WebKit","Chrome","138.0.0.0","Linux","","https://app.prolific.com/","en-GB,en-US;q=0.9,en;q=0.8,ar;q=0.7","667b1ca693a1d52a0447f22f","686d226cabeef709c732f8e1","686e313d7eb80da74ad69479","667b1ca693a1d52a0447f22f","","","","","","","","","","","","","","","","","win-only","1","g1:NE,g2:SW","0.35","0","3","224569.3","7107.5","11111.7","19106","2","4","8","6","2","-8","-8","0","0","0","4004.2","4000","-2695","[""down"",""left""]","{""num_key_presses"":0,""num_perfect"":0,""num_errors"":0,""num_randdir"":0,""num_randdir_good_moves"":0,""num_whilered"":0,""num_whileblue"":0,""num_blue"":0,""num_good_moves"":0}","[749.0010621168303,755.3955026346257,0.6,749.0010621168303,755.3955026346257,103.5,749.0010621168303,755.3955026346257,219.6,749.0010621168303,755.3955026346257,330.1,749.0010621168303,755.3955026346257,433.3,749.0010621168303,755.3955026346257,533.3,749.0010621168303,755.3955026346257,633.4,749.0010621168303,755.3955026346257,734,749.0010621168303,755.3955026346257,839.9,749.0010621168303,755.3955026346257,943.7,749.0010621168303,755.3955026346257,1048.4,749.0010621168303,755.3955026346257,1149.2,749.0010621168303,755.3955026346257,1291.2,749.0010621168303,755.3955026346257,1395.4,749.0010621168303,755.3955026346257,1499.4,749.0010621168303,755.3955026346257,1603.4,749.0010621168303,755.3955026346257,1703.5,749.0010621168303,755.3955026346257,1843.8,749.0010621168303,755.3955026346257,1954.2,749.0010621168303,755.3955026346257,2058.4,749.0010621168303,755.3955026346257,2181.8,749.0010621168303,755.3955026346257,2284.4,749.0010621168303,755.3955026346257,2388.4,749.0010621168303,755.3955026346257,2488.4,749.0010621168303,755.3955026346257,2588.5,749.0010621168303,755.3955026346257,2693.4,749.0010621168303,755.3955026346257,2795.6,749.0010621168303,755.3955026346257,2898.6,749.0010621168303,755.3955026346257,3003.4,749.0010621168303,755.3955026346257,3141.9,749.0010621168303,755.3955026346257,3245,749.0010621168303,755.3955026346257,3348.8,749.0010621168303,755.3955026346257,3453.5,749.0010621168303,755.3955026346257,3558.2,749.0010621168303,755.3955026346257,3665.3,749.0010621168303,755.3955026346257,3768.6,749.0010621168303,755.3955026346257,3873.5,749.0010621168303,755.3955026346257,3978.2]","[]","",""
"75704","","","","instructions","24","319683","0.0-8.0-4.0","248","1","2025-07-09 09:59:42","7701e855f2ef39aa3fd6c71abdc6918a","41.145.197.56","Mozilla/5.0 (X11; Linux x86_64) AppleWebKit/537.36 (KHTML, like Gecko) Chrome/138.0.0.0 Safari/537.36","WebKit","Chrome","138.0.0.0","Linux","","https://app.prolific.com/","en-GB,en-US;q=0.9,en;q=0.8,ar;q=0.7","667b1ca693a1d52a0447f22f","686d226cabeef709c732f8e1","686e313d7eb80da74ad69479","667b1ca693a1d52a0447f22f","","[{""page_index"":0,""viewing_time"":19884},{""page_index"":1,""viewing_time"":55820}]","","","","","","","","","","","","","","","","","","","","","","","","","","","","","","","","","","","","","","","","","","",""
"15388","","","{""green_ball"":[""Ball always moves in the direction I press""]}","survey-multi-select","25","335076","0.0-8.0-5.0-0.0","248","1","2025-07-09 09:59:42","7701e855f2ef39aa3fd6c71abdc6918a","41.145.197.56","Mozilla/5.0 (X11; Linux x86_64) AppleWebKit/537.36 (KHTML, like Gecko) Chrome/138.0.0.0 Safari/537.36","WebKit","Chrome","138.0.0.0","Linux","","https://app.prolific.com/","en-GB,en-US;q=0.9,en;q=0.8,ar;q=0.7","667b1ca693a1d52a0447f22f","686d226cabeef709c732f8e1","686e313d7eb80da74ad69479","667b1ca693a1d52a0447f22f","","","[0]","","","","quiz","","","","","","","","","","","","","","","","","","","","","","","","","","","","","","","","","","","","","false",""
"1592","","<p align='center'><b>INCORRECT.</b> Usually the green ball moves in the indicated direction, but sometimes it shakes and moves randomly. </p>","0","html-button-response","26","336674","0.0-8.0-5.0-1.0","248","1","2025-07-09 09:59:42","7701e855f2ef39aa3fd6c71abdc6918a","41.145.197.56","Mozilla/5.0 (X11; Linux x86_64) AppleWebKit/537.36 (KHTML, like Gecko) Chrome/138.0.0.0 Safari/537.36","WebKit","Chrome","138.0.0.0","Linux","","https://app.prolific.com/","en-GB,en-US;q=0.9,en;q=0.8,ar;q=0.7","667b1ca693a1d52a0447f22f","686d226cabeef709c732f8e1","686e313d7eb80da74ad69479","667b1ca693a1d52a0447f22f","","","","","","","","","","","","","","","","","","","","","","","","","","","","","","","","","","","","","","","","","","","","",""
"14564","","","{""green_ball"":[""Ball always shakes and moves in a random direction""]}","survey-multi-select","27","351244","0.0-8.0-5.1-0.1","248","1","2025-07-09 09:59:42","7701e855f2ef39aa3fd6c71abdc6918a","41.145.197.56","Mozilla/5.0 (X11; Linux x86_64) AppleWebKit/537.36 (KHTML, like Gecko) Chrome/138.0.0.0 Safari/537.36","WebKit","Chrome","138.0.0.0","Linux","","https://app.prolific.com/","en-GB,en-US;q=0.9,en;q=0.8,ar;q=0.7","667b1ca693a1d52a0447f22f","686d226cabeef709c732f8e1","686e313d7eb80da74ad69479","667b1ca693a1d52a0447f22f","","","[0]","","","","quiz","","","","","","","","","","","","","","","","","","","","","","","","","","","","","","","","","","","","","false",""
"1302","","<p align='center'><b>INCORRECT.</b> Usually the green ball moves in the indicated direction, but sometimes it shakes and moves randomly. </p>","0","html-button-response","28","352549","0.0-8.0-5.1-1.1","248","1","2025-07-09 09:59:42","7701e855f2ef39aa3fd6c71abdc6918a","41.145.197.56","Mozilla/5.0 (X11; Linux x86_64) AppleWebKit/537.36 (KHTML, like Gecko) Chrome/138.0.0.0 Safari/537.36","WebKit","Chrome","138.0.0.0","Linux","","https://app.prolific.com/","en-GB,en-US;q=0.9,en;q=0.8,ar;q=0.7","667b1ca693a1d52a0447f22f","686d226cabeef709c732f8e1","686e313d7eb80da74ad69479","667b1ca693a1d52a0447f22f","","","","","","","","","","","","","","","","","","","","","","","","","","","","","","","","","","","","","","","","","","","","",""
"2401","","","{""green_ball"":[""Ball doesn‘t move and I get -1 penalty point""]}","survey-multi-select","29","354957","0.0-8.0-5.2-0.2","248","1","2025-07-09 09:59:42","7701e855f2ef39aa3fd6c71abdc6918a","41.145.197.56","Mozilla/5.0 (X11; Linux x86_64) AppleWebKit/537.36 (KHTML, like Gecko) Chrome/138.0.0.0 Safari/537.36","WebKit","Chrome","138.0.0.0","Linux","","https://app.prolific.com/","en-GB,en-US;q=0.9,en;q=0.8,ar;q=0.7","667b1ca693a1d52a0447f22f","686d226cabeef709c732f8e1","686e313d7eb80da74ad69479","667b1ca693a1d52a0447f22f","","","[0]","","","","quiz","","","","","","","","","","","","","","","","","","","","","","","","","","","","","","","","","","","","","false",""
"3702","","<p align='center'><b>INCORRECT.</b> Usually the green ball moves in the indicated direction, but sometimes it shakes and moves randomly. </p>","0","html-button-response","30","358662","0.0-8.0-5.2-1.2","248","1","2025-07-09 09:59:42","7701e855f2ef39aa3fd6c71abdc6918a","41.145.197.56","Mozilla/5.0 (X11; Linux x86_64) AppleWebKit/537.36 (KHTML, like Gecko) Chrome/138.0.0.0 Safari/537.36","WebKit","Chrome","138.0.0.0","Linux","","https://app.prolific.com/","en-GB,en-US;q=0.9,en;q=0.8,ar;q=0.7","667b1ca693a1d52a0447f22f","686d226cabeef709c732f8e1","686e313d7eb80da74ad69479","667b1ca693a1d52a0447f22f","","","","","","","","","","","","","","","","","","","","","","","","","","","","","","","","","","","","","","","","","","","","",""
"2497","","","{""green_ball"":[""Ball sometimes shakes and moves in a random direction""]}","survey-multi-select","31","361164","0.0-8.0-5.3-0.3","248","1","2025-07-09 09:59:42","7701e855f2ef39aa3fd6c71abdc6918a","41.145.197.56","Mozilla/5.0 (X11; Linux x86_64) AppleWebKit/537.36 (KHTML, like Gecko) Chrome/138.0.0.0 Safari/537.36","WebKit","Chrome","138.0.0.0","Linux","","https://app.prolific.com/","en-GB,en-US;q=0.9,en;q=0.8,ar;q=0.7","667b1ca693a1d52a0447f22f","686d226cabeef709c732f8e1","686e313d7eb80da74ad69479","667b1ca693a1d52a0447f22f","","","[0]","","","","quiz","","","","","","","","","","","","","","","","","","","","","","","","","","","","","","","","","","","","","true",""
"2191","","<p align='center'><b>CORRECT!</b> Indeed, the green ball may sometimes shake and move in a random direction.</p>","0","html-button-response","32","363357","0.0-8.0-5.3-1.3","248","1","2025-07-09 09:59:42","7701e855f2ef39aa3fd6c71abdc6918a","41.145.197.56","Mozilla/5.0 (X11; Linux x86_64) AppleWebKit/537.36 (KHTML, like Gecko) Chrome/138.0.0.0 Safari/537.36","WebKit","Chrome","138.0.0.0","Linux","","https://app.prolific.com/","en-GB,en-US;q=0.9,en;q=0.8,ar;q=0.7","667b1ca693a1d52a0447f22f","686d226cabeef709c732f8e1","686e313d7eb80da74ad69479","667b1ca693a1d52a0447f22f","","","","","","","","","","","","","","","","","","","","","","","","","","","","","","","","","","","","","","","","","","","","",""
"20081","","","{""yellow_ball"":[""Ball doesn‘t move and I get -1 penalty point""]}","survey-multi-select","33","383443","0.0-8.0-6.0-0.0","248","1","2025-07-09 09:59:42","7701e855f2ef39aa3fd6c71abdc6918a","41.145.197.56","Mozilla/5.0 (X11; Linux x86_64) AppleWebKit/537.36 (KHTML, like Gecko) Chrome/138.0.0.0 Safari/537.36","WebKit","Chrome","138.0.0.0","Linux","","https://app.prolific.com/","en-GB,en-US;q=0.9,en;q=0.8,ar;q=0.7","667b1ca693a1d52a0447f22f","686d226cabeef709c732f8e1","686e313d7eb80da74ad69479","667b1ca693a1d52a0447f22f","","","[0]","","","","quiz","","","","","","","","","","","","","","","","","","","","","","","","","","","","","","","","","","","","","true",""
"1145","","<p align='center'><b>CORRECT!</b> Indeed, the yellow ball never moves and you receive a penalty.</p>","0","html-button-response","34","384592","0.0-8.0-6.0-1.0","248","1","2025-07-09 09:59:42","7701e855f2ef39aa3fd6c71abdc6918a","41.145.197.56","Mozilla/5.0 (X11; Linux x86_64) AppleWebKit/537.36 (KHTML, like Gecko) Chrome/138.0.0.0 Safari/537.36","WebKit","Chrome","138.0.0.0","Linux","","https://app.prolific.com/","en-GB,en-US;q=0.9,en;q=0.8,ar;q=0.7","667b1ca693a1d52a0447f22f","686d226cabeef709c732f8e1","686e313d7eb80da74ad69479","667b1ca693a1d52a0447f22f","","","","","","","","","","","","","","","","","","","","","","","","","","","","","","","","","","","","","","","","","","","","",""
"10578","","","{""blue_ball"":[""Ball doesn‘t move and I get -1 penalty point""]}","survey-multi-select","35","395175","0.0-8.0-7.0-0.0","248","1","2025-07-09 09:59:42","7701e855f2ef39aa3fd6c71abdc6918a","41.145.197.56","Mozilla/5.0 (X11; Linux x86_64) AppleWebKit/537.36 (KHTML, like Gecko) Chrome/138.0.0.0 Safari/537.36","WebKit","Chrome","138.0.0.0","Linux","","https://app.prolific.com/","en-GB,en-US;q=0.9,en;q=0.8,ar;q=0.7","667b1ca693a1d52a0447f22f","686d226cabeef709c732f8e1","686e313d7eb80da74ad69479","667b1ca693a1d52a0447f22f","","","[0]","","","","quiz","","","","","","","","","","","","","","","","","","","","","","","","","","","","","","","","","","","","","false",""
"1165","","<p align='center'><b>INCORRECT.</b> The blue ball always shakes and moves randomly.</p>","0","html-button-response","36","396344","0.0-8.0-7.0-1.0","248","1","2025-07-09 09:59:42","7701e855f2ef39aa3fd6c71abdc6918a","41.145.197.56","Mozilla/5.0 (X11; Linux x86_64) AppleWebKit/537.36 (KHTML, like Gecko) Chrome/138.0.0.0 Safari/537.36","WebKit","Chrome","138.0.0.0","Linux","","https://app.prolific.com/","en-GB,en-US;q=0.9,en;q=0.8,ar;q=0.7","667b1ca693a1d52a0447f22f","686d226cabeef709c732f8e1","686e313d7eb80da74ad69479","667b1ca693a1d52a0447f22f","","","","","","","","","","","","","","","","","","","","","","","","","","","","","","","","","","","","","","","","","","","","",""
"3001","","","{""blue_ball"":[""Ball always shakes and moves in a random direction""]}","survey-multi-select","37","399350","0.0-8.0-7.1-0.1","248","1","2025-07-09 09:59:42","7701e855f2ef39aa3fd6c71abdc6918a","41.145.197.56","Mozilla/5.0 (X11; Linux x86_64) AppleWebKit/537.36 (KHTML, like Gecko) Chrome/138.0.0.0 Safari/537.36","WebKit","Chrome","138.0.0.0","Linux","","https://app.prolific.com/","en-GB,en-US;q=0.9,en;q=0.8,ar;q=0.7","667b1ca693a1d52a0447f22f","686d226cabeef709c732f8e1","686e313d7eb80da74ad69479","667b1ca693a1d52a0447f22f","","","[0]","","","","quiz","","","","","","","","","","","","","","","","","","","","","","","","","","","","","","","","","","","","","true",""
"1248","","<p align='center'><b>CORRECT!</b> Indeed, the blue ball always shakes and moves in a random direction. Also there is a penalty of -1 point.</p>","0","html-button-response","38","400601","0.0-8.0-7.1-1.1","248","1","2025-07-09 09:59:42","7701e855f2ef39aa3fd6c71abdc6918a","41.145.197.56","Mozilla/5.0 (X11; Linux x86_64) AppleWebKit/537.36 (KHTML, like Gecko) Chrome/138.0.0.0 Safari/537.36","WebKit","Chrome","138.0.0.0","Linux","","https://app.prolific.com/","en-GB,en-US;q=0.9,en;q=0.8,ar;q=0.7","667b1ca693a1d52a0447f22f","686d226cabeef709c732f8e1","686e313d7eb80da74ad69479","667b1ca693a1d52a0447f22f","","","","","","","","","","","","","","","","","","","","","","","","","","","","","","","","","","","","","","","","","","","","",""
"9517","","","{""bonus"":[""When I reach 50% of points""]}","survey-multi-select","39","410123","0.0-8.0-8.0-0.0","248","1","2025-07-09 09:59:42","7701e855f2ef39aa3fd6c71abdc6918a","41.145.197.56","Mozilla/5.0 (X11; Linux x86_64) AppleWebKit/537.36 (KHTML, like Gecko) Chrome/138.0.0.0 Safari/537.36","WebKit","Chrome","138.0.0.0","Linux","","https://app.prolific.com/","en-GB,en-US;q=0.9,en;q=0.8,ar;q=0.7","667b1ca693a1d52a0447f22f","686d226cabeef709c732f8e1","686e313d7eb80da74ad69479","667b1ca693a1d52a0447f22f","","","[0]","","","","quiz","","","","","","","","","","","","","","","","","","","","","","","","","","","","","","","","","","","","","true",""
"1176","","<p align='center'><b>CORRECT!</b> Indeed, you receive 2 pounds extra when you reach 50% of points.</p>","0","html-button-response","40","411301","0.0-8.0-8.0-1.0","248","1","2025-07-09 09:59:42","7701e855f2ef39aa3fd6c71abdc6918a","41.145.197.56","Mozilla/5.0 (X11; Linux x86_64) AppleWebKit/537.36 (KHTML, like Gecko) Chrome/138.0.0.0 Safari/537.36","WebKit","Chrome","138.0.0.0","Linux","","https://app.prolific.com/","en-GB,en-US;q=0.9,en;q=0.8,ar;q=0.7","667b1ca693a1d52a0447f22f","686d226cabeef709c732f8e1","686e313d7eb80da74ad69479","667b1ca693a1d52a0447f22f","","","","","","","","","","","","","","","","","","","","","","","","","","","","","","","","","","","","","","","","","","","","",""
"4829","","","","instructions","41","416132","0.0-8.0-9.0","248","1","2025-07-09 09:59:42","7701e855f2ef39aa3fd6c71abdc6918a","41.145.197.56","Mozilla/5.0 (X11; Linux x86_64) AppleWebKit/537.36 (KHTML, like Gecko) Chrome/138.0.0.0 Safari/537.36","WebKit","Chrome","138.0.0.0","Linux","","https://app.prolific.com/","en-GB,en-US;q=0.9,en;q=0.8,ar;q=0.7","667b1ca693a1d52a0447f22f","686d226cabeef709c732f8e1","686e313d7eb80da74ad69479","667b1ca693a1d52a0447f22f","","[{""page_index"":0,""viewing_time"":4828}]","","","","","","","","","","","","","","","","","","","","","","","","","","","","","","","","","","","","","","","","","","",""
"5970","","<p>Before you start with this game please answer the following three questions yourself. </p>
  <p>Through this game, we measure several aspects of your cognitive performance, such as reaction times, multi-tasking capabilities </p>
  <p>and the ability to assess the situation you are in.</p>
  <p></p>
  <p><b>How good do you usually are in such tasks?</b></p>","70","html-slider-response","42","422108","0.0-9.0-0.0","248","1","2025-07-09 09:59:42","7701e855f2ef39aa3fd6c71abdc6918a","41.145.197.56","Mozilla/5.0 (X11; Linux x86_64) AppleWebKit/537.36 (KHTML, like Gecko) Chrome/138.0.0.0 Safari/537.36","WebKit","Chrome","138.0.0.0","Linux","","https://app.prolific.com/","en-GB,en-US;q=0.9,en;q=0.8,ar;q=0.7","667b1ca693a1d52a0447f22f","686d226cabeef709c732f8e1","686e313d7eb80da74ad69479","667b1ca693a1d52a0447f22f","2025-07-09T10:06:46.431Z","","","","","","PreSkillQ","","","","","","","","","","","","","","","","","","","","","","","","","","","","","","","","","","","","","","50"
"5507","","<div style=""width:500px;"">
  <p>How well do you think you will perform in this task compared to other participants?</p>
  </div>","85","html-slider-response","43","427618","0.0-9.0-1.0","248","1","2025-07-09 09:59:42","7701e855f2ef39aa3fd6c71abdc6918a","41.145.197.56","Mozilla/5.0 (X11; Linux x86_64) AppleWebKit/537.36 (KHTML, like Gecko) Chrome/138.0.0.0 Safari/537.36","WebKit","Chrome","138.0.0.0","Linux","","https://app.prolific.com/","en-GB,en-US;q=0.9,en;q=0.8,ar;q=0.7","667b1ca693a1d52a0447f22f","686d226cabeef709c732f8e1","686e313d7eb80da74ad69479","667b1ca693a1d52a0447f22f","2025-07-09T10:06:51.941Z","","","","","","PrePerfQ","","","","","","","","","","","","","","","","","","","","","","","","","","","","","","","","","","","","","","50"
"4869","","<div style=""width:500px;"">
  <p>What best describes how you currently feel?</p>
  </div>","77","html-slider-response","44","432490","0.0-9.0-2.0","248","1","2025-07-09 09:59:42","7701e855f2ef39aa3fd6c71abdc6918a","41.145.197.56","Mozilla/5.0 (X11; Linux x86_64) AppleWebKit/537.36 (KHTML, like Gecko) Chrome/138.0.0.0 Safari/537.36","WebKit","Chrome","138.0.0.0","Linux","","https://app.prolific.com/","en-GB,en-US;q=0.9,en;q=0.8,ar;q=0.7","667b1ca693a1d52a0447f22f","686d226cabeef709c732f8e1","686e313d7eb80da74ad69479","667b1ca693a1d52a0447f22f","2025-07-09T10:06:56.814Z","","","","","","PreMotivationQ","","","","","","","","","","","","","","","","","","","","","","","","","","","","","","","","","","","","","","50"
"","","","","ctl-task-cpt","45","449522","0.0-10.0-0.0","248","1","2025-07-09 09:59:42","7701e855f2ef39aa3fd6c71abdc6918a","41.145.197.56","Mozilla/5.0 (X11; Linux x86_64) AppleWebKit/537.36 (KHTML, like Gecko) Chrome/138.0.0.0 Safari/537.36","WebKit","Chrome","138.0.0.0","Linux","","https://app.prolific.com/","en-GB,en-US;q=0.9,en;q=0.8,ar;q=0.7","667b1ca693a1d52a0447f22f","686d226cabeef709c732f8e1","686e313d7eb80da74ad69479","667b1ca693a1d52a0447f22f","2025-07-09T10:07:13.845Z","","","","","","","","","","","","","","","","win-only","1","g1:NE,g2:SW","1","1","0","435217.1","4487.3","9491.7","14016.3","1","4","8","6","1","-1","-1","0","0","0","5004.3","3000","-2940","[""up"",""right""]","{""num_key_presses"":0,""num_perfect"":0,""num_errors"":0,""num_randdir"":0,""num_randdir_good_moves"":0,""num_whilered"":0,""num_whileblue"":0,""num_blue"":0,""num_good_moves"":0}","[461.53588220107315,456.46294313439114,1.4,461.53588220107315,456.46294313439114,115.1,470.5388104580617,483.4717279053567,221.2,470.5388104580617,483.4717279053567,323.3,470.5388104580617,483.4717279053567,423.6,470.5388104580617,483.4717279053567,523.7,470.5388104580617,483.4717279053567,624.4,470.5388104580617,483.4717279053567,728.3,470.5388104580617,483.4717279053567,828.4,470.5388104580617,483.4717279053567,928.5,470.5388104580617,483.4717279053567,1028.5,470.5388104580617,483.4717279053567,1133.3,470.5388104580617,483.4717279053567,1233.9,470.5388104580617,483.4717279053567,1338.5,470.5388104580617,483.4717279053567,1443.4,470.5388104580617,483.4717279053567,1544.3,470.5388104580617,483.4717279053567,1648.4,470.5388104580617,483.4717279053567,1753.4,470.5388104580617,483.4717279053567,1863.9,470.5388104580617,483.4717279053567,1964.1,470.5388104580617,483.4717279053567,2070.6,470.5388104580617,483.4717279053567,2171.8,470.5388104580617,483.4717279053567,2273.6,470.5388104580617,483.4717279053567,2374.4,470.5388104580617,483.4717279053567,2478.8,470.5388104580617,483.4717279053567,2580.2,470.5388104580617,483.4717279053567,2684.8,470.5388104580617,483.4717279053567,2788.8,470.5388104580617,483.4717279053567,2893.4,470.5388104580617,483.4717279053567,2993.5,470.5388104580617,483.4717279053567,3098.9,470.5388104580617,483.4717279053567,3199.2,470.5388104580617,483.4717279053567,3308.2,470.5388104580617,483.4717279053567,3408.9,470.5388104580617,483.4717279053567,3517.7,470.5388104580617,483.4717279053567,3618.6,470.5388104580617,483.4717279053567,3724,470.5388104580617,483.4717279053567,3824.5,470.5388104580617,483.4717279053567,3934,470.5388104580617,483.4717279053567,4036.6,470.5388104580617,483.4717279053567,4138.3,470.5388104580617,483.4717279053567,4238.4,470.5388104580617,483.4717279053567,4338.4,470.5388104580617,483.4717279053567,4438.5,470.5388104580617,483.4717279053567,4544.5,470.5388104580617,483.4717279053567,4661.2,470.5388104580617,483.4717279053567,4762.1,470.5388104580617,483.4717279053567,4864.9,470.5388104580617,483.4717279053567,4965]","[]","",""
"5676","","<div style=""width:500px;"">
  <p>What determined the result of this run?</p>
  </div>","96","html-slider-response","46","455201","0.0-10.0-1.0","248","1","2025-07-09 09:59:42","7701e855f2ef39aa3fd6c71abdc6918a","41.145.197.56","Mozilla/5.0 (X11; Linux x86_64) AppleWebKit/537.36 (KHTML, like Gecko) Chrome/138.0.0.0 Safari/537.36","WebKit","Chrome","138.0.0.0","Linux","","https://app.prolific.com/","en-GB,en-US;q=0.9,en;q=0.8,ar;q=0.7","667b1ca693a1d52a0447f22f","686d226cabeef709c732f8e1","686e313d7eb80da74ad69479","667b1ca693a1d52a0447f22f","2025-07-09T10:07:19.524Z","","","","","","AttribQ","","","","","","","","","","","","","","","","","","","","","","","","","","","","","","","","","","","","","","50"
"6932","","<div style=""width:500px;"">
  <p>How much control did you have over the ball?</p>
  </div>","26","html-slider-response","47","462135","0.0-10.0-2.0","248","1","2025-07-09 09:59:42","7701e855f2ef39aa3fd6c71abdc6918a","41.145.197.56","Mozilla/5.0 (X11; Linux x86_64) AppleWebKit/537.36 (KHTML, like Gecko) Chrome/138.0.0.0 Safari/537.36","WebKit","Chrome","138.0.0.0","Linux","","https://app.prolific.com/","en-GB,en-US;q=0.9,en;q=0.8,ar;q=0.7","667b1ca693a1d52a0447f22f","686d226cabeef709c732f8e1","686e313d7eb80da74ad69479","667b1ca693a1d52a0447f22f","2025-07-09T10:07:26.458Z","","","","","","ControlQ","","","","","","","","","","","","","","","","","","","","","","","","","","","","","","","","","","","","","","50"
"4956","","<div style=""width:500px;"">
  <p>How would you describe your current emotional state?</p>
  </div>","50","html-slider-response","48","467094","0.0-10.0-3.0","248","1","2025-07-09 09:59:42","7701e855f2ef39aa3fd6c71abdc6918a","41.145.197.56","Mozilla/5.0 (X11; Linux x86_64) AppleWebKit/537.36 (KHTML, like Gecko) Chrome/138.0.0.0 Safari/537.36","WebKit","Chrome","138.0.0.0","Linux","","https://app.prolific.com/","en-GB,en-US;q=0.9,en;q=0.8,ar;q=0.7","667b1ca693a1d52a0447f22f","686d226cabeef709c732f8e1","686e313d7eb80da74ad69479","667b1ca693a1d52a0447f22f","2025-07-09T10:07:31.417Z","","","","","","StressQ","","","","","","","","","","","","","","","","","","","","","","","","","","","","","","","","","","","","","","50"
"3666","","<div style=""width:500px;"">
  <p>What best describes how you currently feel?</p>
  </div>","69","html-slider-response","49","470762","0.0-10.0-4.0","248","1","2025-07-09 09:59:42","7701e855f2ef39aa3fd6c71abdc6918a","41.145.197.56","Mozilla/5.0 (X11; Linux x86_64) AppleWebKit/537.36 (KHTML, like Gecko) Chrome/138.0.0.0 Safari/537.36","WebKit","Chrome","138.0.0.0","Linux","","https://app.prolific.com/","en-GB,en-US;q=0.9,en;q=0.8,ar;q=0.7","667b1ca693a1d52a0447f22f","686d226cabeef709c732f8e1","686e313d7eb80da74ad69479","667b1ca693a1d52a0447f22f","2025-07-09T10:07:35.085Z","","","","","","MotivationQ","","","","","","","","","","","","","","","","","","","","","","","","","","","","","","","","","","","","","","50"
"","","","","ctl-task-cpt","50","488298","0.0-10.0-0.1","248","1","2025-07-09 09:59:42","7701e855f2ef39aa3fd6c71abdc6918a","41.145.197.56","Mozilla/5.0 (X11; Linux x86_64) AppleWebKit/537.36 (KHTML, like Gecko) Chrome/138.0.0.0 Safari/537.36","WebKit","Chrome","138.0.0.0","Linux","","https://app.prolific.com/","en-GB,en-US;q=0.9,en;q=0.8,ar;q=0.7","667b1ca693a1d52a0447f22f","686d226cabeef709c732f8e1","686e313d7eb80da74ad69479","667b1ca693a1d52a0447f22f","2025-07-09T10:07:52.621Z","","","","","","","","","","","","","","","","win-only","0","g1:NW,g2:SE","0.9","2","0","473488.9","5008.5","10011.6","14521","1","4","4","6","2","-4","-4","0","0","0","2804.4","3000","-2780","[""down"",""right""]","{""num_key_presses"":0,""num_perfect"":0,""num_errors"":0,""num_randdir"":0,""num_randdir_good_moves"":0,""num_whilered"":0,""num_whileblue"":0,""num_blue"":0,""num_good_moves"":0}","[469.03832241523025,450.46099096306546,0.5,469.03832241523025,450.46099096306546,102,469.03832241523025,450.46099096306546,207,486.2939349077916,455.71269911297543,307.2,486.2939349077916,455.71269911297543,407.6,486.2939349077916,455.71269911297543,512.2,486.2939349077916,455.71269911297543,617.6,486.2939349077916,455.71269911297543,722.3,486.2939349077916,455.71269911297543,822.3,486.2939349077916,455.71269911297543,922.3,486.2939349077916,455.71269911297543,1027.2,486.2939349077916,455.71269911297543,1137.2,486.2939349077916,455.71269911297543,1244.6,486.2939349077916,455.71269911297543,1347.2,486.2939349077916,455.71269911297543,1447.3,486.2939349077916,455.71269911297543,1547.7,442.0295376442647,404.6961056567071,1652.2,442.0295376442647,404.6961056567071,1752.7,399.2656284235692,403.9458616352914,1857.2,399.2656284235692,403.9458616352914,1962.7,399.2656284235692,403.9458616352914,2067,399.2656284235692,403.9458616352914,2167.2,399.2656284235692,403.9458616352914,2267.2,399.2656284235692,403.9458616352914,2367.2,399.2656284235692,403.9458616352914,2467.2,399.2656284235692,403.9458616352914,2567.2,399.2656284235692,403.9458616352914,2667.2,399.2656284235692,403.9458616352914,2768.7,853.163261380074,853.342030463302,2872.8,853.163261380074,853.342030463302,2977.4,853.163261380074,853.342030463302,3077.6,853.163261380074,853.342030463302,3183.1,853.163261380074,853.342030463302,3287.4,853.163261380074,853.342030463302,3387.6,853.163261380074,853.342030463302,3489.1,853.163261380074,853.342030463302,3591.7,853.163261380074,853.342030463302,3692.4,853.163261380074,853.342030463302,3797.4,853.163261380074,853.342030463302,3902.4,853.163261380074,853.342030463302,4002.4,853.163261380074,853.342030463302,4102.4,853.163261380074,853.342030463302,4202.5,853.163261380074,853.342030463302,4307.1,853.163261380074,853.342030463302,4407.4,853.163261380074,853.342030463302,4512.2,853.163261380074,853.342030463302,4612.3,853.163261380074,853.342030463302,4712.3,853.163261380074,853.342030463302,4812.3,853.163261380074,853.342030463302,4917.4]","[]","",""
"5876","","<div style=""width:500px;"">
  <p>What determined the result of this run?</p>
  </div>","5","html-slider-response","51","494177","0.0-10.0-1.1","248","1","2025-07-09 09:59:42","7701e855f2ef39aa3fd6c71abdc6918a","41.145.197.56","Mozilla/5.0 (X11; Linux x86_64) AppleWebKit/537.36 (KHTML, like Gecko) Chrome/138.0.0.0 Safari/537.36","WebKit","Chrome","138.0.0.0","Linux","","https://app.prolific.com/","en-GB,en-US;q=0.9,en;q=0.8,ar;q=0.7","667b1ca693a1d52a0447f22f","686d226cabeef709c732f8e1","686e313d7eb80da74ad69479","667b1ca693a1d52a0447f22f","2025-07-09T10:07:58.500Z","","","","","","AttribQ","","","","","","","","","","","","","","","","","","","","","","","","","","","","","","","","","","","","","","50"
"4753","","<div style=""width:500px;"">
  <p>How much control did you have over the ball?</p>
  </div>","70","html-slider-response","52","498932","0.0-10.0-2.1","248","1","2025-07-09 09:59:42","7701e855f2ef39aa3fd6c71abdc6918a","41.145.197.56","Mozilla/5.0 (X11; Linux x86_64) AppleWebKit/537.36 (KHTML, like Gecko) Chrome/138.0.0.0 Safari/537.36","WebKit","Chrome","138.0.0.0","Linux","","https://app.prolific.com/","en-GB,en-US;q=0.9,en;q=0.8,ar;q=0.7","667b1ca693a1d52a0447f22f","686d226cabeef709c732f8e1","686e313d7eb80da74ad69479","667b1ca693a1d52a0447f22f","2025-07-09T10:08:03.255Z","","","","","","ControlQ","","","","","","","","","","","","","","","","","","","","","","","","","","","","","","","","","","","","","","50"
"3281","","<div style=""width:500px;"">
  <p>How would you describe your current emotional state?</p>
  </div>","68","html-slider-response","53","502216","0.0-10.0-3.1","248","1","2025-07-09 09:59:42","7701e855f2ef39aa3fd6c71abdc6918a","41.145.197.56","Mozilla/5.0 (X11; Linux x86_64) AppleWebKit/537.36 (KHTML, like Gecko) Chrome/138.0.0.0 Safari/537.36","WebKit","Chrome","138.0.0.0","Linux","","https://app.prolific.com/","en-GB,en-US;q=0.9,en;q=0.8,ar;q=0.7","667b1ca693a1d52a0447f22f","686d226cabeef709c732f8e1","686e313d7eb80da74ad69479","667b1ca693a1d52a0447f22f","2025-07-09T10:08:06.539Z","","","","","","StressQ","","","","","","","","","","","","","","","","","","","","","","","","","","","","","","","","","","","","","","50"
"6256","","<div style=""width:500px;"">
  <p>What best describes how you currently feel?</p>
  </div>","74","html-slider-response","54","508474","0.0-10.0-4.1","248","1","2025-07-09 09:59:42","7701e855f2ef39aa3fd6c71abdc6918a","41.145.197.56","Mozilla/5.0 (X11; Linux x86_64) AppleWebKit/537.36 (KHTML, like Gecko) Chrome/138.0.0.0 Safari/537.36","WebKit","Chrome","138.0.0.0","Linux","","https://app.prolific.com/","en-GB,en-US;q=0.9,en;q=0.8,ar;q=0.7","667b1ca693a1d52a0447f22f","686d226cabeef709c732f8e1","686e313d7eb80da74ad69479","667b1ca693a1d52a0447f22f","2025-07-09T10:08:12.797Z","","","","","","MotivationQ","","","","","","","","","","","","","","","","","","","","","","","","","","","","","","","","","","","","","","50"
"","","","","ctl-task-cpt","55","530084","0.0-10.0-0.2","248","1","2025-07-09 09:59:42","7701e855f2ef39aa3fd6c71abdc6918a","41.145.197.56","Mozilla/5.0 (X11; Linux x86_64) AppleWebKit/537.36 (KHTML, like Gecko) Chrome/138.0.0.0 Safari/537.36","WebKit","Chrome","138.0.0.0","Linux","","https://app.prolific.com/","en-GB,en-US;q=0.9,en;q=0.8,ar;q=0.7","667b1ca693a1d52a0447f22f","686d226cabeef709c732f8e1","686e313d7eb80da74ad69479","667b1ca693a1d52a0447f22f","2025-07-09T10:08:34.407Z","","","","","","","","","","","","","","","","win-only","3","g1:SW,g2:NE","0.8","3","0","511198","8864.2","13879.4","18597","1","4","8","6","1","-1","-1","0","0","0","1465.8","3000","-2785","[""down"",""left""]","{""num_key_presses"":0,""num_perfect"":0,""num_errors"":0,""num_randdir"":0,""num_randdir_good_moves"":0,""num_whilered"":0,""num_whileblue"":0,""num_blue"":0,""num_good_moves"":0}","[459.285150136826,460.9644072628854,0.8,459.285150136826,460.9644072628854,101.5,459.285150136826,460.9644072628854,201.6,459.285150136826,460.9644072628854,301.6,459.285150136826,460.9644072628854,407.3,459.285150136826,460.9644072628854,508.4,459.285150136826,460.9644072628854,611.6,459.285150136826,460.9644072628854,716.6,459.285150136826,460.9644072628854,821.6,459.285150136826,460.9644072628854,921.6,459.285150136826,460.9644072628854,1026.7,459.285150136826,460.9644072628854,1131.5,459.285150136826,460.9644072628854,1232.6,459.285150136826,460.9644072628854,1336.5,459.285150136826,460.9644072628854,1437.6,90.1650916002965,850.3410543776391,1541.8,90.1650916002965,850.3410543776391,1643.3,90.1650916002965,850.3410543776391,1743.9,90.1650916002965,850.3410543776391,1847,90.1650916002965,850.3410543776391,1948.8,90.1650916002965,850.3410543776391,2049.3,90.1650916002965,850.3410543776391,2152.1,90.1650916002965,850.3410543776391,2272.3,90.1650916002965,850.3410543776391,2375.6,90.1650916002965,850.3410543776391,2476.9,90.1650916002965,850.3410543776391,2593.6,90.1650916002965,850.3410543776391,2697.2,90.1650916002965,850.3410543776391,2798,90.1650916002965,850.3410543776391,2898.2,90.1650916002965,850.3410543776391,2998.7,90.1650916002965,850.3410543776391,3101.6,90.1650916002965,850.3410543776391,3206.9,90.1650916002965,850.3410543776391,3316.6,90.1650916002965,850.3410543776391,3418.8,90.1650916002965,850.3410543776391,3521.9,90.1650916002965,850.3410543776391,3626.5,90.1650916002965,850.3410543776391,3726.6,90.1650916002965,850.3410543776391,3826.6,90.1650916002965,850.3410543776391,3928,90.1650916002965,850.3410543776391,4033,90.1650916002965,850.3410543776391,4136.6,90.1650916002965,850.3410543776391,4236.6,90.1650916002965,850.3410543776391,4336.9,90.1650916002965,850.3410543776391,4436.9,90.1650916002965,850.3410543776391,4543.9,90.1650916002965,850.3410543776391,4646.8,90.1650916002965,850.3410543776391,4747.9,90.1650916002965,850.3410543776391,4855.1,90.1650916002965,850.3410543776391,4956.6]","[]","",""
"1974","","<div style=""width:500px;"">
  <p>What determined the result of this run?</p>
  </div>","71","html-slider-response","56","532060","0.0-10.0-1.2","248","1","2025-07-09 09:59:42","7701e855f2ef39aa3fd6c71abdc6918a","41.145.197.56","Mozilla/5.0 (X11; Linux x86_64) AppleWebKit/537.36 (KHTML, like Gecko) Chrome/138.0.0.0 Safari/537.36","WebKit","Chrome","138.0.0.0","Linux","","https://app.prolific.com/","en-GB,en-US;q=0.9,en;q=0.8,ar;q=0.7","667b1ca693a1d52a0447f22f","686d226cabeef709c732f8e1","686e313d7eb80da74ad69479","667b1ca693a1d52a0447f22f","2025-07-09T10:08:36.383Z","","","","","","AttribQ","","","","","","","","","","","","","","","","","","","","","","","","","","","","","","","","","","","","","","50"
"1659","","<div style=""width:500px;"">
  <p>How much control did you have over the ball?</p>
  </div>","75","html-slider-response","57","533721","0.0-10.0-2.2","248","1","2025-07-09 09:59:42","7701e855f2ef39aa3fd6c71abdc6918a","41.145.197.56","Mozilla/5.0 (X11; Linux x86_64) AppleWebKit/537.36 (KHTML, like Gecko) Chrome/138.0.0.0 Safari/537.36","WebKit","Chrome","138.0.0.0","Linux","","https://app.prolific.com/","en-GB,en-US;q=0.9,en;q=0.8,ar;q=0.7","667b1ca693a1d52a0447f22f","686d226cabeef709c732f8e1","686e313d7eb80da74ad69479","667b1ca693a1d52a0447f22f","2025-07-09T10:08:38.044Z","","","","","","ControlQ","","","","","","","","","","","","","","","","","","","","","","","","","","","","","","","","","","","","","","50"
"1087","","<div style=""width:500px;"">
  <p>How would you describe your current emotional state?</p>
  </div>","70","html-slider-response","58","534810","0.0-10.0-3.2","248","1","2025-07-09 09:59:42","7701e855f2ef39aa3fd6c71abdc6918a","41.145.197.56","Mozilla/5.0 (X11; Linux x86_64) AppleWebKit/537.36 (KHTML, like Gecko) Chrome/138.0.0.0 Safari/537.36","WebKit","Chrome","138.0.0.0","Linux","","https://app.prolific.com/","en-GB,en-US;q=0.9,en;q=0.8,ar;q=0.7","667b1ca693a1d52a0447f22f","686d226cabeef709c732f8e1","686e313d7eb80da74ad69479","667b1ca693a1d52a0447f22f","2025-07-09T10:08:39.133Z","","","","","","StressQ","","","","","","","","","","","","","","","","","","","","","","","","","","","","","","","","","","","","","","50"
"5303","","<div style=""width:500px;"">
  <p>What best describes how you currently feel?</p>
  </div>","69","html-slider-response","59","540115","0.0-10.0-4.2","248","1","2025-07-09 09:59:42","7701e855f2ef39aa3fd6c71abdc6918a","41.145.197.56","Mozilla/5.0 (X11; Linux x86_64) AppleWebKit/537.36 (KHTML, like Gecko) Chrome/138.0.0.0 Safari/537.36","WebKit","Chrome","138.0.0.0","Linux","","https://app.prolific.com/","en-GB,en-US;q=0.9,en;q=0.8,ar;q=0.7","667b1ca693a1d52a0447f22f","686d226cabeef709c732f8e1","686e313d7eb80da74ad69479","667b1ca693a1d52a0447f22f","2025-07-09T10:08:44.438Z","","","","","","MotivationQ","","","","","","","","","","","","","","","","","","","","","","","","","","","","","","","","","","","","","","50"
"","","","","ctl-task-cpt","60","569655","0.0-10.0-0.3","248","1","2025-07-09 09:59:42","7701e855f2ef39aa3fd6c71abdc6918a","41.145.197.56","Mozilla/5.0 (X11; Linux x86_64) AppleWebKit/537.36 (KHTML, like Gecko) Chrome/138.0.0.0 Safari/537.36","WebKit","Chrome","138.0.0.0","Linux","","https://app.prolific.com/","en-GB,en-US;q=0.9,en;q=0.8,ar;q=0.7","667b1ca693a1d52a0447f22f","686d226cabeef709c732f8e1","686e313d7eb80da74ad69479","667b1ca693a1d52a0447f22f","2025-07-09T10:09:13.979Z","","","","","","","","","","","","","","","","win-only","3","g1:SW,g2:NE","0.7","4","0","542839","16758","21763.9","26525.2","1","4","4","6","2","-4","-4","0","0","0","5005.9","3000","-2565","[""up"",""right""]","{""num_key_presses"":0,""num_perfect"":0,""num_errors"":0,""num_randdir"":0,""num_randdir_good_moves"":0,""num_whilered"":0,""num_whileblue"":0,""num_blue"":0,""num_good_moves"":0}","[473.5397865437245,465.46587139137966,0.6,473.5397865437245,465.46587139137966,102.8,463.03637024390457,492.47465616234524,220.3,463.03637024390457,492.47465616234524,325,463.03637024390457,492.47465616234524,425.1,463.03637024390457,492.47465616234524,549.1,463.03637024390457,492.47465616234524,651.9,463.03637024390457,492.47465616234524,753.2,463.03637024390457,492.47465616234524,853.2,463.03637024390457,492.47465616234524,957.6,463.03637024390457,492.47465616234524,1060.4,463.03637024390457,492.47465616234524,1163.4,463.03637024390457,492.47465616234524,1267.4,463.03637024390457,492.47465616234524,1371.5,463.03637024390457,492.47465616234524,1472.6,463.03637024390457,492.47465616234524,1575.1,463.03637024390457,492.47465616234524,1679.5,463.03637024390457,492.47465616234524,1789.4,299.4831735752797,-41.69908708564057,1893.1,299.4831735752797,-41.69908708564057,1996,299.4831735752797,-41.69908708564057,2098.2,299.4831735752797,-41.69908708564057,2198.5,299.4831735752797,-41.69908708564057,2299.1,299.4831735752797,-41.69908708564057,2400.3,299.4831735752797,-41.69908708564057,2502.7,299.4831735752797,-41.69908708564057,2604.5,299.4831735752797,-41.69908708564057,2711.4,299.4831735752797,-41.69908708564057,2813.4,299.4831735752797,-41.69908708564057,2920.6,299.4831735752797,-41.69908708564057,3026.8,299.4831735752797,-41.69908708564057,3130.7,299.4831735752797,-41.69908708564057,3230.8,299.4831735752797,-41.69908708564057,3336.7,299.4831735752797,-41.69908708564057,3437.4,299.4831735752797,-41.69908708564057,3539.4,299.4831735752797,-41.69908708564057,3641.8,299.4831735752797,-41.69908708564057,3742,299.4831735752797,-41.69908708564057,3844.6,299.4831735752797,-41.69908708564057,3948,299.4831735752797,-41.69908708564057,4048.1,299.4831735752797,-41.69908708564057,4149.3,299.4831735752797,-41.69908708564057,4253.6,299.4831735752797,-41.69908708564057,4358.1,299.4831735752797,-41.69908708564057,4460.5,299.4831735752797,-41.69908708564057,4563.3,299.4831735752797,-41.69908708564057,4663.9,299.4831735752797,-41.69908708564057,4766.6,299.4831735752797,-41.69908708564057,4868.3,299.4831735752797,-41.69908708564057,4969]","[]","",""
"1978","","<div style=""width:500px;"">
  <p>What determined the result of this run?</p>
  </div>","65","html-slider-response","61","571637","0.0-10.0-1.3","248","1","2025-07-09 09:59:42","7701e855f2ef39aa3fd6c71abdc6918a","41.145.197.56","Mozilla/5.0 (X11; Linux x86_64) AppleWebKit/537.36 (KHTML, like Gecko) Chrome/138.0.0.0 Safari/537.36","WebKit","Chrome","138.0.0.0","Linux","","https://app.prolific.com/","en-GB,en-US;q=0.9,en;q=0.8,ar;q=0.7","667b1ca693a1d52a0447f22f","686d226cabeef709c732f8e1","686e313d7eb80da74ad69479","667b1ca693a1d52a0447f22f","2025-07-09T10:09:15.960Z","","","","","","AttribQ","","","","","","","","","","","","","","","","","","","","","","","","","","","","","","","","","","","","","","50"
"1688","","<div style=""width:500px;"">
  <p>How much control did you have over the ball?</p>
  </div>","32","html-slider-response","62","573327","0.0-10.0-2.3","248","1","2025-07-09 09:59:42","7701e855f2ef39aa3fd6c71abdc6918a","41.145.197.56","Mozilla/5.0 (X11; Linux x86_64) AppleWebKit/537.36 (KHTML, like Gecko) Chrome/138.0.0.0 Safari/537.36","WebKit","Chrome","138.0.0.0","Linux","","https://app.prolific.com/","en-GB,en-US;q=0.9,en;q=0.8,ar;q=0.7","667b1ca693a1d52a0447f22f","686d226cabeef709c732f8e1","686e313d7eb80da74ad69479","667b1ca693a1d52a0447f22f","2025-07-09T10:09:17.650Z","","","","","","ControlQ","","","","","","","","","","","","","","","","","","","","","","","","","","","","","","","","","","","","","","50"
"3037","","<div style=""width:500px;"">
  <p>How would you describe your current emotional state?</p>
  </div>","36","html-slider-response","63","576366","0.0-10.0-3.3","248","1","2025-07-09 09:59:42","7701e855f2ef39aa3fd6c71abdc6918a","41.145.197.56","Mozilla/5.0 (X11; Linux x86_64) AppleWebKit/537.36 (KHTML, like Gecko) Chrome/138.0.0.0 Safari/537.36","WebKit","Chrome","138.0.0.0","Linux","","https://app.prolific.com/","en-GB,en-US;q=0.9,en;q=0.8,ar;q=0.7","667b1ca693a1d52a0447f22f","686d226cabeef709c732f8e1","686e313d7eb80da74ad69479","667b1ca693a1d52a0447f22f","2025-07-09T10:09:20.690Z","","","","","","StressQ","","","","","","","","","","","","","","","","","","","","","","","","","","","","","","","","","","","","","","50"
"1553","","<div style=""width:500px;"">
  <p>What best describes how you currently feel?</p>
  </div>","68","html-slider-response","64","577921","0.0-10.0-4.3","248","1","2025-07-09 09:59:42","7701e855f2ef39aa3fd6c71abdc6918a","41.145.197.56","Mozilla/5.0 (X11; Linux x86_64) AppleWebKit/537.36 (KHTML, like Gecko) Chrome/138.0.0.0 Safari/537.36","WebKit","Chrome","138.0.0.0","Linux","","https://app.prolific.com/","en-GB,en-US;q=0.9,en;q=0.8,ar;q=0.7","667b1ca693a1d52a0447f22f","686d226cabeef709c732f8e1","686e313d7eb80da74ad69479","667b1ca693a1d52a0447f22f","2025-07-09T10:09:22.245Z","","","","","","MotivationQ","","","","","","","","","","","","","","","","","","","","","","","","","","","","","","","","","","","","","","50"
"","","","","ctl-task-cpt","65","597356","0.0-10.0-0.4","248","1","2025-07-09 09:59:42","7701e855f2ef39aa3fd6c71abdc6918a","41.145.197.56","Mozilla/5.0 (X11; Linux x86_64) AppleWebKit/537.36 (KHTML, like Gecko) Chrome/138.0.0.0 Safari/537.36","WebKit","Chrome","138.0.0.0","Linux","","https://app.prolific.com/","en-GB,en-US;q=0.9,en;q=0.8,ar;q=0.7","667b1ca693a1d52a0447f22f","686d226cabeef709c732f8e1","686e313d7eb80da74ad69479","667b1ca693a1d52a0447f22f","2025-07-09T10:09:41.679Z","","","","","","","","","","","","","","","","win-only","1","g1:NE,g2:SW","0.6","5","0","580644.9","5518","10521.7","16420.8","1","4","8","6","1","-1","-1","0","0","0","1462.4","3000","-2300","[""up"",""right""]","{""num_key_presses"":0,""num_perfect"":0,""num_errors"":0,""num_randdir"":0,""num_randdir_good_moves"":0,""num_whilered"":0,""num_whileblue"":0,""num_blue"":0,""num_good_moves"":0}","[461.53588220107315,467.7166034556268,0.4,461.53588220107315,467.7166034556268,100.4,461.53588220107315,467.7166034556268,204,461.53588220107315,467.7166034556268,309.9,461.53588220107315,467.7166034556268,411.5,461.53588220107315,467.7166034556268,515.7,461.53588220107315,467.7166034556268,617.8,461.53588220107315,467.7166034556268,721.5,461.53588220107315,467.7166034556268,839.2,461.53588220107315,467.7166034556268,948.9,461.53588220107315,467.7166034556268,1060.2,461.53588220107315,467.7166034556268,1161.1,461.53588220107315,467.7166034556268,1264.2,461.53588220107315,467.7166034556268,1365.4,857.6647255085683,74.58873623379455,1467.6,857.6647255085683,74.58873623379455,1569.7,857.6647255085683,74.58873623379455,1672.1,857.6647255085683,74.58873623379455,1774.4,857.6647255085683,74.58873623379455,1876.4,857.6647255085683,74.58873623379455,1982,857.6647255085683,74.58873623379455,2086.6,857.6647255085683,74.58873623379455,2188.9,857.6647255085683,74.58873623379455,2297.1,857.6647255085683,74.58873623379455,2404.5,857.6647255085683,74.58873623379455,2508.1,857.6647255085683,74.58873623379455,2609.8,538.0607723854756,406.94683772095425,2721,538.0607723854756,406.94683772095425,2823.7,538.0607723854756,406.94683772095425,2935.9,538.0607723854756,406.94683772095425,3036.8,538.0607723854756,406.94683772095425,3139.9,538.0607723854756,406.94683772095425,3256.8,538.0607723854756,406.94683772095425,3357.7,538.0607723854756,406.94683772095425,3459.7,538.0607723854756,406.94683772095425,3559.7,538.0607723854756,406.94683772095425,3665.7,538.0607723854756,406.94683772095425,3771.3,538.0607723854756,406.94683772095425,3880.4,809.6491081379628,102.34776502617584,3988.1,809.6491081379628,102.34776502617584,4092.3,809.6491081379628,102.34776502617584,4192.4,809.6491081379628,102.34776502617584,4295.1,809.6491081379628,102.34776502617584,4399.3,809.6491081379628,102.34776502617584,4503.4,809.6491081379628,102.34776502617584,4621.7,809.6491081379628,102.34776502617584,4722.6,809.6491081379628,102.34776502617584,4827.2,809.6491081379628,102.34776502617584,4933.3]","[]","",""
"2141","","<div style=""width:500px;"">
  <p>What determined the result of this run?</p>
  </div>","73","html-slider-response","66","599499","0.0-10.0-1.4","248","1","2025-07-09 09:59:42","7701e855f2ef39aa3fd6c71abdc6918a","41.145.197.56","Mozilla/5.0 (X11; Linux x86_64) AppleWebKit/537.36 (KHTML, like Gecko) Chrome/138.0.0.0 Safari/537.36","WebKit","Chrome","138.0.0.0","Linux","","https://app.prolific.com/","en-GB,en-US;q=0.9,en;q=0.8,ar;q=0.7","667b1ca693a1d52a0447f22f","686d226cabeef709c732f8e1","686e313d7eb80da74ad69479","667b1ca693a1d52a0447f22f","2025-07-09T10:09:43.822Z","","","","","","AttribQ","","","","","","","","","","","","","","","","","","","","","","","","","","","","","","","","","","","","","","50"
"1290","","<div style=""width:500px;"">
  <p>How much control did you have over the ball?</p>
  </div>","76","html-slider-response","67","600791","0.0-10.0-2.4","248","1","2025-07-09 09:59:42","7701e855f2ef39aa3fd6c71abdc6918a","41.145.197.56","Mozilla/5.0 (X11; Linux x86_64) AppleWebKit/537.36 (KHTML, like Gecko) Chrome/138.0.0.0 Safari/537.36","WebKit","Chrome","138.0.0.0","Linux","","https://app.prolific.com/","en-GB,en-US;q=0.9,en;q=0.8,ar;q=0.7","667b1ca693a1d52a0447f22f","686d226cabeef709c732f8e1","686e313d7eb80da74ad69479","667b1ca693a1d52a0447f22f","2025-07-09T10:09:45.114Z","","","","","","ControlQ","","","","","","","","","","","","","","","","","","","","","","","","","","","","","","","","","","","","","","50"
"4687","","<div style=""width:500px;"">
  <p>How would you describe your current emotional state?</p>
  </div>","77","html-slider-response","68","605481","0.0-10.0-3.4","248","1","2025-07-09 09:59:42","7701e855f2ef39aa3fd6c71abdc6918a","41.145.197.56","Mozilla/5.0 (X11; Linux x86_64) AppleWebKit/537.36 (KHTML, like Gecko) Chrome/138.0.0.0 Safari/537.36","WebKit","Chrome","138.0.0.0","Linux","","https://app.prolific.com/","en-GB,en-US;q=0.9,en;q=0.8,ar;q=0.7","667b1ca693a1d52a0447f22f","686d226cabeef709c732f8e1","686e313d7eb80da74ad69479","667b1ca693a1d52a0447f22f","2025-07-09T10:09:49.804Z","","","","","","StressQ","","","","","","","","","","","","","","","","","","","","","","","","","","","","","","","","","","","","","","50"
"5146","","<div style=""width:500px;"">
  <p>What best describes how you currently feel?</p>
  </div>","74","html-slider-response","69","610628","0.0-10.0-4.4","248","1","2025-07-09 09:59:42","7701e855f2ef39aa3fd6c71abdc6918a","41.145.197.56","Mozilla/5.0 (X11; Linux x86_64) AppleWebKit/537.36 (KHTML, like Gecko) Chrome/138.0.0.0 Safari/537.36","WebKit","Chrome","138.0.0.0","Linux","","https://app.prolific.com/","en-GB,en-US;q=0.9,en;q=0.8,ar;q=0.7","667b1ca693a1d52a0447f22f","686d226cabeef709c732f8e1","686e313d7eb80da74ad69479","667b1ca693a1d52a0447f22f","2025-07-09T10:09:54.951Z","","","","","","MotivationQ","","","","","","","","","","","","","","","","","","","","","","","","","","","","","","","","","","","","","","50"
"","","","","ctl-task-cpt","70","629786","0.0-10.0-0.5","248","1","2025-07-09 09:59:42","7701e855f2ef39aa3fd6c71abdc6918a","41.145.197.56","Mozilla/5.0 (X11; Linux x86_64) AppleWebKit/537.36 (KHTML, like Gecko) Chrome/138.0.0.0 Safari/537.36","WebKit","Chrome","138.0.0.0","Linux","","https://app.prolific.com/","en-GB,en-US;q=0.9,en;q=0.8,ar;q=0.7","667b1ca693a1d52a0447f22f","686d226cabeef709c732f8e1","686e313d7eb80da74ad69479","667b1ca693a1d52a0447f22f","2025-07-09T10:10:14.109Z","","","","","","","","","","","","","","","","win-only","3","g1:SW,g2:NE","0.5","6","0","613352.3","2441.4","7445.5","16131.3","1","4","4","6","1","-1","-1","0","0","0","5004","3000","-1970","[""down"",""left""]","{""num_key_presses"":0,""num_perfect"":0,""num_errors"":0,""num_randdir"":0,""num_randdir_good_moves"":0,""num_whilered"":0,""num_whileblue"":0,""num_blue"":0,""num_good_moves"":0}","[470.5388104580617,463.96538334854824,0.5,470.5388104580617,463.96538334854824,100.4,470.5388104580617,463.96538334854824,205.3,470.5388104580617,463.96538334854824,309.3,470.5388104580617,463.96538334854824,412.6,470.5388104580617,463.96538334854824,519.2,470.5388104580617,463.96538334854824,620.3,470.5388104580617,463.96538334854824,723.4,470.5388104580617,463.96538334854824,824.7,470.5388104580617,463.96538334854824,946.7,470.5388104580617,463.96538334854824,1052.4,470.5388104580617,463.96538334854824,1156.4,470.5388104580617,463.96538334854824,1260.3,470.5388104580617,463.96538334854824,1362.8,470.5388104580617,463.96538334854824,1469.3,470.5388104580617,463.96538334854824,1572.5,470.5388104580617,463.96538334854824,1673.8,470.5388104580617,463.96538334854824,1777.1,470.5388104580617,463.96538334854824,1881.5,470.5388104580617,463.96538334854824,1985.5,470.5388104580617,463.96538334854824,2086.8,470.5388104580617,463.96538334854824,2191.8,470.5388104580617,463.96538334854824,2294.6,470.5388104580617,463.96538334854824,2399,470.5388104580617,463.96538334854824,2499.8,470.5388104580617,463.96538334854824,2604.5,470.5388104580617,463.96538334854824,2706.6,470.5388104580617,463.96538334854824,2810.4,470.5388104580617,463.96538334854824,2912,470.5388104580617,463.96538334854824,3020.8,470.5388104580617,463.96538334854824,3123,470.5388104580617,463.96538334854824,3228.8,470.5388104580617,463.96538334854824,3333.2,470.5388104580617,463.96538334854824,3433.9,470.5388104580617,463.96538334854824,3538.6,470.5388104580617,463.96538334854824,3643.8,470.5388104580617,463.96538334854824,3743.8,470.5388104580617,463.96538334854824,3844.9,470.5388104580617,463.96538334854824,3949.1,470.5388104580617,463.96538334854824,4057.2,470.5388104580617,463.96538334854824,4158.1,470.5388104580617,463.96538334854824,4260.8,470.5388104580617,463.96538334854824,4360.9,470.5388104580617,463.96538334854824,4470.1,470.5388104580617,463.96538334854824,4571.4,470.5388104580617,463.96538334854824,4674.3,470.5388104580617,463.96538334854824,4782.8,470.5388104580617,463.96538334854824,4891.2,470.5388104580617,463.96538334854824,4992.6]","[]","",""
"38186","","<div style=""width:500px;"">
  <p>What determined the result of this run?</p>
  </div>","23","html-slider-response","71","667984","0.0-10.0-1.5","248","1","2025-07-09 09:59:42","7701e855f2ef39aa3fd6c71abdc6918a","41.145.197.56","Mozilla/5.0 (X11; Linux x86_64) AppleWebKit/537.36 (KHTML, like Gecko) Chrome/138.0.0.0 Safari/537.36","WebKit","Chrome","138.0.0.0","Linux","","https://app.prolific.com/","en-GB,en-US;q=0.9,en;q=0.8,ar;q=0.7","667b1ca693a1d52a0447f22f","686d226cabeef709c732f8e1","686e313d7eb80da74ad69479","667b1ca693a1d52a0447f22f","2025-07-09T10:10:52.307Z","","","","","","AttribQ","","","","","","","","","","","","","","","","","","","","","","","","","","","","","","","","","","","","","","50"
"4214","","<div style=""width:500px;"">
  <p>How much control did you have over the ball?</p>
  </div>","9","html-slider-response","72","672201","0.0-10.0-2.5","248","1","2025-07-09 09:59:42","7701e855f2ef39aa3fd6c71abdc6918a","41.145.197.56","Mozilla/5.0 (X11; Linux x86_64) AppleWebKit/537.36 (KHTML, like Gecko) Chrome/138.0.0.0 Safari/537.36","WebKit","Chrome","138.0.0.0","Linux","","https://app.prolific.com/","en-GB,en-US;q=0.9,en;q=0.8,ar;q=0.7","667b1ca693a1d52a0447f22f","686d226cabeef709c732f8e1","686e313d7eb80da74ad69479","667b1ca693a1d52a0447f22f","2025-07-09T10:10:56.524Z","","","","","","ControlQ","","","","","","","","","","","","","","","","","","","","","","","","","","","","","","","","","","","","","","50"
"14351","","<div style=""width:500px;"">
  <p>How would you describe your current emotional state?</p>
  </div>","84","html-slider-response","73","686555","0.0-10.0-3.5","248","1","2025-07-09 09:59:42","7701e855f2ef39aa3fd6c71abdc6918a","41.145.197.56","Mozilla/5.0 (X11; Linux x86_64) AppleWebKit/537.36 (KHTML, like Gecko) Chrome/138.0.0.0 Safari/537.36","WebKit","Chrome","138.0.0.0","Linux","","https://app.prolific.com/","en-GB,en-US;q=0.9,en;q=0.8,ar;q=0.7","667b1ca693a1d52a0447f22f","686d226cabeef709c732f8e1","686e313d7eb80da74ad69479","667b1ca693a1d52a0447f22f","2025-07-09T10:11:10.878Z","","","","","","StressQ","","","","","","","","","","","","","","","","","","","","","","","","","","","","","","","","","","","","","","50"
"9975","","<div style=""width:500px;"">
  <p>What best describes how you currently feel?</p>
  </div>","51","html-slider-response","74","696533","0.0-10.0-4.5","248","1","2025-07-09 09:59:42","7701e855f2ef39aa3fd6c71abdc6918a","41.145.197.56","Mozilla/5.0 (X11; Linux x86_64) AppleWebKit/537.36 (KHTML, like Gecko) Chrome/138.0.0.0 Safari/537.36","WebKit","Chrome","138.0.0.0","Linux","","https://app.prolific.com/","en-GB,en-US;q=0.9,en;q=0.8,ar;q=0.7","667b1ca693a1d52a0447f22f","686d226cabeef709c732f8e1","686e313d7eb80da74ad69479","667b1ca693a1d52a0447f22f","2025-07-09T10:11:20.856Z","","","","","","MotivationQ","","","","","","","","","","","","","","","","","","","","","","","","","","","","","","","","","","","","","","50"
"","","","","ctl-task-cpt","75","730845","0.0-10.0-0.6","248","1","2025-07-09 09:59:42","7701e855f2ef39aa3fd6c71abdc6918a","41.145.197.56","Mozilla/5.0 (X11; Linux x86_64) AppleWebKit/537.36 (KHTML, like Gecko) Chrome/138.0.0.0 Safari/537.36","WebKit","Chrome","138.0.0.0","Linux","","https://app.prolific.com/","en-GB,en-US;q=0.9,en;q=0.8,ar;q=0.7","667b1ca693a1d52a0447f22f","686d226cabeef709c732f8e1","686e313d7eb80da74ad69479","667b1ca693a1d52a0447f22f","2025-07-09T10:11:55.168Z","","","","","","","","","","","","","","","","win-only","2","g1:SE,g2:NW","0.4","7","0","699257.3","19734","24741.8","31288.4","1","4","8","6","1","-1","-1","0","0","0","1682.4","3000","-1265","[""down"",""right""]","{""num_key_presses"":0,""num_perfect"":0,""num_errors"":0,""num_randdir"":0,""num_randdir_good_moves"":0,""num_whilered"":0,""num_whileblue"":0,""num_blue"":0,""num_good_moves"":0}","[452.5329539440846,454.9624550915597,0.7,452.5329539440846,454.9624550915597,101.6,452.5329539440846,454.9624550915597,214.8,452.5329539440846,454.9624550915597,319.4,452.5329539440846,454.9624550915597,424.4,452.5329539440846,454.9624550915597,524.5,452.5329539440846,454.9624550915597,632.8,452.5329539440846,454.9624550915597,737,452.5329539440846,454.9624550915597,848.1,452.5329539440846,454.9624550915597,955.9,452.5329539440846,454.9624550915597,1062.1,452.5329539440846,454.9624550915597,1163,452.5329539440846,454.9624550915597,1268.1,452.5329539440846,454.9624550915597,1371.9,452.5329539440846,454.9624550915597,1473.6,452.5329539440846,454.9624550915597,1582.7,845.6608211659169,866.8464228487848,1696.8,845.6608211659169,866.8464228487848,1810.3,845.6608211659169,866.8464228487848,1923.7,845.6608211659169,866.8464228487848,2037.3,845.6608211659169,866.8464228487848,2137.6,845.6608211659169,866.8464228487848,2249.2,845.6608211659169,866.8464228487848,2362.8,845.6608211659169,866.8464228487848,2463.2,845.6608211659169,866.8464228487848,2563.7,845.6608211659169,866.8464228487848,2676.1,845.6608211659169,866.8464228487848,2778.4,845.6608211659169,866.8464228487848,2878.5,845.6608211659169,866.8464228487848,2993,845.6608211659169,866.8464228487848,3098.1,845.6608211659169,866.8464228487848,3200.5,845.6608211659169,866.8464228487848,3316,845.6608211659169,866.8464228487848,3418.9,845.6608211659169,866.8464228487848,3521.6,845.6608211659169,866.8464228487848,3637.7,845.6608211659169,866.8464228487848,3742,845.6608211659169,866.8464228487848,3843.2,845.6608211659169,866.8464228487848,3943.5,845.6608211659169,866.8464228487848,4050.1,845.6608211659169,866.8464228487848,4158.8,845.6608211659169,866.8464228487848,4263.5,845.6608211659169,866.8464228487848,4368.7,845.6608211659169,866.8464228487848,4474.1,845.6608211659169,866.8464228487848,4577.7,845.6608211659169,866.8464228487848,4686.8,845.6608211659169,866.8464228487848,4798.3,845.6608211659169,866.8464228487848,4903.2]","[]","",""
"2224","","<div style=""width:500px;"">
  <p>What determined the result of this run?</p>
  </div>","76","html-slider-response","76","733072","0.0-10.0-1.6","248","1","2025-07-09 09:59:42","7701e855f2ef39aa3fd6c71abdc6918a","41.145.197.56","Mozilla/5.0 (X11; Linux x86_64) AppleWebKit/537.36 (KHTML, like Gecko) Chrome/138.0.0.0 Safari/537.36","WebKit","Chrome","138.0.0.0","Linux","","https://app.prolific.com/","en-GB,en-US;q=0.9,en;q=0.8,ar;q=0.7","667b1ca693a1d52a0447f22f","686d226cabeef709c732f8e1","686e313d7eb80da74ad69479","667b1ca693a1d52a0447f22f","2025-07-09T10:11:57.395Z","","","","","","AttribQ","","","","","","","","","","","","","","","","","","","","","","","","","","","","","","","","","","","","","","50"
"1629","","<div style=""width:500px;"">
  <p>How much control did you have over the ball?</p>
  </div>","79","html-slider-response","77","734703","0.0-10.0-2.6","248","1","2025-07-09 09:59:42","7701e855f2ef39aa3fd6c71abdc6918a","41.145.197.56","Mozilla/5.0 (X11; Linux x86_64) AppleWebKit/537.36 (KHTML, like Gecko) Chrome/138.0.0.0 Safari/537.36","WebKit","Chrome","138.0.0.0","Linux","","https://app.prolific.com/","en-GB,en-US;q=0.9,en;q=0.8,ar;q=0.7","667b1ca693a1d52a0447f22f","686d226cabeef709c732f8e1","686e313d7eb80da74ad69479","667b1ca693a1d52a0447f22f","2025-07-09T10:11:59.026Z","","","","","","ControlQ","","","","","","","","","","","","","","","","","","","","","","","","","","","","","","","","","","","","","","50"
"1186","","<div style=""width:500px;"">
  <p>How would you describe your current emotional state?</p>
  </div>","76","html-slider-response","78","735892","0.0-10.0-3.6","248","1","2025-07-09 09:59:42","7701e855f2ef39aa3fd6c71abdc6918a","41.145.197.56","Mozilla/5.0 (X11; Linux x86_64) AppleWebKit/537.36 (KHTML, like Gecko) Chrome/138.0.0.0 Safari/537.36","WebKit","Chrome","138.0.0.0","Linux","","https://app.prolific.com/","en-GB,en-US;q=0.9,en;q=0.8,ar;q=0.7","667b1ca693a1d52a0447f22f","686d226cabeef709c732f8e1","686e313d7eb80da74ad69479","667b1ca693a1d52a0447f22f","2025-07-09T10:12:00.215Z","","","","","","StressQ","","","","","","","","","","","","","","","","","","","","","","","","","","","","","","","","","","","","","","50"
"4444","","<div style=""width:500px;"">
  <p>What best describes how you currently feel?</p>
  </div>","49","html-slider-response","79","740338","0.0-10.0-4.6","248","1","2025-07-09 09:59:42","7701e855f2ef39aa3fd6c71abdc6918a","41.145.197.56","Mozilla/5.0 (X11; Linux x86_64) AppleWebKit/537.36 (KHTML, like Gecko) Chrome/138.0.0.0 Safari/537.36","WebKit","Chrome","138.0.0.0","Linux","","https://app.prolific.com/","en-GB,en-US;q=0.9,en;q=0.8,ar;q=0.7","667b1ca693a1d52a0447f22f","686d226cabeef709c732f8e1","686e313d7eb80da74ad69479","667b1ca693a1d52a0447f22f","2025-07-09T10:12:04.661Z","","","","","","MotivationQ","","","","","","","","","","","","","","","","","","","","","","","","","","","","","","","","","","","","","","50"
"","","","","ctl-task-cpt","80","760498","0.0-10.0-0.7","248","1","2025-07-09 09:59:42","7701e855f2ef39aa3fd6c71abdc6918a","41.145.197.56","Mozilla/5.0 (X11; Linux x86_64) AppleWebKit/537.36 (KHTML, like Gecko) Chrome/138.0.0.0 Safari/537.36","WebKit","Chrome","138.0.0.0","Linux","","https://app.prolific.com/","en-GB,en-US;q=0.9,en;q=0.8,ar;q=0.7","667b1ca693a1d52a0447f22f","686d226cabeef709c732f8e1","686e313d7eb80da74ad69479","667b1ca693a1d52a0447f22f","2025-07-09T10:12:24.822Z","","","","","","","","","","","","","","","","win-only","2","g1:SE,g2:NW","0.3","8","0","743061.8","5212","10216.3","17140.7","1","4","4","6","1","-1","-1","0","0","0","4884.2","3000","-1885","[""down"",""right""]","{""num_key_presses"":0,""num_perfect"":0,""num_errors"":0,""num_randdir"":0,""num_randdir_good_moves"":0,""num_whilered"":0,""num_whileblue"":0,""num_blue"":0,""num_good_moves"":0}","[471.2890544794774,470.71757954128964,0.6,471.2890544794774,470.71757954128964,102.1,471.2890544794774,470.71757954128964,209.9,471.2890544794774,470.71757954128964,315,471.2890544794774,470.71757954128964,418,471.2890544794774,470.71757954128964,519.3,471.2890544794774,470.71757954128964,623.6,471.2890544794774,470.71757954128964,728.9,471.2890544794774,470.71757954128964,831,471.2890544794774,470.71757954128964,938.5,471.2890544794774,470.71757954128964,1046.3,471.2890544794774,470.71757954128964,1148.6,471.2890544794774,470.71757954128964,1250.9,471.2890544794774,470.71757954128964,1357.9,471.2890544794774,470.71757954128964,1465.1,471.2890544794774,470.71757954128964,1568.3,471.2890544794774,470.71757954128964,1682.2,471.2890544794774,470.71757954128964,1791,471.2890544794774,470.71757954128964,1892.3,471.2890544794774,470.71757954128964,1995,471.2890544794774,470.71757954128964,2106,471.2890544794774,470.71757954128964,2213.6,471.2890544794774,470.71757954128964,2321.8,471.2890544794774,470.71757954128964,2437.2,471.2890544794774,470.71757954128964,2542.2,471.2890544794774,470.71757954128964,2646.9,471.2890544794774,470.71757954128964,2759.7,471.2890544794774,470.71757954128964,2872.3,471.2890544794774,470.71757954128964,2981.8,471.2890544794774,470.71757954128964,3082.2,471.2890544794774,470.71757954128964,3182.5,471.2890544794774,470.71757954128964,3293.4,471.2890544794774,470.71757954128964,3409.2,471.2890544794774,470.71757954128964,3523.3,471.2890544794774,470.71757954128964,3626.6,471.2890544794774,470.71757954128964,3730.5,471.2890544794774,470.71757954128964,3830.8,471.2890544794774,470.71757954128964,3944,471.2890544794774,470.71757954128964,4048.3,471.2890544794774,470.71757954128964,4162.9,471.2890544794774,470.71757954128964,4265.4,471.2890544794774,470.71757954128964,4366.5,471.2890544794774,470.71757954128964,4470.7,471.2890544794774,470.71757954128964,4579.8,471.2890544794774,470.71757954128964,4686.3,471.2890544794774,470.71757954128964,4788.8,807.3983760737157,821.8317815638421,4892.4]","[]","",""
"2030","","<div style=""width:500px;"">
  <p>What determined the result of this run?</p>
  </div>","76","html-slider-response","81","762532","0.0-10.0-1.7","248","1","2025-07-09 09:59:42","7701e855f2ef39aa3fd6c71abdc6918a","41.145.197.56","Mozilla/5.0 (X11; Linux x86_64) AppleWebKit/537.36 (KHTML, like Gecko) Chrome/138.0.0.0 Safari/537.36","WebKit","Chrome","138.0.0.0","Linux","","https://app.prolific.com/","en-GB,en-US;q=0.9,en;q=0.8,ar;q=0.7","667b1ca693a1d52a0447f22f","686d226cabeef709c732f8e1","686e313d7eb80da74ad69479","667b1ca693a1d52a0447f22f","2025-07-09T10:12:26.855Z","","","","","","AttribQ","","","","","","","","","","","","","","","","","","","","","","","","","","","","","","","","","","","","","","50"
"1111","","<div style=""width:500px;"">
  <p>How much control did you have over the ball?</p>
  </div>","68","html-slider-response","82","763644","0.0-10.0-2.7","248","1","2025-07-09 09:59:42","7701e855f2ef39aa3fd6c71abdc6918a","41.145.197.56","Mozilla/5.0 (X11; Linux x86_64) AppleWebKit/537.36 (KHTML, like Gecko) Chrome/138.0.0.0 Safari/537.36","WebKit","Chrome","138.0.0.0","Linux","","https://app.prolific.com/","en-GB,en-US;q=0.9,en;q=0.8,ar;q=0.7","667b1ca693a1d52a0447f22f","686d226cabeef709c732f8e1","686e313d7eb80da74ad69479","667b1ca693a1d52a0447f22f","2025-07-09T10:12:27.967Z","","","","","","ControlQ","","","","","","","","","","","","","","","","","","","","","","","","","","","","","","","","","","","","","","50"
"4377","","<div style=""width:500px;"">
  <p>How would you describe your current emotional state?</p>
  </div>","82","html-slider-response","83","768024","0.0-10.0-3.7","248","1","2025-07-09 09:59:42","7701e855f2ef39aa3fd6c71abdc6918a","41.145.197.56","Mozilla/5.0 (X11; Linux x86_64) AppleWebKit/537.36 (KHTML, like Gecko) Chrome/138.0.0.0 Safari/537.36","WebKit","Chrome","138.0.0.0","Linux","","https://app.prolific.com/","en-GB,en-US;q=0.9,en;q=0.8,ar;q=0.7","667b1ca693a1d52a0447f22f","686d226cabeef709c732f8e1","686e313d7eb80da74ad69479","667b1ca693a1d52a0447f22f","2025-07-09T10:12:32.347Z","","","","","","StressQ","","","","","","","","","","","","","","","","","","","","","","","","","","","","","","","","","","","","","","50"
"9551","","<div style=""width:500px;"">
  <p>What best describes how you currently feel?</p>
  </div>","21","html-slider-response","84","777577","0.0-10.0-4.7","248","1","2025-07-09 09:59:42","7701e855f2ef39aa3fd6c71abdc6918a","41.145.197.56","Mozilla/5.0 (X11; Linux x86_64) AppleWebKit/537.36 (KHTML, like Gecko) Chrome/138.0.0.0 Safari/537.36","WebKit","Chrome","138.0.0.0","Linux","","https://app.prolific.com/","en-GB,en-US;q=0.9,en;q=0.8,ar;q=0.7","667b1ca693a1d52a0447f22f","686d226cabeef709c732f8e1","686e313d7eb80da74ad69479","667b1ca693a1d52a0447f22f","2025-07-09T10:12:41.900Z","","","","","","MotivationQ","","","","","","","","","","","","","","","","","","","","","","","","","","","","","","","","","","","","","","50"
"","","","","ctl-task-cpt","85","799632","0.0-10.0-0.8","248","1","2025-07-09 09:59:42","7701e855f2ef39aa3fd6c71abdc6918a","41.145.197.56","Mozilla/5.0 (X11; Linux x86_64) AppleWebKit/537.36 (KHTML, like Gecko) Chrome/138.0.0.0 Safari/537.36","WebKit","Chrome","138.0.0.0","Linux","","https://app.prolific.com/","en-GB,en-US;q=0.9,en;q=0.8,ar;q=0.7","667b1ca693a1d52a0447f22f","686d226cabeef709c732f8e1","686e313d7eb80da74ad69479","667b1ca693a1d52a0447f22f","2025-07-09T10:13:03.955Z","","","","","","","","","","","","","","","","win-only","3","g1:SW,g2:NE","0.2","9","0","780301.4","4455","9459.3","19034.5","1","4","8","6","2","-8","-8","0","0","0","5004.3","3000","-1455","[""up"",""right""]","{""num_key_presses"":0,""num_perfect"":0,""num_errors"":0,""num_randdir"":0,""num_randdir_good_moves"":0,""num_whilered"":0,""num_whileblue"":0,""num_blue"":0,""num_good_moves"":0}","[452.5329539440846,464.71562736996395,0.4,452.5329539440846,464.71562736996395,101.5,452.5329539440846,464.71562736996395,211.9,476.54076262938736,468.4668474770425,312.1,476.54076262938736,468.4668474770425,419.5,476.54076262938736,468.4668474770425,530,476.54076262938736,468.4668474770425,636.8,476.54076262938736,468.4668474770425,746.3,476.54076262938736,468.4668474770425,856.2,476.54076262938736,468.4668474770425,960.8,476.54076262938736,468.4668474770425,1069.1,476.54076262938736,468.4668474770425,1174.6,476.54076262938736,468.4668474770425,1275.2,476.54076262938736,468.4668474770425,1381.6,476.54076262938736,468.4668474770425,1487,476.54076262938736,468.4668474770425,1589.1,476.54076262938736,468.4668474770425,1694,476.54076262938736,468.4668474770425,1798.7,476.54076262938736,468.4668474770425,1903.9,476.54076262938736,468.4668474770425,2012.2,476.54076262938736,468.4668474770425,2112.4,476.54076262938736,468.4668474770425,2214.6,476.54076262938736,468.4668474770425,2316.7,476.54076262938736,468.4668474770425,2424.2,476.54076262938736,468.4668474770425,2524.4,476.54076262938736,468.4668474770425,2625.2,476.54076262938736,468.4668474770425,2731.8,476.54076262938736,468.4668474770425,2837.7,476.54076262938736,468.4668474770425,2940.2,476.54076262938736,468.4668474770425,3047.1,476.54076262938736,468.4668474770425,3157.4,476.54076262938736,468.4668474770425,3262.6,476.54076262938736,468.4668474770425,3364.5,476.54076262938736,468.4668474770425,3464.6,476.54076262938736,468.4668474770425,3571.7,476.54076262938736,468.4668474770425,3680.3,476.54076262938736,468.4668474770425,3781.2,476.54076262938736,468.4668474770425,3885.2,476.54076262938736,468.4668474770425,3994.1,476.54076262938736,468.4668474770425,4101,476.54076262938736,468.4668474770425,4205.9,476.54076262938736,468.4668474770425,4307.4,476.54076262938736,468.4668474770425,4412.4,476.54076262938736,468.4668474770425,4520.9,476.54076262938736,468.4668474770425,4621.7,476.54076262938736,468.4668474770425,4729.3,476.54076262938736,468.4668474770425,4834.8,476.54076262938736,468.4668474770425,4937.8]","[]","",""
"12646","","<div style=""width:500px;"">
  <p>What determined the result of this run?</p>
  </div>","84","html-slider-response","86","812281","0.0-10.0-1.8","248","1","2025-07-09 09:59:42","7701e855f2ef39aa3fd6c71abdc6918a","41.145.197.56","Mozilla/5.0 (X11; Linux x86_64) AppleWebKit/537.36 (KHTML, like Gecko) Chrome/138.0.0.0 Safari/537.36","WebKit","Chrome","138.0.0.0","Linux","","https://app.prolific.com/","en-GB,en-US;q=0.9,en;q=0.8,ar;q=0.7","667b1ca693a1d52a0447f22f","686d226cabeef709c732f8e1","686e313d7eb80da74ad69479","667b1ca693a1d52a0447f22f","2025-07-09T10:13:16.604Z","","","","","","AttribQ","","","","","","","","","","","","","","","","","","","","","","","","","","","","","","","","","","","","","","50"
"1242","","<div style=""width:500px;"">
  <p>How much control did you have over the ball?</p>
  </div>","80","html-slider-response","87","813525","0.0-10.0-2.8","248","1","2025-07-09 09:59:42","7701e855f2ef39aa3fd6c71abdc6918a","41.145.197.56","Mozilla/5.0 (X11; Linux x86_64) AppleWebKit/537.36 (KHTML, like Gecko) Chrome/138.0.0.0 Safari/537.36","WebKit","Chrome","138.0.0.0","Linux","","https://app.prolific.com/","en-GB,en-US;q=0.9,en;q=0.8,ar;q=0.7","667b1ca693a1d52a0447f22f","686d226cabeef709c732f8e1","686e313d7eb80da74ad69479","667b1ca693a1d52a0447f22f","2025-07-09T10:13:17.848Z","","","","","","ControlQ","","","","","","","","","","","","","","","","","","","","","","","","","","","","","","","","","","","","","","50"
"7839","","<div style=""width:500px;"">
  <p>How would you describe your current emotional state?</p>
  </div>","100","html-slider-response","88","821367","0.0-10.0-3.8","248","1","2025-07-09 09:59:42","7701e855f2ef39aa3fd6c71abdc6918a","41.145.197.56","Mozilla/5.0 (X11; Linux x86_64) AppleWebKit/537.36 (KHTML, like Gecko) Chrome/138.0.0.0 Safari/537.36","WebKit","Chrome","138.0.0.0","Linux","","https://app.prolific.com/","en-GB,en-US;q=0.9,en;q=0.8,ar;q=0.7","667b1ca693a1d52a0447f22f","686d226cabeef709c732f8e1","686e313d7eb80da74ad69479","667b1ca693a1d52a0447f22f","2025-07-09T10:13:25.690Z","","","","","","StressQ","","","","","","","","","","","","","","","","","","","","","","","","","","","","","","","","","","","","","","50"
"9944","","<div style=""width:500px;"">
  <p>What best describes how you currently feel?</p>
  </div>","21","html-slider-response","89","831313","0.0-10.0-4.8","248","1","2025-07-09 09:59:42","7701e855f2ef39aa3fd6c71abdc6918a","41.145.197.56","Mozilla/5.0 (X11; Linux x86_64) AppleWebKit/537.36 (KHTML, like Gecko) Chrome/138.0.0.0 Safari/537.36","WebKit","Chrome","138.0.0.0","Linux","","https://app.prolific.com/","en-GB,en-US;q=0.9,en;q=0.8,ar;q=0.7","667b1ca693a1d52a0447f22f","686d226cabeef709c732f8e1","686e313d7eb80da74ad69479","667b1ca693a1d52a0447f22f","2025-07-09T10:13:35.636Z","","","","","","MotivationQ","","","","","","","","","","","","","","","","","","","","","","","","","","","","","","","","","","","","","","50"
"","","","","ctl-task-cpt","90","858604","0.0-10.0-0.9","248","1","2025-07-09 09:59:42","7701e855f2ef39aa3fd6c71abdc6918a","41.145.197.56","Mozilla/5.0 (X11; Linux x86_64) AppleWebKit/537.36 (KHTML, like Gecko) Chrome/138.0.0.0 Safari/537.36","WebKit","Chrome","138.0.0.0","Linux","","https://app.prolific.com/","en-GB,en-US;q=0.9,en;q=0.8,ar;q=0.7","667b1ca693a1d52a0447f22f","686d226cabeef709c732f8e1","686e313d7eb80da74ad69479","667b1ca693a1d52a0447f22f","2025-07-09T10:14:02.927Z","","","","","","","","","","","","","","","","win-only","0","g1:NW,g2:SE","0.4","10","0","834036.6","8381.6","13392","24264.9","1","4","4","6","2","-4","-4","0","0","0","2026.2","3000","-1335","[""down"",""right""]","{""num_key_presses"":0,""num_perfect"":0,""num_errors"":0,""num_randdir"":0,""num_randdir_good_moves"":0,""num_whilered"":0,""num_whileblue"":0,""num_blue"":0,""num_good_moves"":0}","[467.53783437239883,468.4668474770425,0.4,467.53783437239883,468.4668474770425,105.2,467.53783437239883,468.4668474770425,207.7,467.53783437239883,468.4668474770425,313,467.53783437239883,468.4668474770425,418.4,467.53783437239883,468.4668474770425,518.7,467.53783437239883,468.4668474770425,629.1,467.53783437239883,468.4668474770425,739.4,467.53783437239883,468.4668474770425,845.2,467.53783437239883,468.4668474770425,948.5,467.53783437239883,468.4668474770425,1054,467.53783437239883,468.4668474770425,1154.4,467.53783437239883,468.4668474770425,1255,467.53783437239883,468.4668474770425,1359.5,467.53783437239883,468.4668474770425,1466.2,363.2539153956151,400.94488554962857,1567.3,363.2539153956151,400.94488554962857,1674.3,363.2539153956151,400.94488554962857,1784.9,363.2539153956151,400.94488554962857,1885.1,363.2539153956151,400.94488554962857,1994.6,859.1652135513997,841.3381261206506,2095.7,859.1652135513997,841.3381261206506,2207.7,859.1652135513997,841.3381261206506,2310.3,859.1652135513997,841.3381261206506,2421.4,859.1652135513997,841.3381261206506,2530.6,859.1652135513997,841.3381261206506,2633.9,859.1652135513997,841.3381261206506,2743.2,859.1652135513997,841.3381261206506,2847.8,859.1652135513997,841.3381261206506,2953.5,859.1652135513997,841.3381261206506,3056.4,859.1652135513997,841.3381261206506,3160.3,859.1652135513997,841.3381261206506,3263.5,859.1652135513997,841.3381261206506,3374.6,859.1652135513997,841.3381261206506,3482.4,859.1652135513997,841.3381261206506,3584,859.1652135513997,841.3381261206506,3696.4,859.1652135513997,841.3381261206506,3798.1,859.1652135513997,841.3381261206506,3901.1,859.1652135513997,841.3381261206506,4003,859.1652135513997,841.3381261206506,4105.8,859.1652135513997,841.3381261206506,4210,859.1652135513997,841.3381261206506,4322.7,859.1652135513997,841.3381261206506,4439.1,859.1652135513997,841.3381261206506,4539.8,859.1652135513997,841.3381261206506,4646,859.1652135513997,841.3381261206506,4756.7,859.1652135513997,841.3381261206506,4865,859.1652135513997,841.3381261206506,4967.9]","[]","",""
"4663","","<div style=""width:500px;"">
  <p>What determined the result of this run?</p>
  </div>","0","html-slider-response","91","863270","0.0-10.0-1.9","248","1","2025-07-09 09:59:42","7701e855f2ef39aa3fd6c71abdc6918a","41.145.197.56","Mozilla/5.0 (X11; Linux x86_64) AppleWebKit/537.36 (KHTML, like Gecko) Chrome/138.0.0.0 Safari/537.36","WebKit","Chrome","138.0.0.0","Linux","","https://app.prolific.com/","en-GB,en-US;q=0.9,en;q=0.8,ar;q=0.7","667b1ca693a1d52a0447f22f","686d226cabeef709c732f8e1","686e313d7eb80da74ad69479","667b1ca693a1d52a0447f22f","2025-07-09T10:14:07.593Z","","","","","","AttribQ","","","","","","","","","","","","","","","","","","","","","","","","","","","","","","","","","","","","","","50"
"5278","","<div style=""width:500px;"">
  <p>How much control did you have over the ball?</p>
  </div>","0","html-slider-response","92","868550","0.0-10.0-2.9","248","1","2025-07-09 09:59:42","7701e855f2ef39aa3fd6c71abdc6918a","41.145.197.56","Mozilla/5.0 (X11; Linux x86_64) AppleWebKit/537.36 (KHTML, like Gecko) Chrome/138.0.0.0 Safari/537.36","WebKit","Chrome","138.0.0.0","Linux","","https://app.prolific.com/","en-GB,en-US;q=0.9,en;q=0.8,ar;q=0.7","667b1ca693a1d52a0447f22f","686d226cabeef709c732f8e1","686e313d7eb80da74ad69479","667b1ca693a1d52a0447f22f","2025-07-09T10:14:12.873Z","","","","","","ControlQ","","","","","","","","","","","","","","","","","","","","","","","","","","","","","","","","","","","","","","50"
"6091","","<div style=""width:500px;"">
  <p>How would you describe your current emotional state?</p>
  </div>","100","html-slider-response","93","874644","0.0-10.0-3.9","248","1","2025-07-09 09:59:42","7701e855f2ef39aa3fd6c71abdc6918a","41.145.197.56","Mozilla/5.0 (X11; Linux x86_64) AppleWebKit/537.36 (KHTML, like Gecko) Chrome/138.0.0.0 Safari/537.36","WebKit","Chrome","138.0.0.0","Linux","","https://app.prolific.com/","en-GB,en-US;q=0.9,en;q=0.8,ar;q=0.7","667b1ca693a1d52a0447f22f","686d226cabeef709c732f8e1","686e313d7eb80da74ad69479","667b1ca693a1d52a0447f22f","2025-07-09T10:14:18.967Z","","","","","","StressQ","","","","","","","","","","","","","","","","","","","","","","","","","","","","","","","","","","","","","","50"
"10732","","<div style=""width:500px;"">
  <p>What best describes how you currently feel?</p>
  </div>","48","html-slider-response","94","885379","0.0-10.0-4.9","248","1","2025-07-09 09:59:42","7701e855f2ef39aa3fd6c71abdc6918a","41.145.197.56","Mozilla/5.0 (X11; Linux x86_64) AppleWebKit/537.36 (KHTML, like Gecko) Chrome/138.0.0.0 Safari/537.36","WebKit","Chrome","138.0.0.0","Linux","","https://app.prolific.com/","en-GB,en-US;q=0.9,en;q=0.8,ar;q=0.7","667b1ca693a1d52a0447f22f","686d226cabeef709c732f8e1","686e313d7eb80da74ad69479","667b1ca693a1d52a0447f22f","2025-07-09T10:14:29.702Z","","","","","","MotivationQ","","","","","","","","","","","","","","","","","","","","","","","","","","","","","","","","","","","","","","50"
