"rt","response_timestamp","stimulus","response","trial_type","trial_index","time_elapsed","internal_node_id","run_id","condition","recorded_at","source_code_version","ip","user_agent","device","browser","browser_version","platform","platform_version","referer","accept_language","PROLIFIC_PID","STUDY_ID","SESSION_ID","prolific_id","realtime","view_history","question_order","consent","success","question_id","eventType","responses","item_order","radio_event_ids","radio_event_times","key_event_times","mouse_event_times","straightlining","zigzagging","honeypot","which_type","canvas_config","goals_layout","control_level","trial_number","tutorial_trial_number","trial_start_time","phase1_start_time","phase2_start_time","phase3_start_time","goal_1_value","goal_1_distance","goal_2_value","goal_2_distance","goal_selected","outcome","outcome_total","participant_final_score","participant_initial_score","participant_final_score_prop","goal_choice_rt","allocated_time","allocated_time_remaining","goal_direction","counts","mouse_movements","key_presses","correct","slider_start","sub_question"
"115266","1752052145173","<p style='font-size:40px;line-height:1.25'><strong>Welcome to the experiment!</strong></p><p style='font-size:1.1em;line-height:1.25'>Thank you for your interest in our experiment! Before you begin, it is important that we obtain your informed consent to participate in the study.</p><p style='font-size:1.1em;line-height:1.25'>On the next screen will be an <strong>information sheet</strong> for you to read. To participate in the study we need you to read this information sheet and the following consent form carefully. If you agree with all the statements, please click the <strong>I agree</strong> button.</p><p style='font-size:1.1em;line-height:1.25'>Press <strong>Next</strong> to read the information sheet.</p>","0","custom-html-button-response","0","115268","0.0-0.0","57","1","2025-07-09 09:07:17","7701e855f2ef39aa3fd6c71abdc6918a","46.232.214.26","Mozilla/5.0 (Windows NT 10.0; Win64; x64) AppleWebKit/537.36 (KHTML, like Gecko) Chrome/138.0.0.0 Safari/537.36","WebKit","Chrome","138.0.0.0","Windows","10.0","https://app.prolific.com/","pl-PL,pl;q=0.9,en-US;q=0.8,en;q=0.7","5d40a12f4994c40001e4b80c","686d226cabeef709c732f8e1","686e31006e4c1fa1e31abde2","5d40a12f4994c40001e4b80c","2025-07-09T09:09:05.174Z","","","","","","","","","","","","","","","","","","","","","","","","","","","","","","","","","","","","","","","","","","","","",""
"25564","","","","instructions","1","140833","0.0-1.0","57","1","2025-07-09 09:07:17","7701e855f2ef39aa3fd6c71abdc6918a","46.232.214.26","Mozilla/5.0 (Windows NT 10.0; Win64; x64) AppleWebKit/537.36 (KHTML, like Gecko) Chrome/138.0.0.0 Safari/537.36","WebKit","Chrome","138.0.0.0","Windows","10.0","https://app.prolific.com/","pl-PL,pl;q=0.9,en-US;q=0.8,en;q=0.7","5d40a12f4994c40001e4b80c","686d226cabeef709c732f8e1","686e31006e4c1fa1e31abde2","5d40a12f4994c40001e4b80c","","[{""page_index"":0,""viewing_time"":22546},{""page_index"":1,""viewing_time"":3017}]","","","","","","","","","","","","","","","","","","","","","","","","","","","","","","","","","","","","","","","","","","","",""
"4999","","","{""Q0"":"""",""Q1"":"""",""Q2"":"""",""Q3"":"""",""Q4"":"""",""Q5"":"""",""Q6"":""I agree""}","survey-multi-choice","2","145835","0.0-2.0","57","1","2025-07-09 09:07:17","7701e855f2ef39aa3fd6c71abdc6918a","46.232.214.26","Mozilla/5.0 (Windows NT 10.0; Win64; x64) AppleWebKit/537.36 (KHTML, like Gecko) Chrome/138.0.0.0 Safari/537.36","WebKit","Chrome","138.0.0.0","Windows","10.0","https://app.prolific.com/","pl-PL,pl;q=0.9,en-US;q=0.8,en;q=0.7","5d40a12f4994c40001e4b80c","686d226cabeef709c732f8e1","686e31006e4c1fa1e31abde2","5d40a12f4994c40001e4b80c","","","[0,1,2,3,4,5,6]","true","","","","","","","","","","","","","","","","","","","","","","","","","","","","","","","","","","","","","","","","","",""
"8830","","","","fullscreen","3","155678","0.0-4.0","57","1","2025-07-09 09:07:17","7701e855f2ef39aa3fd6c71abdc6918a","46.232.214.26","Mozilla/5.0 (Windows NT 10.0; Win64; x64) AppleWebKit/537.36 (KHTML, like Gecko) Chrome/138.0.0.0 Safari/537.36","WebKit","Chrome","138.0.0.0","Windows","10.0","https://app.prolific.com/","pl-PL,pl;q=0.9,en-US;q=0.8,en;q=0.7","5d40a12f4994c40001e4b80c","686d226cabeef709c732f8e1","686e31006e4c1fa1e31abde2","5d40a12f4994c40001e4b80c","","","","","true","","","","","","","","","","","","","","","","","","","","","","","","","","","","","","","","","","","","","","","","",""
"5772","1752052191357"," <p style='font-size:1.1em;line-height:1.25'>Thank you for completing the consent form and closing all other tabs.</p><p style='font-size:1.1em;line-height:1.25'>We will now invite you to fill in some demographic information and questionnaires, before starting the game.<br>This will take about 5 minutes.<br></p><p style='font-size:1.1em;line-height:1.25'>Press the <strong>Next</strong> button to continue.</p>","0","custom-html-button-response","4","161452","0.0-5.0","57","1","2025-07-09 09:07:17","7701e855f2ef39aa3fd6c71abdc6918a","46.232.214.26","Mozilla/5.0 (Windows NT 10.0; Win64; x64) AppleWebKit/537.36 (KHTML, like Gecko) Chrome/138.0.0.0 Safari/537.36","WebKit","Chrome","138.0.0.0","Windows","10.0","https://app.prolific.com/","pl-PL,pl;q=0.9,en-US;q=0.8,en;q=0.7","5d40a12f4994c40001e4b80c","686d226cabeef709c732f8e1","686e31006e4c1fa1e31abde2","5d40a12f4994c40001e4b80c","2025-07-09T09:09:51.358Z","","","","","","","","","","","","","","","","","","","","","","","","","","","","","","","","","","","","","","","","","","","","",""
"3647","","","{""age"":""34""}","survey-text","5","165103","0.0-6.0-0.0","57","1","2025-07-09 09:07:17","7701e855f2ef39aa3fd6c71abdc6918a","46.232.214.26","Mozilla/5.0 (Windows NT 10.0; Win64; x64) AppleWebKit/537.36 (KHTML, like Gecko) Chrome/138.0.0.0 Safari/537.36","WebKit","Chrome","138.0.0.0","Windows","10.0","https://app.prolific.com/","pl-PL,pl;q=0.9,en-US;q=0.8,en;q=0.7","5d40a12f4994c40001e4b80c","686d226cabeef709c732f8e1","686e31006e4c1fa1e31abde2","5d40a12f4994c40001e4b80c","","","","","","0","demographics","","","","","","","","","","","","","","","","","","","","","","","","","","","","","","","","","","","","","","",""
"3463","","","{""gender_identity"":""female/woman""}","survey-multi-choice","6","168567","0.0-6.0-1.0","57","1","2025-07-09 09:07:17","7701e855f2ef39aa3fd6c71abdc6918a","46.232.214.26","Mozilla/5.0 (Windows NT 10.0; Win64; x64) AppleWebKit/537.36 (KHTML, like Gecko) Chrome/138.0.0.0 Safari/537.36","WebKit","Chrome","138.0.0.0","Windows","10.0","https://app.prolific.com/","pl-PL,pl;q=0.9,en-US;q=0.8,en;q=0.7","5d40a12f4994c40001e4b80c","686d226cabeef709c732f8e1","686e31006e4c1fa1e31abde2","5d40a12f4994c40001e4b80c","","","[0]","","","1","demographics","","","","","","","","","","","","","","","","","","","","","","","","","","","","","","","","","","","","","","",""
"3583","","","{""assigned_sex"":""female""}","survey-multi-choice","7","172153","0.0-6.0-2.0","57","1","2025-07-09 09:07:17","7701e855f2ef39aa3fd6c71abdc6918a","46.232.214.26","Mozilla/5.0 (Windows NT 10.0; Win64; x64) AppleWebKit/537.36 (KHTML, like Gecko) Chrome/138.0.0.0 Safari/537.36","WebKit","Chrome","138.0.0.0","Windows","10.0","https://app.prolific.com/","pl-PL,pl;q=0.9,en-US;q=0.8,en;q=0.7","5d40a12f4994c40001e4b80c","686d226cabeef709c732f8e1","686e31006e4c1fa1e31abde2","5d40a12f4994c40001e4b80c","","","[0]","","","2","demographics","","","","","","","","","","","","","","","","","","","","","","","","","","","","","","","","","","","","","","",""
"7379","","","{""menstrual_cycle"":""Yes""}","survey-multi-choice","8","179534","0.0-6.0-3.0","57","1","2025-07-09 09:07:17","7701e855f2ef39aa3fd6c71abdc6918a","46.232.214.26","Mozilla/5.0 (Windows NT 10.0; Win64; x64) AppleWebKit/537.36 (KHTML, like Gecko) Chrome/138.0.0.0 Safari/537.36","WebKit","Chrome","138.0.0.0","Windows","10.0","https://app.prolific.com/","pl-PL,pl;q=0.9,en-US;q=0.8,en;q=0.7","5d40a12f4994c40001e4b80c","686d226cabeef709c732f8e1","686e31006e4c1fa1e31abde2","5d40a12f4994c40001e4b80c","","","[0]","","","4","demographics","","","","","","","","","","","","","","","","","","","","","","","","","","","","","","","","","","","","","","",""
"4600","","","{""education"":""Bachelor's Degree (e.g., BA)""}","survey-multi-choice","9","184135","0.0-6.0-4.0","57","1","2025-07-09 09:07:17","7701e855f2ef39aa3fd6c71abdc6918a","46.232.214.26","Mozilla/5.0 (Windows NT 10.0; Win64; x64) AppleWebKit/537.36 (KHTML, like Gecko) Chrome/138.0.0.0 Safari/537.36","WebKit","Chrome","138.0.0.0","Windows","10.0","https://app.prolific.com/","pl-PL,pl;q=0.9,en-US;q=0.8,en;q=0.7","5d40a12f4994c40001e4b80c","686d226cabeef709c732f8e1","686e31006e4c1fa1e31abde2","5d40a12f4994c40001e4b80c","","","[0]","","","5","demographics","","","","","","","","","","","","","","","","","","","","","","","","","","","","","","","","","","","","","","",""
"17598","","","{""education"":""Higher National Diploma""}","survey-multi-choice","10","201735","0.0-6.0-5.0","57","1","2025-07-09 09:07:17","7701e855f2ef39aa3fd6c71abdc6918a","46.232.214.26","Mozilla/5.0 (Windows NT 10.0; Win64; x64) AppleWebKit/537.36 (KHTML, like Gecko) Chrome/138.0.0.0 Safari/537.36","WebKit","Chrome","138.0.0.0","Windows","10.0","https://app.prolific.com/","pl-PL,pl;q=0.9,en-US;q=0.8,en;q=0.7","5d40a12f4994c40001e4b80c","686d226cabeef709c732f8e1","686e31006e4c1fa1e31abde2","5d40a12f4994c40001e4b80c","2025-07-09T09:10:31.642Z","","[0]","","","6","demographics","","","","","","","","","","","","","","","","","","","","","","","","","","","","","","","","","","","","","","",""
"10011","","","{""mental_health_condition"":"""",""mental_health_treatment"":"""",""psychiatric_medication"":""""}","survey-text","11","211750","0.0-7.0-0.0","57","1","2025-07-09 09:07:17","7701e855f2ef39aa3fd6c71abdc6918a","46.232.214.26","Mozilla/5.0 (Windows NT 10.0; Win64; x64) AppleWebKit/537.36 (KHTML, like Gecko) Chrome/138.0.0.0 Safari/537.36","WebKit","Chrome","138.0.0.0","Windows","10.0","https://app.prolific.com/","pl-PL,pl;q=0.9,en-US;q=0.8,en;q=0.7","5d40a12f4994c40001e4b80c","686d226cabeef709c732f8e1","686e31006e4c1fa1e31abde2","5d40a12f4994c40001e4b80c","2025-07-09T09:10:41.656Z","","","","","1","mental_health","","","","","","","","","","","","","","","","","","","","","","","","","","","","","","","","","","","","","","",""
"15420","","","{""depression_history"":[""Yes""]}","survey-multi-select","12","227188","0.0-7.0-1.0","57","1","2025-07-09 09:07:17","7701e855f2ef39aa3fd6c71abdc6918a","46.232.214.26","Mozilla/5.0 (Windows NT 10.0; Win64; x64) AppleWebKit/537.36 (KHTML, like Gecko) Chrome/138.0.0.0 Safari/537.36","WebKit","Chrome","138.0.0.0","Windows","10.0","https://app.prolific.com/","pl-PL,pl;q=0.9,en-US;q=0.8,en;q=0.7","5d40a12f4994c40001e4b80c","686d226cabeef709c732f8e1","686e31006e4c1fa1e31abde2","5d40a12f4994c40001e4b80c","","","[0]","","","","mental_health","","","","","","","","","","","","","","","","","","","","","","","","","","","","","","","","","","","","","","",""
"15865","","","{""depression_episodes"":""1-2"",""depression_recent"":""More than 1 year ago""}","survey-multi-choice","13","243055","0.0-7.0-2.0-0.0","57","1","2025-07-09 09:07:17","7701e855f2ef39aa3fd6c71abdc6918a","46.232.214.26","Mozilla/5.0 (Windows NT 10.0; Win64; x64) AppleWebKit/537.36 (KHTML, like Gecko) Chrome/138.0.0.0 Safari/537.36","WebKit","Chrome","138.0.0.0","Windows","10.0","https://app.prolific.com/","pl-PL,pl;q=0.9,en-US;q=0.8,en;q=0.7","5d40a12f4994c40001e4b80c","686d226cabeef709c732f8e1","686e31006e4c1fa1e31abde2","5d40a12f4994c40001e4b80c","2025-07-09T09:11:12.961Z","","[0,1]","","","3","mental_health","","","","","","","","","","","","","","","","","","","","","","","","","","","","","","","","","","","","","","",""
"61581.10000002384","","","","survey-template","14","304642","0.0-7.0-3.0","57","1","2025-07-09 09:07:17","7701e855f2ef39aa3fd6c71abdc6918a","46.232.214.26","Mozilla/5.0 (Windows NT 10.0; Win64; x64) AppleWebKit/537.36 (KHTML, like Gecko) Chrome/138.0.0.0 Safari/537.36","WebKit","Chrome","138.0.0.0","Windows","10.0","https://app.prolific.com/","pl-PL,pl;q=0.9,en-US;q=0.8,en;q=0.7","5d40a12f4994c40001e4b80c","686d226cabeef709c732f8e1","686e31006e4c1fa1e31abde2","5d40a12f4994c40001e4b80c","2025-07-09T09:12:14.548Z","","","","","","ius","{""Q01"":""2"",""Q02"":""2"",""Q03"":""2"",""Q04"":""1"",""Q05"":""2"",""Q06"":""0"",""Q07"":""1"",""Q08"":""0"",""Q09"":""2"",""Q10"":""0"",""Q11"":""0"",""Q12"":""1"",""Q13"":""1""}","[0,1,2,3,4,5,6,7,8,9,10,11,12]","[""Q01"",""Q02"",""Q03"",""Q04"",""Q05"",""Q06"",""Q06"",""Q07"",""Q08"",""Q09"",""Q10"",""Q11"",""Q12"",""Q13""]","[7659.699999928474,12727.399999976158,16491.699999928474,21825.399999976158,24624,28392.5,31642.799999952316,35144.39999997616,38077.299999952316,42775.199999928474,49458.699999928474,51593,55125,60209.5]","[]","[7659.699999928474,12727.399999976158,16491.699999928474,21825.399999976158,24624,28392.5,31642.799999952316,35144.39999997616,38077.299999952316,42775.199999928474,49458.699999928474,51593,55125,60209.5,61576]","0.38461538461538464","0.4166666666666667","0","","","","","","","","","","","","","","","","","","","","","","","","","","","","","",""
"3392","1752052337942","<p style='font-size:1.1em;line-height:1.25'>In the following, we will ask you a few questions relating to your experiences over the past month.<br></p><p style='font-size:1.1em;line-height:1.25'>Press the <strong>Next</strong> button to continue.</p>","0","custom-html-button-response","15","308037","0.0-7.0-4.0","57","1","2025-07-09 09:07:17","7701e855f2ef39aa3fd6c71abdc6918a","46.232.214.26","Mozilla/5.0 (Windows NT 10.0; Win64; x64) AppleWebKit/537.36 (KHTML, like Gecko) Chrome/138.0.0.0 Safari/537.36","WebKit","Chrome","138.0.0.0","Windows","10.0","https://app.prolific.com/","pl-PL,pl;q=0.9,en-US;q=0.8,en;q=0.7","5d40a12f4994c40001e4b80c","686d226cabeef709c732f8e1","686e31006e4c1fa1e31abde2","5d40a12f4994c40001e4b80c","2025-07-09T09:12:17.943Z","","","","","","","","","","","","","","","","","","","","","","","","","","","","","","","","","","","","","","","","","","","","",""
"73601.10000002384","","","","survey-template","16","381641","0.0-7.0-5.0","57","1","2025-07-09 09:07:17","7701e855f2ef39aa3fd6c71abdc6918a","46.232.214.26","Mozilla/5.0 (Windows NT 10.0; Win64; x64) AppleWebKit/537.36 (KHTML, like Gecko) Chrome/138.0.0.0 Safari/537.36","WebKit","Chrome","138.0.0.0","Windows","10.0","https://app.prolific.com/","pl-PL,pl;q=0.9,en-US;q=0.8,en;q=0.7","5d40a12f4994c40001e4b80c","686d226cabeef709c732f8e1","686e31006e4c1fa1e31abde2","5d40a12f4994c40001e4b80c","2025-07-09T09:13:31.547Z","","","","","","pss","{""Q01"":""1"",""Q02"":""2"",""Q03"":""2"",""Q04"":""1"",""Q05"":""1"",""Q06"":""1"",""Q07"":""1"",""Q08"":""2"",""Q09"":""1"",""Q10"":""1""}","[0,1,2,3,4,5,6,7,8,9]","[""Q01"",""Q02"",""Q03"",""Q04"",""Q05"",""Q06"",""Q07"",""Q08"",""Q09"",""Q10""]","[5513.600000023842,13049,19413.100000023842,27545,38896.200000047684,45661.10000002384,55212.10000002384,59514.300000071526,66464.70000004768,72279.80000007153]","[]","[0,5513.600000023842,13049,19413.100000023842,27545,38896.200000047684,45661.10000002384,55212.10000002384,59514.300000071526,66464.70000004768,72279.80000007153,73596.30000007153]","0.4","0.4444444444444444","0","","","","","","","","","","","","","","","","","","","","","","","","","","","","","",""
"3892","1752052415441","<p style='font-size:1.1em;line-height:1.25'>Thank you for your answers! Now we will ask you a few more questions relating to your feelings in the last 24 hours.<br></p><p style='font-size:1.1em;line-height:1.25'>Press the <strong>Next</strong> button to continue.</p>","0","custom-html-button-response","17","385535","0.0-7.0-6.0","57","1","2025-07-09 09:07:17","7701e855f2ef39aa3fd6c71abdc6918a","46.232.214.26","Mozilla/5.0 (Windows NT 10.0; Win64; x64) AppleWebKit/537.36 (KHTML, like Gecko) Chrome/138.0.0.0 Safari/537.36","WebKit","Chrome","138.0.0.0","Windows","10.0","https://app.prolific.com/","pl-PL,pl;q=0.9,en-US;q=0.8,en;q=0.7","5d40a12f4994c40001e4b80c","686d226cabeef709c732f8e1","686e31006e4c1fa1e31abde2","5d40a12f4994c40001e4b80c","2025-07-09T09:13:35.441Z","","","","","","","","","","","","","","","","","","","","","","","","","","","","","","","","","","","","","","","","","","","","",""
"60257","","","","survey-template","18","445798","0.0-7.0-7.0","57","1","2025-07-09 09:07:17","7701e855f2ef39aa3fd6c71abdc6918a","46.232.214.26","Mozilla/5.0 (Windows NT 10.0; Win64; x64) AppleWebKit/537.36 (KHTML, like Gecko) Chrome/138.0.0.0 Safari/537.36","WebKit","Chrome","138.0.0.0","Windows","10.0","https://app.prolific.com/","pl-PL,pl;q=0.9,en-US;q=0.8,en;q=0.7","5d40a12f4994c40001e4b80c","686d226cabeef709c732f8e1","686e31006e4c1fa1e31abde2","5d40a12f4994c40001e4b80c","2025-07-09T09:14:35.704Z","","","","","","drsp","{""Q01"":""0"",""Q02"":""0"",""Q03"":""0"",""Q04"":""0"",""Q05"":""0"",""Q06"":""0"",""Q07"":""2"",""Q08"":""0"",""Q09"":""0"",""Q10"":""0"",""Q11"":""2"",""Q12"":""0"",""Q13"":""0"",""Q14"":""0"",""Q15"":""0"",""Q16"":""1"",""Q17"":""0"",""Q18"":""0"",""Q19"":""0"",""Q20"":""0"",""Q21"":""0""}","[0,1,2,3,4,5,6,7,8,9,10,11,12,13,14,15,16,17,18,19,20]","[""Q01"",""Q02"",""Q03"",""Q04"",""Q05"",""Q06"",""Q07"",""Q08"",""Q09"",""Q10"",""Q11"",""Q12"",""Q13"",""Q14"",""Q15"",""Q16"",""Q17"",""Q18"",""Q19"",""Q20"",""Q21""]","[4064.2999999523163,5731.199999928474,8482,9847.199999928474,11198.399999976158,15179.899999976158,17282,19530.600000023842,20881.799999952316,23483.299999952316,28747.399999976158,30965.299999952316,32515.5,34564,36715.10000002384,38948.799999952316,40633.199999928474,43179.5,45497.799999952316,55984,58965.699999928474]","[]","[0,4064.2999999523163,5731.199999928474,7315.199999928474,8482,9847.199999928474,11198.399999976158,13399.600000023842,15179.899999976158,17282,19530.600000023842,20881.799999952316,23483.299999952316,28747.399999976158,30965.299999952316,32515.5,34564,36715.10000002384,38948.799999952316,40633.199999928474,43179.5,45497.799999952316,55984,58965.699999928474,60249.5]","0.8571428571428571","0.1","0","","","","","","","","","","","","","","","","","","","","","","","","","","","","","",""
"16206.399999976158","","","","survey-template","19","462007","0.0-7.0-8.0","57","1","2025-07-09 09:07:17","7701e855f2ef39aa3fd6c71abdc6918a","46.232.214.26","Mozilla/5.0 (Windows NT 10.0; Win64; x64) AppleWebKit/537.36 (KHTML, like Gecko) Chrome/138.0.0.0 Safari/537.36","WebKit","Chrome","138.0.0.0","Windows","10.0","https://app.prolific.com/","pl-PL,pl;q=0.9,en-US;q=0.8,en;q=0.7","5d40a12f4994c40001e4b80c","686d226cabeef709c732f8e1","686e31006e4c1fa1e31abde2","5d40a12f4994c40001e4b80c","2025-07-09T09:14:51.913Z","","","","","","stress","{""Q01"":""2"",""Q02"":""5"",""Q03"":""0""}","[0,1,2]","[""Q01"",""Q02"",""Q03""]","[4003.3000000715256,6854.100000023842,11986.700000047684]","[]","[4003.3000000715256,6854.100000023842,11986.700000047684,16204.600000023842]","0.6666666666666666","0","0","","","","","","","","","","","","","","","","","","","","","","","","","","","","","",""
"130730","","","","instructions","20","592738","0.0-8.0-0.0","57","1","2025-07-09 09:07:17","7701e855f2ef39aa3fd6c71abdc6918a","46.232.214.26","Mozilla/5.0 (Windows NT 10.0; Win64; x64) AppleWebKit/537.36 (KHTML, like Gecko) Chrome/138.0.0.0 Safari/537.36","WebKit","Chrome","138.0.0.0","Windows","10.0","https://app.prolific.com/","pl-PL,pl;q=0.9,en-US;q=0.8,en;q=0.7","5d40a12f4994c40001e4b80c","686d226cabeef709c732f8e1","686e31006e4c1fa1e31abde2","5d40a12f4994c40001e4b80c","","[{""page_index"":0,""viewing_time"":31329},{""page_index"":1,""viewing_time"":44866},{""page_index"":2,""viewing_time"":28052},{""page_index"":3,""viewing_time"":26483}]","","","","","","","","","","","","","","","","","","","","","","","","","","","","","","","","","","","","","","","","","","","",""
"","","","","ctl-task-cpt","21","627619","0.0-8.0-1.0","57","1","2025-07-09 09:07:17","7701e855f2ef39aa3fd6c71abdc6918a","46.232.214.26","Mozilla/5.0 (Windows NT 10.0; Win64; x64) AppleWebKit/537.36 (KHTML, like Gecko) Chrome/138.0.0.0 Safari/537.36","WebKit","Chrome","138.0.0.0","Windows","10.0","https://app.prolific.com/","pl-PL,pl;q=0.9,en-US;q=0.8,en;q=0.7","5d40a12f4994c40001e4b80c","686d226cabeef709c732f8e1","686e31006e4c1fa1e31abde2","5d40a12f4994c40001e4b80c","","","","","","","","","","","","","","","","","win-only","1","g1:NE,g2:SW","1","0","1","594165.6","4794.1","8797.2","31855.9","2","4","4","6","2","4","0","0","0","0","4003.1","4000","1810","[""down"",""left""]","{""num_key_presses"":17,""num_perfect"":6,""num_errors"":4,""num_randdir"":0,""num_randdir_good_moves"":0,""num_whilered"":7,""num_whileblue"":0,""num_blue"":0,""num_good_moves"":6}","[414.0714133126395,409.07142761775424,15.6,414.0714133126395,409.07142761775424,102.2,414.0714133126395,409.07142761775424,204.2,414.0714133126395,409.07142761775424,315.5,414.0714133126395,409.07142761775424,416.3,414.0714133126395,409.07142761775424,516.4,414.0714133126395,409.07142761775424,616.4,396.5714133126395,442.82142761775424,722.5,491.5714133126395,519.0714276177542,823,609.0714133126395,555.3214276177542,932.5,665.3214133126395,594.0714276177542,1034.3,719.0714133126395,611.5714276177542,1142.2,726.5714133126395,611.5714276177542,1242.7,726.5714133126395,611.5714276177542,1343.3,726.5714133126395,611.5714276177542,1447.4,726.5714133126395,611.5714276177542,1551.7,726.5714133126395,611.5714276177542,1651.8,726.5714133126395,611.5714276177542,1757.1,726.5714133126395,611.5714276177542,1857.3,726.5714133126395,611.5714276177542,1965.4,726.5714133126395,611.5714276177542,2065.4,726.5714133126395,611.5714276177542,2166.3,726.5714133126395,611.5714276177542,2266.5,726.5714133126395,611.5714276177542,2372.2,726.5714133126395,611.5714276177542,2472.2,726.5714133126395,611.5714276177542,2572.4,726.5714133126395,611.5714276177542,2682,726.5714133126395,611.5714276177542,2782.1,726.5714133126395,611.5714276177542,2887.3,726.5714133126395,611.5714276177542,2992.8,726.5714133126395,611.5714276177542,3096.6,726.5714133126395,611.5714276177542,3203.1,726.5714133126395,611.5714276177542,3306.4,726.5714133126395,611.5714276177542,3407,726.5714133126395,611.5714276177542,3507,726.5714133126395,611.5714276177542,3615.3,726.5714133126395,611.5714276177542,3715.4,726.5714133126395,611.5714276177542,3815.4,726.5714133126395,611.5714276177542,3915.4]","[396.7,396.8,1000,0,-603.2,""error"",""-"",""-"",""no_move"",543.1,146.1,1000,0,-456.9,""while_red"",""-"",""-"",""no_move"",661.6,264.6,1000,0,-338.4,""while_red"",""-"",""-"",""no_move"",4358.3,3961.3,2485.4,1398.7,474.2,""smooth"",""left"",""left"",""good_move"",4499.8,140.8,2817.4,4359.1,-2676.7,""error"",""-"",""-"",""no_move"",4638.2,138.2,2817.4,4359.1,-2538.2,""while_red"",""-"",""-"",""no_move"",4775.4,275.4,2817.4,4359.1,-2401,""while_red"",""-"",""-"",""no_move"",4877.2,377.1,2817.4,4359.1,-2299.3,""while_red"",""-"",""-"",""no_move"",5023.4,523.3,2817.4,4359.1,-2153.1,""while_red"",""-"",""-"",""no_move"",5952.8,1452.7,2487.6,5503.5,-2038.2,""error"",""-"",""-"",""no_move"",9442.8,3489.6,2072.5,6958.7,411.6,""smooth"",""left"",""left"",""good_move"",9584.3,141,2667.2,9443.3,-2526.1,""error"",""-"",""-"",""no_move"",9742.1,157.4,2667.2,9443.3,-2368.4,""while_red"",""-"",""-"",""no_move"",13808.6,4223.9,2847,10588.8,372.8,""smooth"",""left"",""left"",""good_move"",16212.3,2403.4,2009.6,13808.9,393.8,""smooth"",""down"",""down"",""good_move"",19342.5,3129.6,2764.4,16212.9,365.3,""smooth"",""down"",""down"",""good_move"",22960.3,3617.4,3234.9,19343,382.4,""smooth"",""down"",""down"",""good_move""]","","",""
"20796","","","","instructions","22","648416","0.0-8.0-2.0","57","1","2025-07-09 09:07:17","7701e855f2ef39aa3fd6c71abdc6918a","46.232.214.26","Mozilla/5.0 (Windows NT 10.0; Win64; x64) AppleWebKit/537.36 (KHTML, like Gecko) Chrome/138.0.0.0 Safari/537.36","WebKit","Chrome","138.0.0.0","Windows","10.0","https://app.prolific.com/","pl-PL,pl;q=0.9,en-US;q=0.8,en;q=0.7","5d40a12f4994c40001e4b80c","686d226cabeef709c732f8e1","686e31006e4c1fa1e31abde2","5d40a12f4994c40001e4b80c","","[{""page_index"":0,""viewing_time"":20796}]","","","","","","","","","","","","","","","","","","","","","","","","","","","","","","","","","","","","","","","","","","","",""
"","","","","ctl-task-cpt","23","703839","0.0-8.0-3.0","57","1","2025-07-09 09:07:17","7701e855f2ef39aa3fd6c71abdc6918a","46.232.214.26","Mozilla/5.0 (Windows NT 10.0; Win64; x64) AppleWebKit/537.36 (KHTML, like Gecko) Chrome/138.0.0.0 Safari/537.36","WebKit","Chrome","138.0.0.0","Windows","10.0","https://app.prolific.com/","pl-PL,pl;q=0.9,en-US;q=0.8,en;q=0.7","5d40a12f4994c40001e4b80c","686d226cabeef709c732f8e1","686e31006e4c1fa1e31abde2","5d40a12f4994c40001e4b80c","","","","","","","","","","","","","","","","","win-only","1","g1:NE,g2:SW","0.35","0","3","649823.5","2476.6","6480.8","52405.1","2","4","8","6","1","-2","-3","0","0","0","4004.1","4000","-2445","[""up"",""right""]","{""num_key_presses"":13,""num_perfect"":5,""num_errors"":1,""num_randdir"":7,""num_randdir_good_moves"":3,""num_whilered"":0,""num_whileblue"":0,""num_blue"":2,""num_good_moves"":6}","[417.8214133126395,414.07142761775424,0.3,417.8214133126395,414.07142761775424,103.9,417.8214133126395,414.07142761775424,204.5,417.8214133126395,414.07142761775424,308.9,856.5714133126395,385.32142761775424,409.5,1375.3214133126396,397.82142761775424,509.7,1375.3214133126396,397.82142761775424,610,1375.3214133126396,397.82142761775424,714.5,1375.3214133126396,397.82142761775424,814.5,1375.3214133126396,397.82142761775424,916.2,1375.3214133126396,397.82142761775424,1016.2,1375.3214133126396,397.82142761775424,1128.1,1375.3214133126396,397.82142761775424,1229.6,1375.3214133126396,397.82142761775424,1329.6,1375.3214133126396,397.82142761775424,1429.7,1375.3214133126396,397.82142761775424,1535.3,1375.3214133126396,397.82142761775424,1644.6,1375.3214133126396,397.82142761775424,1744.7,1375.3214133126396,397.82142761775424,1845.5,1375.3214133126396,397.82142761775424,1949.2,1375.3214133126396,397.82142761775424,2049.4,1375.3214133126396,397.82142761775424,2149.5,1375.3214133126396,397.82142761775424,2249.7,1375.3214133126396,397.82142761775424,2353.9,1375.3214133126396,397.82142761775424,2453.9,1375.3214133126396,397.82142761775424,2553.9,1375.3214133126396,397.82142761775424,2653.9,1375.3214133126396,397.82142761775424,2753.9,1375.3214133126396,397.82142761775424,2854,1375.3214133126396,397.82142761775424,2954,1375.3214133126396,397.82142761775424,3059.1,1375.3214133126396,397.82142761775424,3160.6,1375.3214133126396,397.82142761775424,3265.2,1375.3214133126396,397.82142761775424,3365.6,1375.3214133126396,397.82142761775424,3470.2,1375.3214133126396,397.82142761775424,3578,1375.3214133126396,397.82142761775424,3679.5,1375.3214133126396,397.82142761775424,3779.7,1375.3214133126396,397.82142761775424,3885.2,1375.3214133126396,397.82142761775424,3994.3]","[372.2,372.2,1000,0,-627.8,""error"",""-"",""-"",""no_move"",4306,3933.5,2499.1,1373.1,433.8,""smooth"",""left"",""left"",""bad_move"",13379.6,9073.3,1925.4,11039.7,414.5,""oops"",""up"",""right"",""good_move"",16803.8,3423.8,2980.8,13380.1,443,""smooth"",""up"",""up"",""good_move"",20022.3,3217.8,2870.4,16804.6,347.3,""oops"",""up"",""right"",""good_move"",23272.4,3249.7,2752.6,20022.7,497.1,""smooth"",""up"",""up"",""good_move"",26280.9,3008,2457.6,23272.9,550.4,""smooth"",""left"",""left"",""bad_move"",29472.4,3191.2,2809.4,26281.2,381.8,""oops"",""right"",""right"",""good_move"",32889.1,3416.3,3094.4,29472.8,321.9,""oops"",""right"",""left"",""bad_move"",35622.5,2733,2340.6,32889.5,392.4,""oops"",""right"",""left"",""bad_move"",38095.6,2472.7,2091.9,35622.9,380.8,""oops"",""left"",""left"",""bad_move"",40222.6,2126.7,1735.7,38095.9,391,""oops"",""right"",""down"",""bad_move"",43659.7,3436.5,3035.6,40223.2,401,""smooth"",""right"",""right"",""good_move""]","","",""
"164918","","","","instructions","24","868758","0.0-8.0-4.0","57","1","2025-07-09 09:07:17","7701e855f2ef39aa3fd6c71abdc6918a","46.232.214.26","Mozilla/5.0 (Windows NT 10.0; Win64; x64) AppleWebKit/537.36 (KHTML, like Gecko) Chrome/138.0.0.0 Safari/537.36","WebKit","Chrome","138.0.0.0","Windows","10.0","https://app.prolific.com/","pl-PL,pl;q=0.9,en-US;q=0.8,en;q=0.7","5d40a12f4994c40001e4b80c","686d226cabeef709c732f8e1","686e31006e4c1fa1e31abde2","5d40a12f4994c40001e4b80c","","[{""page_index"":0,""viewing_time"":12031},{""page_index"":1,""viewing_time"":152886}]","","","","","","","","","","","","","","","","","","","","","","","","","","","","","","","","","","","","","","","","","","","",""
"18833","","","{""green_ball"":[""Ball sometimes shakes and moves in a random direction""]}","survey-multi-select","25","887594","0.0-8.0-5.0-0.0","57","1","2025-07-09 09:07:17","7701e855f2ef39aa3fd6c71abdc6918a","46.232.214.26","Mozilla/5.0 (Windows NT 10.0; Win64; x64) AppleWebKit/537.36 (KHTML, like Gecko) Chrome/138.0.0.0 Safari/537.36","WebKit","Chrome","138.0.0.0","Windows","10.0","https://app.prolific.com/","pl-PL,pl;q=0.9,en-US;q=0.8,en;q=0.7","5d40a12f4994c40001e4b80c","686d226cabeef709c732f8e1","686e31006e4c1fa1e31abde2","5d40a12f4994c40001e4b80c","","","[0]","","","","quiz","","","","","","","","","","","","","","","","","","","","","","","","","","","","","","","","","","","","","true","",""
"6156","","<p align='center'><b>CORRECT!</b> Indeed, the green ball may sometimes shake and move in a random direction.</p>","0","html-button-response","26","893753","0.0-8.0-5.0-1.0","57","1","2025-07-09 09:07:17","7701e855f2ef39aa3fd6c71abdc6918a","46.232.214.26","Mozilla/5.0 (Windows NT 10.0; Win64; x64) AppleWebKit/537.36 (KHTML, like Gecko) Chrome/138.0.0.0 Safari/537.36","WebKit","Chrome","138.0.0.0","Windows","10.0","https://app.prolific.com/","pl-PL,pl;q=0.9,en-US;q=0.8,en;q=0.7","5d40a12f4994c40001e4b80c","686d226cabeef709c732f8e1","686e31006e4c1fa1e31abde2","5d40a12f4994c40001e4b80c","","","","","","","","","","","","","","","","","","","","","","","","","","","","","","","","","","","","","","","","","","","","","",""
"7126","","","{""yellow_ball"":[""Ball doesn‘t move and I get -1 penalty point""]}","survey-multi-select","27","900882","0.0-8.0-6.0-0.0","57","1","2025-07-09 09:07:17","7701e855f2ef39aa3fd6c71abdc6918a","46.232.214.26","Mozilla/5.0 (Windows NT 10.0; Win64; x64) AppleWebKit/537.36 (KHTML, like Gecko) Chrome/138.0.0.0 Safari/537.36","WebKit","Chrome","138.0.0.0","Windows","10.0","https://app.prolific.com/","pl-PL,pl;q=0.9,en-US;q=0.8,en;q=0.7","5d40a12f4994c40001e4b80c","686d226cabeef709c732f8e1","686e31006e4c1fa1e31abde2","5d40a12f4994c40001e4b80c","","","[0]","","","","quiz","","","","","","","","","","","","","","","","","","","","","","","","","","","","","","","","","","","","","true","",""
"1485","","<p align='center'><b>CORRECT!</b> Indeed, the yellow ball never moves and you receive a penalty.</p>","0","html-button-response","28","902369","0.0-8.0-6.0-1.0","57","1","2025-07-09 09:07:17","7701e855f2ef39aa3fd6c71abdc6918a","46.232.214.26","Mozilla/5.0 (Windows NT 10.0; Win64; x64) AppleWebKit/537.36 (KHTML, like Gecko) Chrome/138.0.0.0 Safari/537.36","WebKit","Chrome","138.0.0.0","Windows","10.0","https://app.prolific.com/","pl-PL,pl;q=0.9,en-US;q=0.8,en;q=0.7","5d40a12f4994c40001e4b80c","686d226cabeef709c732f8e1","686e31006e4c1fa1e31abde2","5d40a12f4994c40001e4b80c","","","","","","","","","","","","","","","","","","","","","","","","","","","","","","","","","","","","","","","","","","","","","",""
"30979","","","{""blue_ball"":[""Ball doesn‘t move and I get -1 penalty point"",""Ball sometimes shakes and moves in a random direction""]}","survey-multi-select","29","933351","0.0-8.0-7.0-0.0","57","1","2025-07-09 09:07:17","7701e855f2ef39aa3fd6c71abdc6918a","46.232.214.26","Mozilla/5.0 (Windows NT 10.0; Win64; x64) AppleWebKit/537.36 (KHTML, like Gecko) Chrome/138.0.0.0 Safari/537.36","WebKit","Chrome","138.0.0.0","Windows","10.0","https://app.prolific.com/","pl-PL,pl;q=0.9,en-US;q=0.8,en;q=0.7","5d40a12f4994c40001e4b80c","686d226cabeef709c732f8e1","686e31006e4c1fa1e31abde2","5d40a12f4994c40001e4b80c","","","[0]","","","","quiz","","","","","","","","","","","","","","","","","","","","","","","","","","","","","","","","","","","","","false","",""
"4725","","<p align='center'><b>INCORRECT.</b> The blue ball always shakes and moves randomly.</p>","0","html-button-response","30","938079","0.0-8.0-7.0-1.0","57","1","2025-07-09 09:07:17","7701e855f2ef39aa3fd6c71abdc6918a","46.232.214.26","Mozilla/5.0 (Windows NT 10.0; Win64; x64) AppleWebKit/537.36 (KHTML, like Gecko) Chrome/138.0.0.0 Safari/537.36","WebKit","Chrome","138.0.0.0","Windows","10.0","https://app.prolific.com/","pl-PL,pl;q=0.9,en-US;q=0.8,en;q=0.7","5d40a12f4994c40001e4b80c","686d226cabeef709c732f8e1","686e31006e4c1fa1e31abde2","5d40a12f4994c40001e4b80c","","","","","","","","","","","","","","","","","","","","","","","","","","","","","","","","","","","","","","","","","","","","","",""
"6441","","","{""blue_ball"":[""Ball always shakes and moves in a random direction""]}","survey-multi-select","31","944523","0.0-8.0-7.1-0.1","57","1","2025-07-09 09:07:17","7701e855f2ef39aa3fd6c71abdc6918a","46.232.214.26","Mozilla/5.0 (Windows NT 10.0; Win64; x64) AppleWebKit/537.36 (KHTML, like Gecko) Chrome/138.0.0.0 Safari/537.36","WebKit","Chrome","138.0.0.0","Windows","10.0","https://app.prolific.com/","pl-PL,pl;q=0.9,en-US;q=0.8,en;q=0.7","5d40a12f4994c40001e4b80c","686d226cabeef709c732f8e1","686e31006e4c1fa1e31abde2","5d40a12f4994c40001e4b80c","","","[0]","","","","quiz","","","","","","","","","","","","","","","","","","","","","","","","","","","","","","","","","","","","","true","",""
"1746","","<p align='center'><b>CORRECT!</b> Indeed, the blue ball always shakes and moves in a random direction. Also there is a penalty of -1 point.</p>","0","html-button-response","32","946271","0.0-8.0-7.1-1.1","57","1","2025-07-09 09:07:17","7701e855f2ef39aa3fd6c71abdc6918a","46.232.214.26","Mozilla/5.0 (Windows NT 10.0; Win64; x64) AppleWebKit/537.36 (KHTML, like Gecko) Chrome/138.0.0.0 Safari/537.36","WebKit","Chrome","138.0.0.0","Windows","10.0","https://app.prolific.com/","pl-PL,pl;q=0.9,en-US;q=0.8,en;q=0.7","5d40a12f4994c40001e4b80c","686d226cabeef709c732f8e1","686e31006e4c1fa1e31abde2","5d40a12f4994c40001e4b80c","","","","","","","","","","","","","","","","","","","","","","","","","","","","","","","","","","","","","","","","","","","","","",""
"8202","","","{""bonus"":[""When I reach 50% of points""]}","survey-multi-select","33","954476","0.0-8.0-8.0-0.0","57","1","2025-07-09 09:07:17","7701e855f2ef39aa3fd6c71abdc6918a","46.232.214.26","Mozilla/5.0 (Windows NT 10.0; Win64; x64) AppleWebKit/537.36 (KHTML, like Gecko) Chrome/138.0.0.0 Safari/537.36","WebKit","Chrome","138.0.0.0","Windows","10.0","https://app.prolific.com/","pl-PL,pl;q=0.9,en-US;q=0.8,en;q=0.7","5d40a12f4994c40001e4b80c","686d226cabeef709c732f8e1","686e31006e4c1fa1e31abde2","5d40a12f4994c40001e4b80c","","","[0]","","","","quiz","","","","","","","","","","","","","","","","","","","","","","","","","","","","","","","","","","","","","true","",""
"1897","","<p align='center'><b>CORRECT!</b> Indeed, you receive 2 pounds extra when you reach 50% of points.</p>","0","html-button-response","34","956375","0.0-8.0-8.0-1.0","57","1","2025-07-09 09:07:17","7701e855f2ef39aa3fd6c71abdc6918a","46.232.214.26","Mozilla/5.0 (Windows NT 10.0; Win64; x64) AppleWebKit/537.36 (KHTML, like Gecko) Chrome/138.0.0.0 Safari/537.36","WebKit","Chrome","138.0.0.0","Windows","10.0","https://app.prolific.com/","pl-PL,pl;q=0.9,en-US;q=0.8,en;q=0.7","5d40a12f4994c40001e4b80c","686d226cabeef709c732f8e1","686e31006e4c1fa1e31abde2","5d40a12f4994c40001e4b80c","","","","","","","","","","","","","","","","","","","","","","","","","","","","","","","","","","","","","","","","","","","","","",""
"3800","","","","instructions","35","960176","0.0-8.0-9.0","57","1","2025-07-09 09:07:17","7701e855f2ef39aa3fd6c71abdc6918a","46.232.214.26","Mozilla/5.0 (Windows NT 10.0; Win64; x64) AppleWebKit/537.36 (KHTML, like Gecko) Chrome/138.0.0.0 Safari/537.36","WebKit","Chrome","138.0.0.0","Windows","10.0","https://app.prolific.com/","pl-PL,pl;q=0.9,en-US;q=0.8,en;q=0.7","5d40a12f4994c40001e4b80c","686d226cabeef709c732f8e1","686e31006e4c1fa1e31abde2","5d40a12f4994c40001e4b80c","","[{""page_index"":0,""viewing_time"":3800}]","","","","","","","","","","","","","","","","","","","","","","","","","","","","","","","","","","","","","","","","","","","",""
"17913","","<p>Before you start with this game please answer the following three questions yourself. </p>
  <p>Through this game, we measure several aspects of your cognitive performance, such as reaction times, multi-tasking capabilities </p>
  <p>and the ability to assess the situation you are in.</p>
  <p></p>
  <p><b>How good do you usually are in such tasks?</b></p>","81","html-slider-response","36","978093","0.0-9.0-0.0","57","1","2025-07-09 09:07:17","7701e855f2ef39aa3fd6c71abdc6918a","46.232.214.26","Mozilla/5.0 (Windows NT 10.0; Win64; x64) AppleWebKit/537.36 (KHTML, like Gecko) Chrome/138.0.0.0 Safari/537.36","WebKit","Chrome","138.0.0.0","Windows","10.0","https://app.prolific.com/","pl-PL,pl;q=0.9,en-US;q=0.8,en;q=0.7","5d40a12f4994c40001e4b80c","686d226cabeef709c732f8e1","686e31006e4c1fa1e31abde2","5d40a12f4994c40001e4b80c","2025-07-09T09:23:27.999Z","","","","","","PreSkillQ","","","","","","","","","","","","","","","","","","","","","","","","","","","","","","","","","","","","","","50",""
"8028","","<div style=""width:500px;"">
  <p>How well do you think you will perform in this task compared to other participants?</p>
  </div>","56","html-slider-response","37","986123","0.0-9.0-1.0","57","1","2025-07-09 09:07:17","7701e855f2ef39aa3fd6c71abdc6918a","46.232.214.26","Mozilla/5.0 (Windows NT 10.0; Win64; x64) AppleWebKit/537.36 (KHTML, like Gecko) Chrome/138.0.0.0 Safari/537.36","WebKit","Chrome","138.0.0.0","Windows","10.0","https://app.prolific.com/","pl-PL,pl;q=0.9,en-US;q=0.8,en;q=0.7","5d40a12f4994c40001e4b80c","686d226cabeef709c732f8e1","686e31006e4c1fa1e31abde2","5d40a12f4994c40001e4b80c","2025-07-09T09:23:36.029Z","","","","","","PrePerfQ","","","","","","","","","","","","","","","","","","","","","","","","","","","","","","","","","","","","","","50",""
"5414","","<div style=""width:500px;"">
  <p>What best describes how you currently feel?</p>
  </div>","100","html-slider-response","38","991539","0.0-9.0-2.0","57","1","2025-07-09 09:07:17","7701e855f2ef39aa3fd6c71abdc6918a","46.232.214.26","Mozilla/5.0 (Windows NT 10.0; Win64; x64) AppleWebKit/537.36 (KHTML, like Gecko) Chrome/138.0.0.0 Safari/537.36","WebKit","Chrome","138.0.0.0","Windows","10.0","https://app.prolific.com/","pl-PL,pl;q=0.9,en-US;q=0.8,en;q=0.7","5d40a12f4994c40001e4b80c","686d226cabeef709c732f8e1","686e31006e4c1fa1e31abde2","5d40a12f4994c40001e4b80c","2025-07-09T09:23:41.445Z","","","","","","PreMotivationQ","","","","","","","","","","","","","","","","","","","","","","","","","","","","","","","","","","","","","","50",""
"","","","","ctl-task-cpt","39","1016147","0.0-10.0-0.0","57","1","2025-07-09 09:07:17","7701e855f2ef39aa3fd6c71abdc6918a","46.232.214.26","Mozilla/5.0 (Windows NT 10.0; Win64; x64) AppleWebKit/537.36 (KHTML, like Gecko) Chrome/138.0.0.0 Safari/537.36","WebKit","Chrome","138.0.0.0","Windows","10.0","https://app.prolific.com/","pl-PL,pl;q=0.9,en-US;q=0.8,en;q=0.7","5d40a12f4994c40001e4b80c","686d226cabeef709c732f8e1","686e31006e4c1fa1e31abde2","5d40a12f4994c40001e4b80c","2025-07-09T09:24:06.053Z","","","","","","","","","","","","","","","","win-only","3","g1:SW,g2:NE","1","1","0","992947.3","2559.7","7571.5","21588","1","4","4","6","1","1","0","0","0","0","5011.8","3000","1320","[""down"",""left""]","{""num_key_presses"":6,""num_perfect"":5,""num_errors"":1,""num_randdir"":0,""num_randdir_good_moves"":0,""num_whilered"":0,""num_whileblue"":1,""num_blue"":1,""num_good_moves"":5}","[410.3214133126395,412.82142761775424,0.5,410.3214133126395,412.82142761775424,101,410.3214133126395,412.82142761775424,211.9,410.3214133126395,412.82142761775424,316.7,260.3214133126395,489.07142761775424,421.1,187.8214133126395,554.0714276177542,521.4,171.5714133126395,570.3214276177542,627.5,107.8214133126395,612.8214276177542,731.8,276.5714133126395,402.82142761775424,845.2,556.5714133126395,249.07142761775424,945.2,639.0714133126395,239.07142761775424,1047.6,690.3214133126395,240.32142761775424,1150.9,701.5714133126395,241.57142761775424,1251.6,704.0714133126395,241.57142761775424,1357,704.0714133126395,241.57142761775424,1462,704.0714133126395,241.57142761775424,1567.2,704.0714133126395,241.57142761775424,1671.6,704.0714133126395,241.57142761775424,1772.3,704.0714133126395,241.57142761775424,1877.4,704.0714133126395,241.57142761775424,1982,704.0714133126395,241.57142761775424,2086,704.0714133126395,241.57142761775424,2191.3,704.0714133126395,241.57142761775424,2292.4,704.0714133126395,241.57142761775424,2396.7,616.5714133126395,277.82142761775424,2510.7,607.8214133126395,277.82142761775424,2611.4,606.5714133126395,277.82142761775424,2715.9,606.5714133126395,277.82142761775424,2817,606.5714133126395,277.82142761775424,2917.5,606.5714133126395,277.82142761775424,3021.9,606.5714133126395,277.82142761775424,3125.9,619.0714133126395,237.82142761775424,3227.2,626.5714133126395,226.57142761775424,3332.1,630.3214133126395,221.57142761775424,3444.8,630.3214133126395,221.57142761775424,3545.1,630.3214133126395,221.57142761775424,3646.2,630.3214133126395,221.57142761775424,3747.3,630.3214133126395,221.57142761775424,3860.1,630.3214133126395,221.57142761775424,3961.6,1375.3214133126396,276.57142761775424,4076.3,1375.3214133126396,276.57142761775424,4176.3,1375.3214133126396,276.57142761775424,4277.8,1375.3214133126396,276.57142761775424,4381.3,1375.3214133126396,276.57142761775424,4481.9,1375.3214133126396,276.57142761775424,4586.3,1375.3214133126396,276.57142761775424,4691.3,1375.3214133126396,276.57142761775424,4796,1375.3214133126396,276.57142761775424,4911.6]","[1554.8,1554.8,1000,0,554.8,""smooth"",""up"",""up"",""bad_move"",3863.1,2307.7,1885.5,1555.6,422.1,""smooth"",""left"",""left"",""good_move"",6181.2,2317.5,1896,3863.7,421.5,""smooth"",""left"",""left"",""good_move"",8747.5,2565.9,2204.7,6181.6,361.2,""smooth"",""down"",""down"",""good_move"",11147.3,2399.3,2081.8,8748,317.5,""while_blue"",""down"",""down"",""good_move"",13897.6,2749.5,2251.7,11148.1,497.8,""smooth"",""down"",""down"",""good_move""]","","",""
"56922","","<div style=""width:500px;"">
  <p>What determined the result of this run?</p>
  </div>","92","html-slider-response","40","1073072","0.0-10.0-1.0","57","1","2025-07-09 09:07:17","7701e855f2ef39aa3fd6c71abdc6918a","46.232.214.26","Mozilla/5.0 (Windows NT 10.0; Win64; x64) AppleWebKit/537.36 (KHTML, like Gecko) Chrome/138.0.0.0 Safari/537.36","WebKit","Chrome","138.0.0.0","Windows","10.0","https://app.prolific.com/","pl-PL,pl;q=0.9,en-US;q=0.8,en;q=0.7","5d40a12f4994c40001e4b80c","686d226cabeef709c732f8e1","686e31006e4c1fa1e31abde2","5d40a12f4994c40001e4b80c","2025-07-09T09:25:02.978Z","","","","","","AttribQ","","","","","","","","","","","","","","","","","","","","","","","","","","","","","","","","","","","","","","50",""
"4031","","<div style=""width:500px;"">
  <p>How much control did you have over the ball?</p>
  </div>","99","html-slider-response","41","1077106","0.0-10.0-2.0","57","1","2025-07-09 09:07:17","7701e855f2ef39aa3fd6c71abdc6918a","46.232.214.26","Mozilla/5.0 (Windows NT 10.0; Win64; x64) AppleWebKit/537.36 (KHTML, like Gecko) Chrome/138.0.0.0 Safari/537.36","WebKit","Chrome","138.0.0.0","Windows","10.0","https://app.prolific.com/","pl-PL,pl;q=0.9,en-US;q=0.8,en;q=0.7","5d40a12f4994c40001e4b80c","686d226cabeef709c732f8e1","686e31006e4c1fa1e31abde2","5d40a12f4994c40001e4b80c","2025-07-09T09:25:07.012Z","","","","","","ControlQ","","","","","","","","","","","","","","","","","","","","","","","","","","","","","","","","","","","","","","50",""
"7600","","<div style=""width:500px;"">
  <p>How would you describe your current emotional state?</p>
  </div>","16","html-slider-response","42","1084708","0.0-10.0-3.0","57","1","2025-07-09 09:07:17","7701e855f2ef39aa3fd6c71abdc6918a","46.232.214.26","Mozilla/5.0 (Windows NT 10.0; Win64; x64) AppleWebKit/537.36 (KHTML, like Gecko) Chrome/138.0.0.0 Safari/537.36","WebKit","Chrome","138.0.0.0","Windows","10.0","https://app.prolific.com/","pl-PL,pl;q=0.9,en-US;q=0.8,en;q=0.7","5d40a12f4994c40001e4b80c","686d226cabeef709c732f8e1","686e31006e4c1fa1e31abde2","5d40a12f4994c40001e4b80c","2025-07-09T09:25:14.614Z","","","","","","StressQ","","","","","","","","","","","","","","","","","","","","","","","","","","","","","","","","","","","","","","50",""
"4723","","<div style=""width:500px;"">
  <p>What best describes how you currently feel?</p>
  </div>","100","html-slider-response","43","1089432","0.0-10.0-4.0","57","1","2025-07-09 09:07:17","7701e855f2ef39aa3fd6c71abdc6918a","46.232.214.26","Mozilla/5.0 (Windows NT 10.0; Win64; x64) AppleWebKit/537.36 (KHTML, like Gecko) Chrome/138.0.0.0 Safari/537.36","WebKit","Chrome","138.0.0.0","Windows","10.0","https://app.prolific.com/","pl-PL,pl;q=0.9,en-US;q=0.8,en;q=0.7","5d40a12f4994c40001e4b80c","686d226cabeef709c732f8e1","686e31006e4c1fa1e31abde2","5d40a12f4994c40001e4b80c","2025-07-09T09:25:19.338Z","","","","","","MotivationQ","","","","","","","","","","","","","","","","","","","","","","","","","","","","","","","","","","","","","","50",""
"","","","","ctl-task-cpt","44","1124532","0.0-10.0-0.1","57","1","2025-07-09 09:07:17","7701e855f2ef39aa3fd6c71abdc6918a","46.232.214.26","Mozilla/5.0 (Windows NT 10.0; Win64; x64) AppleWebKit/537.36 (KHTML, like Gecko) Chrome/138.0.0.0 Safari/537.36","WebKit","Chrome","138.0.0.0","Windows","10.0","https://app.prolific.com/","pl-PL,pl;q=0.9,en-US;q=0.8,en;q=0.7","5d40a12f4994c40001e4b80c","686d226cabeef709c732f8e1","686e31006e4c1fa1e31abde2","5d40a12f4994c40001e4b80c","2025-07-09T09:25:54.438Z","","","","","","","","","","","","","","","","win-only","0","g1:NW,g2:SE","0.9","2","0","1090842.2","2475.3","7477","32075.8","1","4","8","6","2","8","8","8","0","0.06060606060606061","2497.8","3000","885","[""down"",""right""]","{""num_key_presses"":8,""num_perfect"":7,""num_errors"":0,""num_randdir"":1,""num_randdir_good_moves"":0,""num_whilered"":0,""num_whileblue"":0,""num_blue"":1,""num_good_moves"":7}","[412.8214133126395,411.57142761775424,0.3,412.8214133126395,411.57142761775424,102.7,412.8214133126395,411.57142761775424,203.5,412.8214133126395,411.57142761775424,305.6,412.8214133126395,411.57142761775424,405.8,412.8214133126395,411.57142761775424,516.3,390.3214133126395,417.82142761775424,621.1,344.0714133126395,462.82142761775424,721.1,340.3214133126395,476.57142761775424,836.9,339.0714133126395,476.57142761775424,940.2,339.0714133126395,476.57142761775424,1041.3,339.0714133126395,476.57142761775424,1145.2,339.0714133126395,476.57142761775424,1246.8,339.0714133126395,476.57142761775424,1351.1,339.0714133126395,476.57142761775424,1451.1,339.0714133126395,476.57142761775424,1552.1,339.0714133126395,476.57142761775424,1652.6,339.0714133126395,476.57142761775424,1754.2,339.0714133126395,476.57142761775424,1855.1,871.5714133126395,680.3214276177542,1955.8,910.3214133126395,716.5714276177542,2056.1,909.0714133126395,726.5714276177542,2161.3,826.5714133126395,757.8214276177542,2262,791.5714133126395,756.5714276177542,2367.3,791.5714133126395,756.5714276177542,2472,791.5714133126395,756.5714276177542,2575.6,791.5714133126395,756.5714276177542,2675.6,791.5714133126395,756.5714276177542,2787.5,791.5714133126395,756.5714276177542,2887.5,1366.5714133126396,662.8214276177542,2991.5,1366.5714133126396,662.8214276177542,3096.4,1366.5714133126396,662.8214276177542,3201.3,1366.5714133126396,662.8214276177542,3305.4,1366.5714133126396,662.8214276177542,3407.1,1366.5714133126396,662.8214276177542,3511,1366.5714133126396,662.8214276177542,3611.1,1366.5714133126396,662.8214276177542,3715.6,1366.5714133126396,662.8214276177542,3815.6,1366.5714133126396,662.8214276177542,3916.7,1366.5714133126396,662.8214276177542,4020.6,1366.5714133126396,662.8214276177542,4120.8,1366.5714133126396,662.8214276177542,4226.1,1366.5714133126396,662.8214276177542,4330.6,1366.5714133126396,662.8214276177542,4431.9,1366.5714133126396,662.8214276177542,4535.9,1366.5714133126396,662.8214276177542,4652.2,1366.5714133126396,662.8214276177542,4752.5,1366.5714133126396,662.8214276177542,4856.1,1366.5714133126396,662.8214276177542,4956.7]","[1398.8,1398.8,1000,0,398.9,""smooth"",""right"",""right"",""good_move"",7478.6,6079.1,2561.2,4535.8,381.6,""smooth"",""right"",""right"",""good_move"",10395,2916.1,2479.5,7478.9,436.6,""smooth"",""right"",""right"",""good_move"",12882.7,2487.2,2131.7,10395.5,355.5,""oops"",""down"",""up"",""bad_move"",15687.7,2804.4,2419,12883.3,385.4,""smooth"",""down"",""down"",""good_move"",18532.7,2844.8,2514.5,15687.9,330.3,""smooth"",""down"",""down"",""good_move"",21698.9,3165.8,2795.2,18533.1,370.6,""smooth"",""down"",""down"",""good_move"",24471,2771.8,2393.6,21699.2,378.2,""smooth"",""down"",""down"",""good_move""]","","",""
"5262","","<div style=""width:500px;"">
  <p>What determined the result of this run?</p>
  </div>","69","html-slider-response","45","1129795","0.0-10.0-1.1","57","1","2025-07-09 09:07:17","7701e855f2ef39aa3fd6c71abdc6918a","46.232.214.26","Mozilla/5.0 (Windows NT 10.0; Win64; x64) AppleWebKit/537.36 (KHTML, like Gecko) Chrome/138.0.0.0 Safari/537.36","WebKit","Chrome","138.0.0.0","Windows","10.0","https://app.prolific.com/","pl-PL,pl;q=0.9,en-US;q=0.8,en;q=0.7","5d40a12f4994c40001e4b80c","686d226cabeef709c732f8e1","686e31006e4c1fa1e31abde2","5d40a12f4994c40001e4b80c","2025-07-09T09:25:59.701Z","","","","","","AttribQ","","","","","","","","","","","","","","","","","","","","","","","","","","","","","","","","","","","","","","50",""
"3570","","<div style=""width:500px;"">
  <p>How much control did you have over the ball?</p>
  </div>","76","html-slider-response","46","1133367","0.0-10.0-2.1","57","1","2025-07-09 09:07:17","7701e855f2ef39aa3fd6c71abdc6918a","46.232.214.26","Mozilla/5.0 (Windows NT 10.0; Win64; x64) AppleWebKit/537.36 (KHTML, like Gecko) Chrome/138.0.0.0 Safari/537.36","WebKit","Chrome","138.0.0.0","Windows","10.0","https://app.prolific.com/","pl-PL,pl;q=0.9,en-US;q=0.8,en;q=0.7","5d40a12f4994c40001e4b80c","686d226cabeef709c732f8e1","686e31006e4c1fa1e31abde2","5d40a12f4994c40001e4b80c","2025-07-09T09:26:03.273Z","","","","","","ControlQ","","","","","","","","","","","","","","","","","","","","","","","","","","","","","","","","","","","","","","50",""
"3477","","<div style=""width:500px;"">
  <p>How would you describe your current emotional state?</p>
  </div>","3","html-slider-response","47","1136846","0.0-10.0-3.1","57","1","2025-07-09 09:07:17","7701e855f2ef39aa3fd6c71abdc6918a","46.232.214.26","Mozilla/5.0 (Windows NT 10.0; Win64; x64) AppleWebKit/537.36 (KHTML, like Gecko) Chrome/138.0.0.0 Safari/537.36","WebKit","Chrome","138.0.0.0","Windows","10.0","https://app.prolific.com/","pl-PL,pl;q=0.9,en-US;q=0.8,en;q=0.7","5d40a12f4994c40001e4b80c","686d226cabeef709c732f8e1","686e31006e4c1fa1e31abde2","5d40a12f4994c40001e4b80c","2025-07-09T09:26:06.752Z","","","","","","StressQ","","","","","","","","","","","","","","","","","","","","","","","","","","","","","","","","","","","","","","50",""
"3851","","<div style=""width:500px;"">
  <p>What best describes how you currently feel?</p>
  </div>","100","html-slider-response","48","1140698","0.0-10.0-4.1","57","1","2025-07-09 09:07:17","7701e855f2ef39aa3fd6c71abdc6918a","46.232.214.26","Mozilla/5.0 (Windows NT 10.0; Win64; x64) AppleWebKit/537.36 (KHTML, like Gecko) Chrome/138.0.0.0 Safari/537.36","WebKit","Chrome","138.0.0.0","Windows","10.0","https://app.prolific.com/","pl-PL,pl;q=0.9,en-US;q=0.8,en;q=0.7","5d40a12f4994c40001e4b80c","686d226cabeef709c732f8e1","686e31006e4c1fa1e31abde2","5d40a12f4994c40001e4b80c","2025-07-09T09:26:10.604Z","","","","","","MotivationQ","","","","","","","","","","","","","","","","","","","","","","","","","","","","","","","","","","","","","","50",""
"","","","","ctl-task-cpt","49","1170910","0.0-10.0-0.2","57","1","2025-07-09 09:07:17","7701e855f2ef39aa3fd6c71abdc6918a","46.232.214.26","Mozilla/5.0 (Windows NT 10.0; Win64; x64) AppleWebKit/537.36 (KHTML, like Gecko) Chrome/138.0.0.0 Safari/537.36","WebKit","Chrome","138.0.0.0","Windows","10.0","https://app.prolific.com/","pl-PL,pl;q=0.9,en-US;q=0.8,en;q=0.7","5d40a12f4994c40001e4b80c","686d226cabeef709c732f8e1","686e31006e4c1fa1e31abde2","5d40a12f4994c40001e4b80c","2025-07-09T09:26:40.816Z","","","","","","","","","","","","","","","","win-only","0","g1:NW,g2:SE","0.8","3","0","1142108.1","1862.7","6866.6","27191","1","4","8","6","2","8","8","16","8","0.12121212121212122","1085","3000","910","[""down"",""right""]","{""num_key_presses"":8,""num_perfect"":6,""num_errors"":0,""num_randdir"":2,""num_randdir_good_moves"":1,""num_whilered"":0,""num_whileblue"":0,""num_blue"":0,""num_good_moves"":7}","[410.3214133126395,421.57142761775424,0.2,410.3214133126395,421.57142761775424,104.4,410.3214133126395,421.57142761775424,208.1,410.3214133126395,421.57142761775424,309,410.3214133126395,421.57142761775424,412.7,561.5714133126395,534.0714276177542,513.8,677.8214133126395,641.5714276177542,615,700.3214133126395,676.5714276177542,719.3,727.8214133126395,727.8214276177542,825.1,765.3214133126395,759.0714276177542,929.3,765.3214133126395,759.0714276177542,1031.5,765.3214133126395,759.0714276177542,1132.9,765.3214133126395,759.0714276177542,1238.2,765.3214133126395,759.0714276177542,1338.4,765.3214133126395,759.0714276177542,1440.1,1284.0714133126396,680.3214276177542,1543.9,1284.0714133126396,680.3214276177542,1654.9,1284.0714133126396,680.3214276177542,1755,1284.0714133126396,680.3214276177542,1872.8,1284.0714133126396,680.3214276177542,1988.7,1284.0714133126396,680.3214276177542,2103,1284.0714133126396,680.3214276177542,2204.2,1284.0714133126396,680.3214276177542,2304.4,1284.0714133126396,680.3214276177542,2409.2,1284.0714133126396,680.3214276177542,2515.3,1284.0714133126396,680.3214276177542,2616.4,1284.0714133126396,680.3214276177542,2718.9,1284.0714133126396,680.3214276177542,2821.6,1284.0714133126396,680.3214276177542,2925.4,1284.0714133126396,680.3214276177542,3028.2,1284.0714133126396,680.3214276177542,3129.8,1284.0714133126396,680.3214276177542,3236.7,1284.0714133126396,680.3214276177542,3338.2,1284.0714133126396,680.3214276177542,3439.6,1284.0714133126396,680.3214276177542,3553.6,1284.0714133126396,680.3214276177542,3658.5,1284.0714133126396,680.3214276177542,3759.9,1284.0714133126396,680.3214276177542,3864.5,1284.0714133126396,680.3214276177542,3969,1284.0714133126396,680.3214276177542,4087.2,1284.0714133126396,680.3214276177542,4188.1,1284.0714133126396,680.3214276177542,4293.6,1284.0714133126396,680.3214276177542,4393.7,1284.0714133126396,680.3214276177542,4496.3,1284.0714133126396,680.3214276177542,4602.1,1284.0714133126396,680.3214276177542,4704.4,1284.0714133126396,680.3214276177542,4815.5,1284.0714133126396,680.3214276177542,4921.4]","[1512.4,1512.4,1000,0,512.4,""oops"",""down"",""up"",""bad_move"",3930.8,2417.9,1896.2,1513,521.6,""smooth"",""down"",""down"",""good_move"",6539.3,2608.1,2220.9,3931.2,387.2,""smooth"",""down"",""down"",""good_move"",9356.4,2816.7,2397,6539.7,419.7,""oops"",""down"",""right"",""good_move"",11948.2,2591.2,2200.4,9357,390.9,""smooth"",""down"",""down"",""good_move"",15128.2,3179.5,2834.4,11948.7,345.1,""smooth"",""down"",""down"",""good_move"",18005.7,2877.2,2492.8,15128.5,384.4,""smooth"",""right"",""right"",""good_move"",20196.8,2190.8,1815.1,18006,375.7,""smooth"",""right"",""right"",""good_move""]","","",""
"3390","","<div style=""width:500px;"">
  <p>What determined the result of this run?</p>
  </div>","67","html-slider-response","50","1174302","0.0-10.0-1.2","57","1","2025-07-09 09:07:17","7701e855f2ef39aa3fd6c71abdc6918a","46.232.214.26","Mozilla/5.0 (Windows NT 10.0; Win64; x64) AppleWebKit/537.36 (KHTML, like Gecko) Chrome/138.0.0.0 Safari/537.36","WebKit","Chrome","138.0.0.0","Windows","10.0","https://app.prolific.com/","pl-PL,pl;q=0.9,en-US;q=0.8,en;q=0.7","5d40a12f4994c40001e4b80c","686d226cabeef709c732f8e1","686e31006e4c1fa1e31abde2","5d40a12f4994c40001e4b80c","2025-07-09T09:26:44.208Z","","","","","","AttribQ","","","","","","","","","","","","","","","","","","","","","","","","","","","","","","","","","","","","","","50",""
"5848","","<div style=""width:500px;"">
  <p>How much control did you have over the ball?</p>
  </div>","76","html-slider-response","51","1180151","0.0-10.0-2.2","57","1","2025-07-09 09:07:17","7701e855f2ef39aa3fd6c71abdc6918a","46.232.214.26","Mozilla/5.0 (Windows NT 10.0; Win64; x64) AppleWebKit/537.36 (KHTML, like Gecko) Chrome/138.0.0.0 Safari/537.36","WebKit","Chrome","138.0.0.0","Windows","10.0","https://app.prolific.com/","pl-PL,pl;q=0.9,en-US;q=0.8,en;q=0.7","5d40a12f4994c40001e4b80c","686d226cabeef709c732f8e1","686e31006e4c1fa1e31abde2","5d40a12f4994c40001e4b80c","2025-07-09T09:26:50.057Z","","","","","","ControlQ","","","","","","","","","","","","","","","","","","","","","","","","","","","","","","","","","","","","","","50",""
"5339","","<div style=""width:500px;"">
  <p>How would you describe your current emotional state?</p>
  </div>","4","html-slider-response","52","1185492","0.0-10.0-3.2","57","1","2025-07-09 09:07:17","7701e855f2ef39aa3fd6c71abdc6918a","46.232.214.26","Mozilla/5.0 (Windows NT 10.0; Win64; x64) AppleWebKit/537.36 (KHTML, like Gecko) Chrome/138.0.0.0 Safari/537.36","WebKit","Chrome","138.0.0.0","Windows","10.0","https://app.prolific.com/","pl-PL,pl;q=0.9,en-US;q=0.8,en;q=0.7","5d40a12f4994c40001e4b80c","686d226cabeef709c732f8e1","686e31006e4c1fa1e31abde2","5d40a12f4994c40001e4b80c","2025-07-09T09:26:55.399Z","","","","","","StressQ","","","","","","","","","","","","","","","","","","","","","","","","","","","","","","","","","","","","","","50",""
"3567","","<div style=""width:500px;"">
  <p>What best describes how you currently feel?</p>
  </div>","100","html-slider-response","53","1189061","0.0-10.0-4.2","57","1","2025-07-09 09:07:17","7701e855f2ef39aa3fd6c71abdc6918a","46.232.214.26","Mozilla/5.0 (Windows NT 10.0; Win64; x64) AppleWebKit/537.36 (KHTML, like Gecko) Chrome/138.0.0.0 Safari/537.36","WebKit","Chrome","138.0.0.0","Windows","10.0","https://app.prolific.com/","pl-PL,pl;q=0.9,en-US;q=0.8,en;q=0.7","5d40a12f4994c40001e4b80c","686d226cabeef709c732f8e1","686e31006e4c1fa1e31abde2","5d40a12f4994c40001e4b80c","2025-07-09T09:26:58.967Z","","","","","","MotivationQ","","","","","","","","","","","","","","","","","","","","","","","","","","","","","","","","","","","","","","50",""
"","","","","ctl-task-cpt","54","1217504","0.0-10.0-0.3","57","1","2025-07-09 09:07:17","7701e855f2ef39aa3fd6c71abdc6918a","46.232.214.26","Mozilla/5.0 (Windows NT 10.0; Win64; x64) AppleWebKit/537.36 (KHTML, like Gecko) Chrome/138.0.0.0 Safari/537.36","WebKit","Chrome","138.0.0.0","Windows","10.0","https://app.prolific.com/","pl-PL,pl;q=0.9,en-US;q=0.8,en;q=0.7","5d40a12f4994c40001e4b80c","686d226cabeef709c732f8e1","686e31006e4c1fa1e31abde2","5d40a12f4994c40001e4b80c","2025-07-09T09:27:27.410Z","","","","","","","","","","","","","","","","win-only","0","g1:NW,g2:SE","0.7","4","0","1190470.7","2005.1","7021.1","25432","1","4","4","6","2","4","4","20","16","0.15151515151515152","988.6","3000","1570","[""down"",""right""]","{""num_key_presses"":6,""num_perfect"":6,""num_errors"":0,""num_randdir"":0,""num_randdir_good_moves"":0,""num_whilered"":0,""num_whileblue"":0,""num_blue"":1,""num_good_moves"":6}","[422.8214133126395,420.32142761775424,0.3,422.8214133126395,420.32142761775424,112.2,422.8214133126395,420.32142761775424,215.5,422.8214133126395,420.32142761775424,315.8,422.8214133126395,420.32142761775424,421.7,696.5714133126395,674.0714276177542,533.5,774.0714133126395,784.0714276177542,638,785.3214133126395,807.8214276177542,738.7,789.0714133126395,814.0714276177542,841.4,789.0714133126395,814.0714276177542,953.7,789.0714133126395,814.0714276177542,1055.7,789.0714133126395,814.0714276177542,1156.7,789.0714133126395,814.0714276177542,1261.4,789.0714133126395,814.0714276177542,1362.8,1114.0714133126396,704.0714276177542,1463.6,1269.0714133126396,680.3214276177542,1566.8,1269.0714133126396,680.3214276177542,1671.5,1269.0714133126396,680.3214276177542,1772.6,1269.0714133126396,680.3214276177542,1887.3,1269.0714133126396,680.3214276177542,1992.3,1269.0714133126396,680.3214276177542,2096,1269.0714133126396,680.3214276177542,2215.2,1269.0714133126396,680.3214276177542,2316.9,1269.0714133126396,680.3214276177542,2432.1,1269.0714133126396,680.3214276177542,2534.4,1269.0714133126396,680.3214276177542,2636.6,1269.0714133126396,680.3214276177542,2752.2,1269.0714133126396,680.3214276177542,2852.6,1269.0714133126396,680.3214276177542,2956.4,1269.0714133126396,680.3214276177542,3061.1,1269.0714133126396,680.3214276177542,3163.2,1269.0714133126396,680.3214276177542,3265.4,1269.0714133126396,680.3214276177542,3366.4,1269.0714133126396,680.3214276177542,3466.5,1269.0714133126396,680.3214276177542,3583.7,1269.0714133126396,680.3214276177542,3692.3,1269.0714133126396,680.3214276177542,3803.7,1269.0714133126396,680.3214276177542,3906,1269.0714133126396,680.3214276177542,4011.1,1269.0714133126396,680.3214276177542,4117.2,1269.0714133126396,680.3214276177542,4218,1269.0714133126396,680.3214276177542,4321,1269.0714133126396,680.3214276177542,4433,1269.0714133126396,680.3214276177542,4537,1269.0714133126396,680.3214276177542,4645,1269.0714133126396,680.3214276177542,4748.2,1269.0714133126396,680.3214276177542,4850.9,1269.0714133126396,680.3214276177542,4958.5]","[1487.5,1487.6,1000,0,487.6,""smooth"",""right"",""right"",""good_move"",4226.3,2738.2,2382.5,1488.1,355.7,""smooth"",""right"",""right"",""good_move"",6614.4,2387.9,2035.8,4226.5,352.1,""smooth"",""right"",""right"",""good_move"",8622,2007.2,1627.4,6614.8,379.8,""smooth"",""down"",""down"",""good_move"",15305.1,6682.7,2439.5,12512.6,353,""smooth"",""down"",""down"",""good_move"",18267.3,2961.9,2596.6,15305.4,365.3,""smooth"",""down"",""down"",""good_move""]","","",""
"3548","","<div style=""width:500px;"">
  <p>What determined the result of this run?</p>
  </div>","98","html-slider-response","55","1221053","0.0-10.0-1.3","57","1","2025-07-09 09:07:17","7701e855f2ef39aa3fd6c71abdc6918a","46.232.214.26","Mozilla/5.0 (Windows NT 10.0; Win64; x64) AppleWebKit/537.36 (KHTML, like Gecko) Chrome/138.0.0.0 Safari/537.36","WebKit","Chrome","138.0.0.0","Windows","10.0","https://app.prolific.com/","pl-PL,pl;q=0.9,en-US;q=0.8,en;q=0.7","5d40a12f4994c40001e4b80c","686d226cabeef709c732f8e1","686e31006e4c1fa1e31abde2","5d40a12f4994c40001e4b80c","2025-07-09T09:27:30.959Z","","","","","","AttribQ","","","","","","","","","","","","","","","","","","","","","","","","","","","","","","","","","","","","","","50",""
"3574","","<div style=""width:500px;"">
  <p>How much control did you have over the ball?</p>
  </div>","100","html-slider-response","56","1224628","0.0-10.0-2.3","57","1","2025-07-09 09:07:17","7701e855f2ef39aa3fd6c71abdc6918a","46.232.214.26","Mozilla/5.0 (Windows NT 10.0; Win64; x64) AppleWebKit/537.36 (KHTML, like Gecko) Chrome/138.0.0.0 Safari/537.36","WebKit","Chrome","138.0.0.0","Windows","10.0","https://app.prolific.com/","pl-PL,pl;q=0.9,en-US;q=0.8,en;q=0.7","5d40a12f4994c40001e4b80c","686d226cabeef709c732f8e1","686e31006e4c1fa1e31abde2","5d40a12f4994c40001e4b80c","2025-07-09T09:27:34.535Z","","","","","","ControlQ","","","","","","","","","","","","","","","","","","","","","","","","","","","","","","","","","","","","","","50",""
"2704","","<div style=""width:500px;"">
  <p>How would you describe your current emotional state?</p>
  </div>","2","html-slider-response","57","1227334","0.0-10.0-3.3","57","1","2025-07-09 09:07:17","7701e855f2ef39aa3fd6c71abdc6918a","46.232.214.26","Mozilla/5.0 (Windows NT 10.0; Win64; x64) AppleWebKit/537.36 (KHTML, like Gecko) Chrome/138.0.0.0 Safari/537.36","WebKit","Chrome","138.0.0.0","Windows","10.0","https://app.prolific.com/","pl-PL,pl;q=0.9,en-US;q=0.8,en;q=0.7","5d40a12f4994c40001e4b80c","686d226cabeef709c732f8e1","686e31006e4c1fa1e31abde2","5d40a12f4994c40001e4b80c","2025-07-09T09:27:37.240Z","","","","","","StressQ","","","","","","","","","","","","","","","","","","","","","","","","","","","","","","","","","","","","","","50",""
"2897","","<div style=""width:500px;"">
  <p>What best describes how you currently feel?</p>
  </div>","100","html-slider-response","58","1230232","0.0-10.0-4.3","57","1","2025-07-09 09:07:17","7701e855f2ef39aa3fd6c71abdc6918a","46.232.214.26","Mozilla/5.0 (Windows NT 10.0; Win64; x64) AppleWebKit/537.36 (KHTML, like Gecko) Chrome/138.0.0.0 Safari/537.36","WebKit","Chrome","138.0.0.0","Windows","10.0","https://app.prolific.com/","pl-PL,pl;q=0.9,en-US;q=0.8,en;q=0.7","5d40a12f4994c40001e4b80c","686d226cabeef709c732f8e1","686e31006e4c1fa1e31abde2","5d40a12f4994c40001e4b80c","2025-07-09T09:27:40.138Z","","","","","","MotivationQ","","","","","","","","","","","","","","","","","","","","","","","","","","","","","","","","","","","","","","50",""
"","","","","ctl-task-cpt","59","1297947","0.0-10.0-0.4","57","1","2025-07-09 09:07:17","7701e855f2ef39aa3fd6c71abdc6918a","46.232.214.26","Mozilla/5.0 (Windows NT 10.0; Win64; x64) AppleWebKit/537.36 (KHTML, like Gecko) Chrome/138.0.0.0 Safari/537.36","WebKit","Chrome","138.0.0.0","Windows","10.0","https://app.prolific.com/","pl-PL,pl;q=0.9,en-US;q=0.8,en;q=0.7","5d40a12f4994c40001e4b80c","686d226cabeef709c732f8e1","686e31006e4c1fa1e31abde2","5d40a12f4994c40001e4b80c","2025-07-09T09:28:47.853Z","","","","","","","","","","","","","","","","win-only","3","g1:SW,g2:NE","0.6","5","0","1231641.3","1367.7","6379.6","64690.2","1","4","8","6","2","8","8","28","20","0.21212121212121213","1372","3000","1065","[""up"",""right""]","{""num_key_presses"":12,""num_perfect"":7,""num_errors"":0,""num_randdir"":5,""num_randdir_good_moves"":2,""num_whilered"":0,""num_whileblue"":0,""num_blue"":6,""num_good_moves"":9}","[417.8214133126395,409.07142761775424,1.1,417.8214133126395,409.07142761775424,103.5,417.8214133126395,409.07142761775424,203.7,417.8214133126395,409.07142761775424,308.9,492.8214133126395,421.57142761775424,408.9,190.3214133126395,665.3214276177542,510.5,179.0714133126395,671.5714276177542,614.5,179.0714133126395,671.5714276177542,725.6,592.8214133126395,186.57142761775424,828.8,646.5714133126395,141.57142761775424,929.5,654.0714133126395,136.57142761775424,1033.1,736.5714133126395,97.82142761775425,1140.8,751.5714133126395,92.82142761775425,1242.4,751.5714133126395,92.82142761775425,1344.2,751.5714133126395,92.82142761775425,1448.6,751.5714133126395,92.82142761775425,1550.7,751.5714133126395,92.82142761775425,1667.6,1079.0714133126396,154.07142761775424,1769.4,1214.0714133126396,181.57142761775424,1874.3,1214.0714133126396,181.57142761775424,1976.2,1214.0714133126396,181.57142761775424,2078.1,1214.0714133126396,181.57142761775424,2179,1214.0714133126396,181.57142761775424,2283.7,1214.0714133126396,181.57142761775424,2388.4,1214.0714133126396,181.57142761775424,2491.4,1214.0714133126396,181.57142761775424,2599,1214.0714133126396,181.57142761775424,2704.7,1214.0714133126396,181.57142761775424,2809.4,1214.0714133126396,181.57142761775424,2920.6,1214.0714133126396,181.57142761775424,3036.3,1214.0714133126396,181.57142761775424,3139.9,1214.0714133126396,181.57142761775424,3246.2,1214.0714133126396,181.57142761775424,3350.7,1214.0714133126396,181.57142761775424,3455.2,1214.0714133126396,181.57142761775424,3560.1,1214.0714133126396,181.57142761775424,3661.6,1214.0714133126396,181.57142761775424,3763.2,1214.0714133126396,181.57142761775424,3866,1214.0714133126396,181.57142761775424,3972.5,1214.0714133126396,181.57142761775424,4074.1,1214.0714133126396,181.57142761775424,4181.7,1214.0714133126396,181.57142761775424,4285.7,1214.0714133126396,181.57142761775424,4385.8,1214.0714133126396,181.57142761775424,4485.9,1214.0714133126396,181.57142761775424,4596.9,1214.0714133126396,181.57142761775424,4698.4,1214.0714133126396,181.57142761775424,4800.4,1214.0714133126396,181.57142761775424,4908.3]","[1505.6,1505.6,1000,0,505.6,""smooth"",""up"",""up"",""good_move"",4053.5,2547.4,2106.9,1506.1,440.5,""smooth"",""up"",""up"",""good_move"",7159.7,3106,2687.7,4053.8,418.3,""smooth"",""up"",""up"",""good_move"",21811.9,14651.9,2446,18809.3,556.6,""oops"",""right"",""left"",""bad_move"",25487.2,3674.7,3226.3,21812.5,448.4,""smooth"",""right"",""right"",""good_move"",32054.6,6567.2,2704.4,28902.4,447.9,""oops"",""right"",""left"",""bad_move"",35814.4,3759.4,3149.4,32055,610,""oops"",""right"",""right"",""good_move"",38449.8,2635.2,2224.1,35814.7,411.1,""oops"",""right"",""down"",""bad_move"",44184.9,5734.7,2209.8,41518.4,456.8,""smooth"",""right"",""right"",""good_move"",47549.9,3364.8,2834.5,44185.1,530.3,""smooth"",""right"",""right"",""good_move"",50893.1,3342.9,2967.4,47550.2,375.5,""oops"",""right"",""up"",""good_move"",57970.5,7076.9,2543.6,55059.8,367.1,""smooth"",""right"",""right"",""good_move""]","","",""
"8524","","<div style=""width:500px;"">
  <p>What determined the result of this run?</p>
  </div>","41","html-slider-response","60","1306476","0.0-10.0-1.4","57","1","2025-07-09 09:07:17","7701e855f2ef39aa3fd6c71abdc6918a","46.232.214.26","Mozilla/5.0 (Windows NT 10.0; Win64; x64) AppleWebKit/537.36 (KHTML, like Gecko) Chrome/138.0.0.0 Safari/537.36","WebKit","Chrome","138.0.0.0","Windows","10.0","https://app.prolific.com/","pl-PL,pl;q=0.9,en-US;q=0.8,en;q=0.7","5d40a12f4994c40001e4b80c","686d226cabeef709c732f8e1","686e31006e4c1fa1e31abde2","5d40a12f4994c40001e4b80c","2025-07-09T09:28:56.382Z","","","","","","AttribQ","","","","","","","","","","","","","","","","","","","","","","","","","","","","","","","","","","","","","","50",""
"3089","","<div style=""width:500px;"">
  <p>How much control did you have over the ball?</p>
  </div>","59","html-slider-response","61","1309569","0.0-10.0-2.4","57","1","2025-07-09 09:07:17","7701e855f2ef39aa3fd6c71abdc6918a","46.232.214.26","Mozilla/5.0 (Windows NT 10.0; Win64; x64) AppleWebKit/537.36 (KHTML, like Gecko) Chrome/138.0.0.0 Safari/537.36","WebKit","Chrome","138.0.0.0","Windows","10.0","https://app.prolific.com/","pl-PL,pl;q=0.9,en-US;q=0.8,en;q=0.7","5d40a12f4994c40001e4b80c","686d226cabeef709c732f8e1","686e31006e4c1fa1e31abde2","5d40a12f4994c40001e4b80c","2025-07-09T09:28:59.475Z","","","","","","ControlQ","","","","","","","","","","","","","","","","","","","","","","","","","","","","","","","","","","","","","","50",""
"3255","","<div style=""width:500px;"">
  <p>How would you describe your current emotional state?</p>
  </div>","7","html-slider-response","62","1312832","0.0-10.0-3.4","57","1","2025-07-09 09:07:17","7701e855f2ef39aa3fd6c71abdc6918a","46.232.214.26","Mozilla/5.0 (Windows NT 10.0; Win64; x64) AppleWebKit/537.36 (KHTML, like Gecko) Chrome/138.0.0.0 Safari/537.36","WebKit","Chrome","138.0.0.0","Windows","10.0","https://app.prolific.com/","pl-PL,pl;q=0.9,en-US;q=0.8,en;q=0.7","5d40a12f4994c40001e4b80c","686d226cabeef709c732f8e1","686e31006e4c1fa1e31abde2","5d40a12f4994c40001e4b80c","2025-07-09T09:29:02.738Z","","","","","","StressQ","","","","","","","","","","","","","","","","","","","","","","","","","","","","","","","","","","","","","","50",""
"2864","","<div style=""width:500px;"">
  <p>What best describes how you currently feel?</p>
  </div>","100","html-slider-response","63","1315701","0.0-10.0-4.4","57","1","2025-07-09 09:07:17","7701e855f2ef39aa3fd6c71abdc6918a","46.232.214.26","Mozilla/5.0 (Windows NT 10.0; Win64; x64) AppleWebKit/537.36 (KHTML, like Gecko) Chrome/138.0.0.0 Safari/537.36","WebKit","Chrome","138.0.0.0","Windows","10.0","https://app.prolific.com/","pl-PL,pl;q=0.9,en-US;q=0.8,en;q=0.7","5d40a12f4994c40001e4b80c","686d226cabeef709c732f8e1","686e31006e4c1fa1e31abde2","5d40a12f4994c40001e4b80c","2025-07-09T09:29:05.607Z","","","","","","MotivationQ","","","","","","","","","","","","","","","","","","","","","","","","","","","","","","","","","","","","","","50",""
"","","","","ctl-task-cpt","64","1379759","0.0-10.0-0.5","57","1","2025-07-09 09:07:17","7701e855f2ef39aa3fd6c71abdc6918a","46.232.214.26","Mozilla/5.0 (Windows NT 10.0; Win64; x64) AppleWebKit/537.36 (KHTML, like Gecko) Chrome/138.0.0.0 Safari/537.36","WebKit","Chrome","138.0.0.0","Windows","10.0","https://app.prolific.com/","pl-PL,pl;q=0.9,en-US;q=0.8,en;q=0.7","5d40a12f4994c40001e4b80c","686d226cabeef709c732f8e1","686e31006e4c1fa1e31abde2","5d40a12f4994c40001e4b80c","2025-07-09T09:30:09.665Z","","","","","","","","","","","","","","","","win-only","3","g1:SW,g2:NE","0.5","6","0","1317116.2","1555.1","6575.7","61014.5","1","4","4","6","2","4","4","32","28","0.24242424242424243","2383.9","3000","1780","[""up"",""right""]","{""num_key_presses"":12,""num_perfect"":7,""num_errors"":0,""num_randdir"":5,""num_randdir_good_moves"":2,""num_whilered"":0,""num_whileblue"":0,""num_blue"":1,""num_good_moves"":9}","[406.5714133126395,417.82142761775424,0.2,406.5714133126395,417.82142761775424,125.8,406.5714133126395,417.82142761775424,273.2,712.8214133126395,382.82142761775424,383,1375.3214133126396,331.57142761775424,503.1,1375.3214133126396,334.07142761775424,619.2,1375.3214133126396,334.07142761775424,733.6,1375.3214133126396,334.07142761775424,839.6,1375.3214133126396,334.07142761775424,950,1166.5714133126396,30.321427617754253,1061,1119.0714133126396,-99.67857238224575,1188.1,922.8214133126395,22.821427617754253,1306.8,672.8214133126395,165.32142761775424,1431.8,660.3214133126395,165.32142761775424,1540.5,660.3214133126395,165.32142761775424,1650,804.0714133126395,-4.678572382245747,1758.8,832.8214133126395,-25.928572382245747,1886.8,832.8214133126395,-25.928572382245747,2005.5,796.5714133126395,51.57142761775425,2129.9,784.0714133126395,71.57142761775425,2247.2,784.0714133126395,71.57142761775425,2373.1,784.0714133126395,71.57142761775425,2484.2,784.0714133126395,71.57142761775425,2598.7,784.0714133126395,71.57142761775425,2742.3,1331.5714133126396,129.07142761775424,2845.1,1331.5714133126396,129.07142761775424,2948.5,1331.5714133126396,129.07142761775424,3071.6,1331.5714133126396,129.07142761775424,3205.7,1331.5714133126396,129.07142761775424,3307.4,1331.5714133126396,129.07142761775424,3416.9,1331.5714133126396,129.07142761775424,3536.6,1331.5714133126396,129.07142761775424,3637.8,1331.5714133126396,129.07142761775424,3753.4,1331.5714133126396,129.07142761775424,3868.2,1331.5714133126396,129.07142761775424,3995,1331.5714133126396,129.07142761775424,4111,1331.5714133126396,129.07142761775424,4229.4,1331.5714133126396,129.07142761775424,4330.2,1331.5714133126396,129.07142761775424,4432.5,1331.5714133126396,129.07142761775424,4558.8,1331.5714133126396,129.07142761775424,4688.8,1331.5714133126396,129.07142761775424,4804.2,1331.5714133126396,129.07142761775424,4910.8]","[1580.4,1580.5,1000,0,580.5,""smooth"",""up"",""up"",""good_move"",7108.5,5527.8,2296.1,1580.7,3231.7,""smooth"",""up"",""up"",""good_move"",12754.1,5645.3,1657.8,7108.8,3987.5,""oops"",""up"",""down"",""bad_move"",15918.8,3164.6,2702.4,12754.2,462.2,""oops"",""right"",""up"",""good_move"",25600.6,9681.5,2784.9,22371.9,443.8,""oops"",""right"",""left"",""bad_move"",31675.5,6074.6,2365.5,25600.9,3709.1,""smooth"",""right"",""right"",""good_move"",34157.4,2481.7,1930.8,31675.7,550.9,""smooth"",""right"",""right"",""good_move"",36832.8,2675.1,2233,34157.7,442.1,""oops"",""right"",""up"",""good_move"",42866.6,6033.6,2730.1,36833,3303.5,""oops"",""right"",""left"",""bad_move"",48717.8,5851.1,2376.9,42866.7,3474.2,""smooth"",""right"",""right"",""good_move"",51523.9,2805.8,2407.1,48718.1,398.7,""smooth"",""right"",""right"",""good_move"",54246.7,2722.5,2270,51524.2,452.5,""smooth"",""right"",""right"",""good_move""]","","",""
"2911","","<div style=""width:500px;"">
  <p>What determined the result of this run?</p>
  </div>","79","html-slider-response","65","1382670","0.0-10.0-1.5","57","1","2025-07-09 09:07:17","7701e855f2ef39aa3fd6c71abdc6918a","46.232.214.26","Mozilla/5.0 (Windows NT 10.0; Win64; x64) AppleWebKit/537.36 (KHTML, like Gecko) Chrome/138.0.0.0 Safari/537.36","WebKit","Chrome","138.0.0.0","Windows","10.0","https://app.prolific.com/","pl-PL,pl;q=0.9,en-US;q=0.8,en;q=0.7","5d40a12f4994c40001e4b80c","686d226cabeef709c732f8e1","686e31006e4c1fa1e31abde2","5d40a12f4994c40001e4b80c","2025-07-09T09:30:12.577Z","","","","","","AttribQ","","","","","","","","","","","","","","","","","","","","","","","","","","","","","","","","","","","","","","50",""
"5509","","<div style=""width:500px;"">
  <p>How much control did you have over the ball?</p>
  </div>","61","html-slider-response","66","1388182","0.0-10.0-2.5","57","1","2025-07-09 09:07:17","7701e855f2ef39aa3fd6c71abdc6918a","46.232.214.26","Mozilla/5.0 (Windows NT 10.0; Win64; x64) AppleWebKit/537.36 (KHTML, like Gecko) Chrome/138.0.0.0 Safari/537.36","WebKit","Chrome","138.0.0.0","Windows","10.0","https://app.prolific.com/","pl-PL,pl;q=0.9,en-US;q=0.8,en;q=0.7","5d40a12f4994c40001e4b80c","686d226cabeef709c732f8e1","686e31006e4c1fa1e31abde2","5d40a12f4994c40001e4b80c","2025-07-09T09:30:18.088Z","","","","","","ControlQ","","","","","","","","","","","","","","","","","","","","","","","","","","","","","","","","","","","","","","50",""
"3516","","<div style=""width:500px;"">
  <p>How would you describe your current emotional state?</p>
  </div>","1","html-slider-response","67","1391700","0.0-10.0-3.5","57","1","2025-07-09 09:07:17","7701e855f2ef39aa3fd6c71abdc6918a","46.232.214.26","Mozilla/5.0 (Windows NT 10.0; Win64; x64) AppleWebKit/537.36 (KHTML, like Gecko) Chrome/138.0.0.0 Safari/537.36","WebKit","Chrome","138.0.0.0","Windows","10.0","https://app.prolific.com/","pl-PL,pl;q=0.9,en-US;q=0.8,en;q=0.7","5d40a12f4994c40001e4b80c","686d226cabeef709c732f8e1","686e31006e4c1fa1e31abde2","5d40a12f4994c40001e4b80c","2025-07-09T09:30:21.606Z","","","","","","StressQ","","","","","","","","","","","","","","","","","","","","","","","","","","","","","","","","","","","","","","50",""
"3594","","<div style=""width:500px;"">
  <p>What best describes how you currently feel?</p>
  </div>","100","html-slider-response","68","1395297","0.0-10.0-4.5","57","1","2025-07-09 09:07:17","7701e855f2ef39aa3fd6c71abdc6918a","46.232.214.26","Mozilla/5.0 (Windows NT 10.0; Win64; x64) AppleWebKit/537.36 (KHTML, like Gecko) Chrome/138.0.0.0 Safari/537.36","WebKit","Chrome","138.0.0.0","Windows","10.0","https://app.prolific.com/","pl-PL,pl;q=0.9,en-US;q=0.8,en;q=0.7","5d40a12f4994c40001e4b80c","686d226cabeef709c732f8e1","686e31006e4c1fa1e31abde2","5d40a12f4994c40001e4b80c","2025-07-09T09:30:25.203Z","","","","","","MotivationQ","","","","","","","","","","","","","","","","","","","","","","","","","","","","","","","","","","","","","","50",""
"","","","","ctl-task-cpt","69","1433754","0.0-10.0-0.6","57","1","2025-07-09 09:07:17","7701e855f2ef39aa3fd6c71abdc6918a","46.232.214.26","Mozilla/5.0 (Windows NT 10.0; Win64; x64) AppleWebKit/537.36 (KHTML, like Gecko) Chrome/138.0.0.0 Safari/537.36","WebKit","Chrome","138.0.0.0","Windows","10.0","https://app.prolific.com/","pl-PL,pl;q=0.9,en-US;q=0.8,en;q=0.7","5d40a12f4994c40001e4b80c","686d226cabeef709c732f8e1","686e31006e4c1fa1e31abde2","5d40a12f4994c40001e4b80c","2025-07-09T09:31:03.660Z","","","","","","","","","","","","","","","","win-only","0","g1:NW,g2:SE","0.4","7","0","1396708","1388.4","6401.6","35419.4","1","4","8","6","2","8","8","40","32","0.30303030303030304","1147.5","3000","2275","[""down"",""right""]","{""num_key_presses"":8,""num_perfect"":3,""num_errors"":0,""num_randdir"":5,""num_randdir_good_moves"":4,""num_whilered"":0,""num_whileblue"":0,""num_blue"":1,""num_good_moves"":7}","[409.0714133126395,416.57142761775424,0.2,409.0714133126395,416.57142761775424,102.7,409.0714133126395,416.57142761775424,213.8,409.0714133126395,416.57142761775424,320.6,409.0714133126395,416.57142761775424,423.5,522.8214133126395,531.5714276177542,535.4,604.0714133126395,652.8214276177542,635.8,626.5714133126395,697.8214276177542,748.7,694.0714133126395,710.3214276177542,851.9,786.5714133126395,736.5714276177542,960.1,789.0714133126395,736.5714276177542,1066.8,789.0714133126395,736.5714276177542,1168,789.0714133126395,736.5714276177542,1286.3,789.0714133126395,736.5714276177542,1402.1,789.0714133126395,736.5714276177542,1517.4,1189.0714133126396,607.8214276177542,1619.3,1302.8214133126396,586.5714276177542,1724.6,1302.8214133126396,586.5714276177542,1833.9,1302.8214133126396,586.5714276177542,1937.9,1302.8214133126396,586.5714276177542,2040,1302.8214133126396,586.5714276177542,2155.2,1302.8214133126396,586.5714276177542,2266.2,1302.8214133126396,586.5714276177542,2373.2,1302.8214133126396,586.5714276177542,2486.6,1302.8214133126396,586.5714276177542,2594.8,1302.8214133126396,586.5714276177542,2702.9,1302.8214133126396,586.5714276177542,2810.5,1302.8214133126396,586.5714276177542,2925.3,1302.8214133126396,586.5714276177542,3039.4,1302.8214133126396,586.5714276177542,3139.4,1302.8214133126396,586.5714276177542,3260.2,1302.8214133126396,586.5714276177542,3362.5,1302.8214133126396,586.5714276177542,3470.8,1302.8214133126396,586.5714276177542,3586.2,1302.8214133126396,586.5714276177542,3695.7,1302.8214133126396,586.5714276177542,3796.1,1302.8214133126396,586.5714276177542,3898.1,1302.8214133126396,586.5714276177542,3998.3,1302.8214133126396,586.5714276177542,4104.4,1302.8214133126396,586.5714276177542,4210.2,1302.8214133126396,586.5714276177542,4324.1,1302.8214133126396,586.5714276177542,4428.9,1302.8214133126396,586.5714276177542,4534.3,1302.8214133126396,586.5714276177542,4638.3,1302.8214133126396,586.5714276177542,4739.4,1302.8214133126396,586.5714276177542,4846.5,1302.8214133126396,586.5714276177542,4956]","[1455.2,1455.2,1000,0,455.2,""smooth"",""right"",""right"",""good_move"",3937.4,2481.9,2084.6,1455.5,397.3,""smooth"",""right"",""right"",""good_move"",7316.9,3379.2,3030.1,3937.7,349.1,""oops"",""down"",""down"",""good_move"",10190.9,2873.3,2413.2,7317.6,460.1,""oops"",""down"",""up"",""bad_move"",14533.6,4342.3,2649.2,10191.3,1693.1,""oops"",""down"",""right"",""good_move"",21827.5,7293.6,3310.2,18167,350.3,""oops"",""down"",""down"",""good_move"",24936.7,3108.9,2647,21827.8,462,""oops"",""down"",""down"",""good_move"",28493.6,3556.6,3124.6,24937,432,""smooth"",""down"",""down"",""good_move""]","","",""
"3676","","<div style=""width:500px;"">
  <p>What determined the result of this run?</p>
  </div>","76","html-slider-response","70","1437436","0.0-10.0-1.6","57","1","2025-07-09 09:07:17","7701e855f2ef39aa3fd6c71abdc6918a","46.232.214.26","Mozilla/5.0 (Windows NT 10.0; Win64; x64) AppleWebKit/537.36 (KHTML, like Gecko) Chrome/138.0.0.0 Safari/537.36","WebKit","Chrome","138.0.0.0","Windows","10.0","https://app.prolific.com/","pl-PL,pl;q=0.9,en-US;q=0.8,en;q=0.7","5d40a12f4994c40001e4b80c","686d226cabeef709c732f8e1","686e31006e4c1fa1e31abde2","5d40a12f4994c40001e4b80c","2025-07-09T09:31:07.342Z","","","","","","AttribQ","","","","","","","","","","","","","","","","","","","","","","","","","","","","","","","","","","","","","","50",""
"3098","","<div style=""width:500px;"">
  <p>How much control did you have over the ball?</p>
  </div>","74","html-slider-response","71","1440537","0.0-10.0-2.6","57","1","2025-07-09 09:07:17","7701e855f2ef39aa3fd6c71abdc6918a","46.232.214.26","Mozilla/5.0 (Windows NT 10.0; Win64; x64) AppleWebKit/537.36 (KHTML, like Gecko) Chrome/138.0.0.0 Safari/537.36","WebKit","Chrome","138.0.0.0","Windows","10.0","https://app.prolific.com/","pl-PL,pl;q=0.9,en-US;q=0.8,en;q=0.7","5d40a12f4994c40001e4b80c","686d226cabeef709c732f8e1","686e31006e4c1fa1e31abde2","5d40a12f4994c40001e4b80c","2025-07-09T09:31:10.443Z","","","","","","ControlQ","","","","","","","","","","","","","","","","","","","","","","","","","","","","","","","","","","","","","","50",""
"2926","","<div style=""width:500px;"">
  <p>How would you describe your current emotional state?</p>
  </div>","1","html-slider-response","72","1443465","0.0-10.0-3.6","57","1","2025-07-09 09:07:17","7701e855f2ef39aa3fd6c71abdc6918a","46.232.214.26","Mozilla/5.0 (Windows NT 10.0; Win64; x64) AppleWebKit/537.36 (KHTML, like Gecko) Chrome/138.0.0.0 Safari/537.36","WebKit","Chrome","138.0.0.0","Windows","10.0","https://app.prolific.com/","pl-PL,pl;q=0.9,en-US;q=0.8,en;q=0.7","5d40a12f4994c40001e4b80c","686d226cabeef709c732f8e1","686e31006e4c1fa1e31abde2","5d40a12f4994c40001e4b80c","2025-07-09T09:31:13.371Z","","","","","","StressQ","","","","","","","","","","","","","","","","","","","","","","","","","","","","","","","","","","","","","","50",""
"4115","","<div style=""width:500px;"">
  <p>What best describes how you currently feel?</p>
  </div>","100","html-slider-response","73","1447583","0.0-10.0-4.6","57","1","2025-07-09 09:07:17","7701e855f2ef39aa3fd6c71abdc6918a","46.232.214.26","Mozilla/5.0 (Windows NT 10.0; Win64; x64) AppleWebKit/537.36 (KHTML, like Gecko) Chrome/138.0.0.0 Safari/537.36","WebKit","Chrome","138.0.0.0","Windows","10.0","https://app.prolific.com/","pl-PL,pl;q=0.9,en-US;q=0.8,en;q=0.7","5d40a12f4994c40001e4b80c","686d226cabeef709c732f8e1","686e31006e4c1fa1e31abde2","5d40a12f4994c40001e4b80c","2025-07-09T09:31:17.489Z","","","","","","MotivationQ","","","","","","","","","","","","","","","","","","","","","","","","","","","","","","","","","","","","","","50",""
"","","","","ctl-task-cpt","74","1483683","0.0-10.0-0.7","57","1","2025-07-09 09:07:17","7701e855f2ef39aa3fd6c71abdc6918a","46.232.214.26","Mozilla/5.0 (Windows NT 10.0; Win64; x64) AppleWebKit/537.36 (KHTML, like Gecko) Chrome/138.0.0.0 Safari/537.36","WebKit","Chrome","138.0.0.0","Windows","10.0","https://app.prolific.com/","pl-PL,pl;q=0.9,en-US;q=0.8,en;q=0.7","5d40a12f4994c40001e4b80c","686d226cabeef709c732f8e1","686e31006e4c1fa1e31abde2","5d40a12f4994c40001e4b80c","2025-07-09T09:31:53.590Z","","","","","","","","","","","","","","","","win-only","3","g1:SW,g2:NE","0.3","8","0","1448992.2","1390.8","6428.2","33080.2","1","4","4","6","2","4","4","44","40","0.3333333333333333","1414.6","3000","2150","[""up"",""right""]","{""num_key_presses"":6,""num_perfect"":3,""num_errors"":0,""num_randdir"":3,""num_randdir_good_moves"":3,""num_whilered"":0,""num_whileblue"":0,""num_blue"":1,""num_good_moves"":6}","[416.5714133126395,416.57142761775424,0.1,416.5714133126395,416.57142761775424,106.4,416.5714133126395,416.57142761775424,223.7,416.5714133126395,416.57142761775424,336.6,416.5714133126395,416.57142761775424,444.6,329.0714133126395,486.57142761775424,572.2,739.0714133126395,30.321427617754253,675.3,815.3214133126395,-44.67857238224575,780.5,815.3214133126395,-44.67857238224575,914.4,815.3214133126395,-44.67857238224575,1034.3,769.0714133126395,15.321427617754253,1151.1,750.3214133126395,45.32142761775425,1281.2,750.3214133126395,45.32142761775425,1395,750.3214133126395,45.32142761775425,1505.4,750.3214133126395,45.32142761775425,1627.4,750.3214133126395,45.32142761775425,1741.7,1089.0714133126396,104.07142761775425,1851,1190.3214133126396,125.32142761775425,1973.5,1190.3214133126396,125.32142761775425,2099.2,1190.3214133126396,125.32142761775425,2207.9,1190.3214133126396,125.32142761775425,2314.7,1190.3214133126396,125.32142761775425,2441.2,1190.3214133126396,125.32142761775425,2552,1190.3214133126396,125.32142761775425,2670.2,1190.3214133126396,125.32142761775425,2776.6,1190.3214133126396,125.32142761775425,2906.1,1190.3214133126396,125.32142761775425,3027.6,1190.3214133126396,125.32142761775425,3154.6,1190.3214133126396,125.32142761775425,3270.6,1190.3214133126396,125.32142761775425,3386.4,1190.3214133126396,125.32142761775425,3513.9,1190.3214133126396,125.32142761775425,3639.2,1190.3214133126396,125.32142761775425,3772.9,1190.3214133126396,125.32142761775425,3887.8,1190.3214133126396,125.32142761775425,4024.2,1190.3214133126396,125.32142761775425,4154.6,1190.3214133126396,125.32142761775425,4262.1,1190.3214133126396,125.32142761775425,4403.7,1190.3214133126396,125.32142761775425,4523,1190.3214133126396,125.32142761775425,4639.9,1190.3214133126396,125.32142761775425,4746.7,1190.3214133126396,125.32142761775425,4884.9,1190.3214133126396,125.32142761775425,4993.4]","[1546.3,1546.3,1000,0,546.3,""smooth"",""up"",""up"",""good_move"",8831.6,7284.9,1935,1546.7,5349.9,""smooth"",""up"",""up"",""good_move"",14815.5,5983.8,3000.1,8831.8,2983.6,""oops"",""right"",""right"",""good_move"",17811.6,2995.7,2589.3,14815.9,406.4,""oops"",""right"",""right"",""good_move"",21044.3,3232.4,2866.3,17811.9,366.1,""smooth"",""right"",""right"",""good_move"",26370,5325.3,1748.1,24223.4,398.5,""oops"",""up"",""up"",""good_move""]","","",""
"2587","","<div style=""width:500px;"">
  <p>What determined the result of this run?</p>
  </div>","88","html-slider-response","75","1486272","0.0-10.0-1.7","57","1","2025-07-09 09:07:17","7701e855f2ef39aa3fd6c71abdc6918a","46.232.214.26","Mozilla/5.0 (Windows NT 10.0; Win64; x64) AppleWebKit/537.36 (KHTML, like Gecko) Chrome/138.0.0.0 Safari/537.36","WebKit","Chrome","138.0.0.0","Windows","10.0","https://app.prolific.com/","pl-PL,pl;q=0.9,en-US;q=0.8,en;q=0.7","5d40a12f4994c40001e4b80c","686d226cabeef709c732f8e1","686e31006e4c1fa1e31abde2","5d40a12f4994c40001e4b80c","2025-07-09T09:31:56.178Z","","","","","","AttribQ","","","","","","","","","","","","","","","","","","","","","","","","","","","","","","","","","","","","","","50",""
"3746","","<div style=""width:500px;"">
  <p>How much control did you have over the ball?</p>
  </div>","85","html-slider-response","76","1490020","0.0-10.0-2.7","57","1","2025-07-09 09:07:17","7701e855f2ef39aa3fd6c71abdc6918a","46.232.214.26","Mozilla/5.0 (Windows NT 10.0; Win64; x64) AppleWebKit/537.36 (KHTML, like Gecko) Chrome/138.0.0.0 Safari/537.36","WebKit","Chrome","138.0.0.0","Windows","10.0","https://app.prolific.com/","pl-PL,pl;q=0.9,en-US;q=0.8,en;q=0.7","5d40a12f4994c40001e4b80c","686d226cabeef709c732f8e1","686e31006e4c1fa1e31abde2","5d40a12f4994c40001e4b80c","2025-07-09T09:31:59.926Z","","","","","","ControlQ","","","","","","","","","","","","","","","","","","","","","","","","","","","","","","","","","","","","","","50",""
"4428","","<div style=""width:500px;"">
  <p>How would you describe your current emotional state?</p>
  </div>","1","html-slider-response","77","1494451","0.0-10.0-3.7","57","1","2025-07-09 09:07:17","7701e855f2ef39aa3fd6c71abdc6918a","46.232.214.26","Mozilla/5.0 (Windows NT 10.0; Win64; x64) AppleWebKit/537.36 (KHTML, like Gecko) Chrome/138.0.0.0 Safari/537.36","WebKit","Chrome","138.0.0.0","Windows","10.0","https://app.prolific.com/","pl-PL,pl;q=0.9,en-US;q=0.8,en;q=0.7","5d40a12f4994c40001e4b80c","686d226cabeef709c732f8e1","686e31006e4c1fa1e31abde2","5d40a12f4994c40001e4b80c","2025-07-09T09:32:04.357Z","","","","","","StressQ","","","","","","","","","","","","","","","","","","","","","","","","","","","","","","","","","","","","","","50",""
"2964","","<div style=""width:500px;"">
  <p>What best describes how you currently feel?</p>
  </div>","100","html-slider-response","78","1497416","0.0-10.0-4.7","57","1","2025-07-09 09:07:17","7701e855f2ef39aa3fd6c71abdc6918a","46.232.214.26","Mozilla/5.0 (Windows NT 10.0; Win64; x64) AppleWebKit/537.36 (KHTML, like Gecko) Chrome/138.0.0.0 Safari/537.36","WebKit","Chrome","138.0.0.0","Windows","10.0","https://app.prolific.com/","pl-PL,pl;q=0.9,en-US;q=0.8,en;q=0.7","5d40a12f4994c40001e4b80c","686d226cabeef709c732f8e1","686e31006e4c1fa1e31abde2","5d40a12f4994c40001e4b80c","2025-07-09T09:32:07.322Z","","","","","","MotivationQ","","","","","","","","","","","","","","","","","","","","","","","","","","","","","","","","","","","","","","50",""
"","","","","ctl-task-cpt","79","1656690","0.0-10.0-0.8","57","1","2025-07-09 09:07:17","7701e855f2ef39aa3fd6c71abdc6918a","46.232.214.26","Mozilla/5.0 (Windows NT 10.0; Win64; x64) AppleWebKit/537.36 (KHTML, like Gecko) Chrome/138.0.0.0 Safari/537.36","WebKit","Chrome","138.0.0.0","Windows","10.0","https://app.prolific.com/","pl-PL,pl;q=0.9,en-US;q=0.8,en;q=0.7","5d40a12f4994c40001e4b80c","686d226cabeef709c732f8e1","686e31006e4c1fa1e31abde2","5d40a12f4994c40001e4b80c","2025-07-09T09:34:46.596Z","","","","","","","","","","","","","","","","win-only","0","g1:NW,g2:SE","0.2","9","0","1498825","2142.3","7146.9","156212.2","1","4","4","6","2","4","4","48","44","0.36363636363636365","1362.6","3000","810","[""down"",""right""]","{""num_key_presses"":26,""num_perfect"":6,""num_errors"":0,""num_randdir"":20,""num_randdir_good_moves"":10,""num_whilered"":0,""num_whileblue"":0,""num_blue"":13,""num_good_moves"":16}","[421.5714133126395,421.57142761775424,0.3,421.5714133126395,421.57142761775424,108.1,421.5714133126395,421.57142761775424,217.9,421.5714133126395,421.57142761775424,324.3,421.5714133126395,421.57142761775424,430,421.5714133126395,421.57142761775424,533.8,421.5714133126395,421.57142761775424,634.1,614.0714133126395,566.5714276177542,740.1,820.3214133126395,732.8214276177542,847.9,837.8214133126395,776.5714276177542,948.7,839.0714133126395,784.0714276177542,1053.2,815.3214133126395,776.5714276177542,1163.3,805.3214133126395,772.8214276177542,1278.1,805.3214133126395,772.8214276177542,1380.2,805.3214133126395,772.8214276177542,1486.1,805.3214133126395,772.8214276177542,1599.2,805.3214133126395,772.8214276177542,1702.2,1261.5714133126396,690.3214276177542,1811.1,1261.5714133126396,690.3214276177542,1915.4,1261.5714133126396,690.3214276177542,2018.8,1261.5714133126396,690.3214276177542,2123.6,1261.5714133126396,690.3214276177542,2237.5,1261.5714133126396,690.3214276177542,2339.9,1261.5714133126396,690.3214276177542,2452.7,1261.5714133126396,690.3214276177542,2558.9,1261.5714133126396,690.3214276177542,2661,1261.5714133126396,690.3214276177542,2776.6,1261.5714133126396,690.3214276177542,2890,1261.5714133126396,690.3214276177542,3005.7,1261.5714133126396,690.3214276177542,3107.6,1261.5714133126396,690.3214276177542,3222.3,1261.5714133126396,690.3214276177542,3340.1,1261.5714133126396,690.3214276177542,3451.8,1261.5714133126396,690.3214276177542,3566.9,1261.5714133126396,690.3214276177542,3670.9,1261.5714133126396,690.3214276177542,3773.8,1261.5714133126396,690.3214276177542,3874.8,1261.5714133126396,690.3214276177542,3977.8,1261.5714133126396,690.3214276177542,4085.4,1261.5714133126396,690.3214276177542,4203.8,1261.5714133126396,690.3214276177542,4307.9,1261.5714133126396,690.3214276177542,4410.1,1261.5714133126396,690.3214276177542,4518.8,1261.5714133126396,690.3214276177542,4623.8,1261.5714133126396,690.3214276177542,4730.1,1261.5714133126396,690.3214276177542,4846.2,1261.5714133126396,690.3214276177542,4955.7]","[1493.1,1493.1,1000,0,493.1,""oops"",""right"",""down"",""good_move"",8038.4,6545,2411.6,5062.5,564.4,""oops"",""right"",""down"",""good_move"",10966.8,2928.1,2442.8,8038.7,485.3,""oops"",""right"",""left"",""bad_move"",15305.4,4338.2,2890.9,10967.2,1447.3,""oops"",""right"",""up"",""bad_move"",20155.7,4850,2212.5,15305.7,2637.5,""oops"",""right"",""up"",""bad_move"",27272.8,7116.8,1920.3,24938.8,413.7,""oops"",""right"",""right"",""good_move"",34207,6933.9,2528.6,31289.7,388.7,""smooth"",""right"",""right"",""good_move"",36894,2686.8,2197.1,34207.2,489.7,""oops"",""right"",""right"",""good_move"",39192.9,2298.7,1688.4,36894.2,610.3,""smooth"",""down"",""down"",""good_move"",41965.4,2772.1,2352.8,39193.3,419.3,""oops"",""down"",""up"",""bad_move"",56686,14720.3,1946.9,54256.1,483,""oops"",""down"",""left"",""bad_move"",61711.5,5025.3,2321.8,56686.2,2703.5,""oops"",""down"",""down"",""good_move"",64924.1,3212.3,2743.9,61711.8,468.4,""oops"",""down"",""right"",""good_move"",72137.2,7212.9,2906.8,68760.2,470.2,""oops"",""down"",""up"",""bad_move"",77560,5422.6,2959.6,72137.4,2463,""oops"",""down"",""right"",""good_move"",79791.2,2230.9,1608.4,77560.3,622.5,""oops"",""down"",""down"",""good_move"",87360.1,7568.5,2755.9,84120.5,483.7,""smooth"",""down"",""down"",""good_move"",93399,6038.8,2489.3,90463.7,446,""oops"",""down"",""left"",""bad_move"",104633.5,11234.3,2633.1,101530.6,469.8,""smooth"",""down"",""down"",""good_move"",107620.3,2986.6,2420.9,104633.7,565.7,""oops"",""right"",""left"",""bad_move"",115339.1,7718.6,1772.3,107620.5,5946.3,""oops"",""right"",""left"",""bad_move"",123166.2,7826.9,2309.8,115339.3,5517.1,""smooth"",""right"",""right"",""good_move"",131619.8,8453.4,2287.5,128874.6,457.7,""oops"",""right"",""right"",""good_move"",134758.9,3138.9,2496.5,131620,642.4,""oops"",""right"",""left"",""bad_move"",145329.4,10570.2,2654.9,142153.6,520.9,""smooth"",""right"",""right"",""good_move"",147928.9,2599.3,1980.4,145329.6,618.9,""oops"",""right"",""right"",""good_move""]","","",""
"4630","","<div style=""width:500px;"">
  <p>What determined the result of this run?</p>
  </div>","41","html-slider-response","80","1661324","0.0-10.0-1.8","57","1","2025-07-09 09:07:17","7701e855f2ef39aa3fd6c71abdc6918a","46.232.214.26","Mozilla/5.0 (Windows NT 10.0; Win64; x64) AppleWebKit/537.36 (KHTML, like Gecko) Chrome/138.0.0.0 Safari/537.36","WebKit","Chrome","138.0.0.0","Windows","10.0","https://app.prolific.com/","pl-PL,pl;q=0.9,en-US;q=0.8,en;q=0.7","5d40a12f4994c40001e4b80c","686d226cabeef709c732f8e1","686e31006e4c1fa1e31abde2","5d40a12f4994c40001e4b80c","2025-07-09T09:34:51.230Z","","","","","","AttribQ","","","","","","","","","","","","","","","","","","","","","","","","","","","","","","","","","","","","","","50",""
"5827","","<div style=""width:500px;"">
  <p>How much control did you have over the ball?</p>
  </div>","26","html-slider-response","81","1667155","0.0-10.0-2.8","57","1","2025-07-09 09:07:17","7701e855f2ef39aa3fd6c71abdc6918a","46.232.214.26","Mozilla/5.0 (Windows NT 10.0; Win64; x64) AppleWebKit/537.36 (KHTML, like Gecko) Chrome/138.0.0.0 Safari/537.36","WebKit","Chrome","138.0.0.0","Windows","10.0","https://app.prolific.com/","pl-PL,pl;q=0.9,en-US;q=0.8,en;q=0.7","5d40a12f4994c40001e4b80c","686d226cabeef709c732f8e1","686e31006e4c1fa1e31abde2","5d40a12f4994c40001e4b80c","2025-07-09T09:34:57.061Z","","","","","","ControlQ","","","","","","","","","","","","","","","","","","","","","","","","","","","","","","","","","","","","","","50",""
"2992","","<div style=""width:500px;"">
  <p>How would you describe your current emotional state?</p>
  </div>","1","html-slider-response","82","1670151","0.0-10.0-3.8","57","1","2025-07-09 09:07:17","7701e855f2ef39aa3fd6c71abdc6918a","46.232.214.26","Mozilla/5.0 (Windows NT 10.0; Win64; x64) AppleWebKit/537.36 (KHTML, like Gecko) Chrome/138.0.0.0 Safari/537.36","WebKit","Chrome","138.0.0.0","Windows","10.0","https://app.prolific.com/","pl-PL,pl;q=0.9,en-US;q=0.8,en;q=0.7","5d40a12f4994c40001e4b80c","686d226cabeef709c732f8e1","686e31006e4c1fa1e31abde2","5d40a12f4994c40001e4b80c","2025-07-09T09:35:00.057Z","","","","","","StressQ","","","","","","","","","","","","","","","","","","","","","","","","","","","","","","","","","","","","","","50",""
"3047","","<div style=""width:500px;"">
  <p>What best describes how you currently feel?</p>
  </div>","100","html-slider-response","83","1673201","0.0-10.0-4.8","57","1","2025-07-09 09:07:17","7701e855f2ef39aa3fd6c71abdc6918a","46.232.214.26","Mozilla/5.0 (Windows NT 10.0; Win64; x64) AppleWebKit/537.36 (KHTML, like Gecko) Chrome/138.0.0.0 Safari/537.36","WebKit","Chrome","138.0.0.0","Windows","10.0","https://app.prolific.com/","pl-PL,pl;q=0.9,en-US;q=0.8,en;q=0.7","5d40a12f4994c40001e4b80c","686d226cabeef709c732f8e1","686e31006e4c1fa1e31abde2","5d40a12f4994c40001e4b80c","2025-07-09T09:35:03.108Z","","","","","","MotivationQ","","","","","","","","","","","","","","","","","","","","","","","","","","","","","","","","","","","","","","50",""
