"rt","response_timestamp","stimulus","response","trial_type","trial_index","time_elapsed","internal_node_id","run_id","condition","recorded_at","source_code_version","ip","user_agent","device","browser","browser_version","platform","platform_version","referer","accept_language","PROLIFIC_PID","STUDY_ID","SESSION_ID","prolific_id","realtime","view_history","question_order","consent","success","question_id","eventType","responses","item_order","radio_event_ids","radio_event_times","key_event_times","mouse_event_times","straightlining","zigzagging","honeypot","which_type","canvas_config","goals_layout","control_level","trial_number","tutorial_trial_number","trial_start_time","phase1_start_time","phase2_start_time","phase3_start_time","goal_1_value","goal_1_distance","goal_2_value","goal_2_distance","goal_selected","outcome","outcome_total","participant_final_score","participant_initial_score","participant_final_score_prop","goal_choice_rt","allocated_time","allocated_time_remaining","goal_direction","counts","mouse_movements","key_presses","correct","slider_start","sub_question"
"954976","1752053133940","<p style='font-size:40px;line-height:1.25'><strong>Welcome to the experiment!</strong></p><p style='font-size:1.1em;line-height:1.25'>Thank you for your interest in our experiment! Before you begin, it is important that we obtain your informed consent to participate in the study.</p><p style='font-size:1.1em;line-height:1.25'>On the next screen will be an <strong>information sheet</strong> for you to read. To participate in the study we need you to read this information sheet and the following consent form carefully. If you agree with all the statements, please click the <strong>I agree</strong> button.</p><p style='font-size:1.1em;line-height:1.25'>Press <strong>Next</strong> to read the information sheet.</p>","0","custom-html-button-response","0","955014","0.0-0.0","146","1","2025-07-09 09:09:38","7701e855f2ef39aa3fd6c71abdc6918a","86.1.241.155","Mozilla/5.0 (Macintosh; Intel Mac OS X 10_15_7) AppleWebKit/537.36 (KHTML, like Gecko) Chrome/138.0.0.0 Safari/537.36","Macintosh","Chrome","138.0.0.0","OS X","10_15_7","https://app.prolific.com/","en-GB,en-US;q=0.9,en;q=0.8","668daa061b4a36bcfd2591c6","686d226cabeef709c732f8e1","686e31108ea821c4d256725e","668daa061b4a36bcfd2591c6","2025-07-09T09:25:33.944Z","","","","","","","","","","","","","","","","","","","","","","","","","","","","","","","","","","","","","","","","","","","","",""
"311938","","","","instructions","1","1266955","0.0-1.0","146","1","2025-07-09 09:09:38","7701e855f2ef39aa3fd6c71abdc6918a","86.1.241.155","Mozilla/5.0 (Macintosh; Intel Mac OS X 10_15_7) AppleWebKit/537.36 (KHTML, like Gecko) Chrome/138.0.0.0 Safari/537.36","Macintosh","Chrome","138.0.0.0","OS X","10_15_7","https://app.prolific.com/","en-GB,en-US;q=0.9,en;q=0.8","668daa061b4a36bcfd2591c6","686d226cabeef709c732f8e1","686e31108ea821c4d256725e","668daa061b4a36bcfd2591c6","","[{""page_index"":0,""viewing_time"":2053},{""page_index"":1,""viewing_time"":309884}]","","","","","","","","","","","","","","","","","","","","","","","","","","","","","","","","","","","","","","","","","","","",""
"3587","","","{""Q0"":"""",""Q1"":"""",""Q2"":"""",""Q3"":"""",""Q4"":"""",""Q5"":"""",""Q6"":""I agree""}","survey-multi-choice","2","1270547","0.0-2.0","146","1","2025-07-09 09:09:38","7701e855f2ef39aa3fd6c71abdc6918a","86.1.241.155","Mozilla/5.0 (Macintosh; Intel Mac OS X 10_15_7) AppleWebKit/537.36 (KHTML, like Gecko) Chrome/138.0.0.0 Safari/537.36","Macintosh","Chrome","138.0.0.0","OS X","10_15_7","https://app.prolific.com/","en-GB,en-US;q=0.9,en;q=0.8","668daa061b4a36bcfd2591c6","686d226cabeef709c732f8e1","686e31108ea821c4d256725e","668daa061b4a36bcfd2591c6","","","[0,1,2,3,4,5,6]","true","","","","","","","","","","","","","","","","","","","","","","","","","","","","","","","","","","","","","","","","","",""
"1310","","","","fullscreen","3","1272862","0.0-4.0","146","1","2025-07-09 09:09:38","7701e855f2ef39aa3fd6c71abdc6918a","86.1.241.155","Mozilla/5.0 (Macintosh; Intel Mac OS X 10_15_7) AppleWebKit/537.36 (KHTML, like Gecko) Chrome/138.0.0.0 Safari/537.36","Macintosh","Chrome","138.0.0.0","OS X","10_15_7","https://app.prolific.com/","en-GB,en-US;q=0.9,en;q=0.8","668daa061b4a36bcfd2591c6","686d226cabeef709c732f8e1","686e31108ea821c4d256725e","668daa061b4a36bcfd2591c6","","","","","true","","","","","","","","","","","","","","","","","","","","","","","","","","","","","","","","","","","","","","","","",""
"3116","1752053454907"," <p style='font-size:1.1em;line-height:1.25'>Thank you for completing the consent form and closing all other tabs.</p><p style='font-size:1.1em;line-height:1.25'>We will now invite you to fill in some demographic information and questionnaires, before starting the game.<br>This will take about 5 minutes.<br></p><p style='font-size:1.1em;line-height:1.25'>Press the <strong>Next</strong> button to continue.</p>","0","custom-html-button-response","4","1275979","0.0-5.0","146","1","2025-07-09 09:09:38","7701e855f2ef39aa3fd6c71abdc6918a","86.1.241.155","Mozilla/5.0 (Macintosh; Intel Mac OS X 10_15_7) AppleWebKit/537.36 (KHTML, like Gecko) Chrome/138.0.0.0 Safari/537.36","Macintosh","Chrome","138.0.0.0","OS X","10_15_7","https://app.prolific.com/","en-GB,en-US;q=0.9,en;q=0.8","668daa061b4a36bcfd2591c6","686d226cabeef709c732f8e1","686e31108ea821c4d256725e","668daa061b4a36bcfd2591c6","2025-07-09T09:30:54.908Z","","","","","","","","","","","","","","","","","","","","","","","","","","","","","","","","","","","","","","","","","","","","",""
"2848","","","{""age"":""27""}","survey-text","5","1278831","0.0-6.0-0.0","146","1","2025-07-09 09:09:38","7701e855f2ef39aa3fd6c71abdc6918a","86.1.241.155","Mozilla/5.0 (Macintosh; Intel Mac OS X 10_15_7) AppleWebKit/537.36 (KHTML, like Gecko) Chrome/138.0.0.0 Safari/537.36","Macintosh","Chrome","138.0.0.0","OS X","10_15_7","https://app.prolific.com/","en-GB,en-US;q=0.9,en;q=0.8","668daa061b4a36bcfd2591c6","686d226cabeef709c732f8e1","686e31108ea821c4d256725e","668daa061b4a36bcfd2591c6","","","","","","0","demographics","","","","","","","","","","","","","","","","","","","","","","","","","","","","","","","","","","","","","","",""
"1858","","","{""gender_identity"":""female/woman""}","survey-multi-choice","6","1280690","0.0-6.0-1.0","146","1","2025-07-09 09:09:38","7701e855f2ef39aa3fd6c71abdc6918a","86.1.241.155","Mozilla/5.0 (Macintosh; Intel Mac OS X 10_15_7) AppleWebKit/537.36 (KHTML, like Gecko) Chrome/138.0.0.0 Safari/537.36","Macintosh","Chrome","138.0.0.0","OS X","10_15_7","https://app.prolific.com/","en-GB,en-US;q=0.9,en;q=0.8","668daa061b4a36bcfd2591c6","686d226cabeef709c732f8e1","686e31108ea821c4d256725e","668daa061b4a36bcfd2591c6","","","[0]","","","1","demographics","","","","","","","","","","","","","","","","","","","","","","","","","","","","","","","","","","","","","","",""
"1872","","","{""assigned_sex"":""female""}","survey-multi-choice","7","1282565","0.0-6.0-2.0","146","1","2025-07-09 09:09:38","7701e855f2ef39aa3fd6c71abdc6918a","86.1.241.155","Mozilla/5.0 (Macintosh; Intel Mac OS X 10_15_7) AppleWebKit/537.36 (KHTML, like Gecko) Chrome/138.0.0.0 Safari/537.36","Macintosh","Chrome","138.0.0.0","OS X","10_15_7","https://app.prolific.com/","en-GB,en-US;q=0.9,en;q=0.8","668daa061b4a36bcfd2591c6","686d226cabeef709c732f8e1","686e31108ea821c4d256725e","668daa061b4a36bcfd2591c6","","","[0]","","","2","demographics","","","","","","","","","","","","","","","","","","","","","","","","","","","","","","","","","","","","","","",""
"4569","","","{""menstrual_cycle"":""Rather not tell""}","survey-multi-choice","8","1287135","0.0-6.0-3.0","146","1","2025-07-09 09:09:38","7701e855f2ef39aa3fd6c71abdc6918a","86.1.241.155","Mozilla/5.0 (Macintosh; Intel Mac OS X 10_15_7) AppleWebKit/537.36 (KHTML, like Gecko) Chrome/138.0.0.0 Safari/537.36","Macintosh","Chrome","138.0.0.0","OS X","10_15_7","https://app.prolific.com/","en-GB,en-US;q=0.9,en;q=0.8","668daa061b4a36bcfd2591c6","686d226cabeef709c732f8e1","686e31108ea821c4d256725e","668daa061b4a36bcfd2591c6","","","[0]","","","4","demographics","","","","","","","","","","","","","","","","","","","","","","","","","","","","","","","","","","","","","","",""
"3742","","","{""education"":""A-level/National Diploma/Highers""}","survey-multi-choice","9","1290879","0.0-6.0-4.0","146","1","2025-07-09 09:09:38","7701e855f2ef39aa3fd6c71abdc6918a","86.1.241.155","Mozilla/5.0 (Macintosh; Intel Mac OS X 10_15_7) AppleWebKit/537.36 (KHTML, like Gecko) Chrome/138.0.0.0 Safari/537.36","Macintosh","Chrome","138.0.0.0","OS X","10_15_7","https://app.prolific.com/","en-GB,en-US;q=0.9,en;q=0.8","668daa061b4a36bcfd2591c6","686d226cabeef709c732f8e1","686e31108ea821c4d256725e","668daa061b4a36bcfd2591c6","","","[0]","","","5","demographics","","","","","","","","","","","","","","","","","","","","","","","","","","","","","","","","","","","","","","",""
"6166","","","{""education"":""Higher National Diploma""}","survey-multi-choice","10","1297046","0.0-6.0-5.0","146","1","2025-07-09 09:09:38","7701e855f2ef39aa3fd6c71abdc6918a","86.1.241.155","Mozilla/5.0 (Macintosh; Intel Mac OS X 10_15_7) AppleWebKit/537.36 (KHTML, like Gecko) Chrome/138.0.0.0 Safari/537.36","Macintosh","Chrome","138.0.0.0","OS X","10_15_7","https://app.prolific.com/","en-GB,en-US;q=0.9,en;q=0.8","668daa061b4a36bcfd2591c6","686d226cabeef709c732f8e1","686e31108ea821c4d256725e","668daa061b4a36bcfd2591c6","2025-07-09T09:31:15.974Z","","[0]","","","6","demographics","","","","","","","","","","","","","","","","","","","","","","","","","","","","","","","","","","","","","","",""
"29543","","","{""mental_health_condition"":""Depression, PTSD"",""mental_health_treatment"":""Yes, therapy"",""psychiatric_medication"":""N/A""}","survey-text","11","1326591","0.0-7.0-0.0","146","1","2025-07-09 09:09:38","7701e855f2ef39aa3fd6c71abdc6918a","86.1.241.155","Mozilla/5.0 (Macintosh; Intel Mac OS X 10_15_7) AppleWebKit/537.36 (KHTML, like Gecko) Chrome/138.0.0.0 Safari/537.36","Macintosh","Chrome","138.0.0.0","OS X","10_15_7","https://app.prolific.com/","en-GB,en-US;q=0.9,en;q=0.8","668daa061b4a36bcfd2591c6","686d226cabeef709c732f8e1","686e31108ea821c4d256725e","668daa061b4a36bcfd2591c6","2025-07-09T09:31:45.520Z","","","","","1","mental_health","","","","","","","","","","","","","","","","","","","","","","","","","","","","","","","","","","","","","","",""
"7297","","","{""depression_history"":[""Yes""]}","survey-multi-select","12","1333891","0.0-7.0-1.0","146","1","2025-07-09 09:09:38","7701e855f2ef39aa3fd6c71abdc6918a","86.1.241.155","Mozilla/5.0 (Macintosh; Intel Mac OS X 10_15_7) AppleWebKit/537.36 (KHTML, like Gecko) Chrome/138.0.0.0 Safari/537.36","Macintosh","Chrome","138.0.0.0","OS X","10_15_7","https://app.prolific.com/","en-GB,en-US;q=0.9,en;q=0.8","668daa061b4a36bcfd2591c6","686d226cabeef709c732f8e1","686e31108ea821c4d256725e","668daa061b4a36bcfd2591c6","","","[0]","","","","mental_health","","","","","","","","","","","","","","","","","","","","","","","","","","","","","","","","","","","","","","",""
"7625","","","{""depression_episodes"":""more than 5"",""depression_recent"":""Within the past year""}","survey-multi-choice","13","1341518","0.0-7.0-2.0-0.0","146","1","2025-07-09 09:09:38","7701e855f2ef39aa3fd6c71abdc6918a","86.1.241.155","Mozilla/5.0 (Macintosh; Intel Mac OS X 10_15_7) AppleWebKit/537.36 (KHTML, like Gecko) Chrome/138.0.0.0 Safari/537.36","Macintosh","Chrome","138.0.0.0","OS X","10_15_7","https://app.prolific.com/","en-GB,en-US;q=0.9,en;q=0.8","668daa061b4a36bcfd2591c6","686d226cabeef709c732f8e1","686e31108ea821c4d256725e","668daa061b4a36bcfd2591c6","2025-07-09T09:32:00.446Z","","[0,1]","","","3","mental_health","","","","","","","","","","","","","","","","","","","","","","","","","","","","","","","","","","","","","","",""
"517424.89999997616","","","","survey-template","14","1859012","0.0-7.0-3.0","146","1","2025-07-09 09:09:38","7701e855f2ef39aa3fd6c71abdc6918a","86.1.241.155","Mozilla/5.0 (Macintosh; Intel Mac OS X 10_15_7) AppleWebKit/537.36 (KHTML, like Gecko) Chrome/138.0.0.0 Safari/537.36","Macintosh","Chrome","138.0.0.0","OS X","10_15_7","https://app.prolific.com/","en-GB,en-US;q=0.9,en;q=0.8","668daa061b4a36bcfd2591c6","686d226cabeef709c732f8e1","686e31108ea821c4d256725e","668daa061b4a36bcfd2591c6","2025-07-09T09:40:37.940Z","","","","","","ius","{""Q01"":""3"",""Q02"":""4"",""Q03"":""2"",""Q04"":""4"",""Q05"":""4"",""Q06"":""0"",""Q07"":""0"",""Q08"":""0"",""Q09"":""4"",""Q10"":""0"",""Q11"":""2"",""Q12"":""4"",""Q13"":""1""}","[0,1,2,3,4,5,6,7,8,9,10,11,12]","[""Q01"",""Q02"",""Q03"",""Q04"",""Q05"",""Q06"",""Q07"",""Q08"",""Q09"",""Q10"",""Q10"",""Q11"",""Q12"",""Q13""]","[4594.700000047684,6316.300000071526,8303.5,11760.800000071526,494778.5,499571.60000002384,502759,503452.60000002384,505585.60000002384,507511.7000000477,508690.10000002384,510675.8000000715,514472.60000002384,516464.7000000477]","[]","[4594.700000047684,6316.300000071526,8303.5,11760.800000071526,494778.5,497747.5,499571.60000002384,501436.5,502759,503452.60000002384,505585.60000002384,507511.7000000477,508690.10000002384,510675.8000000715,514472.60000002384,516464.7000000477,517420]","0.38461538461538464","0.3333333333333333","0","","","","","","","","","","","","","","","","","","","","","","","","","","","","","",""
"1909","1752054039850","<p style='font-size:1.1em;line-height:1.25'>In the following, we will ask you a few questions relating to your experiences over the past month.<br></p><p style='font-size:1.1em;line-height:1.25'>Press the <strong>Next</strong> button to continue.</p>","0","custom-html-button-response","15","1860923","0.0-7.0-4.0","146","1","2025-07-09 09:09:38","7701e855f2ef39aa3fd6c71abdc6918a","86.1.241.155","Mozilla/5.0 (Macintosh; Intel Mac OS X 10_15_7) AppleWebKit/537.36 (KHTML, like Gecko) Chrome/138.0.0.0 Safari/537.36","Macintosh","Chrome","138.0.0.0","OS X","10_15_7","https://app.prolific.com/","en-GB,en-US;q=0.9,en;q=0.8","668daa061b4a36bcfd2591c6","686d226cabeef709c732f8e1","686e31108ea821c4d256725e","668daa061b4a36bcfd2591c6","2025-07-09T09:40:39.851Z","","","","","","","","","","","","","","","","","","","","","","","","","","","","","","","","","","","","","","","","","","","","",""
"215308","","","","survey-template","16","2076233","0.0-7.0-5.0","146","1","2025-07-09 09:09:38","7701e855f2ef39aa3fd6c71abdc6918a","86.1.241.155","Mozilla/5.0 (Macintosh; Intel Mac OS X 10_15_7) AppleWebKit/537.36 (KHTML, like Gecko) Chrome/138.0.0.0 Safari/537.36","Macintosh","Chrome","138.0.0.0","OS X","10_15_7","https://app.prolific.com/","en-GB,en-US;q=0.9,en;q=0.8","668daa061b4a36bcfd2591c6","686d226cabeef709c732f8e1","686e31108ea821c4d256725e","668daa061b4a36bcfd2591c6","2025-07-09T09:44:15.161Z","","","","","","pss","{""Q01"":""2"",""Q02"":""1"",""Q03"":""3"",""Q04"":""2"",""Q05"":""2"",""Q06"":""1"",""Q07"":""2"",""Q08"":""2"",""Q09"":""3"",""Q10"":""2""}","[0,1,2,3,4,5,6,7,8,9]","[""Q01"",""Q02"",""Q04"",""Q05"",""Q06"",""Q07"",""Q08"",""Q09"",""Q10"",""Q03""]","[4579.600000023842,7012.800000071526,11695.899999976158,14794.800000071526,17170.399999976158,19190.700000047684,108325.70000004768,113854.39999997616,115045.30000007153,214168.30000007153]","[]","[0.10000002384185791,4579.600000023842,7012.800000071526,9062.700000047684,11695.899999976158,14794.800000071526,17170.399999976158,19190.700000047684,108325.70000004768,111061.30000007153,113854.39999997616,115045.30000007153,115859.20000004768,214168.30000007153,215302.80000007153]","0.6","0.6666666666666666","0","","","","","","","","","","","","","","","","","","","","","","","","","","","","","",""
"1714","1752054256875","<p style='font-size:1.1em;line-height:1.25'>Thank you for your answers! Now we will ask you a few more questions relating to your feelings in the last 24 hours.<br></p><p style='font-size:1.1em;line-height:1.25'>Press the <strong>Next</strong> button to continue.</p>","0","custom-html-button-response","17","2077948","0.0-7.0-6.0","146","1","2025-07-09 09:09:38","7701e855f2ef39aa3fd6c71abdc6918a","86.1.241.155","Mozilla/5.0 (Macintosh; Intel Mac OS X 10_15_7) AppleWebKit/537.36 (KHTML, like Gecko) Chrome/138.0.0.0 Safari/537.36","Macintosh","Chrome","138.0.0.0","OS X","10_15_7","https://app.prolific.com/","en-GB,en-US;q=0.9,en;q=0.8","668daa061b4a36bcfd2591c6","686d226cabeef709c732f8e1","686e31108ea821c4d256725e","668daa061b4a36bcfd2591c6","2025-07-09T09:44:16.876Z","","","","","","","","","","","","","","","","","","","","","","","","","","","","","","","","","","","","","","","","","","","","",""
"51281.799999952316","","","","survey-template","18","2129234","0.0-7.0-7.0","146","1","2025-07-09 09:09:38","7701e855f2ef39aa3fd6c71abdc6918a","86.1.241.155","Mozilla/5.0 (Macintosh; Intel Mac OS X 10_15_7) AppleWebKit/537.36 (KHTML, like Gecko) Chrome/138.0.0.0 Safari/537.36","Macintosh","Chrome","138.0.0.0","OS X","10_15_7","https://app.prolific.com/","en-GB,en-US;q=0.9,en;q=0.8","668daa061b4a36bcfd2591c6","686d226cabeef709c732f8e1","686e31108ea821c4d256725e","668daa061b4a36bcfd2591c6","2025-07-09T09:45:08.162Z","","","","","","drsp","{""Q01"":""1"",""Q02"":""1"",""Q03"":""1"",""Q04"":""2"",""Q05"":""2"",""Q06"":""0"",""Q07"":""1"",""Q08"":""0"",""Q09"":""1"",""Q10"":""3"",""Q11"":""3"",""Q12"":""2"",""Q13"":""2"",""Q14"":""3"",""Q15"":""0"",""Q16"":""2"",""Q17"":""0"",""Q18"":""2"",""Q19"":""2"",""Q20"":""2"",""Q21"":""0""}","[0,1,2,3,4,5,6,7,8,9,10,11,12,13,14,15,16,17,18,19,20]","[""Q01"",""Q01"",""Q02"",""Q03"",""Q04"",""Q05"",""Q06"",""Q07"",""Q08"",""Q09"",""Q10"",""Q11"",""Q12"",""Q13"",""Q14"",""Q15"",""Q16"",""Q17"",""Q18"",""Q19"",""Q19"",""Q20"",""Q21""]","[3174.600000023842,4393.899999976158,5068.600000023842,6507.600000023842,8099.5,9628.799999952316,16017.899999976158,16949.299999952316,17914.700000047684,19516.399999976158,23192.600000023842,24317.899999976158,26828.5,27757,29513.600000023842,33606.799999952316,34530.5,36564.89999997616,38519.299999952316,42346.700000047684,43721.89999997616,48513.60000002384,50374.39999997616]","[]","[0.10000002384185791,3174.600000023842,4393.899999976158,5068.600000023842,6507.600000023842,8099.5,9628.799999952316,13934.399999976158,15333.799999952316,16017.899999976158,16949.299999952316,17914.700000047684,19516.399999976158,23192.600000023842,24317.899999976158,26828.5,27757,29513.600000023842,31919,32947,33606.799999952316,34530.5,36564.89999997616,38519.299999952316,42346.700000047684,43721.89999997616,48513.60000002384,50374.39999997616,51273.700000047684]","0.38095238095238093","0.3","0","","","","","","","","","","","","","","","","","","","","","","","","","","","","","",""
"34493.5","","","","survey-template","19","2163729","0.0-7.0-8.0","146","1","2025-07-09 09:09:38","7701e855f2ef39aa3fd6c71abdc6918a","86.1.241.155","Mozilla/5.0 (Macintosh; Intel Mac OS X 10_15_7) AppleWebKit/537.36 (KHTML, like Gecko) Chrome/138.0.0.0 Safari/537.36","Macintosh","Chrome","138.0.0.0","OS X","10_15_7","https://app.prolific.com/","en-GB,en-US;q=0.9,en;q=0.8","668daa061b4a36bcfd2591c6","686d226cabeef709c732f8e1","686e31108ea821c4d256725e","668daa061b4a36bcfd2591c6","2025-07-09T09:45:42.658Z","","","","","","stress","{""Q01"":""3"",""Q02"":""2"",""Q03"":""1""}","[0,1,2]","[""Q01"",""Q02"",""Q03""]","[3199.100000023842,16114.899999976158,33608]","[]","[3199.100000023842,16114.899999976158,33608,34492.300000071526]","0.6666666666666666","0","0","","","","","","","","","","","","","","","","","","","","","","","","","","","","","",""
"236446","","","","instructions","20","2400175","0.0-8.0-0.0","146","1","2025-07-09 09:09:38","7701e855f2ef39aa3fd6c71abdc6918a","86.1.241.155","Mozilla/5.0 (Macintosh; Intel Mac OS X 10_15_7) AppleWebKit/537.36 (KHTML, like Gecko) Chrome/138.0.0.0 Safari/537.36","Macintosh","Chrome","138.0.0.0","OS X","10_15_7","https://app.prolific.com/","en-GB,en-US;q=0.9,en;q=0.8","668daa061b4a36bcfd2591c6","686d226cabeef709c732f8e1","686e31108ea821c4d256725e","668daa061b4a36bcfd2591c6","","[{""page_index"":0,""viewing_time"":21846},{""page_index"":1,""viewing_time"":187782},{""page_index"":2,""viewing_time"":14160},{""page_index"":3,""viewing_time"":12659}]","","","","","","","","","","","","","","","","","","","","","","","","","","","","","","","","","","","","","","","","","","","",""
"","","","","ctl-task-cpt","21","2421491","0.0-8.0-1.0","146","1","2025-07-09 09:09:38","7701e855f2ef39aa3fd6c71abdc6918a","86.1.241.155","Mozilla/5.0 (Macintosh; Intel Mac OS X 10_15_7) AppleWebKit/537.36 (KHTML, like Gecko) Chrome/138.0.0.0 Safari/537.36","Macintosh","Chrome","138.0.0.0","OS X","10_15_7","https://app.prolific.com/","en-GB,en-US;q=0.9,en;q=0.8","668daa061b4a36bcfd2591c6","686d226cabeef709c732f8e1","686e31108ea821c4d256725e","668daa061b4a36bcfd2591c6","","","","","","","","","","","","","","","","","win-only","2","g1:SE,g2:NW","1","0","1","2401153.5","2428.3","6432.3","18297.5","2","4","4","6","1","2","1","1","0","0.007575757575757576","3736.6","4000","2040","[""down"",""right""]","{""num_key_presses"":5,""num_perfect"":4,""num_errors"":1,""num_randdir"":0,""num_randdir_good_moves"":0,""num_whilered"":0,""num_whileblue"":0,""num_blue"":0,""num_good_moves"":4}","[816,813.796875,0.4,816,813.796875,103.6,816,813.796875,203.6,816,813.796875,307.7,816,813.796875,408.1,816,813.796875,510,816,813.796875,612.8,816,813.796875,713.8,816,813.796875,816.2,816,813.796875,918.3,816,813.796875,1022.9,816,811.796875,1123,986,595.796875,1223.3,1064,545.796875,1324.1,1108,603.796875,1429.1,1274,843.796875,1532.3,1304,933.796875,1632.4,1296,911.796875,1732.9,1290,861.796875,1833.1,1308,687.796875,1937.7,1308,619.796875,2037.8,1326,563.796875,2138.2,1326,505.796875,2242.8,1298,461.796875,2345.2,1298,459.796875,2447.6,1298,459.796875,2548.3,1298,459.796875,2655.6,1298,459.796875,2758.7,1298,459.796875,2863.3,1298,459.796875,2966,1298,459.796875,3068.1,1252,525.796875,3173.6,1236,1119.796875,3277.6,1300,1269.796875,3378.9,1300,1269.796875,3480,1374,1349.796875,3580.6,1432,1407.796875,3683.9,1434,1411.796875,3788.8,1434,1411.796875,3898.8,1434,1411.796875,3999.2]","[1139.8,1139.8,1000,0,139.8,""smooth"",""right"",""right"",""good_move"",2605.9,1465.8,3823.4,1140.1,-2357.5,""error"",""-"",""-"",""no_move"",6565.1,3959,2138,3609,818.2,""smooth"",""down"",""down"",""good_move"",9405.6,2840.1,2293.7,6565.5,546.4,""smooth"",""down"",""down"",""good_move"",11759.9,2353.8,1767.2,9406.1,586.6,""smooth"",""right"",""right"",""good_move""]","","",""
"145585","","","","instructions","22","2567077","0.0-8.0-2.0","146","1","2025-07-09 09:09:38","7701e855f2ef39aa3fd6c71abdc6918a","86.1.241.155","Mozilla/5.0 (Macintosh; Intel Mac OS X 10_15_7) AppleWebKit/537.36 (KHTML, like Gecko) Chrome/138.0.0.0 Safari/537.36","Macintosh","Chrome","138.0.0.0","OS X","10_15_7","https://app.prolific.com/","en-GB,en-US;q=0.9,en;q=0.8","668daa061b4a36bcfd2591c6","686d226cabeef709c732f8e1","686e31108ea821c4d256725e","668daa061b4a36bcfd2591c6","","[{""page_index"":0,""viewing_time"":145585}]","","","","","","","","","","","","","","","","","","","","","","","","","","","","","","","","","","","","","","","","","","","",""
"","","","","ctl-task-cpt","23","2611404","0.0-8.0-3.0","146","1","2025-07-09 09:09:38","7701e855f2ef39aa3fd6c71abdc6918a","86.1.241.155","Mozilla/5.0 (Macintosh; Intel Mac OS X 10_15_7) AppleWebKit/537.36 (KHTML, like Gecko) Chrome/138.0.0.0 Safari/537.36","Macintosh","Chrome","138.0.0.0","OS X","10_15_7","https://app.prolific.com/","en-GB,en-US;q=0.9,en;q=0.8","668daa061b4a36bcfd2591c6","686d226cabeef709c732f8e1","686e31108ea821c4d256725e","668daa061b4a36bcfd2591c6","","","","","","","","","","","","","","","","","win-only","2","g1:SE,g2:NW","0.35","0","3","2568052.8","1833.5","5837.4","41316.2","2","4","8","6","2","-8","-8","0","0","0","1316","4000","-2470","[""left"",""up""]","{""num_key_presses"":11,""num_perfect"":4,""num_errors"":0,""num_randdir"":7,""num_randdir_good_moves"":3,""num_whilered"":0,""num_whileblue"":0,""num_blue"":1,""num_good_moves"":7}","[802,793.796875,0.2,802,793.796875,102.4,802,793.796875,206.5,802,793.796875,313.2,802,793.796875,417.9,802,793.796875,521.9,802,793.796875,622.6,636,551.796875,723,590,441.796875,827.6,590,441.796875,932.9,464,357.796875,1039.8,234,167.796875,1142.3,226,161.796875,1244.2,224,161.796875,1344.8,224,161.796875,1447.8,224,161.796875,1548.1,224,161.796875,1657.6,224,161.796875,1758,224,161.796875,1860.2,224,161.796875,1962,224,161.796875,2062.7,224,161.796875,2168.3,224,161.796875,2276.4,224,161.796875,2378.2,224,161.796875,2482.4,224,161.796875,2582.5,224,161.796875,2682.8,224,161.796875,2787.8,224,161.796875,2892.9,224,161.796875,2997.9,224,161.796875,3102.4,224,161.796875,3209,224,161.796875,3310.3,224,161.796875,3412.2,224,161.796875,3512.2,224,161.796875,3612.6,224,161.796875,3712.6,224,161.796875,3812.7,224,161.796875,3923.4]","[1395.6,1395.6,1000,0,395.6,""oops"",""up"",""down"",""bad_move"",4797.3,3401.3,2881.3,1396,520,""oops"",""left"",""up"",""good_move"",7361.8,2564.2,2106.4,4797.7,457.8,""smooth"",""left"",""left"",""good_move"",9797.8,2435.6,2007,7362.2,428.6,""smooth"",""left"",""left"",""good_move"",16310,6512,2370.7,13378.2,561.1,""oops"",""left"",""down"",""bad_move"",19352.9,3042.7,2630.1,16310.2,412.6,""oops"",""up"",""down"",""bad_move"",22223.1,2870,2465,19353.2,404.9,""smooth"",""up"",""up"",""good_move"",24897.5,2674.1,2316.8,22223.5,357.3,""oops"",""up"",""down"",""bad_move"",27496.4,2598.6,2232.1,24897.8,366.5,""smooth"",""up"",""up"",""good_move"",30034.7,2538.1,2165.4,27496.6,372.7,""oops"",""up"",""up"",""good_move"",32221.4,2186.3,1798.6,30035.1,387.7,""oops"",""up"",""left"",""good_move""]","","",""
"16943","","","","instructions","24","2628348","0.0-8.0-4.0","146","1","2025-07-09 09:09:38","7701e855f2ef39aa3fd6c71abdc6918a","86.1.241.155","Mozilla/5.0 (Macintosh; Intel Mac OS X 10_15_7) AppleWebKit/537.36 (KHTML, like Gecko) Chrome/138.0.0.0 Safari/537.36","Macintosh","Chrome","138.0.0.0","OS X","10_15_7","https://app.prolific.com/","en-GB,en-US;q=0.9,en;q=0.8","668daa061b4a36bcfd2591c6","686d226cabeef709c732f8e1","686e31108ea821c4d256725e","668daa061b4a36bcfd2591c6","","[{""page_index"":0,""viewing_time"":6493},{""page_index"":1,""viewing_time"":10450}]","","","","","","","","","","","","","","","","","","","","","","","","","","","","","","","","","","","","","","","","","","","",""
"10509","","","{""green_ball"":[""Ball always moves in the direction I press""]}","survey-multi-select","25","2638860","0.0-8.0-5.0-0.0","146","1","2025-07-09 09:09:38","7701e855f2ef39aa3fd6c71abdc6918a","86.1.241.155","Mozilla/5.0 (Macintosh; Intel Mac OS X 10_15_7) AppleWebKit/537.36 (KHTML, like Gecko) Chrome/138.0.0.0 Safari/537.36","Macintosh","Chrome","138.0.0.0","OS X","10_15_7","https://app.prolific.com/","en-GB,en-US;q=0.9,en;q=0.8","668daa061b4a36bcfd2591c6","686d226cabeef709c732f8e1","686e31108ea821c4d256725e","668daa061b4a36bcfd2591c6","","","[0]","","","","quiz","","","","","","","","","","","","","","","","","","","","","","","","","","","","","","","","","","","","","false","",""
"3231","","<p align='center'><b>INCORRECT.</b> Usually the green ball moves in the indicated direction, but sometimes it shakes and moves randomly. </p>","0","html-button-response","26","2642095","0.0-8.0-5.0-1.0","146","1","2025-07-09 09:09:38","7701e855f2ef39aa3fd6c71abdc6918a","86.1.241.155","Mozilla/5.0 (Macintosh; Intel Mac OS X 10_15_7) AppleWebKit/537.36 (KHTML, like Gecko) Chrome/138.0.0.0 Safari/537.36","Macintosh","Chrome","138.0.0.0","OS X","10_15_7","https://app.prolific.com/","en-GB,en-US;q=0.9,en;q=0.8","668daa061b4a36bcfd2591c6","686d226cabeef709c732f8e1","686e31108ea821c4d256725e","668daa061b4a36bcfd2591c6","","","","","","","","","","","","","","","","","","","","","","","","","","","","","","","","","","","","","","","","","","","","","",""
"10706","","","{""green_ball"":[""Ball always moves in the direction I press"",""Ball sometimes shakes and moves in a random direction""]}","survey-multi-select","27","2652803","0.0-8.0-5.1-0.1","146","1","2025-07-09 09:09:38","7701e855f2ef39aa3fd6c71abdc6918a","86.1.241.155","Mozilla/5.0 (Macintosh; Intel Mac OS X 10_15_7) AppleWebKit/537.36 (KHTML, like Gecko) Chrome/138.0.0.0 Safari/537.36","Macintosh","Chrome","138.0.0.0","OS X","10_15_7","https://app.prolific.com/","en-GB,en-US;q=0.9,en;q=0.8","668daa061b4a36bcfd2591c6","686d226cabeef709c732f8e1","686e31108ea821c4d256725e","668daa061b4a36bcfd2591c6","","","[0]","","","","quiz","","","","","","","","","","","","","","","","","","","","","","","","","","","","","","","","","","","","","false","",""
"7851","","<p align='center'><b>INCORRECT.</b> Usually the green ball moves in the indicated direction, but sometimes it shakes and moves randomly. </p>","0","html-button-response","28","2660654","0.0-8.0-5.1-1.1","146","1","2025-07-09 09:09:38","7701e855f2ef39aa3fd6c71abdc6918a","86.1.241.155","Mozilla/5.0 (Macintosh; Intel Mac OS X 10_15_7) AppleWebKit/537.36 (KHTML, like Gecko) Chrome/138.0.0.0 Safari/537.36","Macintosh","Chrome","138.0.0.0","OS X","10_15_7","https://app.prolific.com/","en-GB,en-US;q=0.9,en;q=0.8","668daa061b4a36bcfd2591c6","686d226cabeef709c732f8e1","686e31108ea821c4d256725e","668daa061b4a36bcfd2591c6","","","","","","","","","","","","","","","","","","","","","","","","","","","","","","","","","","","","","","","","","","","","","",""
"9884","","","{""green_ball"":[""Ball sometimes shakes and moves in a random direction""]}","survey-multi-select","29","2670540","0.0-8.0-5.2-0.2","146","1","2025-07-09 09:09:38","7701e855f2ef39aa3fd6c71abdc6918a","86.1.241.155","Mozilla/5.0 (Macintosh; Intel Mac OS X 10_15_7) AppleWebKit/537.36 (KHTML, like Gecko) Chrome/138.0.0.0 Safari/537.36","Macintosh","Chrome","138.0.0.0","OS X","10_15_7","https://app.prolific.com/","en-GB,en-US;q=0.9,en;q=0.8","668daa061b4a36bcfd2591c6","686d226cabeef709c732f8e1","686e31108ea821c4d256725e","668daa061b4a36bcfd2591c6","","","[0]","","","","quiz","","","","","","","","","","","","","","","","","","","","","","","","","","","","","","","","","","","","","true","",""
"1298","","<p align='center'><b>CORRECT!</b> Indeed, the green ball may sometimes shake and move in a random direction.</p>","0","html-button-response","30","2671839","0.0-8.0-5.2-1.2","146","1","2025-07-09 09:09:38","7701e855f2ef39aa3fd6c71abdc6918a","86.1.241.155","Mozilla/5.0 (Macintosh; Intel Mac OS X 10_15_7) AppleWebKit/537.36 (KHTML, like Gecko) Chrome/138.0.0.0 Safari/537.36","Macintosh","Chrome","138.0.0.0","OS X","10_15_7","https://app.prolific.com/","en-GB,en-US;q=0.9,en;q=0.8","668daa061b4a36bcfd2591c6","686d226cabeef709c732f8e1","686e31108ea821c4d256725e","668daa061b4a36bcfd2591c6","","","","","","","","","","","","","","","","","","","","","","","","","","","","","","","","","","","","","","","","","","","","","",""
"5188","","","{""yellow_ball"":[""Ball doesn‘t move and I get -1 penalty point""]}","survey-multi-select","31","2677028","0.0-8.0-6.0-0.0","146","1","2025-07-09 09:09:38","7701e855f2ef39aa3fd6c71abdc6918a","86.1.241.155","Mozilla/5.0 (Macintosh; Intel Mac OS X 10_15_7) AppleWebKit/537.36 (KHTML, like Gecko) Chrome/138.0.0.0 Safari/537.36","Macintosh","Chrome","138.0.0.0","OS X","10_15_7","https://app.prolific.com/","en-GB,en-US;q=0.9,en;q=0.8","668daa061b4a36bcfd2591c6","686d226cabeef709c732f8e1","686e31108ea821c4d256725e","668daa061b4a36bcfd2591c6","","","[0]","","","","quiz","","","","","","","","","","","","","","","","","","","","","","","","","","","","","","","","","","","","","true","",""
"910","","<p align='center'><b>CORRECT!</b> Indeed, the yellow ball never moves and you receive a penalty.</p>","0","html-button-response","32","2677939","0.0-8.0-6.0-1.0","146","1","2025-07-09 09:09:38","7701e855f2ef39aa3fd6c71abdc6918a","86.1.241.155","Mozilla/5.0 (Macintosh; Intel Mac OS X 10_15_7) AppleWebKit/537.36 (KHTML, like Gecko) Chrome/138.0.0.0 Safari/537.36","Macintosh","Chrome","138.0.0.0","OS X","10_15_7","https://app.prolific.com/","en-GB,en-US;q=0.9,en;q=0.8","668daa061b4a36bcfd2591c6","686d226cabeef709c732f8e1","686e31108ea821c4d256725e","668daa061b4a36bcfd2591c6","","","","","","","","","","","","","","","","","","","","","","","","","","","","","","","","","","","","","","","","","","","","","",""
"5713","","","{""blue_ball"":[""Ball doesn‘t move and I get -1 penalty point""]}","survey-multi-select","33","2683654","0.0-8.0-7.0-0.0","146","1","2025-07-09 09:09:38","7701e855f2ef39aa3fd6c71abdc6918a","86.1.241.155","Mozilla/5.0 (Macintosh; Intel Mac OS X 10_15_7) AppleWebKit/537.36 (KHTML, like Gecko) Chrome/138.0.0.0 Safari/537.36","Macintosh","Chrome","138.0.0.0","OS X","10_15_7","https://app.prolific.com/","en-GB,en-US;q=0.9,en;q=0.8","668daa061b4a36bcfd2591c6","686d226cabeef709c732f8e1","686e31108ea821c4d256725e","668daa061b4a36bcfd2591c6","","","[0]","","","","quiz","","","","","","","","","","","","","","","","","","","","","","","","","","","","","","","","","","","","","false","",""
"2016","","<p align='center'><b>INCORRECT.</b> The blue ball always shakes and moves randomly.</p>","0","html-button-response","34","2685672","0.0-8.0-7.0-1.0","146","1","2025-07-09 09:09:38","7701e855f2ef39aa3fd6c71abdc6918a","86.1.241.155","Mozilla/5.0 (Macintosh; Intel Mac OS X 10_15_7) AppleWebKit/537.36 (KHTML, like Gecko) Chrome/138.0.0.0 Safari/537.36","Macintosh","Chrome","138.0.0.0","OS X","10_15_7","https://app.prolific.com/","en-GB,en-US;q=0.9,en;q=0.8","668daa061b4a36bcfd2591c6","686d226cabeef709c732f8e1","686e31108ea821c4d256725e","668daa061b4a36bcfd2591c6","","","","","","","","","","","","","","","","","","","","","","","","","","","","","","","","","","","","","","","","","","","","","",""
"1926","","","{""blue_ball"":[""Ball always shakes and moves in a random direction""]}","survey-multi-select","35","2687600","0.0-8.0-7.1-0.1","146","1","2025-07-09 09:09:38","7701e855f2ef39aa3fd6c71abdc6918a","86.1.241.155","Mozilla/5.0 (Macintosh; Intel Mac OS X 10_15_7) AppleWebKit/537.36 (KHTML, like Gecko) Chrome/138.0.0.0 Safari/537.36","Macintosh","Chrome","138.0.0.0","OS X","10_15_7","https://app.prolific.com/","en-GB,en-US;q=0.9,en;q=0.8","668daa061b4a36bcfd2591c6","686d226cabeef709c732f8e1","686e31108ea821c4d256725e","668daa061b4a36bcfd2591c6","","","[0]","","","","quiz","","","","","","","","","","","","","","","","","","","","","","","","","","","","","","","","","","","","","true","",""
"1779","","<p align='center'><b>CORRECT!</b> Indeed, the blue ball always shakes and moves in a random direction. Also there is a penalty of -1 point.</p>","0","html-button-response","36","2689380","0.0-8.0-7.1-1.1","146","1","2025-07-09 09:09:38","7701e855f2ef39aa3fd6c71abdc6918a","86.1.241.155","Mozilla/5.0 (Macintosh; Intel Mac OS X 10_15_7) AppleWebKit/537.36 (KHTML, like Gecko) Chrome/138.0.0.0 Safari/537.36","Macintosh","Chrome","138.0.0.0","OS X","10_15_7","https://app.prolific.com/","en-GB,en-US;q=0.9,en;q=0.8","668daa061b4a36bcfd2591c6","686d226cabeef709c732f8e1","686e31108ea821c4d256725e","668daa061b4a36bcfd2591c6","","","","","","","","","","","","","","","","","","","","","","","","","","","","","","","","","","","","","","","","","","","","","",""
"2974","","","{""bonus"":[""When I reach 50% of points""]}","survey-multi-select","37","2692357","0.0-8.0-8.0-0.0","146","1","2025-07-09 09:09:38","7701e855f2ef39aa3fd6c71abdc6918a","86.1.241.155","Mozilla/5.0 (Macintosh; Intel Mac OS X 10_15_7) AppleWebKit/537.36 (KHTML, like Gecko) Chrome/138.0.0.0 Safari/537.36","Macintosh","Chrome","138.0.0.0","OS X","10_15_7","https://app.prolific.com/","en-GB,en-US;q=0.9,en;q=0.8","668daa061b4a36bcfd2591c6","686d226cabeef709c732f8e1","686e31108ea821c4d256725e","668daa061b4a36bcfd2591c6","","","[0]","","","","quiz","","","","","","","","","","","","","","","","","","","","","","","","","","","","","","","","","","","","","true","",""
"979","","<p align='center'><b>CORRECT!</b> Indeed, you receive 2 pounds extra when you reach 50% of points.</p>","0","html-button-response","38","2693337","0.0-8.0-8.0-1.0","146","1","2025-07-09 09:09:38","7701e855f2ef39aa3fd6c71abdc6918a","86.1.241.155","Mozilla/5.0 (Macintosh; Intel Mac OS X 10_15_7) AppleWebKit/537.36 (KHTML, like Gecko) Chrome/138.0.0.0 Safari/537.36","Macintosh","Chrome","138.0.0.0","OS X","10_15_7","https://app.prolific.com/","en-GB,en-US;q=0.9,en;q=0.8","668daa061b4a36bcfd2591c6","686d226cabeef709c732f8e1","686e31108ea821c4d256725e","668daa061b4a36bcfd2591c6","","","","","","","","","","","","","","","","","","","","","","","","","","","","","","","","","","","","","","","","","","","","","",""
"1400","","","","instructions","39","2694738","0.0-8.0-9.0","146","1","2025-07-09 09:09:38","7701e855f2ef39aa3fd6c71abdc6918a","86.1.241.155","Mozilla/5.0 (Macintosh; Intel Mac OS X 10_15_7) AppleWebKit/537.36 (KHTML, like Gecko) Chrome/138.0.0.0 Safari/537.36","Macintosh","Chrome","138.0.0.0","OS X","10_15_7","https://app.prolific.com/","en-GB,en-US;q=0.9,en;q=0.8","668daa061b4a36bcfd2591c6","686d226cabeef709c732f8e1","686e31108ea821c4d256725e","668daa061b4a36bcfd2591c6","","[{""page_index"":0,""viewing_time"":1400}]","","","","","","","","","","","","","","","","","","","","","","","","","","","","","","","","","","","","","","","","","","","",""
"5121","","<p>Before you start with this game please answer the following three questions yourself. </p>
  <p>Through this game, we measure several aspects of your cognitive performance, such as reaction times, multi-tasking capabilities </p>
  <p>and the ability to assess the situation you are in.</p>
  <p></p>
  <p><b>How good do you usually are in such tasks?</b></p>","33","html-slider-response","40","2699861","0.0-9.0-0.0","146","1","2025-07-09 09:09:38","7701e855f2ef39aa3fd6c71abdc6918a","86.1.241.155","Mozilla/5.0 (Macintosh; Intel Mac OS X 10_15_7) AppleWebKit/537.36 (KHTML, like Gecko) Chrome/138.0.0.0 Safari/537.36","Macintosh","Chrome","138.0.0.0","OS X","10_15_7","https://app.prolific.com/","en-GB,en-US;q=0.9,en;q=0.8","668daa061b4a36bcfd2591c6","686d226cabeef709c732f8e1","686e31108ea821c4d256725e","668daa061b4a36bcfd2591c6","2025-07-09T09:54:38.790Z","","","","","","PreSkillQ","","","","","","","","","","","","","","","","","","","","","","","","","","","","","","","","","","","","","","50",""
"3546","","<div style=""width:500px;"">
  <p>How well do you think you will perform in this task compared to other participants?</p>
  </div>","0","html-slider-response","41","2703408","0.0-9.0-1.0","146","1","2025-07-09 09:09:38","7701e855f2ef39aa3fd6c71abdc6918a","86.1.241.155","Mozilla/5.0 (Macintosh; Intel Mac OS X 10_15_7) AppleWebKit/537.36 (KHTML, like Gecko) Chrome/138.0.0.0 Safari/537.36","Macintosh","Chrome","138.0.0.0","OS X","10_15_7","https://app.prolific.com/","en-GB,en-US;q=0.9,en;q=0.8","668daa061b4a36bcfd2591c6","686d226cabeef709c732f8e1","686e31108ea821c4d256725e","668daa061b4a36bcfd2591c6","2025-07-09T09:54:42.336Z","","","","","","PrePerfQ","","","","","","","","","","","","","","","","","","","","","","","","","","","","","","","","","","","","","","50",""
"3571","","<div style=""width:500px;"">
  <p>What best describes how you currently feel?</p>
  </div>","50","html-slider-response","42","2706979","0.0-9.0-2.0","146","1","2025-07-09 09:09:38","7701e855f2ef39aa3fd6c71abdc6918a","86.1.241.155","Mozilla/5.0 (Macintosh; Intel Mac OS X 10_15_7) AppleWebKit/537.36 (KHTML, like Gecko) Chrome/138.0.0.0 Safari/537.36","Macintosh","Chrome","138.0.0.0","OS X","10_15_7","https://app.prolific.com/","en-GB,en-US;q=0.9,en;q=0.8","668daa061b4a36bcfd2591c6","686d226cabeef709c732f8e1","686e31108ea821c4d256725e","668daa061b4a36bcfd2591c6","2025-07-09T09:54:45.907Z","","","","","","PreMotivationQ","","","","","","","","","","","","","","","","","","","","","","","","","","","","","","","","","","","","","","50",""
"","","","","ctl-task-cpt","43","2727888","0.0-10.0-0.0","146","1","2025-07-09 09:09:38","7701e855f2ef39aa3fd6c71abdc6918a","86.1.241.155","Mozilla/5.0 (Macintosh; Intel Mac OS X 10_15_7) AppleWebKit/537.36 (KHTML, like Gecko) Chrome/138.0.0.0 Safari/537.36","Macintosh","Chrome","138.0.0.0","OS X","10_15_7","https://app.prolific.com/","en-GB,en-US;q=0.9,en;q=0.8","668daa061b4a36bcfd2591c6","686d226cabeef709c732f8e1","686e31108ea821c4d256725e","668daa061b4a36bcfd2591c6","2025-07-09T09:55:06.816Z","","","","","","","","","","","","","","","","win-only","3","g1:SW,g2:NE","1","1","0","2707955.1","1641.1","6646.2","17894","1","4","8","6","1","1","1","1","0","0.007575757575757576","2143.1","3000","1895","[""down"",""left""]","{""num_key_presses"":4,""num_perfect"":4,""num_errors"":0,""num_randdir"":0,""num_randdir_good_moves"":0,""num_whilered"":0,""num_whileblue"":0,""num_blue"":0,""num_good_moves"":4}","[816,801.796875,0.1,816,801.796875,104.4,816,801.796875,207.8,816,801.796875,308.6,816,801.796875,413.4,816,801.796875,519.4,816,801.796875,621.4,816,801.796875,722.4,816,801.796875,827.7,816,801.796875,934,816,801.796875,1035.4,816,801.796875,1136.1,816,801.796875,1240.2,860,735.796875,1340.3,1192,589.796875,1447.6,684,1157.796875,1554.9,498,1357.796875,1656.8,498,1357.796875,1759.3,368,1387.796875,1860.1,200,1445.796875,1973.5,192,1447.796875,2075.8,182,1449.796875,2180.7,182,1449.796875,2287.9,182,1449.796875,2390.3,182,1449.796875,2503.1,182,1449.796875,2605.3,182,1449.796875,2706.9,182,1449.796875,2807.6,182,1449.796875,2920.7,182,1449.796875,3024.2,182,1449.796875,3131.2,182,1449.796875,3233.2,182,1449.796875,3334.1,182,1449.796875,3436.8,182,1449.796875,3541.3,182,1449.796875,3650.1,182,1449.796875,3755.4,182,1449.796875,3872,182,1449.796875,3975.6,182,1449.796875,4078.8,182,1449.796875,4186.2,182,1449.796875,4290.3,182,1449.796875,4395.4,182,1449.796875,4497.6,182,1449.796875,4601.1,182,1449.796875,4706,182,1449.796875,4806.9,182,1449.796875,4920.3]","[1403,1403,1000,0,403,""smooth"",""down"",""down"",""good_move"",4967.1,3563.7,3112.5,1403.4,451.2,""smooth"",""down"",""down"",""good_move"",7896.4,2929.1,2456.5,4967.4,472.5,""smooth"",""left"",""left"",""good_move"",11101.6,3204.9,2814.3,7896.7,390.6,""smooth"",""left"",""left"",""good_move""]","","",""
"192071","","<div style=""width:500px;"">
  <p>What determined the result of this run?</p>
  </div>","75","html-slider-response","44","2919959","0.0-10.0-1.0","146","1","2025-07-09 09:09:38","7701e855f2ef39aa3fd6c71abdc6918a","86.1.241.155","Mozilla/5.0 (Macintosh; Intel Mac OS X 10_15_7) AppleWebKit/537.36 (KHTML, like Gecko) Chrome/138.0.0.0 Safari/537.36","Macintosh","Chrome","138.0.0.0","OS X","10_15_7","https://app.prolific.com/","en-GB,en-US;q=0.9,en;q=0.8","668daa061b4a36bcfd2591c6","686d226cabeef709c732f8e1","686e31108ea821c4d256725e","668daa061b4a36bcfd2591c6","2025-07-09T09:58:18.887Z","","","","","","AttribQ","","","","","","","","","","","","","","","","","","","","","","","","","","","","","","","","","","","","","","50",""
"4803","","<div style=""width:500px;"">
  <p>How much control did you have over the ball?</p>
  </div>","50","html-slider-response","45","2924764","0.0-10.0-2.0","146","1","2025-07-09 09:09:38","7701e855f2ef39aa3fd6c71abdc6918a","86.1.241.155","Mozilla/5.0 (Macintosh; Intel Mac OS X 10_15_7) AppleWebKit/537.36 (KHTML, like Gecko) Chrome/138.0.0.0 Safari/537.36","Macintosh","Chrome","138.0.0.0","OS X","10_15_7","https://app.prolific.com/","en-GB,en-US;q=0.9,en;q=0.8","668daa061b4a36bcfd2591c6","686d226cabeef709c732f8e1","686e31108ea821c4d256725e","668daa061b4a36bcfd2591c6","2025-07-09T09:58:23.692Z","","","","","","ControlQ","","","","","","","","","","","","","","","","","","","","","","","","","","","","","","","","","","","","","","50",""
"2247","","<div style=""width:500px;"">
  <p>How would you describe your current emotional state?</p>
  </div>","50","html-slider-response","46","2927012","0.0-10.0-3.0","146","1","2025-07-09 09:09:38","7701e855f2ef39aa3fd6c71abdc6918a","86.1.241.155","Mozilla/5.0 (Macintosh; Intel Mac OS X 10_15_7) AppleWebKit/537.36 (KHTML, like Gecko) Chrome/138.0.0.0 Safari/537.36","Macintosh","Chrome","138.0.0.0","OS X","10_15_7","https://app.prolific.com/","en-GB,en-US;q=0.9,en;q=0.8","668daa061b4a36bcfd2591c6","686d226cabeef709c732f8e1","686e31108ea821c4d256725e","668daa061b4a36bcfd2591c6","2025-07-09T09:58:25.940Z","","","","","","StressQ","","","","","","","","","","","","","","","","","","","","","","","","","","","","","","","","","","","","","","50",""
"2413","","<div style=""width:500px;"">
  <p>What best describes how you currently feel?</p>
  </div>","50","html-slider-response","47","2929426","0.0-10.0-4.0","146","1","2025-07-09 09:09:38","7701e855f2ef39aa3fd6c71abdc6918a","86.1.241.155","Mozilla/5.0 (Macintosh; Intel Mac OS X 10_15_7) AppleWebKit/537.36 (KHTML, like Gecko) Chrome/138.0.0.0 Safari/537.36","Macintosh","Chrome","138.0.0.0","OS X","10_15_7","https://app.prolific.com/","en-GB,en-US;q=0.9,en;q=0.8","668daa061b4a36bcfd2591c6","686d226cabeef709c732f8e1","686e31108ea821c4d256725e","668daa061b4a36bcfd2591c6","2025-07-09T09:58:28.354Z","","","","","","MotivationQ","","","","","","","","","","","","","","","","","","","","","","","","","","","","","","","","","","","","","","50",""
"","","","","ctl-task-cpt","48","2966789","0.0-10.0-0.1","146","1","2025-07-09 09:09:38","7701e855f2ef39aa3fd6c71abdc6918a","86.1.241.155","Mozilla/5.0 (Macintosh; Intel Mac OS X 10_15_7) AppleWebKit/537.36 (KHTML, like Gecko) Chrome/138.0.0.0 Safari/537.36","Macintosh","Chrome","138.0.0.0","OS X","10_15_7","https://app.prolific.com/","en-GB,en-US;q=0.9,en;q=0.8","668daa061b4a36bcfd2591c6","686d226cabeef709c732f8e1","686e31108ea821c4d256725e","668daa061b4a36bcfd2591c6","2025-07-09T09:59:05.717Z","","","","","","","","","","","","","","","","win-only","0","g1:NW,g2:SE","0.9","2","0","2930403","1142.5","6146.1","34346.1","1","4","4","6","2","4","4","5","1","0.03787878787878788","1242.3","3000","920","[""down"",""right""]","{""num_key_presses"":6,""num_perfect"":6,""num_errors"":0,""num_randdir"":0,""num_randdir_good_moves"":0,""num_whilered"":0,""num_whileblue"":0,""num_blue"":3,""num_good_moves"":6}","[806,789.796875,0.2,806,789.796875,105.6,806,789.796875,221.5,806,789.796875,322.2,806,789.796875,423.4,806,789.796875,523.4,900,845.796875,633,1662,1613.796875,740.1,1746,1693.796875,853.7,1746,1693.796875,955.5,1632,1593.796875,1070.5,1532,1541.796875,1183.3,1528,1535.796875,1284.9,1528,1535.796875,1385.8,1528,1535.796875,1492.1,1528,1535.796875,1596.9,1528,1535.796875,1700.8,1528,1535.796875,1803.4,1528,1535.796875,1904.1,1528,1535.796875,2009.9,1528,1535.796875,2110.7,1528,1535.796875,2219.3,1528,1535.796875,2334.4,1528,1535.796875,2439.4,1528,1535.796875,2553.2,1528,1535.796875,2657.1,1528,1535.796875,2757.1,1528,1535.796875,2867.5,1528,1535.796875,2968.5,1528,1535.796875,3068.7,1528,1535.796875,3174.4,1528,1535.796875,3278.3,1528,1535.796875,3383.8,1528,1535.796875,3485.5,1528,1535.796875,3588.5,1528,1535.796875,3689.1,1528,1535.796875,3797,1528,1535.796875,3899.1,1528,1535.796875,4000,1528,1535.796875,4101.1,1528,1535.796875,4206,1528,1535.796875,4312.9,1528,1535.796875,4413.6,1528,1535.796875,4519.4,1528,1535.796875,4623.4,1528,1535.796875,4727.7,1528,1535.796875,4832.8,1528,1535.796875,4934.7]","[1445.5,1445.5,1000,0,445.5,""smooth"",""right"",""right"",""good_move"",4570.2,3124.4,2736.8,1445.9,387.5,""smooth"",""right"",""right"",""good_move"",7544.5,2974,2619.6,4570.5,354.4,""smooth"",""down"",""down"",""good_move"",13427.5,5882.7,2328.9,10680.1,418.5,""smooth"",""down"",""down"",""good_move"",24060.2,10632.6,2228.3,21200.1,631.8,""smooth"",""down"",""down"",""good_move"",28080.2,4019.6,3290.2,24060.6,729.5,""smooth"",""right"",""right"",""good_move""]","","",""
"3445","","<div style=""width:500px;"">
  <p>What determined the result of this run?</p>
  </div>","10","html-slider-response","49","2970235","0.0-10.0-1.1","146","1","2025-07-09 09:09:38","7701e855f2ef39aa3fd6c71abdc6918a","86.1.241.155","Mozilla/5.0 (Macintosh; Intel Mac OS X 10_15_7) AppleWebKit/537.36 (KHTML, like Gecko) Chrome/138.0.0.0 Safari/537.36","Macintosh","Chrome","138.0.0.0","OS X","10_15_7","https://app.prolific.com/","en-GB,en-US;q=0.9,en;q=0.8","668daa061b4a36bcfd2591c6","686d226cabeef709c732f8e1","686e31108ea821c4d256725e","668daa061b4a36bcfd2591c6","2025-07-09T09:59:09.163Z","","","","","","AttribQ","","","","","","","","","","","","","","","","","","","","","","","","","","","","","","","","","","","","","","50",""
"2762","","<div style=""width:500px;"">
  <p>How much control did you have over the ball?</p>
  </div>","74","html-slider-response","50","2972998","0.0-10.0-2.1","146","1","2025-07-09 09:09:38","7701e855f2ef39aa3fd6c71abdc6918a","86.1.241.155","Mozilla/5.0 (Macintosh; Intel Mac OS X 10_15_7) AppleWebKit/537.36 (KHTML, like Gecko) Chrome/138.0.0.0 Safari/537.36","Macintosh","Chrome","138.0.0.0","OS X","10_15_7","https://app.prolific.com/","en-GB,en-US;q=0.9,en;q=0.8","668daa061b4a36bcfd2591c6","686d226cabeef709c732f8e1","686e31108ea821c4d256725e","668daa061b4a36bcfd2591c6","2025-07-09T09:59:11.926Z","","","","","","ControlQ","","","","","","","","","","","","","","","","","","","","","","","","","","","","","","","","","","","","","","50",""
"1884","","<div style=""width:500px;"">
  <p>How would you describe your current emotional state?</p>
  </div>","51","html-slider-response","51","2974884","0.0-10.0-3.1","146","1","2025-07-09 09:09:38","7701e855f2ef39aa3fd6c71abdc6918a","86.1.241.155","Mozilla/5.0 (Macintosh; Intel Mac OS X 10_15_7) AppleWebKit/537.36 (KHTML, like Gecko) Chrome/138.0.0.0 Safari/537.36","Macintosh","Chrome","138.0.0.0","OS X","10_15_7","https://app.prolific.com/","en-GB,en-US;q=0.9,en;q=0.8","668daa061b4a36bcfd2591c6","686d226cabeef709c732f8e1","686e31108ea821c4d256725e","668daa061b4a36bcfd2591c6","2025-07-09T09:59:13.812Z","","","","","","StressQ","","","","","","","","","","","","","","","","","","","","","","","","","","","","","","","","","","","","","","50",""
"1407","","<div style=""width:500px;"">
  <p>What best describes how you currently feel?</p>
  </div>","50","html-slider-response","52","2976291","0.0-10.0-4.1","146","1","2025-07-09 09:09:38","7701e855f2ef39aa3fd6c71abdc6918a","86.1.241.155","Mozilla/5.0 (Macintosh; Intel Mac OS X 10_15_7) AppleWebKit/537.36 (KHTML, like Gecko) Chrome/138.0.0.0 Safari/537.36","Macintosh","Chrome","138.0.0.0","OS X","10_15_7","https://app.prolific.com/","en-GB,en-US;q=0.9,en;q=0.8","668daa061b4a36bcfd2591c6","686d226cabeef709c732f8e1","686e31108ea821c4d256725e","668daa061b4a36bcfd2591c6","2025-07-09T09:59:15.219Z","","","","","","MotivationQ","","","","","","","","","","","","","","","","","","","","","","","","","","","","","","","","","","","","","","50",""
"","","","","ctl-task-cpt","53","3011365","0.0-10.0-0.2","146","1","2025-07-09 09:09:38","7701e855f2ef39aa3fd6c71abdc6918a","86.1.241.155","Mozilla/5.0 (Macintosh; Intel Mac OS X 10_15_7) AppleWebKit/537.36 (KHTML, like Gecko) Chrome/138.0.0.0 Safari/537.36","Macintosh","Chrome","138.0.0.0","OS X","10_15_7","https://app.prolific.com/","en-GB,en-US;q=0.9,en;q=0.8","668daa061b4a36bcfd2591c6","686d226cabeef709c732f8e1","686e31108ea821c4d256725e","668daa061b4a36bcfd2591c6","2025-07-09T09:59:50.293Z","","","","","","","","","","","","","","","","win-only","3","g1:SW,g2:NE","0.8","3","0","2977268.5","776.5","5777","32061.8","1","4","4","6","2","4","4","9","5","0.06818181818181818","1440.2","3000","780","[""up"",""right""]","{""num_key_presses"":8,""num_perfect"":7,""num_errors"":0,""num_randdir"":1,""num_randdir_good_moves"":0,""num_whilered"":0,""num_whileblue"":0,""num_blue"":1,""num_good_moves"":7}","[810,815.796875,0.2,810,815.796875,112.1,810,815.796875,224.1,810,815.796875,325.7,810,815.796875,430.4,810,815.796875,534.5,810,815.796875,635,810,815.796875,736.9,810,815.796875,841.3,798,815.796875,951.2,1050,401.796875,1054.5,1172,251.796875,1154.7,1338,123.796875,1260.7,1498,177.796875,1366.5,1506,181.796875,1466.9,1506,181.796875,1567.8,1506,181.796875,1671.9,1506,181.796875,1782.6,1506,181.796875,1886.4,1506,181.796875,1989.7,1506,181.796875,2095.1,1506,181.796875,2200.5,1506,181.796875,2304.7,1506,181.796875,2404.9,1506,181.796875,2515.1,1506,181.796875,2623.4,1506,181.796875,2731.8,1506,181.796875,2839.4,1506,181.796875,2951.4,1506,181.796875,3067,1506,181.796875,3169.8,1506,181.796875,3276.7,1506,181.796875,3378.3,1506,181.796875,3478.6,1506,181.796875,3585.9,1506,181.796875,3701.5,1506,181.796875,3804.1,1506,181.796875,3910.9,1506,181.796875,4011.5,1506,181.796875,4112.3,1506,181.796875,4215.4,1506,181.796875,4317.5,1506,181.796875,4420,1506,181.796875,4524.2,1506,181.796875,4631.1,1506,181.796875,4732.8,1506,181.796875,4835.3,1506,181.796875,4941.8]","[1344.3,1344.3,1000,0,344.3,""smooth"",""up"",""up"",""good_move"",4763.4,3418.7,2863.6,1344.7,555.1,""smooth"",""up"",""up"",""good_move"",8060.8,3297.3,2769.2,4763.5,528.1,""smooth"",""up"",""up"",""good_move"",11785.1,3724,3318.7,8061.1,405.3,""smooth"",""right"",""right"",""good_move"",15142.2,3356.8,2957.2,11785.4,399.6,""oops"",""right"",""left"",""bad_move"",21030.9,5888.3,2514.4,18086.6,429.9,""smooth"",""right"",""right"",""good_move"",23599.4,2568.2,2065.1,21031.2,503.1,""smooth"",""right"",""right"",""good_move"",26140.3,2540.6,2128.4,23599.7,412.2,""smooth"",""right"",""right"",""good_move""]","","",""
"41854","","<div style=""width:500px;"">
  <p>What determined the result of this run?</p>
  </div>","0","html-slider-response","54","3053220","0.0-10.0-1.2","146","1","2025-07-09 09:09:38","7701e855f2ef39aa3fd6c71abdc6918a","86.1.241.155","Mozilla/5.0 (Macintosh; Intel Mac OS X 10_15_7) AppleWebKit/537.36 (KHTML, like Gecko) Chrome/138.0.0.0 Safari/537.36","Macintosh","Chrome","138.0.0.0","OS X","10_15_7","https://app.prolific.com/","en-GB,en-US;q=0.9,en;q=0.8","668daa061b4a36bcfd2591c6","686d226cabeef709c732f8e1","686e31108ea821c4d256725e","668daa061b4a36bcfd2591c6","2025-07-09T10:00:32.148Z","","","","","","AttribQ","","","","","","","","","","","","","","","","","","","","","","","","","","","","","","","","","","","","","","50",""
"2249","","<div style=""width:500px;"">
  <p>How much control did you have over the ball?</p>
  </div>","24","html-slider-response","55","3055470","0.0-10.0-2.2","146","1","2025-07-09 09:09:38","7701e855f2ef39aa3fd6c71abdc6918a","86.1.241.155","Mozilla/5.0 (Macintosh; Intel Mac OS X 10_15_7) AppleWebKit/537.36 (KHTML, like Gecko) Chrome/138.0.0.0 Safari/537.36","Macintosh","Chrome","138.0.0.0","OS X","10_15_7","https://app.prolific.com/","en-GB,en-US;q=0.9,en;q=0.8","668daa061b4a36bcfd2591c6","686d226cabeef709c732f8e1","686e31108ea821c4d256725e","668daa061b4a36bcfd2591c6","2025-07-09T10:00:34.398Z","","","","","","ControlQ","","","","","","","","","","","","","","","","","","","","","","","","","","","","","","","","","","","","","","50",""
"1332","","<div style=""width:500px;"">
  <p>How would you describe your current emotional state?</p>
  </div>","50","html-slider-response","56","3056803","0.0-10.0-3.2","146","1","2025-07-09 09:09:38","7701e855f2ef39aa3fd6c71abdc6918a","86.1.241.155","Mozilla/5.0 (Macintosh; Intel Mac OS X 10_15_7) AppleWebKit/537.36 (KHTML, like Gecko) Chrome/138.0.0.0 Safari/537.36","Macintosh","Chrome","138.0.0.0","OS X","10_15_7","https://app.prolific.com/","en-GB,en-US;q=0.9,en;q=0.8","668daa061b4a36bcfd2591c6","686d226cabeef709c732f8e1","686e31108ea821c4d256725e","668daa061b4a36bcfd2591c6","2025-07-09T10:00:35.731Z","","","","","","StressQ","","","","","","","","","","","","","","","","","","","","","","","","","","","","","","","","","","","","","","50",""
"1475","","<div style=""width:500px;"">
  <p>What best describes how you currently feel?</p>
  </div>","50","html-slider-response","57","3058279","0.0-10.0-4.2","146","1","2025-07-09 09:09:38","7701e855f2ef39aa3fd6c71abdc6918a","86.1.241.155","Mozilla/5.0 (Macintosh; Intel Mac OS X 10_15_7) AppleWebKit/537.36 (KHTML, like Gecko) Chrome/138.0.0.0 Safari/537.36","Macintosh","Chrome","138.0.0.0","OS X","10_15_7","https://app.prolific.com/","en-GB,en-US;q=0.9,en;q=0.8","668daa061b4a36bcfd2591c6","686d226cabeef709c732f8e1","686e31108ea821c4d256725e","668daa061b4a36bcfd2591c6","2025-07-09T10:00:37.207Z","","","","","","MotivationQ","","","","","","","","","","","","","","","","","","","","","","","","","","","","","","","","","","","","","","50",""
"","","","","ctl-task-cpt","58","3088233","0.0-10.0-0.3","146","1","2025-07-09 09:09:38","7701e855f2ef39aa3fd6c71abdc6918a","86.1.241.155","Mozilla/5.0 (Macintosh; Intel Mac OS X 10_15_7) AppleWebKit/537.36 (KHTML, like Gecko) Chrome/138.0.0.0 Safari/537.36","Macintosh","Chrome","138.0.0.0","OS X","10_15_7","https://app.prolific.com/","en-GB,en-US;q=0.9,en;q=0.8","668daa061b4a36bcfd2591c6","686d226cabeef709c732f8e1","686e31108ea821c4d256725e","668daa061b4a36bcfd2591c6","2025-07-09T10:01:07.161Z","","","","","","","","","","","","","","","","win-only","2","g1:SE,g2:NW","0.7","4","0","3059256.2","1635","6646.3","26942.6","1","4","8","6","2","8","8","17","9","0.12878787878787878","1115.4","3000","1695","[""left"",""up""]","{""num_key_presses"":6,""num_perfect"":4,""num_errors"":0,""num_randdir"":2,""num_randdir_good_moves"":2,""num_whilered"":0,""num_whileblue"":0,""num_blue"":1,""num_good_moves"":6}","[814,813.796875,0.1,814,813.796875,102,814,813.796875,206.2,814,813.796875,321.1,814,813.796875,427,814,813.796875,528.2,814,813.796875,631.9,446,653.796875,735.7,82,209.796875,847.6,96,189.796875,950.1,156,161.796875,1059.2,168,161.796875,1162.9,168,161.796875,1267.6,168,161.796875,1377.9,168,161.796875,1486,168,161.796875,1594.4,168,161.796875,1694.4,168,161.796875,1797.8,168,161.796875,1898.7,168,161.796875,2002,168,161.796875,2105.1,168,161.796875,2215,168,161.796875,2320.5,168,161.796875,2423.5,168,161.796875,2525.6,168,161.796875,2625.7,168,161.796875,2729,168,161.796875,2835.7,168,161.796875,2945.9,168,161.796875,3061.3,168,161.796875,3166.1,168,161.796875,3275.6,168,161.796875,3380.3,168,161.796875,3486.3,168,161.796875,3590.3,168,161.796875,3707.9,168,161.796875,3812,168,161.796875,3918.8,168,161.796875,4029.8,168,161.796875,4134.2,168,161.796875,4236.1,168,161.796875,4341.3,168,161.796875,4462.7,168,161.796875,4564.7,168,161.796875,4665.8,168,161.796875,4775.3,168,161.796875,4877.4,168,161.796875,4981.3]","[1358.3,1358.3,1000,0,358.3,""smooth"",""up"",""up"",""good_move"",8026.7,6668.1,2741.8,4830.3,454.6,""oops"",""left"",""up"",""good_move"",10827.9,2800.9,2205.6,8027,595.3,""smooth"",""left"",""left"",""good_move"",13787.3,2959.1,2503.9,10828.2,455.2,""smooth"",""left"",""left"",""good_move"",16912.7,3125.2,2704.5,13787.5,420.7,""oops"",""left"",""up"",""good_move"",20129.5,3216.7,2856.3,16912.8,360.4,""smooth"",""left"",""left"",""good_move""]","","",""
"2747","","<div style=""width:500px;"">
  <p>What determined the result of this run?</p>
  </div>","51","html-slider-response","59","3090981","0.0-10.0-1.3","146","1","2025-07-09 09:09:38","7701e855f2ef39aa3fd6c71abdc6918a","86.1.241.155","Mozilla/5.0 (Macintosh; Intel Mac OS X 10_15_7) AppleWebKit/537.36 (KHTML, like Gecko) Chrome/138.0.0.0 Safari/537.36","Macintosh","Chrome","138.0.0.0","OS X","10_15_7","https://app.prolific.com/","en-GB,en-US;q=0.9,en;q=0.8","668daa061b4a36bcfd2591c6","686d226cabeef709c732f8e1","686e31108ea821c4d256725e","668daa061b4a36bcfd2591c6","2025-07-09T10:01:09.909Z","","","","","","AttribQ","","","","","","","","","","","","","","","","","","","","","","","","","","","","","","","","","","","","","","50",""
"1353","","<div style=""width:500px;"">
  <p>How much control did you have over the ball?</p>
  </div>","51","html-slider-response","60","3092335","0.0-10.0-2.3","146","1","2025-07-09 09:09:38","7701e855f2ef39aa3fd6c71abdc6918a","86.1.241.155","Mozilla/5.0 (Macintosh; Intel Mac OS X 10_15_7) AppleWebKit/537.36 (KHTML, like Gecko) Chrome/138.0.0.0 Safari/537.36","Macintosh","Chrome","138.0.0.0","OS X","10_15_7","https://app.prolific.com/","en-GB,en-US;q=0.9,en;q=0.8","668daa061b4a36bcfd2591c6","686d226cabeef709c732f8e1","686e31108ea821c4d256725e","668daa061b4a36bcfd2591c6","2025-07-09T10:01:11.263Z","","","","","","ControlQ","","","","","","","","","","","","","","","","","","","","","","","","","","","","","","","","","","","","","","50",""
"1547","","<div style=""width:500px;"">
  <p>How would you describe your current emotional state?</p>
  </div>","50","html-slider-response","61","3093883","0.0-10.0-3.3","146","1","2025-07-09 09:09:38","7701e855f2ef39aa3fd6c71abdc6918a","86.1.241.155","Mozilla/5.0 (Macintosh; Intel Mac OS X 10_15_7) AppleWebKit/537.36 (KHTML, like Gecko) Chrome/138.0.0.0 Safari/537.36","Macintosh","Chrome","138.0.0.0","OS X","10_15_7","https://app.prolific.com/","en-GB,en-US;q=0.9,en;q=0.8","668daa061b4a36bcfd2591c6","686d226cabeef709c732f8e1","686e31108ea821c4d256725e","668daa061b4a36bcfd2591c6","2025-07-09T10:01:12.811Z","","","","","","StressQ","","","","","","","","","","","","","","","","","","","","","","","","","","","","","","","","","","","","","","50",""
"1398","","<div style=""width:500px;"">
  <p>What best describes how you currently feel?</p>
  </div>","50","html-slider-response","62","3095282","0.0-10.0-4.3","146","1","2025-07-09 09:09:38","7701e855f2ef39aa3fd6c71abdc6918a","86.1.241.155","Mozilla/5.0 (Macintosh; Intel Mac OS X 10_15_7) AppleWebKit/537.36 (KHTML, like Gecko) Chrome/138.0.0.0 Safari/537.36","Macintosh","Chrome","138.0.0.0","OS X","10_15_7","https://app.prolific.com/","en-GB,en-US;q=0.9,en;q=0.8","668daa061b4a36bcfd2591c6","686d226cabeef709c732f8e1","686e31108ea821c4d256725e","668daa061b4a36bcfd2591c6","2025-07-09T10:01:14.210Z","","","","","","MotivationQ","","","","","","","","","","","","","","","","","","","","","","","","","","","","","","","","","","","","","","50",""
"","","","","ctl-task-cpt","63","3146464","0.0-10.0-0.4","146","1","2025-07-09 09:09:38","7701e855f2ef39aa3fd6c71abdc6918a","86.1.241.155","Mozilla/5.0 (Macintosh; Intel Mac OS X 10_15_7) AppleWebKit/537.36 (KHTML, like Gecko) Chrome/138.0.0.0 Safari/537.36","Macintosh","Chrome","138.0.0.0","OS X","10_15_7","https://app.prolific.com/","en-GB,en-US;q=0.9,en;q=0.8","668daa061b4a36bcfd2591c6","686d226cabeef709c732f8e1","686e31108ea821c4d256725e","668daa061b4a36bcfd2591c6","2025-07-09T10:02:05.392Z","","","","","","","","","","","","","","","","win-only","0","g1:NW,g2:SE","0.6","5","0","3096258.9","1134.4","6137.4","48159.7","1","4","8","6","2","8","8","25","17","0.1893939393939394","1567.8","3000","455","[""down"",""right""]","{""num_key_presses"":12,""num_perfect"":8,""num_errors"":0,""num_randdir"":4,""num_randdir_good_moves"":1,""num_whilered"":0,""num_whileblue"":0,""num_blue"":2,""num_good_moves"":9}","[788,813.796875,0.1,788,813.796875,108.1,788,813.796875,216.1,788,813.796875,318.5,788,813.796875,436.3,788,813.796875,536.9,788,813.796875,642.7,788,813.796875,745.2,788,813.796875,847.9,788,813.796875,949,1370,1281.796875,1053.8,1674,1543.796875,1159.3,1674,1543.796875,1269.7,1640,1543.796875,1381.2,1490,1505.796875,1492.6,1474,1491.796875,1606.1,1474,1491.796875,1706.2,1474,1491.796875,1825.9,1474,1491.796875,1928.8,1474,1491.796875,2034.4,1474,1491.796875,2138.4,1474,1491.796875,2244.5,1474,1491.796875,2370.4,1474,1491.796875,2473.3,1474,1491.796875,2590.6,1474,1491.796875,2694.8,1474,1491.796875,2799.5,1474,1491.796875,2901.3,1474,1491.796875,3009.4,1474,1491.796875,3109.5,1474,1491.796875,3216.7,1474,1491.796875,3328.3,1474,1491.796875,3429.1,1474,1491.796875,3533.6,1474,1491.796875,3638.6,1474,1491.796875,3750.6,1474,1491.796875,3855.4,1474,1491.796875,3962.3,1474,1491.796875,4074.3,1474,1491.796875,4190.3,1474,1491.796875,4292.6,1474,1491.796875,4403.2,1474,1491.796875,4508.8,1474,1491.796875,4614.7,1474,1491.796875,4728.3,1474,1491.796875,4835.2,1474,1491.796875,4941.5]","[1399.7,1399.7,1000,0,399.7,""smooth"",""right"",""right"",""good_move"",5073.5,3673.4,3200,1400.2,473.4,""smooth"",""down"",""down"",""good_move"",11590,6516.1,2444.3,8740.8,404.9,""smooth"",""down"",""down"",""good_move"",14440.4,2850.2,2396.3,11590.2,453.9,""oops"",""right"",""down"",""good_move"",17839.6,3399,2992.6,14440.6,406.4,""oops"",""right"",""left"",""bad_move"",25148,7308.1,2770.8,21983.5,393.7,""smooth"",""right"",""right"",""good_move"",28913.1,3764.9,2695.8,25148.2,1069.1,""smooth"",""right"",""right"",""good_move"",31819.3,2905.9,2489.8,28913.4,416.1,""oops"",""right"",""up"",""bad_move"",34921.9,3102.3,2718.1,31819.6,384.2,""smooth"",""right"",""right"",""good_move"",37010.1,2088,1744.6,34922.1,343.4,""oops"",""down"",""up"",""bad_move"",39842.7,2832.3,2359.6,37010.4,472.7,""smooth"",""down"",""down"",""good_move"",41861.8,2018.7,1588.3,39843.1,430.4,""smooth"",""down"",""down"",""good_move""]","","",""
"3055","","<div style=""width:500px;"">
  <p>What determined the result of this run?</p>
  </div>","0","html-slider-response","64","3149521","0.0-10.0-1.4","146","1","2025-07-09 09:09:38","7701e855f2ef39aa3fd6c71abdc6918a","86.1.241.155","Mozilla/5.0 (Macintosh; Intel Mac OS X 10_15_7) AppleWebKit/537.36 (KHTML, like Gecko) Chrome/138.0.0.0 Safari/537.36","Macintosh","Chrome","138.0.0.0","OS X","10_15_7","https://app.prolific.com/","en-GB,en-US;q=0.9,en;q=0.8","668daa061b4a36bcfd2591c6","686d226cabeef709c732f8e1","686e31108ea821c4d256725e","668daa061b4a36bcfd2591c6","2025-07-09T10:02:08.449Z","","","","","","AttribQ","","","","","","","","","","","","","","","","","","","","","","","","","","","","","","","","","","","","","","50",""
"2107","","<div style=""width:500px;"">
  <p>How much control did you have over the ball?</p>
  </div>","0","html-slider-response","65","3151629","0.0-10.0-2.4","146","1","2025-07-09 09:09:38","7701e855f2ef39aa3fd6c71abdc6918a","86.1.241.155","Mozilla/5.0 (Macintosh; Intel Mac OS X 10_15_7) AppleWebKit/537.36 (KHTML, like Gecko) Chrome/138.0.0.0 Safari/537.36","Macintosh","Chrome","138.0.0.0","OS X","10_15_7","https://app.prolific.com/","en-GB,en-US;q=0.9,en;q=0.8","668daa061b4a36bcfd2591c6","686d226cabeef709c732f8e1","686e31108ea821c4d256725e","668daa061b4a36bcfd2591c6","2025-07-09T10:02:10.557Z","","","","","","ControlQ","","","","","","","","","","","","","","","","","","","","","","","","","","","","","","","","","","","","","","50",""
"1880","","<div style=""width:500px;"">
  <p>How would you describe your current emotional state?</p>
  </div>","62","html-slider-response","66","3153510","0.0-10.0-3.4","146","1","2025-07-09 09:09:38","7701e855f2ef39aa3fd6c71abdc6918a","86.1.241.155","Mozilla/5.0 (Macintosh; Intel Mac OS X 10_15_7) AppleWebKit/537.36 (KHTML, like Gecko) Chrome/138.0.0.0 Safari/537.36","Macintosh","Chrome","138.0.0.0","OS X","10_15_7","https://app.prolific.com/","en-GB,en-US;q=0.9,en;q=0.8","668daa061b4a36bcfd2591c6","686d226cabeef709c732f8e1","686e31108ea821c4d256725e","668daa061b4a36bcfd2591c6","2025-07-09T10:02:12.438Z","","","","","","StressQ","","","","","","","","","","","","","","","","","","","","","","","","","","","","","","","","","","","","","","50",""
"3069","","<div style=""width:500px;"">
  <p>What best describes how you currently feel?</p>
  </div>","12","html-slider-response","67","3156580","0.0-10.0-4.4","146","1","2025-07-09 09:09:38","7701e855f2ef39aa3fd6c71abdc6918a","86.1.241.155","Mozilla/5.0 (Macintosh; Intel Mac OS X 10_15_7) AppleWebKit/537.36 (KHTML, like Gecko) Chrome/138.0.0.0 Safari/537.36","Macintosh","Chrome","138.0.0.0","OS X","10_15_7","https://app.prolific.com/","en-GB,en-US;q=0.9,en;q=0.8","668daa061b4a36bcfd2591c6","686d226cabeef709c732f8e1","686e31108ea821c4d256725e","668daa061b4a36bcfd2591c6","2025-07-09T10:02:15.509Z","","","","","","MotivationQ","","","","","","","","","","","","","","","","","","","","","","","","","","","","","","","","","","","","","","50",""
"","","","","ctl-task-cpt","68","3189787","0.0-10.0-0.5","146","1","2025-07-09 09:09:38","7701e855f2ef39aa3fd6c71abdc6918a","86.1.241.155","Mozilla/5.0 (Macintosh; Intel Mac OS X 10_15_7) AppleWebKit/537.36 (KHTML, like Gecko) Chrome/138.0.0.0 Safari/537.36","Macintosh","Chrome","138.0.0.0","OS X","10_15_7","https://app.prolific.com/","en-GB,en-US;q=0.9,en;q=0.8","668daa061b4a36bcfd2591c6","686d226cabeef709c732f8e1","686e31108ea821c4d256725e","668daa061b4a36bcfd2591c6","2025-07-09T10:02:48.715Z","","","","","","","","","","","","","","","","win-only","2","g1:SE,g2:NW","0.5","6","0","3157558.5","690.5","5698.8","30187.4","1","4","4","6","2","4","3","28","25","0.21212121212121213","1308.8","3000","1360","[""left"",""up""]","{""num_key_presses"":7,""num_perfect"":3,""num_errors"":1,""num_randdir"":3,""num_randdir_good_moves"":3,""num_whilered"":0,""num_whileblue"":0,""num_blue"":1,""num_good_moves"":6}","[812,801.796875,0.2,812,801.796875,105.5,812,801.796875,212.4,812,801.796875,315.4,812,801.796875,427.4,812,801.796875,529.3,812,801.796875,631,812,801.796875,733.6,462,437.796875,853.1,358,173.796875,962.6,358,173.796875,1075.3,294,179.796875,1177.1,160,171.796875,1278.6,160,171.796875,1385.7,160,171.796875,1503.9,160,171.796875,1618.3,160,171.796875,1725.9,160,171.796875,2170.1,160,171.796875,2271.5,160,171.796875,2385.7,160,171.796875,2489.2,160,171.796875,2595.3,160,171.796875,2710.4,160,171.796875,2811.4,160,171.796875,2925.3,160,171.796875,3031.2,160,171.796875,3133.8,160,171.796875,3251.7,160,171.796875,3363.3,160,171.796875,3469.5,160,171.796875,3584.5,160,171.796875,3704.3,160,171.796875,3808.5,160,171.796875,3917.9,160,171.796875,4024.4,160,171.796875,4133.8,160,171.796875,4240.1,160,171.796875,4363.3,160,171.796875,4466.9,160,171.796875,4571.1,160,171.796875,4678.8,160,171.796875,4790.4,160,171.796875,4907.7]","[369.1,369.1,1000,0,-630.9,""error"",""-"",""-"",""no_move"",4954.8,4585.5,2133.3,1374.2,1447.3,""oops"",""up"",""left"",""good_move"",8209.7,3254.5,2472.9,4955.2,781.6,""smooth"",""up"",""up"",""good_move"",15010.2,6800,2612.5,11929.5,468.2,""smooth"",""up"",""up"",""good_move"",18495.9,3485.5,2862.8,15010.4,622.7,""oops"",""left"",""up"",""good_move"",21442.4,2946.3,2538.5,18496.1,407.8,""smooth"",""left"",""left"",""good_move"",24320.3,2877.6,2481.2,21442.7,396.4,""oops"",""left"",""left"",""good_move""]","","",""
"3895","","<div style=""width:500px;"">
  <p>What determined the result of this run?</p>
  </div>","72","html-slider-response","69","3193683","0.0-10.0-1.5","146","1","2025-07-09 09:09:38","7701e855f2ef39aa3fd6c71abdc6918a","86.1.241.155","Mozilla/5.0 (Macintosh; Intel Mac OS X 10_15_7) AppleWebKit/537.36 (KHTML, like Gecko) Chrome/138.0.0.0 Safari/537.36","Macintosh","Chrome","138.0.0.0","OS X","10_15_7","https://app.prolific.com/","en-GB,en-US;q=0.9,en;q=0.8","668daa061b4a36bcfd2591c6","686d226cabeef709c732f8e1","686e31108ea821c4d256725e","668daa061b4a36bcfd2591c6","2025-07-09T10:02:52.611Z","","","","","","AttribQ","","","","","","","","","","","","","","","","","","","","","","","","","","","","","","","","","","","","","","50",""
"2312","","<div style=""width:500px;"">
  <p>How much control did you have over the ball?</p>
  </div>","70","html-slider-response","70","3195997","0.0-10.0-2.5","146","1","2025-07-09 09:09:38","7701e855f2ef39aa3fd6c71abdc6918a","86.1.241.155","Mozilla/5.0 (Macintosh; Intel Mac OS X 10_15_7) AppleWebKit/537.36 (KHTML, like Gecko) Chrome/138.0.0.0 Safari/537.36","Macintosh","Chrome","138.0.0.0","OS X","10_15_7","https://app.prolific.com/","en-GB,en-US;q=0.9,en;q=0.8","668daa061b4a36bcfd2591c6","686d226cabeef709c732f8e1","686e31108ea821c4d256725e","668daa061b4a36bcfd2591c6","2025-07-09T10:02:54.925Z","","","","","","ControlQ","","","","","","","","","","","","","","","","","","","","","","","","","","","","","","","","","","","","","","50",""
"1895","","<div style=""width:500px;"">
  <p>How would you describe your current emotional state?</p>
  </div>","50","html-slider-response","71","3197893","0.0-10.0-3.5","146","1","2025-07-09 09:09:38","7701e855f2ef39aa3fd6c71abdc6918a","86.1.241.155","Mozilla/5.0 (Macintosh; Intel Mac OS X 10_15_7) AppleWebKit/537.36 (KHTML, like Gecko) Chrome/138.0.0.0 Safari/537.36","Macintosh","Chrome","138.0.0.0","OS X","10_15_7","https://app.prolific.com/","en-GB,en-US;q=0.9,en;q=0.8","668daa061b4a36bcfd2591c6","686d226cabeef709c732f8e1","686e31108ea821c4d256725e","668daa061b4a36bcfd2591c6","2025-07-09T10:02:56.821Z","","","","","","StressQ","","","","","","","","","","","","","","","","","","","","","","","","","","","","","","","","","","","","","","50",""
"2134","","<div style=""width:500px;"">
  <p>What best describes how you currently feel?</p>
  </div>","41","html-slider-response","72","3200028","0.0-10.0-4.5","146","1","2025-07-09 09:09:38","7701e855f2ef39aa3fd6c71abdc6918a","86.1.241.155","Mozilla/5.0 (Macintosh; Intel Mac OS X 10_15_7) AppleWebKit/537.36 (KHTML, like Gecko) Chrome/138.0.0.0 Safari/537.36","Macintosh","Chrome","138.0.0.0","OS X","10_15_7","https://app.prolific.com/","en-GB,en-US;q=0.9,en;q=0.8","668daa061b4a36bcfd2591c6","686d226cabeef709c732f8e1","686e31108ea821c4d256725e","668daa061b4a36bcfd2591c6","2025-07-09T10:02:58.956Z","","","","","","MotivationQ","","","","","","","","","","","","","","","","","","","","","","","","","","","","","","","","","","","","","","50",""
"","","","","ctl-task-cpt","73","3281182","0.0-10.0-0.6","146","1","2025-07-09 09:09:38","7701e855f2ef39aa3fd6c71abdc6918a","86.1.241.155","Mozilla/5.0 (Macintosh; Intel Mac OS X 10_15_7) AppleWebKit/537.36 (KHTML, like Gecko) Chrome/138.0.0.0 Safari/537.36","Macintosh","Chrome","138.0.0.0","OS X","10_15_7","https://app.prolific.com/","en-GB,en-US;q=0.9,en;q=0.8","668daa061b4a36bcfd2591c6","686d226cabeef709c732f8e1","686e31108ea821c4d256725e","668daa061b4a36bcfd2591c6","2025-07-09T10:04:20.110Z","","","","","","","","","","","","","","","","win-only","1","g1:NE,g2:SW","0.4","7","0","3201006.3","783.6","5792.2","78132.3","1","4","4","6","2","-4","-5","23","28","0.17424242424242425","1449.7","3000","-760","[""down"",""left""]","{""num_key_presses"":19,""num_perfect"":8,""num_errors"":1,""num_randdir"":10,""num_randdir_good_moves"":2,""num_whilered"":0,""num_whileblue"":1,""num_blue"":4,""num_good_moves"":10}","[798,797.796875,0.1,798,797.796875,110.1,798,797.796875,224,798,797.796875,325.2,798,797.796875,430.6,798,797.796875,542.3,798,797.796875,661.2,798,797.796875,762.8,798,797.796875,875.4,738,821.796875,980.8,288,1099.796875,1085.9,194,1205.796875,1189.2,90,1441.796875,1311.3,88,1443.796875,1415.3,88,1443.796875,1531.5,88,1443.796875,1632.4,88,1443.796875,1741.3,88,1443.796875,1847.9,88,1443.796875,1964.5,88,1443.796875,2073.5,88,1443.796875,2176.3,88,1443.796875,2328.9,88,1443.796875,2433.9,88,1443.796875,2550.8,88,1443.796875,2654.3,88,1443.796875,2771.2,88,1443.796875,2878,88,1443.796875,2979,88,1443.796875,3086.2,88,1443.796875,3200,88,1443.796875,3306.5,88,1443.796875,3424.9,88,1443.796875,3534.4,88,1443.796875,3639.8,88,1443.796875,3743.8,88,1443.796875,3858.5,88,1443.796875,3959.8,88,1443.796875,4062.1,88,1443.796875,4167.4,88,1443.796875,4274.7,88,1443.796875,4379.3,88,1443.796875,4495,88,1443.796875,4615.1,88,1443.796875,4715.8,88,1443.796875,4851.8,88,1443.796875,4956.1]","[1471.7,1471.7,1000,0,471.7,""smooth"",""down"",""down"",""good_move"",5766,4294,3920.5,1472,373.5,""while_blue"",""down"",""up"",""bad_move"",9042.8,3276.4,2097,5766.4,1179.4,""smooth"",""left"",""left"",""good_move"",12850.7,3807.6,3161.2,9043.1,646.4,""oops"",""down"",""up"",""bad_move"",19493.1,6642.1,2102.7,16930.3,460.1,""smooth"",""down"",""down"",""good_move"",22419.2,2925.8,2421.3,19493.5,504.5,""oops"",""down"",""right"",""bad_move"",26041.6,3622,3150.5,22419.6,471.5,""oops"",""down"",""up"",""bad_move"",29558.8,3517,3067.5,26041.8,449.5,""oops"",""down"",""up"",""bad_move"",32387.3,2828.4,2340.4,29558.9,488,""oops"",""left"",""down"",""good_move"",35099,2711.4,2257.8,32387.6,453.6,""oops"",""left"",""right"",""bad_move"",41662.6,6563.3,3271.7,37819.7,571.2,""smooth"",""left"",""left"",""good_move"",44396.1,2733.3,2329.3,41663,403.9,""smooth"",""left"",""left"",""good_move"",47211.4,2815.1,2409.2,44396.3,405.9,""smooth"",""left"",""left"",""good_move"",54419.3,7207.7,3273.8,50598,547.5,""oops"",""left"",""left"",""good_move"",57934.4,3515,3034,54419.4,481,""smooth"",""down"",""down"",""good_move"",60530.4,2595.6,2229.3,57934.8,366.3,""oops"",""down"",""right"",""bad_move"",63818.4,3287.8,2822.7,60530.7,465,""oops"",""down"",""right"",""bad_move"",66272.6,2454.1,2089,63818.6,365.1,""smooth"",""down"",""down"",""good_move"",69359.4,3086.5,2779.5,66272.9,307,""oops"",""down"",""up"",""bad_move""]","","",""
"2187","","<div style=""width:500px;"">
  <p>What determined the result of this run?</p>
  </div>","0","html-slider-response","74","3283371","0.0-10.0-1.6","146","1","2025-07-09 09:09:38","7701e855f2ef39aa3fd6c71abdc6918a","86.1.241.155","Mozilla/5.0 (Macintosh; Intel Mac OS X 10_15_7) AppleWebKit/537.36 (KHTML, like Gecko) Chrome/138.0.0.0 Safari/537.36","Macintosh","Chrome","138.0.0.0","OS X","10_15_7","https://app.prolific.com/","en-GB,en-US;q=0.9,en;q=0.8","668daa061b4a36bcfd2591c6","686d226cabeef709c732f8e1","686e31108ea821c4d256725e","668daa061b4a36bcfd2591c6","2025-07-09T10:04:22.299Z","","","","","","AttribQ","","","","","","","","","","","","","","","","","","","","","","","","","","","","","","","","","","","","","","50",""
"1904","","<div style=""width:500px;"">
  <p>How much control did you have over the ball?</p>
  </div>","0","html-slider-response","75","3285277","0.0-10.0-2.6","146","1","2025-07-09 09:09:38","7701e855f2ef39aa3fd6c71abdc6918a","86.1.241.155","Mozilla/5.0 (Macintosh; Intel Mac OS X 10_15_7) AppleWebKit/537.36 (KHTML, like Gecko) Chrome/138.0.0.0 Safari/537.36","Macintosh","Chrome","138.0.0.0","OS X","10_15_7","https://app.prolific.com/","en-GB,en-US;q=0.9,en;q=0.8","668daa061b4a36bcfd2591c6","686d226cabeef709c732f8e1","686e31108ea821c4d256725e","668daa061b4a36bcfd2591c6","2025-07-09T10:04:24.205Z","","","","","","ControlQ","","","","","","","","","","","","","","","","","","","","","","","","","","","","","","","","","","","","","","50",""
"2814","","<div style=""width:500px;"">
  <p>How would you describe your current emotional state?</p>
  </div>","100","html-slider-response","76","3288092","0.0-10.0-3.6","146","1","2025-07-09 09:09:38","7701e855f2ef39aa3fd6c71abdc6918a","86.1.241.155","Mozilla/5.0 (Macintosh; Intel Mac OS X 10_15_7) AppleWebKit/537.36 (KHTML, like Gecko) Chrome/138.0.0.0 Safari/537.36","Macintosh","Chrome","138.0.0.0","OS X","10_15_7","https://app.prolific.com/","en-GB,en-US;q=0.9,en;q=0.8","668daa061b4a36bcfd2591c6","686d226cabeef709c732f8e1","686e31108ea821c4d256725e","668daa061b4a36bcfd2591c6","2025-07-09T10:04:27.020Z","","","","","","StressQ","","","","","","","","","","","","","","","","","","","","","","","","","","","","","","","","","","","","","","50",""
"2452","","<div style=""width:500px;"">
  <p>What best describes how you currently feel?</p>
  </div>","0","html-slider-response","77","3290546","0.0-10.0-4.6","146","1","2025-07-09 09:09:38","7701e855f2ef39aa3fd6c71abdc6918a","86.1.241.155","Mozilla/5.0 (Macintosh; Intel Mac OS X 10_15_7) AppleWebKit/537.36 (KHTML, like Gecko) Chrome/138.0.0.0 Safari/537.36","Macintosh","Chrome","138.0.0.0","OS X","10_15_7","https://app.prolific.com/","en-GB,en-US;q=0.9,en;q=0.8","668daa061b4a36bcfd2591c6","686d226cabeef709c732f8e1","686e31108ea821c4d256725e","668daa061b4a36bcfd2591c6","2025-07-09T10:04:29.474Z","","","","","","MotivationQ","","","","","","","","","","","","","","","","","","","","","","","","","","","","","","","","","","","","","","50",""
"","","","","ctl-task-cpt","78","3373741","0.0-10.0-0.7","146","1","2025-07-09 09:09:38","7701e855f2ef39aa3fd6c71abdc6918a","86.1.241.155","Mozilla/5.0 (Macintosh; Intel Mac OS X 10_15_7) AppleWebKit/537.36 (KHTML, like Gecko) Chrome/138.0.0.0 Safari/537.36","Macintosh","Chrome","138.0.0.0","OS X","10_15_7","https://app.prolific.com/","en-GB,en-US;q=0.9,en;q=0.8","668daa061b4a36bcfd2591c6","686d226cabeef709c732f8e1","686e31108ea821c4d256725e","668daa061b4a36bcfd2591c6","2025-07-09T10:05:52.669Z","","","","","","","","","","","","","","","","win-only","2","g1:SE,g2:NW","0.3","8","0","3291524.7","899.1","5916.9","80165.4","1","4","8","6","2","8","7","30","23","0.22727272727272727","1469.1","3000","70","[""left"",""up""]","{""num_key_presses"":19,""num_perfect"":6,""num_errors"":1,""num_randdir"":12,""num_randdir_good_moves"":6,""num_whilered"":0,""num_whileblue"":0,""num_blue"":5,""num_good_moves"":12}","[812,815.796875,0.1,812,815.796875,100.7,812,815.796875,202,812,815.796875,312.8,812,815.796875,421.3,842,829.796875,535.6,932,901.796875,649.1,934,901.796875,755.4,862,843.796875,857.5,672,263.796875,965,672,263.796875,1082.3,514,255.796875,1203,214,97.796875,1319.5,206,89.796875,1427.8,206,89.796875,1529.6,206,89.796875,1630.9,206,89.796875,1746.9,206,89.796875,1847.1,206,89.796875,1969.8,206,89.796875,2071.8,206,89.796875,2174.5,206,89.796875,2282.9,206,89.796875,2395.6,206,89.796875,2517.4,206,89.796875,2620.2,206,89.796875,2724.5,206,89.796875,2828,206,89.796875,2941.6,206,89.796875,3056.7,206,89.796875,3176.8,206,89.796875,3277.9,206,89.796875,3387.1,206,89.796875,3489.8,206,89.796875,3600.6,206,89.796875,3710,206,89.796875,3832.5,206,89.796875,3935.4,206,89.796875,4042.5,206,89.796875,4145.1,206,89.796875,4264.2,206,89.796875,4378.6,206,89.796875,4495,206,89.796875,4602.5,206,89.796875,4730.5,206,89.796875,4831.4,206,89.796875,4949.8]","[1386.7,1386.7,1000,0,386.7,""oops"",""up"",""right"",""bad_move"",4820.1,3433.1,2853.6,1387.1,579.4,""oops"",""up"",""left"",""good_move"",8791.9,3971.3,3529.1,4820.6,442.2,""smooth"",""left"",""left"",""good_move"",12520.1,3727.9,3335.5,8792.2,392.4,""smooth"",""left"",""left"",""good_move"",15797.2,3276.8,2526.4,12520.4,750.4,""oops"",""left"",""left"",""good_move"",18440.6,2643.2,2147.8,15797.4,495.4,""oops"",""up"",""down"",""bad_move"",20951.6,2510.6,2101.2,18441,409.4,""smooth"",""up"",""up"",""good_move"",23716.6,2764.7,2258.9,20952,505.7,""oops"",""up"",""down"",""bad_move"",26320.9,2603.9,2141.9,23717,462,""oops"",""up"",""up"",""good_move"",29295.9,2975,2631.1,26321,343.9,""oops"",""up"",""right"",""bad_move"",32413.3,3116.9,2719.7,29296.4,397.2,""oops"",""up"",""up"",""good_move"",42579.2,10165.5,2878.8,39276.1,424.3,""smooth"",""up"",""up"",""good_move"",48777.4,6198.1,2183.6,46007.6,586.3,""oops"",""up"",""left"",""good_move"",56711.1,7933.3,2465.4,56295,-2049.3,""error"",""-"",""-"",""no_move"",61088.4,4377,2864.5,57711.8,512.1,""oops"",""up"",""down"",""bad_move"",63957.1,2868.3,2365.3,61088.8,503,""oops"",""up"",""down"",""bad_move"",67198.9,3241.6,2504.2,63957.3,737.4,""smooth"",""up"",""up"",""good_move"",71001.1,3801.5,3333.2,67199.6,468.3,""smooth"",""up"",""up"",""good_move"",73875.4,2874.1,2413.8,71001.3,460.3,""oops"",""up"",""up"",""good_move""]","","",""
"2628","","<div style=""width:500px;"">
  <p>What determined the result of this run?</p>
  </div>","0","html-slider-response","79","3376370","0.0-10.0-1.7","146","1","2025-07-09 09:09:38","7701e855f2ef39aa3fd6c71abdc6918a","86.1.241.155","Mozilla/5.0 (Macintosh; Intel Mac OS X 10_15_7) AppleWebKit/537.36 (KHTML, like Gecko) Chrome/138.0.0.0 Safari/537.36","Macintosh","Chrome","138.0.0.0","OS X","10_15_7","https://app.prolific.com/","en-GB,en-US;q=0.9,en;q=0.8","668daa061b4a36bcfd2591c6","686d226cabeef709c732f8e1","686e31108ea821c4d256725e","668daa061b4a36bcfd2591c6","2025-07-09T10:05:55.298Z","","","","","","AttribQ","","","","","","","","","","","","","","","","","","","","","","","","","","","","","","","","","","","","","","50",""
"2190","","<div style=""width:500px;"">
  <p>How much control did you have over the ball?</p>
  </div>","0","html-slider-response","80","3378561","0.0-10.0-2.7","146","1","2025-07-09 09:09:38","7701e855f2ef39aa3fd6c71abdc6918a","86.1.241.155","Mozilla/5.0 (Macintosh; Intel Mac OS X 10_15_7) AppleWebKit/537.36 (KHTML, like Gecko) Chrome/138.0.0.0 Safari/537.36","Macintosh","Chrome","138.0.0.0","OS X","10_15_7","https://app.prolific.com/","en-GB,en-US;q=0.9,en;q=0.8","668daa061b4a36bcfd2591c6","686d226cabeef709c732f8e1","686e31108ea821c4d256725e","668daa061b4a36bcfd2591c6","2025-07-09T10:05:57.489Z","","","","","","ControlQ","","","","","","","","","","","","","","","","","","","","","","","","","","","","","","","","","","","","","","50",""
"2099","","<div style=""width:500px;"">
  <p>How would you describe your current emotional state?</p>
  </div>","100","html-slider-response","81","3380662","0.0-10.0-3.7","146","1","2025-07-09 09:09:38","7701e855f2ef39aa3fd6c71abdc6918a","86.1.241.155","Mozilla/5.0 (Macintosh; Intel Mac OS X 10_15_7) AppleWebKit/537.36 (KHTML, like Gecko) Chrome/138.0.0.0 Safari/537.36","Macintosh","Chrome","138.0.0.0","OS X","10_15_7","https://app.prolific.com/","en-GB,en-US;q=0.9,en;q=0.8","668daa061b4a36bcfd2591c6","686d226cabeef709c732f8e1","686e31108ea821c4d256725e","668daa061b4a36bcfd2591c6","2025-07-09T10:05:59.590Z","","","","","","StressQ","","","","","","","","","","","","","","","","","","","","","","","","","","","","","","","","","","","","","","50",""
"2187","","<div style=""width:500px;"">
  <p>What best describes how you currently feel?</p>
  </div>","0","html-slider-response","82","3382850","0.0-10.0-4.7","146","1","2025-07-09 09:09:38","7701e855f2ef39aa3fd6c71abdc6918a","86.1.241.155","Mozilla/5.0 (Macintosh; Intel Mac OS X 10_15_7) AppleWebKit/537.36 (KHTML, like Gecko) Chrome/138.0.0.0 Safari/537.36","Macintosh","Chrome","138.0.0.0","OS X","10_15_7","https://app.prolific.com/","en-GB,en-US;q=0.9,en;q=0.8","668daa061b4a36bcfd2591c6","686d226cabeef709c732f8e1","686e31108ea821c4d256725e","668daa061b4a36bcfd2591c6","2025-07-09T10:06:01.778Z","","","","","","MotivationQ","","","","","","","","","","","","","","","","","","","","","","","","","","","","","","","","","","","","","","50",""
"","","","","ctl-task-cpt","83","3421077","0.0-10.0-0.8","146","1","2025-07-09 09:09:38","7701e855f2ef39aa3fd6c71abdc6918a","86.1.241.155","Mozilla/5.0 (Macintosh; Intel Mac OS X 10_15_7) AppleWebKit/537.36 (KHTML, like Gecko) Chrome/138.0.0.0 Safari/537.36","Macintosh","Chrome","138.0.0.0","OS X","10_15_7","https://app.prolific.com/","en-GB,en-US;q=0.9,en;q=0.8","668daa061b4a36bcfd2591c6","686d226cabeef709c732f8e1","686e31108ea821c4d256725e","668daa061b4a36bcfd2591c6","2025-07-09T10:06:40.005Z","","","","","","","","","","","","","","","","win-only","0","g1:NW,g2:SE","0.2","9","0","3383828.9","919.1","5941.1","35210.3","1","4","4","6","2","4","4","34","30","0.25757575757575757","1321.9","3000","1990","[""down"",""right""]","{""num_key_presses"":6,""num_perfect"":0,""num_errors"":0,""num_randdir"":6,""num_randdir_good_moves"":6,""num_whilered"":0,""num_whileblue"":0,""num_blue"":4,""num_good_moves"":6}","[814,813.796875,0.2,814,813.796875,126,814,813.796875,226,814,813.796875,418.7,814,813.796875,536,814,813.796875,658,814,813.796875,761,906,911.796875,864.5,1462,1505.796875,1050.7,1462,1505.796875,1152.3,1452,1479.796875,1261.9,1450,1473.796875,1372.5,1450,1473.796875,1476.1,1450,1473.796875,1578.8,1450,1473.796875,1687.4,1450,1473.796875,1789.7,1450,1473.796875,1893.7,1450,1473.796875,2005.6,1450,1473.796875,2106.3,1450,1473.796875,2208.1,1450,1473.796875,2313.4,1450,1473.796875,2422.7,1450,1473.796875,2529.1,1450,1473.796875,2637.7,1450,1473.796875,2739.4,1450,1473.796875,2900.5,1450,1473.796875,3026.4,1450,1473.796875,3129.5,1450,1473.796875,3229.8,1450,1473.796875,3338.7,1450,1473.796875,3449.2,1450,1473.796875,3554,1450,1473.796875,3671.6,1450,1473.796875,3777.6,1450,1473.796875,3878.7,1450,1473.796875,3987.7,1450,1473.796875,4116.8,1450,1473.796875,4227.2,1450,1473.796875,4331.3,1450,1473.796875,4451.2,1450,1473.796875,4557.7,1450,1473.796875,4660,1450,1473.796875,4764.4,1450,1473.796875,4873.7,1450,1473.796875,4995.3]","[5417.5,5417.5,2912.7,2022.4,482.4,""oops"",""right"",""down"",""good_move"",8383.8,2966,2311.2,5417.8,654.8,""oops"",""right"",""down"",""good_move"",12385,4001,3546.2,8384.1,454.7,""oops"",""right"",""right"",""good_move"",15259.5,2873.9,2340.4,12385.6,533.5,""oops"",""right"",""right"",""good_move"",26991.5,11731.8,1454.1,24955.5,581.9,""oops"",""right"",""right"",""good_move"",29084.2,2092.6,1540.3,26991.7,552.2,""oops"",""down"",""down"",""good_move""]","","",""
"2499","","<div style=""width:500px;"">
  <p>What determined the result of this run?</p>
  </div>","50","html-slider-response","84","3423578","0.0-10.0-1.8","146","1","2025-07-09 09:09:38","7701e855f2ef39aa3fd6c71abdc6918a","86.1.241.155","Mozilla/5.0 (Macintosh; Intel Mac OS X 10_15_7) AppleWebKit/537.36 (KHTML, like Gecko) Chrome/138.0.0.0 Safari/537.36","Macintosh","Chrome","138.0.0.0","OS X","10_15_7","https://app.prolific.com/","en-GB,en-US;q=0.9,en;q=0.8","668daa061b4a36bcfd2591c6","686d226cabeef709c732f8e1","686e31108ea821c4d256725e","668daa061b4a36bcfd2591c6","2025-07-09T10:06:42.506Z","","","","","","AttribQ","","","","","","","","","","","","","","","","","","","","","","","","","","","","","","","","","","","","","","50",""
"2247","","<div style=""width:500px;"">
  <p>How much control did you have over the ball?</p>
  </div>","34","html-slider-response","85","3425826","0.0-10.0-2.8","146","1","2025-07-09 09:09:38","7701e855f2ef39aa3fd6c71abdc6918a","86.1.241.155","Mozilla/5.0 (Macintosh; Intel Mac OS X 10_15_7) AppleWebKit/537.36 (KHTML, like Gecko) Chrome/138.0.0.0 Safari/537.36","Macintosh","Chrome","138.0.0.0","OS X","10_15_7","https://app.prolific.com/","en-GB,en-US;q=0.9,en;q=0.8","668daa061b4a36bcfd2591c6","686d226cabeef709c732f8e1","686e31108ea821c4d256725e","668daa061b4a36bcfd2591c6","2025-07-09T10:06:44.754Z","","","","","","ControlQ","","","","","","","","","","","","","","","","","","","","","","","","","","","","","","","","","","","","","","50",""
"2044","","<div style=""width:500px;"">
  <p>How would you describe your current emotional state?</p>
  </div>","50","html-slider-response","86","3427870","0.0-10.0-3.8","146","1","2025-07-09 09:09:38","7701e855f2ef39aa3fd6c71abdc6918a","86.1.241.155","Mozilla/5.0 (Macintosh; Intel Mac OS X 10_15_7) AppleWebKit/537.36 (KHTML, like Gecko) Chrome/138.0.0.0 Safari/537.36","Macintosh","Chrome","138.0.0.0","OS X","10_15_7","https://app.prolific.com/","en-GB,en-US;q=0.9,en;q=0.8","668daa061b4a36bcfd2591c6","686d226cabeef709c732f8e1","686e31108ea821c4d256725e","668daa061b4a36bcfd2591c6","2025-07-09T10:06:46.798Z","","","","","","StressQ","","","","","","","","","","","","","","","","","","","","","","","","","","","","","","","","","","","","","","50",""
"1982","","<div style=""width:500px;"">
  <p>What best describes how you currently feel?</p>
  </div>","29","html-slider-response","87","3429853","0.0-10.0-4.8","146","1","2025-07-09 09:09:38","7701e855f2ef39aa3fd6c71abdc6918a","86.1.241.155","Mozilla/5.0 (Macintosh; Intel Mac OS X 10_15_7) AppleWebKit/537.36 (KHTML, like Gecko) Chrome/138.0.0.0 Safari/537.36","Macintosh","Chrome","138.0.0.0","OS X","10_15_7","https://app.prolific.com/","en-GB,en-US;q=0.9,en;q=0.8","668daa061b4a36bcfd2591c6","686d226cabeef709c732f8e1","686e31108ea821c4d256725e","668daa061b4a36bcfd2591c6","2025-07-09T10:06:48.781Z","","","","","","MotivationQ","","","","","","","","","","","","","","","","","","","","","","","","","","","","","","","","","","","","","","50",""
"","","","","ctl-task-cpt","88","3517931","0.0-10.0-0.9","146","1","2025-07-09 09:09:38","7701e855f2ef39aa3fd6c71abdc6918a","86.1.241.155","Mozilla/5.0 (Macintosh; Intel Mac OS X 10_15_7) AppleWebKit/537.36 (KHTML, like Gecko) Chrome/138.0.0.0 Safari/537.36","Macintosh","Chrome","138.0.0.0","OS X","10_15_7","https://app.prolific.com/","en-GB,en-US;q=0.9,en;q=0.8","668daa061b4a36bcfd2591c6","686d226cabeef709c732f8e1","686e31108ea821c4d256725e","668daa061b4a36bcfd2591c6","2025-07-09T10:08:16.859Z","","","","","","","","","","","","","","","","win-only","3","g1:SW,g2:NE","0.4","10","0","3430832.5","799","5829.8","85066.9","1","4","8","6","2","8","8","42","34","0.3181818181818182","1236.7","3000","430","[""up"",""right""]","{""num_key_presses"":18,""num_perfect"":8,""num_errors"":0,""num_randdir"":10,""num_randdir_good_moves"":4,""num_whilered"":0,""num_whileblue"":0,""num_blue"":7,""num_good_moves"":12}","[826,825.796875,0.1,826,825.796875,121.3,826,825.796875,242.4,826,825.796875,358.7,822,831.796875,459.8,734,903.796875,561.4,720,761.796875,674.4,1092,29.796875,777.8,1304,9.796875,901.5,1452,121.796875,1026.1,1496,167.796875,1138.1,1496,167.796875,1250.4,1496,167.796875,1365.3,1496,167.796875,1495,1496,167.796875,1615.9,1496,167.796875,1717.6,1496,167.796875,1820.1,1496,167.796875,1928.9,1496,167.796875,2037.4,1496,167.796875,2159.4,1496,167.796875,2289.4,1496,167.796875,2392.9,1496,167.796875,2496.9,1496,167.796875,2605.2,1496,167.796875,2726.4,1496,167.796875,2850.2,1496,167.796875,2956.8,1496,167.796875,3058.6,1496,167.796875,3168.1,1496,167.796875,3277.8,1496,167.796875,3390.1,1496,167.796875,3504.1,1496,167.796875,3606.2,1496,167.796875,3708.1,1496,167.796875,3811.9,1496,167.796875,3920.2,1496,167.796875,4030.6,1496,167.796875,4147.1,1496,167.796875,4249.8,1496,167.796875,4410.8,1496,167.796875,4512.5,1496,167.796875,4625.9,1496,167.796875,4740.7,1496,167.796875,4845,1496,167.796875,4952.4]","[4689.2,4689.2,2158.9,2011.3,519,""oops"",""up"",""down"",""bad_move"",11004,6314.5,2969.5,7585.8,448.7,""smooth"",""right"",""right"",""good_move"",14504.5,3500.1,2991.4,11004.4,508.7,""smooth"",""right"",""right"",""good_move"",18231.7,3727,3202.8,14504.7,524.2,""smooth"",""right"",""right"",""good_move"",28416.9,10185,2197,25817.8,402.1,""oops"",""up"",""down"",""bad_move"",31516.2,3099.1,2216.4,28417.1,882.7,""smooth"",""up"",""up"",""good_move"",34837.8,3321.1,2750.6,31516.7,570.5,""oops"",""up"",""left"",""bad_move"",37938.8,3100.7,2428.9,34838.1,671.8,""oops"",""up"",""right"",""good_move"",40490.1,2551.1,2158.9,37939,392.2,""oops"",""up"",""up"",""good_move"",50137.6,9647.3,2344.3,47269.7,523.6,""oops"",""up"",""down"",""bad_move"",53164.3,3026.3,2453.7,50138,572.6,""oops"",""up"",""up"",""good_move"",56605.8,3441.4,2887.3,53164.5,554.1,""oops"",""up"",""left"",""bad_move"",59968.8,3362.5,2361.8,56606.4,1000.6,""smooth"",""up"",""up"",""good_move"",66618.7,6649.7,2275.2,63819.8,523.7,""smooth"",""up"",""up"",""good_move"",69941.8,3323,2869,66618.8,454,""smooth"",""up"",""up"",""good_move"",73147.1,3205,2806.8,69942.1,398.2,""oops"",""right"",""left"",""bad_move"",76271.9,3124.6,2604.4,73147.4,520.2,""oops"",""right"",""right"",""good_move"",79005.6,2733.4,2303.4,76272.2,430,""smooth"",""right"",""right"",""good_move""]","","",""
"23069","","<div style=""width:500px;"">
  <p>What determined the result of this run?</p>
  </div>","0","html-slider-response","89","3541002","0.0-10.0-1.9","146","1","2025-07-09 09:09:38","7701e855f2ef39aa3fd6c71abdc6918a","86.1.241.155","Mozilla/5.0 (Macintosh; Intel Mac OS X 10_15_7) AppleWebKit/537.36 (KHTML, like Gecko) Chrome/138.0.0.0 Safari/537.36","Macintosh","Chrome","138.0.0.0","OS X","10_15_7","https://app.prolific.com/","en-GB,en-US;q=0.9,en;q=0.8","668daa061b4a36bcfd2591c6","686d226cabeef709c732f8e1","686e31108ea821c4d256725e","668daa061b4a36bcfd2591c6","2025-07-09T10:08:39.930Z","","","","","","AttribQ","","","","","","","","","","","","","","","","","","","","","","","","","","","","","","","","","","","","","","50",""
"2082","","<div style=""width:500px;"">
  <p>How much control did you have over the ball?</p>
  </div>","14","html-slider-response","90","3543085","0.0-10.0-2.9","146","1","2025-07-09 09:09:38","7701e855f2ef39aa3fd6c71abdc6918a","86.1.241.155","Mozilla/5.0 (Macintosh; Intel Mac OS X 10_15_7) AppleWebKit/537.36 (KHTML, like Gecko) Chrome/138.0.0.0 Safari/537.36","Macintosh","Chrome","138.0.0.0","OS X","10_15_7","https://app.prolific.com/","en-GB,en-US;q=0.9,en;q=0.8","668daa061b4a36bcfd2591c6","686d226cabeef709c732f8e1","686e31108ea821c4d256725e","668daa061b4a36bcfd2591c6","2025-07-09T10:08:42.013Z","","","","","","ControlQ","","","","","","","","","","","","","","","","","","","","","","","","","","","","","","","","","","","","","","50",""
"2409","","<div style=""width:500px;"">
  <p>How would you describe your current emotional state?</p>
  </div>","75","html-slider-response","91","3545495","0.0-10.0-3.9","146","1","2025-07-09 09:09:38","7701e855f2ef39aa3fd6c71abdc6918a","86.1.241.155","Mozilla/5.0 (Macintosh; Intel Mac OS X 10_15_7) AppleWebKit/537.36 (KHTML, like Gecko) Chrome/138.0.0.0 Safari/537.36","Macintosh","Chrome","138.0.0.0","OS X","10_15_7","https://app.prolific.com/","en-GB,en-US;q=0.9,en;q=0.8","668daa061b4a36bcfd2591c6","686d226cabeef709c732f8e1","686e31108ea821c4d256725e","668daa061b4a36bcfd2591c6","2025-07-09T10:08:44.423Z","","","","","","StressQ","","","","","","","","","","","","","","","","","","","","","","","","","","","","","","","","","","","","","","50",""
"2329","","<div style=""width:500px;"">
  <p>What best describes how you currently feel?</p>
  </div>","0","html-slider-response","92","3547825","0.0-10.0-4.9","146","1","2025-07-09 09:09:38","7701e855f2ef39aa3fd6c71abdc6918a","86.1.241.155","Mozilla/5.0 (Macintosh; Intel Mac OS X 10_15_7) AppleWebKit/537.36 (KHTML, like Gecko) Chrome/138.0.0.0 Safari/537.36","Macintosh","Chrome","138.0.0.0","OS X","10_15_7","https://app.prolific.com/","en-GB,en-US;q=0.9,en;q=0.8","668daa061b4a36bcfd2591c6","686d226cabeef709c732f8e1","686e31108ea821c4d256725e","668daa061b4a36bcfd2591c6","2025-07-09T10:08:46.753Z","","","","","","MotivationQ","","","","","","","","","","","","","","","","","","","","","","","","","","","","","","","","","","","","","","50",""
"","","","","ctl-task-cpt","93","3585885","0.0-10.0-0.10","146","1","2025-07-09 09:09:38","7701e855f2ef39aa3fd6c71abdc6918a","86.1.241.155","Mozilla/5.0 (Macintosh; Intel Mac OS X 10_15_7) AppleWebKit/537.36 (KHTML, like Gecko) Chrome/138.0.0.0 Safari/537.36","Macintosh","Chrome","138.0.0.0","OS X","10_15_7","https://app.prolific.com/","en-GB,en-US;q=0.9,en;q=0.8","668daa061b4a36bcfd2591c6","686d226cabeef709c732f8e1","686e31108ea821c4d256725e","668daa061b4a36bcfd2591c6","2025-07-09T10:09:24.813Z","","","","","","","","","","","","","","","","win-only","1","g1:NE,g2:SW","0.5","11","0","3548804.8","909","5911.3","35029.2","1","4","4","6","2","4","4","46","42","0.3484848484848485","1268.9","3000","1905","[""down"",""left""]","{""num_key_presses"":8,""num_perfect"":4,""num_errors"":0,""num_randdir"":4,""num_randdir_good_moves"":3,""num_whilered"":0,""num_whileblue"":0,""num_blue"":1,""num_good_moves"":7}","[814,785.796875,0.2,814,785.796875,102.2,814,785.796875,207.2,814,785.796875,332,814,785.796875,433,814,785.796875,534.9,814,785.796875,697.8,814,785.796875,800.6,352,1349.796875,901.2,230,1445.796875,1024.2,230,1445.796875,1131.8,218,1449.796875,1236,212,1451.796875,1339.5,212,1451.796875,1461.1,212,1451.796875,1561.5,212,1451.796875,1662.9,212,1451.796875,1775.4,212,1451.796875,1880.3,212,1451.796875,1985.5,212,1451.796875,2097.5,212,1451.796875,2226.3,212,1451.796875,2328.1,212,1451.796875,2433.3,212,1451.796875,2540.9,212,1451.796875,2658.4,212,1451.796875,2761.7,212,1451.796875,2889.8,212,1451.796875,2996.8,212,1451.796875,3103.5,212,1451.796875,3204.4,212,1451.796875,3310.9,212,1451.796875,3415.9,212,1451.796875,3538.3,212,1451.796875,3644.4,212,1451.796875,3744.7,212,1451.796875,3854.2,212,1451.796875,3980.6,212,1451.796875,4110.5,212,1451.796875,4220.8,212,1451.796875,4325.3,212,1451.796875,4429.1,212,1451.796875,4534.4,212,1451.796875,4663.7,212,1451.796875,4786.4,212,1451.796875,4891.2,212,1451.796875,4993.5]","[2179.8,2179.8,1000,0,1179.8,""oops"",""down"",""left"",""good_move"",5515.7,3335.6,2620.3,2180.1,715.3,""oops"",""down"",""up"",""bad_move"",9060,3543.9,2688.6,5516.1,855.3,""smooth"",""left"",""left"",""good_move"",16480.6,7420.4,2806.4,13270.1,404.1,""smooth"",""down"",""down"",""good_move"",19557.2,3076.3,2643.6,16480.9,432.7,""oops"",""down"",""down"",""good_move"",22451.6,2894.1,2457.4,19557.5,436.7,""smooth"",""down"",""down"",""good_move"",25918.4,3466.5,2989.5,22451.9,477,""smooth"",""down"",""down"",""good_move"",28783.4,2864.6,2475.9,25918.8,388.7,""oops"",""left"",""left"",""good_move""]","","",""
"2713","","<div style=""width:500px;"">
