"rt","response_timestamp","stimulus","response","trial_type","trial_index","time_elapsed","internal_node_id","run_id","condition","recorded_at","source_code_version","ip","user_agent","device","browser","browser_version","platform","platform_version","referer","accept_language","PROLIFIC_PID","STUDY_ID","SESSION_ID","prolific_id","realtime","view_history","question_order","consent","success","question_id","eventType","responses","item_order","radio_event_ids","radio_event_times","key_event_times","mouse_event_times","straightlining","zigzagging","honeypot","which_type","canvas_config","goals_layout","control_level","trial_number","tutorial_trial_number","trial_start_time","phase1_start_time","phase2_start_time","phase3_start_time","goal_1_value","goal_1_distance","goal_2_value","goal_2_distance","goal_selected","outcome","outcome_total","participant_final_score","participant_initial_score","participant_final_score_prop","goal_choice_rt","allocated_time","allocated_time_remaining","goal_direction","counts","mouse_movements","key_presses","correct","slider_start","sub_question"
"2652","1752052368271","<p style='font-size:40px;line-height:1.25'><strong>Welcome to the experiment!</strong></p><p style='font-size:1.1em;line-height:1.25'>Thank you for your interest in our experiment! Before you begin, it is important that we obtain your informed consent to participate in the study.</p><p style='font-size:1.1em;line-height:1.25'>On the next screen will be an <strong>information sheet</strong> for you to read. To participate in the study we need you to read this information sheet and the following consent form carefully. If you agree with all the statements, please click the <strong>I agree</strong> button.</p><p style='font-size:1.1em;line-height:1.25'>Press <strong>Next</strong> to read the information sheet.</p>","0","custom-html-button-response","0","2653","0.0-0.0","177","1","2025-07-09 09:12:44","7701e855f2ef39aa3fd6c71abdc6918a","188.197.254.76","Mozilla/5.0 (Windows NT 10.0; Win64; x64) AppleWebKit/537.36 (KHTML, like Gecko) Chrome/137.0.0.0 Safari/537.36","WebKit","Chrome","137.0.0.0","Windows","10.0","https://app.prolific.com/","en-SI,en;q=0.9,sl-SI;q=0.8,sl;q=0.7,en-GB;q=0.6,en-US;q=0.5","60fd34d68de7efbcd7de57a0","686d226cabeef709c732f8e1","686e313f3039a140379dac4a","60fd34d68de7efbcd7de57a0","2025-07-09T09:12:48.272Z","","","","","","","","","","","","","","","","","","","","","","","","","","","","","","","","","","","","","","","","","","","","",""
"1824","","","","instructions","1","4479","0.0-1.0","177","1","2025-07-09 09:12:44","7701e855f2ef39aa3fd6c71abdc6918a","188.197.254.76","Mozilla/5.0 (Windows NT 10.0; Win64; x64) AppleWebKit/537.36 (KHTML, like Gecko) Chrome/137.0.0.0 Safari/537.36","WebKit","Chrome","137.0.0.0","Windows","10.0","https://app.prolific.com/","en-SI,en;q=0.9,sl-SI;q=0.8,sl;q=0.7,en-GB;q=0.6,en-US;q=0.5","60fd34d68de7efbcd7de57a0","686d226cabeef709c732f8e1","686e313f3039a140379dac4a","60fd34d68de7efbcd7de57a0","","[{""page_index"":0,""viewing_time"":1765},{""page_index"":1,""viewing_time"":59}]","","","","","","","","","","","","","","","","","","","","","","","","","","","","","","","","","","","","","","","","","","","",""
"3862","","","{""Q0"":"""",""Q1"":"""",""Q2"":"""",""Q3"":"""",""Q4"":"""",""Q5"":"""",""Q6"":""I agree""}","survey-multi-choice","2","8343","0.0-2.0","177","1","2025-07-09 09:12:44","7701e855f2ef39aa3fd6c71abdc6918a","188.197.254.76","Mozilla/5.0 (Windows NT 10.0; Win64; x64) AppleWebKit/537.36 (KHTML, like Gecko) Chrome/137.0.0.0 Safari/537.36","WebKit","Chrome","137.0.0.0","Windows","10.0","https://app.prolific.com/","en-SI,en;q=0.9,sl-SI;q=0.8,sl;q=0.7,en-GB;q=0.6,en-US;q=0.5","60fd34d68de7efbcd7de57a0","686d226cabeef709c732f8e1","686e313f3039a140379dac4a","60fd34d68de7efbcd7de57a0","","","[0,1,2,3,4,5,6]","true","","","","","","","","","","","","","","","","","","","","","","","","","","","","","","","","","","","","","","","","","",""
"5207","","","","fullscreen","3","14552","0.0-4.0","177","1","2025-07-09 09:12:44","7701e855f2ef39aa3fd6c71abdc6918a","188.197.254.76","Mozilla/5.0 (Windows NT 10.0; Win64; x64) AppleWebKit/537.36 (KHTML, like Gecko) Chrome/137.0.0.0 Safari/537.36","WebKit","Chrome","137.0.0.0","Windows","10.0","https://app.prolific.com/","en-SI,en;q=0.9,sl-SI;q=0.8,sl;q=0.7,en-GB;q=0.6,en-US;q=0.5","60fd34d68de7efbcd7de57a0","686d226cabeef709c732f8e1","686e313f3039a140379dac4a","60fd34d68de7efbcd7de57a0","","","","","true","","","","","","","","","","","","","","","","","","","","","","","","","","","","","","","","","","","","","","","","",""
"7745","1752052387916"," <p style='font-size:1.1em;line-height:1.25'>Thank you for completing the consent form and closing all other tabs.</p><p style='font-size:1.1em;line-height:1.25'>We will now invite you to fill in some demographic information and questionnaires, before starting the game.<br>This will take about 5 minutes.<br></p><p style='font-size:1.1em;line-height:1.25'>Press the <strong>Next</strong> button to continue.</p>","0","custom-html-button-response","4","22299","0.0-5.0","177","1","2025-07-09 09:12:44","7701e855f2ef39aa3fd6c71abdc6918a","188.197.254.76","Mozilla/5.0 (Windows NT 10.0; Win64; x64) AppleWebKit/537.36 (KHTML, like Gecko) Chrome/137.0.0.0 Safari/537.36","WebKit","Chrome","137.0.0.0","Windows","10.0","https://app.prolific.com/","en-SI,en;q=0.9,sl-SI;q=0.8,sl;q=0.7,en-GB;q=0.6,en-US;q=0.5","60fd34d68de7efbcd7de57a0","686d226cabeef709c732f8e1","686e313f3039a140379dac4a","60fd34d68de7efbcd7de57a0","2025-07-09T09:13:07.917Z","","","","","","","","","","","","","","","","","","","","","","","","","","","","","","","","","","","","","","","","","","","","",""
"4487","","","{""age"":""24""}","survey-text","5","26789","0.0-6.0-0.0","177","1","2025-07-09 09:12:44","7701e855f2ef39aa3fd6c71abdc6918a","188.197.254.76","Mozilla/5.0 (Windows NT 10.0; Win64; x64) AppleWebKit/537.36 (KHTML, like Gecko) Chrome/137.0.0.0 Safari/537.36","WebKit","Chrome","137.0.0.0","Windows","10.0","https://app.prolific.com/","en-SI,en;q=0.9,sl-SI;q=0.8,sl;q=0.7,en-GB;q=0.6,en-US;q=0.5","60fd34d68de7efbcd7de57a0","686d226cabeef709c732f8e1","686e313f3039a140379dac4a","60fd34d68de7efbcd7de57a0","","","","","","0","demographics","","","","","","","","","","","","","","","","","","","","","","","","","","","","","","","","","","","","","","",""
"1739","","","{""gender_identity"":""female/woman""}","survey-multi-choice","6","28529","0.0-6.0-1.0","177","1","2025-07-09 09:12:44","7701e855f2ef39aa3fd6c71abdc6918a","188.197.254.76","Mozilla/5.0 (Windows NT 10.0; Win64; x64) AppleWebKit/537.36 (KHTML, like Gecko) Chrome/137.0.0.0 Safari/537.36","WebKit","Chrome","137.0.0.0","Windows","10.0","https://app.prolific.com/","en-SI,en;q=0.9,sl-SI;q=0.8,sl;q=0.7,en-GB;q=0.6,en-US;q=0.5","60fd34d68de7efbcd7de57a0","686d226cabeef709c732f8e1","686e313f3039a140379dac4a","60fd34d68de7efbcd7de57a0","","","[0]","","","1","demographics","","","","","","","","","","","","","","","","","","","","","","","","","","","","","","","","","","","","","","",""
"1795","","","{""assigned_sex"":""female""}","survey-multi-choice","7","30325","0.0-6.0-2.0","177","1","2025-07-09 09:12:44","7701e855f2ef39aa3fd6c71abdc6918a","188.197.254.76","Mozilla/5.0 (Windows NT 10.0; Win64; x64) AppleWebKit/537.36 (KHTML, like Gecko) Chrome/137.0.0.0 Safari/537.36","WebKit","Chrome","137.0.0.0","Windows","10.0","https://app.prolific.com/","en-SI,en;q=0.9,sl-SI;q=0.8,sl;q=0.7,en-GB;q=0.6,en-US;q=0.5","60fd34d68de7efbcd7de57a0","686d226cabeef709c732f8e1","686e313f3039a140379dac4a","60fd34d68de7efbcd7de57a0","","","[0]","","","2","demographics","","","","","","","","","","","","","","","","","","","","","","","","","","","","","","","","","","","","","","",""
"1784","","","{""menstrual_cycle"":""Yes""}","survey-multi-choice","8","32110","0.0-6.0-3.0","177","1","2025-07-09 09:12:44","7701e855f2ef39aa3fd6c71abdc6918a","188.197.254.76","Mozilla/5.0 (Windows NT 10.0; Win64; x64) AppleWebKit/537.36 (KHTML, like Gecko) Chrome/137.0.0.0 Safari/537.36","WebKit","Chrome","137.0.0.0","Windows","10.0","https://app.prolific.com/","en-SI,en;q=0.9,sl-SI;q=0.8,sl;q=0.7,en-GB;q=0.6,en-US;q=0.5","60fd34d68de7efbcd7de57a0","686d226cabeef709c732f8e1","686e313f3039a140379dac4a","60fd34d68de7efbcd7de57a0","","","[0]","","","4","demographics","","","","","","","","","","","","","","","","","","","","","","","","","","","","","","","","","","","","","","",""
"6852","","","{""education"":""Master's Degree (e.g., MSc)""}","survey-multi-choice","9","38963","0.0-6.0-4.0","177","1","2025-07-09 09:12:44","7701e855f2ef39aa3fd6c71abdc6918a","188.197.254.76","Mozilla/5.0 (Windows NT 10.0; Win64; x64) AppleWebKit/537.36 (KHTML, like Gecko) Chrome/137.0.0.0 Safari/537.36","WebKit","Chrome","137.0.0.0","Windows","10.0","https://app.prolific.com/","en-SI,en;q=0.9,sl-SI;q=0.8,sl;q=0.7,en-GB;q=0.6,en-US;q=0.5","60fd34d68de7efbcd7de57a0","686d226cabeef709c732f8e1","686e313f3039a140379dac4a","60fd34d68de7efbcd7de57a0","","","[0]","","","5","demographics","","","","","","","","","","","","","","","","","","","","","","","","","","","","","","","","","","","","","","",""
"8897","","","{""education"":""A-level/National Diploma/Highers""}","survey-multi-choice","10","47861","0.0-6.0-5.0","177","1","2025-07-09 09:12:44","7701e855f2ef39aa3fd6c71abdc6918a","188.197.254.76","Mozilla/5.0 (Windows NT 10.0; Win64; x64) AppleWebKit/537.36 (KHTML, like Gecko) Chrome/137.0.0.0 Safari/537.36","WebKit","Chrome","137.0.0.0","Windows","10.0","https://app.prolific.com/","en-SI,en;q=0.9,sl-SI;q=0.8,sl;q=0.7,en-GB;q=0.6,en-US;q=0.5","60fd34d68de7efbcd7de57a0","686d226cabeef709c732f8e1","686e313f3039a140379dac4a","60fd34d68de7efbcd7de57a0","2025-07-09T09:13:33.479Z","","[0]","","","6","demographics","","","","","","","","","","","","","","","","","","","","","","","","","","","","","","","","","","","","","","",""
"11092","","","{""mental_health_condition"":""Anxiety"",""mental_health_treatment"":""No"",""psychiatric_medication"":""N/A""}","survey-text","11","58955","0.0-7.0-0.0","177","1","2025-07-09 09:12:44","7701e855f2ef39aa3fd6c71abdc6918a","188.197.254.76","Mozilla/5.0 (Windows NT 10.0; Win64; x64) AppleWebKit/537.36 (KHTML, like Gecko) Chrome/137.0.0.0 Safari/537.36","WebKit","Chrome","137.0.0.0","Windows","10.0","https://app.prolific.com/","en-SI,en;q=0.9,sl-SI;q=0.8,sl;q=0.7,en-GB;q=0.6,en-US;q=0.5","60fd34d68de7efbcd7de57a0","686d226cabeef709c732f8e1","686e313f3039a140379dac4a","60fd34d68de7efbcd7de57a0","2025-07-09T09:13:44.573Z","","","","","1","mental_health","","","","","","","","","","","","","","","","","","","","","","","","","","","","","","","","","","","","","","",""
"6800","","","{""depression_history"":[""Yes""]}","survey-multi-select","12","65756","0.0-7.0-1.0","177","1","2025-07-09 09:12:44","7701e855f2ef39aa3fd6c71abdc6918a","188.197.254.76","Mozilla/5.0 (Windows NT 10.0; Win64; x64) AppleWebKit/537.36 (KHTML, like Gecko) Chrome/137.0.0.0 Safari/537.36","WebKit","Chrome","137.0.0.0","Windows","10.0","https://app.prolific.com/","en-SI,en;q=0.9,sl-SI;q=0.8,sl;q=0.7,en-GB;q=0.6,en-US;q=0.5","60fd34d68de7efbcd7de57a0","686d226cabeef709c732f8e1","686e313f3039a140379dac4a","60fd34d68de7efbcd7de57a0","","","[0]","","","","mental_health","","","","","","","","","","","","","","","","","","","","","","","","","","","","","","","","","","","","","","",""
"6017","","","{""depression_episodes"":""more than 5"",""depression_recent"":""Within the past year""}","survey-multi-choice","13","71774","0.0-7.0-2.0-0.0","177","1","2025-07-09 09:12:44","7701e855f2ef39aa3fd6c71abdc6918a","188.197.254.76","Mozilla/5.0 (Windows NT 10.0; Win64; x64) AppleWebKit/537.36 (KHTML, like Gecko) Chrome/137.0.0.0 Safari/537.36","WebKit","Chrome","137.0.0.0","Windows","10.0","https://app.prolific.com/","en-SI,en;q=0.9,sl-SI;q=0.8,sl;q=0.7,en-GB;q=0.6,en-US;q=0.5","60fd34d68de7efbcd7de57a0","686d226cabeef709c732f8e1","686e313f3039a140379dac4a","60fd34d68de7efbcd7de57a0","2025-07-09T09:13:57.392Z","","[0,1]","","","3","mental_health","","","","","","","","","","","","","","","","","","","","","","","","","","","","","","","","","","","","","","",""
"41547.10000002384","","","","survey-template","14","113324","0.0-7.0-3.0","177","1","2025-07-09 09:12:44","7701e855f2ef39aa3fd6c71abdc6918a","188.197.254.76","Mozilla/5.0 (Windows NT 10.0; Win64; x64) AppleWebKit/537.36 (KHTML, like Gecko) Chrome/137.0.0.0 Safari/537.36","WebKit","Chrome","137.0.0.0","Windows","10.0","https://app.prolific.com/","en-SI,en;q=0.9,sl-SI;q=0.8,sl;q=0.7,en-GB;q=0.6,en-US;q=0.5","60fd34d68de7efbcd7de57a0","686d226cabeef709c732f8e1","686e313f3039a140379dac4a","60fd34d68de7efbcd7de57a0","2025-07-09T09:14:38.942Z","","","","","","ius","{""Q01"":""4"",""Q02"":""3"",""Q03"":""3"",""Q04"":""3"",""Q05"":""3"",""Q06"":""2"",""Q07"":""2"",""Q08"":""0"",""Q09"":""3"",""Q10"":""3"",""Q11"":""3"",""Q12"":""3"",""Q13"":""3""}","[0,1,2,3,4,5,6,7,8,9,10,11,12]","[""Q02"",""Q01"",""Q01"",""Q03"",""Q04"",""Q05"",""Q06"",""Q07"",""Q07"",""Q08"",""Q09"",""Q10"",""Q11"",""Q12"",""Q13""]","[4699.800000011921,5289.100000023842,7350.5,8782.899999976158,10539.199999988079,11428.300000011921,17370.80000001192,21047,21266.100000023842,22058.30000001192,30449,34303,36535.10000002384,39677,40906]","[]","[2504,3178.699999988079,3891.199999988079,4699.800000011921,5289.100000023842,7350.5,8532.800000011921,8782.899999976158,10539.199999988079,11428.300000011921,12829.199999988079,13097.800000011921,15522.100000023842,16196.899999976158,17370.80000001192,19944.100000023842,21047,21266.100000023842,22058.30000001192,30032.80000001192,30449,34303,35607.10000002384,36535.10000002384,37577.89999997616,39296.19999998808,39355.10000002384,39677,40906,41544.10000002384]","0.6923076923076923","0.16666666666666666","0","","","","","","","","","","","","","","","","","","","","","","","","","","","","","",""
"1222","1752052480165","<p style='font-size:1.1em;line-height:1.25'>In the following, we will ask you a few questions relating to your experiences over the past month.<br></p><p style='font-size:1.1em;line-height:1.25'>Press the <strong>Next</strong> button to continue.</p>","0","custom-html-button-response","15","114548","0.0-7.0-4.0","177","1","2025-07-09 09:12:44","7701e855f2ef39aa3fd6c71abdc6918a","188.197.254.76","Mozilla/5.0 (Windows NT 10.0; Win64; x64) AppleWebKit/537.36 (KHTML, like Gecko) Chrome/137.0.0.0 Safari/537.36","WebKit","Chrome","137.0.0.0","Windows","10.0","https://app.prolific.com/","en-SI,en;q=0.9,sl-SI;q=0.8,sl;q=0.7,en-GB;q=0.6,en-US;q=0.5","60fd34d68de7efbcd7de57a0","686d226cabeef709c732f8e1","686e313f3039a140379dac4a","60fd34d68de7efbcd7de57a0","2025-07-09T09:14:40.166Z","","","","","","","","","","","","","","","","","","","","","","","","","","","","","","","","","","","","","","","","","","","","",""
"43704","","","","survey-template","16","158253","0.0-7.0-5.0","177","1","2025-07-09 09:12:44","7701e855f2ef39aa3fd6c71abdc6918a","188.197.254.76","Mozilla/5.0 (Windows NT 10.0; Win64; x64) AppleWebKit/537.36 (KHTML, like Gecko) Chrome/137.0.0.0 Safari/537.36","WebKit","Chrome","137.0.0.0","Windows","10.0","https://app.prolific.com/","en-SI,en;q=0.9,sl-SI;q=0.8,sl;q=0.7,en-GB;q=0.6,en-US;q=0.5","60fd34d68de7efbcd7de57a0","686d226cabeef709c732f8e1","686e313f3039a140379dac4a","60fd34d68de7efbcd7de57a0","2025-07-09T09:15:23.871Z","","","","","","pss","{""Q01"":""2"",""Q02"":""2"",""Q03"":""3"",""Q04"":""2"",""Q05"":""2"",""Q06"":""3"",""Q07"":""3"",""Q08"":""2"",""Q09"":""2"",""Q10"":""2""}","[0,1,2,3,4,5,6,7,8,9]","[""Q01"",""Q01"",""Q03"",""Q04"",""Q05"",""Q06"",""Q06"",""Q07"",""Q08"",""Q08"",""Q09"",""Q09"",""Q10"",""Q10"",""Q10"",""Q02"",""Q02""]","[3173.600000023842,4504.899999976158,6881.600000023842,15467.899999976158,18076.30000001192,21488.80000001192,21555.19999998808,26301.30000001192,28932.30000001192,29843.899999976158,33246.19999998808,33410,35210.10000002384,35401.89999997616,35581,41670,41918.10000002384]","[]","[0,3111.399999976158,3173.600000023842,4237.5,4504.899999976158,5161.5,6541.899999976158,6639.399999976158,6881.600000023842,6948.399999976158,7388.300000011921,7453.5,7637.399999976158,7814.399999976158,7988.300000011921,15467.899999976158,17660.19999998808,18076.30000001192,20790.899999976158,21488.80000001192,21555.19999998808,23902.19999998808,23975.100000023842,24581.100000023842,26301.30000001192,27372.399999976158,28688.899999976158,28932.30000001192,29006.19999998808,29580.69999998808,29843.899999976158,31268.19999998808,31947.5,32238.69999998808,32733.600000023842,33008.80000001192,33246.19999998808,33410,35003.39999997616,35210.10000002384,35401.89999997616,35581,38060.80000001192,39905,40793.19999998808,41109.89999997616,41670,41918.10000002384,43701.19999998808]","0.7","0.4444444444444444","0","","","","","","","","","","","","","","","","","","","","","","","","","","","","","",""
"2319","1752052526191","<p style='font-size:1.1em;line-height:1.25'>Thank you for your answers! Now we will ask you a few more questions relating to your feelings in the last 24 hours.<br></p><p style='font-size:1.1em;line-height:1.25'>Press the <strong>Next</strong> button to continue.</p>","0","custom-html-button-response","17","160574","0.0-7.0-6.0","177","1","2025-07-09 09:12:44","7701e855f2ef39aa3fd6c71abdc6918a","188.197.254.76","Mozilla/5.0 (Windows NT 10.0; Win64; x64) AppleWebKit/537.36 (KHTML, like Gecko) Chrome/137.0.0.0 Safari/537.36","WebKit","Chrome","137.0.0.0","Windows","10.0","https://app.prolific.com/","en-SI,en;q=0.9,sl-SI;q=0.8,sl;q=0.7,en-GB;q=0.6,en-US;q=0.5","60fd34d68de7efbcd7de57a0","686d226cabeef709c732f8e1","686e313f3039a140379dac4a","60fd34d68de7efbcd7de57a0","2025-07-09T09:15:26.192Z","","","","","","","","","","","","","","","","","","","","","","","","","","","","","","","","","","","","","","","","","","","","",""
"70572.69999998808","","","","survey-template","18","231149","0.0-7.0-7.0","177","1","2025-07-09 09:12:44","7701e855f2ef39aa3fd6c71abdc6918a","188.197.254.76","Mozilla/5.0 (Windows NT 10.0; Win64; x64) AppleWebKit/537.36 (KHTML, like Gecko) Chrome/137.0.0.0 Safari/537.36","WebKit","Chrome","137.0.0.0","Windows","10.0","https://app.prolific.com/","en-SI,en;q=0.9,sl-SI;q=0.8,sl;q=0.7,en-GB;q=0.6,en-US;q=0.5","60fd34d68de7efbcd7de57a0","686d226cabeef709c732f8e1","686e313f3039a140379dac4a","60fd34d68de7efbcd7de57a0","2025-07-09T09:16:36.767Z","","","","","","drsp","{""Q01"":""2"",""Q02"":""1"",""Q03"":""1"",""Q04"":""3"",""Q05"":""2"",""Q06"":""2"",""Q07"":""2"",""Q08"":""1"",""Q09"":""2"",""Q10"":""3"",""Q11"":""3"",""Q12"":""0"",""Q13"":""1"",""Q14"":""3"",""Q15"":""3"",""Q16"":""2"",""Q17"":""2"",""Q18"":""3"",""Q19"":""2"",""Q20"":""2"",""Q21"":""2""}","[0,1,2,3,4,5,6,7,8,9,10,11,12,13,14,15,16,17,18,19,20]","[""Q01"",""Q02"",""Q02"",""Q02"",""Q02"",""Q03"",""Q04"",""Q03"",""Q05"",""Q06"",""Q07"",""Q08"",""Q08"",""Q08"",""Q08"",""Q08"",""Q09"",""Q09"",""Q10"",""Q10"",""Q11"",""Q12"",""Q13"",""Q13"",""Q14"",""Q14"",""Q15"",""Q15"",""Q16"",""Q16"",""Q17"",""Q18"",""Q19"",""Q20"",""Q20"",""Q21""]","[2357,3672.199999988079,3811.599999964237,3896.5,4071.300000011921,5708.099999964237,7593.300000011921,8056.199999988079,9601.800000011921,12564,14458.399999976158,16273,16473.099999964237,18730.30000001192,19830.399999976158,19999.599999964237,22261.099999964237,22365.19999998808,24022.19999998808,24650.80000001192,26604.399999976158,29638.19999998808,31134.399999976158,31299.899999976158,32424.19999998808,32873.19999998808,35325.89999997616,35644.09999996424,37292,37517,39525.80000001192,41199.39999997616,46179.39999997616,48418.09999996424,48709,50981.09999996424]","[]","[0,1900.800000011921,2357,3672.199999988079,3811.599999964237,3896.5,4071.300000011921,5708.099999964237,6739.399999976158,7593.300000011921,8056.199999988079,9601.800000011921,12564,14458.399999976158,16020.5,16273,16473.099999964237,18730.30000001192,19354.399999976158,19542,19830.399999976158,19999.599999964237,20447.599999964237,20763.5,21057.899999976158,21134.399999976158,21492.30000001192,21693.19999998808,21941.399999976158,22261.099999964237,22365.19999998808,24022.19999998808,24650.80000001192,26270.5,26604.399999976158,28381,29244.399999976158,29638.19999998808,30815.399999976158,31134.399999976158,31299.899999976158,31841.899999976158,32424.19999998808,32873.19999998808,35068.30000001192,35325.89999997616,35644.09999996424,37292,37517,39061.19999998808,39355.69999998808,39525.80000001192,40130.19999998808,41199.39999997616,44330.19999998808,46179.39999997616,47902.09999996424,48418.09999996424,48709,49170.59999996424,49419.59999996424,49614.5,49787.39999997616,50055.59999996424,50981.09999996424,70568]","0.47619047619047616","0.45","0","","","","","","","","","","","","","","","","","","","","","","","","","","","","","",""
"14984.199999988079","","","","survey-template","19","246135","0.0-7.0-8.0","177","1","2025-07-09 09:12:44","7701e855f2ef39aa3fd6c71abdc6918a","188.197.254.76","Mozilla/5.0 (Windows NT 10.0; Win64; x64) AppleWebKit/537.36 (KHTML, like Gecko) Chrome/137.0.0.0 Safari/537.36","WebKit","Chrome","137.0.0.0","Windows","10.0","https://app.prolific.com/","en-SI,en;q=0.9,sl-SI;q=0.8,sl;q=0.7,en-GB;q=0.6,en-US;q=0.5","60fd34d68de7efbcd7de57a0","686d226cabeef709c732f8e1","686e313f3039a140379dac4a","60fd34d68de7efbcd7de57a0","2025-07-09T09:16:51.753Z","","","","","","stress","{""Q01"":""2"",""Q02"":""4"",""Q03"":""2""}","[0,1,2]","[""Q01"",""Q02"",""Q02"",""Q03"",""Q03"",""Q03""]","[3044.199999988079,3501.899999976158,4620.699999988079,7410.399999976158,7813.199999988079,13241.199999988079]","[]","[2196.099999964237,2566.899999976158,3044.199999988079,3501.899999976158,4620.699999988079,6822.099999964237,7410.399999976158,7813.199999988079,12996.800000011921,13241.199999988079,14983.300000011921]","0.6666666666666666","1","0","","","","","","","","","","","","","","","","","","","","","","","","","","","","","",""
"71453","","","","instructions","20","317589","0.0-8.0-0.0","177","1","2025-07-09 09:12:44","7701e855f2ef39aa3fd6c71abdc6918a","188.197.254.76","Mozilla/5.0 (Windows NT 10.0; Win64; x64) AppleWebKit/537.36 (KHTML, like Gecko) Chrome/137.0.0.0 Safari/537.36","WebKit","Chrome","137.0.0.0","Windows","10.0","https://app.prolific.com/","en-SI,en;q=0.9,sl-SI;q=0.8,sl;q=0.7,en-GB;q=0.6,en-US;q=0.5","60fd34d68de7efbcd7de57a0","686d226cabeef709c732f8e1","686e313f3039a140379dac4a","60fd34d68de7efbcd7de57a0","","[{""page_index"":0,""viewing_time"":28994},{""page_index"":1,""viewing_time"":15968},{""page_index"":2,""viewing_time"":10471},{""page_index"":3,""viewing_time"":16020}]","","","","","","","","","","","","","","","","","","","","","","","","","","","","","","","","","","","","","","","","","","","",""
"","","","","ctl-task-cpt","21","355054","0.0-8.0-1.0","177","1","2025-07-09 09:12:44","7701e855f2ef39aa3fd6c71abdc6918a","188.197.254.76","Mozilla/5.0 (Windows NT 10.0; Win64; x64) AppleWebKit/537.36 (KHTML, like Gecko) Chrome/137.0.0.0 Safari/537.36","WebKit","Chrome","137.0.0.0","Windows","10.0","https://app.prolific.com/","en-SI,en;q=0.9,sl-SI;q=0.8,sl;q=0.7,en-GB;q=0.6,en-US;q=0.5","60fd34d68de7efbcd7de57a0","686d226cabeef709c732f8e1","686e313f3039a140379dac4a","60fd34d68de7efbcd7de57a0","","","","","","","","","","","","","","","","","win-only","2","g1:SE,g2:NW","1","0","1","320607.5","3223.6","7227","34459.7","2","4","4","6","2","4","2","2","0","0.015151515151515152","4003.3","4000","1675","[""left"",""up""]","{""num_key_presses"":8,""num_perfect"":6,""num_errors"":2,""num_randdir"":0,""num_randdir_good_moves"":0,""num_whilered"":0,""num_whileblue"":0,""num_blue"":2,""num_good_moves"":6}","[351.9642857142857,347.21428666796004,0.3,351.9642857142857,347.21428666796004,104.7,351.9642857142857,347.21428666796004,207.7,351.9642857142857,347.21428666796004,308.3,351.9642857142857,347.21428666796004,411.9,336.9642857142857,333.46428666796004,512.7,308.2142857142857,295.96428666796004,612.8,308.2142857142857,295.96428666796004,713.5,308.2142857142857,295.96428666796004,816.9,308.2142857142857,295.96428666796004,917,308.2142857142857,295.96428666796004,1017.1,308.2142857142857,295.96428666796004,1117.1,308.2142857142857,295.96428666796004,1223.1,308.2142857142857,295.96428666796004,1323.2,308.2142857142857,295.96428666796004,1427.6,308.2142857142857,295.96428666796004,1532.5,308.2142857142857,295.96428666796004,1632.8,308.2142857142857,295.96428666796004,1737.6,308.2142857142857,295.96428666796004,1837.9,308.2142857142857,295.96428666796004,1938,308.2142857142857,295.96428666796004,2042.3,308.2142857142857,295.96428666796004,2143.1,308.2142857142857,295.96428666796004,2243.2,308.2142857142857,295.96428666796004,2347.2,308.2142857142857,295.96428666796004,2447.6,308.2142857142857,295.96428666796004,2553.3,308.2142857142857,295.96428666796004,2657.9,308.2142857142857,295.96428666796004,2762.7,308.2142857142857,295.96428666796004,2862.7,308.2142857142857,295.96428666796004,2962.8,308.2142857142857,295.96428666796004,3062.9,308.2142857142857,295.96428666796004,3167.3,308.2142857142857,295.96428666796004,3273.2,308.2142857142857,295.96428666796004,3377.1,308.2142857142857,295.96428666796004,3477.3,308.2142857142857,295.96428666796004,3578.1,308.2142857142857,295.96428666796004,3681.8,308.2142857142857,295.96428666796004,3781.8,308.2142857142857,295.96428666796004,3881.9,308.2142857142857,295.96428666796004,3988.3]","[14.7,14.7,1000,0,-985.3,""error"",""-"",""-"",""no_move"",7536,7521.2,2762.2,4399.6,374.2,""smooth"",""left"",""left"",""good_move"",7742.5,205.5,2712.1,7537,-2506.6,""error"",""-"",""-"",""no_move"",11658.5,3915.9,2509.5,8745.3,403.7,""smooth"",""left"",""left"",""good_move"",18396.1,6737.3,2833.5,15209.4,353.2,""smooth"",""left"",""left"",""good_move"",21687.9,3291.7,2710.7,18396.2,581,""smooth"",""up"",""up"",""good_move"",24526.6,2838.3,2466.2,21688.3,372.1,""smooth"",""up"",""up"",""good_move"",27136.1,2609.3,2184.1,24526.8,425.2,""smooth"",""up"",""up"",""good_move""]","","",""
"6986","","","","instructions","22","362040","0.0-8.0-2.0","177","1","2025-07-09 09:12:44","7701e855f2ef39aa3fd6c71abdc6918a","188.197.254.76","Mozilla/5.0 (Windows NT 10.0; Win64; x64) AppleWebKit/537.36 (KHTML, like Gecko) Chrome/137.0.0.0 Safari/537.36","WebKit","Chrome","137.0.0.0","Windows","10.0","https://app.prolific.com/","en-SI,en;q=0.9,sl-SI;q=0.8,sl;q=0.7,en-GB;q=0.6,en-US;q=0.5","60fd34d68de7efbcd7de57a0","686d226cabeef709c732f8e1","686e313f3039a140379dac4a","60fd34d68de7efbcd7de57a0","","[{""page_index"":0,""viewing_time"":6986}]","","","","","","","","","","","","","","","","","","","","","","","","","","","","","","","","","","","","","","","","","","","",""
"","","","","ctl-task-cpt","23","407069","0.0-8.0-3.0","177","1","2025-07-09 09:12:44","7701e855f2ef39aa3fd6c71abdc6918a","188.197.254.76","Mozilla/5.0 (Windows NT 10.0; Win64; x64) AppleWebKit/537.36 (KHTML, like Gecko) Chrome/137.0.0.0 Safari/537.36","WebKit","Chrome","137.0.0.0","Windows","10.0","https://app.prolific.com/","en-SI,en;q=0.9,sl-SI;q=0.8,sl;q=0.7,en-GB;q=0.6,en-US;q=0.5","60fd34d68de7efbcd7de57a0","686d226cabeef709c732f8e1","686e313f3039a140379dac4a","60fd34d68de7efbcd7de57a0","","","","","","","","","","","","","","","","","win-only","2","g1:SE,g2:NW","0.35","0","3","365057.2","1045.2","5047.1","42023.5","2","4","8","6","2","-8","-8","0","0","0","1745.6","4000","-2695","[""left"",""up""]","{""num_key_presses"":11,""num_perfect"":5,""num_errors"":0,""num_randdir"":6,""num_randdir_good_moves"":2,""num_whilered"":0,""num_whileblue"":0,""num_blue"":1,""num_good_moves"":7}","[354.4642857142857,344.71428666796004,0.2,354.4642857142857,344.71428666796004,100.7,354.4642857142857,344.71428666796004,201,354.4642857142857,344.71428666796004,301,371.9642857142857,370.96428666796004,401.3,505.7142857142857,533.46428666796,506.2,566.9642857142857,574.71428666796,606.3,611.9642857142857,612.21428666796,706.3,615.7142857142857,630.96428666796,806.5,629.4642857142857,637.21428666796,913.6,629.4642857142857,637.21428666796,1014.1,629.4642857142857,637.21428666796,1115.9,60.714285714285715,72.21428666796004,1216,76.96428571428572,37.21428666796003,1316.2,120.71428571428572,37.21428666796003,1421.5,91.96428571428572,39.71428666796003,1530,65.71428571428572,44.71428666796003,1630.1,58.214285714285715,47.21428666796003,1730.4,58.214285714285715,47.21428666796003,1830.4,58.214285714285715,47.21428666796003,1937.9,58.214285714285715,47.21428666796003,2045.9,58.214285714285715,47.21428666796003,2146,58.214285714285715,47.21428666796003,2251.4,58.214285714285715,47.21428666796003,2365.2,58.214285714285715,47.21428666796003,2466.1,58.214285714285715,47.21428666796003,2566.4,58.214285714285715,47.21428666796003,2671.2,58.214285714285715,47.21428666796003,2778.7,58.214285714285715,47.21428666796003,2881.1,58.214285714285715,47.21428666796003,2985.2,58.214285714285715,47.21428666796003,3086.6,58.214285714285715,47.21428666796003,3195.1,58.214285714285715,47.21428666796003,3301.1,58.214285714285715,47.21428666796003,3401.8,58.214285714285715,47.21428666796003,3505.9,58.214285714285715,47.21428666796003,3606.1,58.214285714285715,47.21428666796003,3706.5,58.214285714285715,47.21428666796003,3811.3,58.214285714285715,47.21428666796003,3911.4]","[1480.7,1480.8,1000,0,480.8,""oops"",""left"",""right"",""bad_move"",3876.7,2395.6,1953.8,1481.1,441.8,""oops"",""left"",""left"",""good_move"",6242.1,2365.1,1918.9,3877,446.2,""oops"",""left"",""down"",""bad_move"",8808.6,2566.2,2247.3,6242.4,318.9,""smooth"",""left"",""left"",""good_move"",12154.4,3345.5,2973.8,8808.9,371.7,""smooth"",""up"",""up"",""good_move"",15352.5,3197.9,2858.9,12154.6,339,""oops"",""left"",""right"",""bad_move"",18168.4,2815.6,2437.4,15352.8,378.2,""oops"",""up"",""down"",""bad_move"",24316.1,6147.6,2291.5,21568.6,456,""smooth"",""left"",""left"",""good_move"",27463.3,3147,2794.7,24316.3,352.3,""oops"",""left"",""up"",""good_move"",30546.9,3083.3,2707.3,27463.6,376,""smooth"",""left"",""left"",""good_move"",33916.9,3369.9,3029.7,30547,340.2,""smooth"",""up"",""up"",""good_move""]","","",""
"25856","","","","instructions","24","432925","0.0-8.0-4.0","177","1","2025-07-09 09:12:44","7701e855f2ef39aa3fd6c71abdc6918a","188.197.254.76","Mozilla/5.0 (Windows NT 10.0; Win64; x64) AppleWebKit/537.36 (KHTML, like Gecko) Chrome/137.0.0.0 Safari/537.36","WebKit","Chrome","137.0.0.0","Windows","10.0","https://app.prolific.com/","en-SI,en;q=0.9,sl-SI;q=0.8,sl;q=0.7,en-GB;q=0.6,en-US;q=0.5","60fd34d68de7efbcd7de57a0","686d226cabeef709c732f8e1","686e313f3039a140379dac4a","60fd34d68de7efbcd7de57a0","","[{""page_index"":0,""viewing_time"":6561},{""page_index"":1,""viewing_time"":19295}]","","","","","","","","","","","","","","","","","","","","","","","","","","","","","","","","","","","","","","","","","","","",""
"8149","","","{""green_ball"":[""Ball sometimes shakes and moves in a random direction""]}","survey-multi-select","25","441076","0.0-8.0-5.0-0.0","177","1","2025-07-09 09:12:44","7701e855f2ef39aa3fd6c71abdc6918a","188.197.254.76","Mozilla/5.0 (Windows NT 10.0; Win64; x64) AppleWebKit/537.36 (KHTML, like Gecko) Chrome/137.0.0.0 Safari/537.36","WebKit","Chrome","137.0.0.0","Windows","10.0","https://app.prolific.com/","en-SI,en;q=0.9,sl-SI;q=0.8,sl;q=0.7,en-GB;q=0.6,en-US;q=0.5","60fd34d68de7efbcd7de57a0","686d226cabeef709c732f8e1","686e313f3039a140379dac4a","60fd34d68de7efbcd7de57a0","","","[0]","","","","quiz","","","","","","","","","","","","","","","","","","","","","","","","","","","","","","","","","","","","","true","",""
"1337","","<p align='center'><b>CORRECT!</b> Indeed, the green ball may sometimes shake and move in a random direction.</p>","0","html-button-response","26","442413","0.0-8.0-5.0-1.0","177","1","2025-07-09 09:12:44","7701e855f2ef39aa3fd6c71abdc6918a","188.197.254.76","Mozilla/5.0 (Windows NT 10.0; Win64; x64) AppleWebKit/537.36 (KHTML, like Gecko) Chrome/137.0.0.0 Safari/537.36","WebKit","Chrome","137.0.0.0","Windows","10.0","https://app.prolific.com/","en-SI,en;q=0.9,sl-SI;q=0.8,sl;q=0.7,en-GB;q=0.6,en-US;q=0.5","60fd34d68de7efbcd7de57a0","686d226cabeef709c732f8e1","686e313f3039a140379dac4a","60fd34d68de7efbcd7de57a0","","","","","","","","","","","","","","","","","","","","","","","","","","","","","","","","","","","","","","","","","","","","","",""
"8863","","","{""yellow_ball"":[""Ball doesn‘t move and I get -1 penalty point""]}","survey-multi-select","27","451278","0.0-8.0-6.0-0.0","177","1","2025-07-09 09:12:44","7701e855f2ef39aa3fd6c71abdc6918a","188.197.254.76","Mozilla/5.0 (Windows NT 10.0; Win64; x64) AppleWebKit/537.36 (KHTML, like Gecko) Chrome/137.0.0.0 Safari/537.36","WebKit","Chrome","137.0.0.0","Windows","10.0","https://app.prolific.com/","en-SI,en;q=0.9,sl-SI;q=0.8,sl;q=0.7,en-GB;q=0.6,en-US;q=0.5","60fd34d68de7efbcd7de57a0","686d226cabeef709c732f8e1","686e313f3039a140379dac4a","60fd34d68de7efbcd7de57a0","","","[0]","","","","quiz","","","","","","","","","","","","","","","","","","","","","","","","","","","","","","","","","","","","","true","",""
"1325","","<p align='center'><b>CORRECT!</b> Indeed, the yellow ball never moves and you receive a penalty.</p>","0","html-button-response","28","452604","0.0-8.0-6.0-1.0","177","1","2025-07-09 09:12:44","7701e855f2ef39aa3fd6c71abdc6918a","188.197.254.76","Mozilla/5.0 (Windows NT 10.0; Win64; x64) AppleWebKit/537.36 (KHTML, like Gecko) Chrome/137.0.0.0 Safari/537.36","WebKit","Chrome","137.0.0.0","Windows","10.0","https://app.prolific.com/","en-SI,en;q=0.9,sl-SI;q=0.8,sl;q=0.7,en-GB;q=0.6,en-US;q=0.5","60fd34d68de7efbcd7de57a0","686d226cabeef709c732f8e1","686e313f3039a140379dac4a","60fd34d68de7efbcd7de57a0","","","","","","","","","","","","","","","","","","","","","","","","","","","","","","","","","","","","","","","","","","","","","",""
"10363","","","{""blue_ball"":[""Ball always shakes and moves in a random direction""]}","survey-multi-select","29","462969","0.0-8.0-7.0-0.0","177","1","2025-07-09 09:12:44","7701e855f2ef39aa3fd6c71abdc6918a","188.197.254.76","Mozilla/5.0 (Windows NT 10.0; Win64; x64) AppleWebKit/537.36 (KHTML, like Gecko) Chrome/137.0.0.0 Safari/537.36","WebKit","Chrome","137.0.0.0","Windows","10.0","https://app.prolific.com/","en-SI,en;q=0.9,sl-SI;q=0.8,sl;q=0.7,en-GB;q=0.6,en-US;q=0.5","60fd34d68de7efbcd7de57a0","686d226cabeef709c732f8e1","686e313f3039a140379dac4a","60fd34d68de7efbcd7de57a0","","","[0]","","","","quiz","","","","","","","","","","","","","","","","","","","","","","","","","","","","","","","","","","","","","true","",""
"1549","","<p align='center'><b>CORRECT!</b> Indeed, the blue ball always shakes and moves in a random direction. Also there is a penalty of -1 point.</p>","0","html-button-response","30","464519","0.0-8.0-7.0-1.0","177","1","2025-07-09 09:12:44","7701e855f2ef39aa3fd6c71abdc6918a","188.197.254.76","Mozilla/5.0 (Windows NT 10.0; Win64; x64) AppleWebKit/537.36 (KHTML, like Gecko) Chrome/137.0.0.0 Safari/537.36","WebKit","Chrome","137.0.0.0","Windows","10.0","https://app.prolific.com/","en-SI,en;q=0.9,sl-SI;q=0.8,sl;q=0.7,en-GB;q=0.6,en-US;q=0.5","60fd34d68de7efbcd7de57a0","686d226cabeef709c732f8e1","686e313f3039a140379dac4a","60fd34d68de7efbcd7de57a0","","","","","","","","","","","","","","","","","","","","","","","","","","","","","","","","","","","","","","","","","","","","","",""
"3173","","","{""bonus"":[""When I reach 50% of points""]}","survey-multi-select","31","467693","0.0-8.0-8.0-0.0","177","1","2025-07-09 09:12:44","7701e855f2ef39aa3fd6c71abdc6918a","188.197.254.76","Mozilla/5.0 (Windows NT 10.0; Win64; x64) AppleWebKit/537.36 (KHTML, like Gecko) Chrome/137.0.0.0 Safari/537.36","WebKit","Chrome","137.0.0.0","Windows","10.0","https://app.prolific.com/","en-SI,en;q=0.9,sl-SI;q=0.8,sl;q=0.7,en-GB;q=0.6,en-US;q=0.5","60fd34d68de7efbcd7de57a0","686d226cabeef709c732f8e1","686e313f3039a140379dac4a","60fd34d68de7efbcd7de57a0","","","[0]","","","","quiz","","","","","","","","","","","","","","","","","","","","","","","","","","","","","","","","","","","","","true","",""
"880","","<p align='center'><b>CORRECT!</b> Indeed, you receive 2 pounds extra when you reach 50% of points.</p>","0","html-button-response","32","468574","0.0-8.0-8.0-1.0","177","1","2025-07-09 09:12:44","7701e855f2ef39aa3fd6c71abdc6918a","188.197.254.76","Mozilla/5.0 (Windows NT 10.0; Win64; x64) AppleWebKit/537.36 (KHTML, like Gecko) Chrome/137.0.0.0 Safari/537.36","WebKit","Chrome","137.0.0.0","Windows","10.0","https://app.prolific.com/","en-SI,en;q=0.9,sl-SI;q=0.8,sl;q=0.7,en-GB;q=0.6,en-US;q=0.5","60fd34d68de7efbcd7de57a0","686d226cabeef709c732f8e1","686e313f3039a140379dac4a","60fd34d68de7efbcd7de57a0","","","","","","","","","","","","","","","","","","","","","","","","","","","","","","","","","","","","","","","","","","","","","",""
"1473","","","","instructions","33","470048","0.0-8.0-9.0","177","1","2025-07-09 09:12:44","7701e855f2ef39aa3fd6c71abdc6918a","188.197.254.76","Mozilla/5.0 (Windows NT 10.0; Win64; x64) AppleWebKit/537.36 (KHTML, like Gecko) Chrome/137.0.0.0 Safari/537.36","WebKit","Chrome","137.0.0.0","Windows","10.0","https://app.prolific.com/","en-SI,en;q=0.9,sl-SI;q=0.8,sl;q=0.7,en-GB;q=0.6,en-US;q=0.5","60fd34d68de7efbcd7de57a0","686d226cabeef709c732f8e1","686e313f3039a140379dac4a","60fd34d68de7efbcd7de57a0","","[{""page_index"":0,""viewing_time"":1473}]","","","","","","","","","","","","","","","","","","","","","","","","","","","","","","","","","","","","","","","","","","","",""
"4514","","<p>Before you start with this game please answer the following three questions yourself. </p>
  <p>Through this game, we measure several aspects of your cognitive performance, such as reaction times, multi-tasking capabilities </p>
  <p>and the ability to assess the situation you are in.</p>
  <p></p>
  <p><b>How good do you usually are in such tasks?</b></p>","56","html-slider-response","34","474563","0.0-9.0-0.0","177","1","2025-07-09 09:12:44","7701e855f2ef39aa3fd6c71abdc6918a","188.197.254.76","Mozilla/5.0 (Windows NT 10.0; Win64; x64) AppleWebKit/537.36 (KHTML, like Gecko) Chrome/137.0.0.0 Safari/537.36","WebKit","Chrome","137.0.0.0","Windows","10.0","https://app.prolific.com/","en-SI,en;q=0.9,sl-SI;q=0.8,sl;q=0.7,en-GB;q=0.6,en-US;q=0.5","60fd34d68de7efbcd7de57a0","686d226cabeef709c732f8e1","686e313f3039a140379dac4a","60fd34d68de7efbcd7de57a0","2025-07-09T09:20:40.181Z","","","","","","PreSkillQ","","","","","","","","","","","","","","","","","","","","","","","","","","","","","","","","","","","","","","50",""
"2832","","<div style=""width:500px;"">
  <p>How well do you think you will perform in this task compared to other participants?</p>
  </div>","57","html-slider-response","35","477396","0.0-9.0-1.0","177","1","2025-07-09 09:12:44","7701e855f2ef39aa3fd6c71abdc6918a","188.197.254.76","Mozilla/5.0 (Windows NT 10.0; Win64; x64) AppleWebKit/537.36 (KHTML, like Gecko) Chrome/137.0.0.0 Safari/537.36","WebKit","Chrome","137.0.0.0","Windows","10.0","https://app.prolific.com/","en-SI,en;q=0.9,sl-SI;q=0.8,sl;q=0.7,en-GB;q=0.6,en-US;q=0.5","60fd34d68de7efbcd7de57a0","686d226cabeef709c732f8e1","686e313f3039a140379dac4a","60fd34d68de7efbcd7de57a0","2025-07-09T09:20:43.014Z","","","","","","PrePerfQ","","","","","","","","","","","","","","","","","","","","","","","","","","","","","","","","","","","","","","50",""
"3135","","<div style=""width:500px;"">
  <p>What best describes how you currently feel?</p>
  </div>","25","html-slider-response","36","480532","0.0-9.0-2.0","177","1","2025-07-09 09:12:44","7701e855f2ef39aa3fd6c71abdc6918a","188.197.254.76","Mozilla/5.0 (Windows NT 10.0; Win64; x64) AppleWebKit/537.36 (KHTML, like Gecko) Chrome/137.0.0.0 Safari/537.36","WebKit","Chrome","137.0.0.0","Windows","10.0","https://app.prolific.com/","en-SI,en;q=0.9,sl-SI;q=0.8,sl;q=0.7,en-GB;q=0.6,en-US;q=0.5","60fd34d68de7efbcd7de57a0","686d226cabeef709c732f8e1","686e313f3039a140379dac4a","60fd34d68de7efbcd7de57a0","2025-07-09T09:20:46.150Z","","","","","","PreMotivationQ","","","","","","","","","","","","","","","","","","","","","","","","","","","","","","","","","","","","","","50",""
"","","","","ctl-task-cpt","37","515332","0.0-10.0-0.0","177","1","2025-07-09 09:12:44","7701e855f2ef39aa3fd6c71abdc6918a","188.197.254.76","Mozilla/5.0 (Windows NT 10.0; Win64; x64) AppleWebKit/537.36 (KHTML, like Gecko) Chrome/137.0.0.0 Safari/537.36","WebKit","Chrome","137.0.0.0","Windows","10.0","https://app.prolific.com/","en-SI,en;q=0.9,sl-SI;q=0.8,sl;q=0.7,en-GB;q=0.6,en-US;q=0.5","60fd34d68de7efbcd7de57a0","686d226cabeef709c732f8e1","686e313f3039a140379dac4a","60fd34d68de7efbcd7de57a0","2025-07-09T09:21:20.951Z","","","","","","","","","","","","","","","","win-only","3","g1:SW,g2:NE","1","1","0","483550.4","1416","6421.1","31791.6","1","4","8","6","2","8","7","7","0","0.05303030303030303","3038.3","3000","440","[""up"",""right""]","{""num_key_presses"":8,""num_perfect"":7,""num_errors"":1,""num_randdir"":0,""num_randdir_good_moves"":0,""num_whilered"":0,""num_whileblue"":1,""num_blue"":2,""num_good_moves"":7}","[354.4642857142857,354.71428666796004,0.1,354.4642857142857,354.71428666796004,100,336.9642857142857,342.21428666796004,205.4,255.71428571428572,234.71428666796004,305.4,235.71428571428572,190.96428666796004,409.9,240.71428571428572,188.46428666796004,515,328.2142857142857,150.96428666796004,619.6,499.4642857142857,89.71428666796004,724.8,554.4642857142857,84.71428666796004,825.9,301.9642857142857,343.46428666796004,929.8,176.96428571428572,519.71428666796,1029.9,156.96428571428572,532.21428666796,1134.8,106.96428571428572,582.21428666796,1235.6,41.964285714285715,619.71428666796,1340.2,28.214285714285715,628.46428666796,1447.4,28.214285714285715,642.21428666796,1551,31.964285714285715,647.21428666796,1655.3,31.964285714285715,647.21428666796,1755.7,151.96428571428572,469.71428666796004,1864.5,601.9642857142857,3.4642866679600317,1969.7,616.9642857142857,-7.785713332039968,2070.2,618.2142857142857,25.96428666796003,2176,264.4642857142857,380.96428666796004,2281.1,119.46428571428572,550.96428666796,2384.8,83.21428571428572,615.96428666796,2485.3,66.96428571428572,628.46428666796,2585.6,293.2142857142857,432.21428666796004,2690.3,646.9642857142857,32.21428666796003,2795,649.4642857142857,27.21428666796003,2900.1,644.4642857142857,49.71428666796003,3005.4,643.2142857142857,52.21428666796003,3105.8,641.9642857142857,50.96428666796003,3210.3,641.9642857142857,50.96428666796003,3312.6,641.9642857142857,50.96428666796003,3413.3,641.9642857142857,50.96428666796003,3513.3,641.9642857142857,50.96428666796003,3615.4,641.9642857142857,50.96428666796003,3715.9,641.9642857142857,50.96428666796003,3820.1,641.9642857142857,50.96428666796003,3921.1,641.9642857142857,50.96428666796003,4025,641.9642857142857,50.96428666796003,4128.4,641.9642857142857,50.96428666796003,4230.1,641.9642857142857,50.96428666796003,4331.1,641.9642857142857,50.96428666796003,4435.6,641.9642857142857,50.96428666796003,4540.2,641.9642857142857,50.96428666796003,4645.8,641.9642857142857,50.96428666796003,4746,641.9642857142857,50.96428666796003,4851.1,641.9642857142857,50.96428666796003,4956]","[1437.4,1437.4,1000,0,437.4,""smooth"",""right"",""right"",""good_move"",4869.4,3431.6,3093.3,1437.8,338.3,""smooth"",""right"",""right"",""good_move"",7685,2815.4,2499,4869.6,316.4,""while_blue"",""right"",""down"",""bad_move"",14718.3,7032.9,2702,11610.6,405.7,""smooth"",""right"",""right"",""good_move"",17080,2361.5,1894.4,14718.5,467.1,""smooth"",""up"",""up"",""good_move"",19878.6,2798.3,2376.2,17080.3,422.1,""smooth"",""up"",""up"",""good_move"",22778.1,2899.3,2495.5,19878.8,403.8,""smooth"",""up"",""up"",""good_move"",25270.9,2492.5,2123.8,22778.4,368.7,""smooth"",""up"",""up"",""good_move""]","","",""
"4914","","<div style=""width:500px;"">
  <p>What determined the result of this run?</p>
  </div>","72","html-slider-response","38","520248","0.0-10.0-1.0","177","1","2025-07-09 09:12:44","7701e855f2ef39aa3fd6c71abdc6918a","188.197.254.76","Mozilla/5.0 (Windows NT 10.0; Win64; x64) AppleWebKit/537.36 (KHTML, like Gecko) Chrome/137.0.0.0 Safari/537.36","WebKit","Chrome","137.0.0.0","Windows","10.0","https://app.prolific.com/","en-SI,en;q=0.9,sl-SI;q=0.8,sl;q=0.7,en-GB;q=0.6,en-US;q=0.5","60fd34d68de7efbcd7de57a0","686d226cabeef709c732f8e1","686e313f3039a140379dac4a","60fd34d68de7efbcd7de57a0","2025-07-09T09:21:25.866Z","","","","","","AttribQ","","","","","","","","","","","","","","","","","","","","","","","","","","","","","","","","","","","","","","50",""
"4499","","<div style=""width:500px;"">
  <p>How much control did you have over the ball?</p>
  </div>","71","html-slider-response","39","524748","0.0-10.0-2.0","177","1","2025-07-09 09:12:44","7701e855f2ef39aa3fd6c71abdc6918a","188.197.254.76","Mozilla/5.0 (Windows NT 10.0; Win64; x64) AppleWebKit/537.36 (KHTML, like Gecko) Chrome/137.0.0.0 Safari/537.36","WebKit","Chrome","137.0.0.0","Windows","10.0","https://app.prolific.com/","en-SI,en;q=0.9,sl-SI;q=0.8,sl;q=0.7,en-GB;q=0.6,en-US;q=0.5","60fd34d68de7efbcd7de57a0","686d226cabeef709c732f8e1","686e313f3039a140379dac4a","60fd34d68de7efbcd7de57a0","2025-07-09T09:21:30.366Z","","","","","","ControlQ","","","","","","","","","","","","","","","","","","","","","","","","","","","","","","","","","","","","","","50",""
"3565","","<div style=""width:500px;"">
  <p>How would you describe your current emotional state?</p>
  </div>","37","html-slider-response","40","528314","0.0-10.0-3.0","177","1","2025-07-09 09:12:44","7701e855f2ef39aa3fd6c71abdc6918a","188.197.254.76","Mozilla/5.0 (Windows NT 10.0; Win64; x64) AppleWebKit/537.36 (KHTML, like Gecko) Chrome/137.0.0.0 Safari/537.36","WebKit","Chrome","137.0.0.0","Windows","10.0","https://app.prolific.com/","en-SI,en;q=0.9,sl-SI;q=0.8,sl;q=0.7,en-GB;q=0.6,en-US;q=0.5","60fd34d68de7efbcd7de57a0","686d226cabeef709c732f8e1","686e313f3039a140379dac4a","60fd34d68de7efbcd7de57a0","2025-07-09T09:21:33.932Z","","","","","","StressQ","","","","","","","","","","","","","","","","","","","","","","","","","","","","","","","","","","","","","","50",""
"2878","","<div style=""width:500px;"">
  <p>What best describes how you currently feel?</p>
  </div>","22","html-slider-response","41","531193","0.0-10.0-4.0","177","1","2025-07-09 09:12:44","7701e855f2ef39aa3fd6c71abdc6918a","188.197.254.76","Mozilla/5.0 (Windows NT 10.0; Win64; x64) AppleWebKit/537.36 (KHTML, like Gecko) Chrome/137.0.0.0 Safari/537.36","WebKit","Chrome","137.0.0.0","Windows","10.0","https://app.prolific.com/","en-SI,en;q=0.9,sl-SI;q=0.8,sl;q=0.7,en-GB;q=0.6,en-US;q=0.5","60fd34d68de7efbcd7de57a0","686d226cabeef709c732f8e1","686e313f3039a140379dac4a","60fd34d68de7efbcd7de57a0","2025-07-09T09:21:36.811Z","","","","","","MotivationQ","","","","","","","","","","","","","","","","","","","","","","","","","","","","","","","","","","","","","","50",""
"","","","","ctl-task-cpt","42","556047","0.0-10.0-0.1","177","1","2025-07-09 09:12:44","7701e855f2ef39aa3fd6c71abdc6918a","188.197.254.76","Mozilla/5.0 (Windows NT 10.0; Win64; x64) AppleWebKit/537.36 (KHTML, like Gecko) Chrome/137.0.0.0 Safari/537.36","WebKit","Chrome","137.0.0.0","Windows","10.0","https://app.prolific.com/","en-SI,en;q=0.9,sl-SI;q=0.8,sl;q=0.7,en-GB;q=0.6,en-US;q=0.5","60fd34d68de7efbcd7de57a0","686d226cabeef709c732f8e1","686e313f3039a140379dac4a","60fd34d68de7efbcd7de57a0","2025-07-09T09:22:01.666Z","","","","","","","","","","","","","","","","win-only","0","g1:NW,g2:SE","0.9","2","0","534211.2","1062.3","6066.2","21836.4","1","4","4","6","2","4","4","11","7","0.08333333333333333","1477.6","3000","870","[""down"",""right""]","{""num_key_presses"":6,""num_perfect"":6,""num_errors"":0,""num_randdir"":0,""num_randdir_good_moves"":0,""num_whilered"":0,""num_whileblue"":0,""num_blue"":0,""num_good_moves"":6}","[341.9642857142857,352.21428666796004,0,341.9642857142857,352.21428666796004,103.3,341.9642857142857,352.21428666796004,208.6,341.9642857142857,352.21428666796004,308.6,341.9642857142857,352.21428666796004,409.9,341.9642857142857,352.21428666796004,514.3,341.9642857142857,352.21428666796004,617.2,406.9642857142857,442.21428666796004,719.2,609.4642857142857,595.96428666796,824,616.9642857142857,602.21428666796,929.3,618.2142857142857,603.46428666796,1033.1,619.4642857142857,609.71428666796,1133.4,626.9642857142857,620.96428666796,1233.4,626.9642857142857,620.96428666796,1338.2,626.9642857142857,620.96428666796,1443.9,626.9642857142857,620.96428666796,1544,626.9642857142857,620.96428666796,1644,621.9642857142857,577.21428666796,1744.4,411.9642857142857,270.96428666796004,1845.8,411.9642857142857,270.96428666796004,1948.6,411.9642857142857,270.96428666796004,2048.7,411.9642857142857,270.96428666796004,2153.8,411.9642857142857,270.96428666796004,2258.3,411.9642857142857,270.96428666796004,2366.4,411.9642857142857,270.96428666796004,2468.5,411.9642857142857,270.96428666796004,2569,411.9642857142857,270.96428666796004,2677.9,411.9642857142857,270.96428666796004,2778.6,411.9642857142857,270.96428666796004,2883.9,411.9642857142857,270.96428666796004,2988.3,411.9642857142857,270.96428666796004,3088.6,411.9642857142857,270.96428666796004,3188.7,411.9642857142857,270.96428666796004,3293.7,411.9642857142857,270.96428666796004,3395.6,411.9642857142857,270.96428666796004,3498.9,411.9642857142857,270.96428666796004,3603.5,411.9642857142857,270.96428666796004,3704.3,411.9642857142857,270.96428666796004,3808.6,411.9642857142857,270.96428666796004,3911.8,411.9642857142857,270.96428666796004,4015.3,411.9642857142857,270.96428666796004,4116.7,411.9642857142857,270.96428666796004,4216.9,411.9642857142857,270.96428666796004,4318.5,411.9642857142857,270.96428666796004,4423.4,411.9642857142857,270.96428666796004,4524,411.9642857142857,270.96428666796004,4631.9,411.9642857142857,270.96428666796004,4732.7,411.9642857142857,270.96428666796004,4833.7,411.9642857142857,270.96428666796004,4933.9]","[1439.4,1439.4,1000,0,439.4,""smooth"",""down"",""down"",""good_move"",4657.1,3217.4,2854.6,1439.7,362.8,""smooth"",""down"",""down"",""good_move"",6949.1,2291.7,1902.7,4657.4,389,""smooth"",""down"",""down"",""good_move"",9298.9,2349.5,1963.2,6949.4,386.3,""smooth"",""right"",""right"",""good_move"",12586.9,3287.8,2968.9,9299.1,318.9,""smooth"",""right"",""right"",""good_move"",15674.8,3087.7,2759.4,12587.1,328.3,""smooth"",""right"",""right"",""good_move""]","","",""
"3133","","<div style=""width:500px;"">
  <p>What determined the result of this run?</p>
  </div>","89","html-slider-response","43","559182","0.0-10.0-1.1","177","1","2025-07-09 09:12:44","7701e855f2ef39aa3fd6c71abdc6918a","188.197.254.76","Mozilla/5.0 (Windows NT 10.0; Win64; x64) AppleWebKit/537.36 (KHTML, like Gecko) Chrome/137.0.0.0 Safari/537.36","WebKit","Chrome","137.0.0.0","Windows","10.0","https://app.prolific.com/","en-SI,en;q=0.9,sl-SI;q=0.8,sl;q=0.7,en-GB;q=0.6,en-US;q=0.5","60fd34d68de7efbcd7de57a0","686d226cabeef709c732f8e1","686e313f3039a140379dac4a","60fd34d68de7efbcd7de57a0","2025-07-09T09:22:04.800Z","","","","","","AttribQ","","","","","","","","","","","","","","","","","","","","","","","","","","","","","","","","","","","","","","50",""
"2006","","<div style=""width:500px;"">
  <p>How much control did you have over the ball?</p>
  </div>","85","html-slider-response","44","561189","0.0-10.0-2.1","177","1","2025-07-09 09:12:44","7701e855f2ef39aa3fd6c71abdc6918a","188.197.254.76","Mozilla/5.0 (Windows NT 10.0; Win64; x64) AppleWebKit/537.36 (KHTML, like Gecko) Chrome/137.0.0.0 Safari/537.36","WebKit","Chrome","137.0.0.0","Windows","10.0","https://app.prolific.com/","en-SI,en;q=0.9,sl-SI;q=0.8,sl;q=0.7,en-GB;q=0.6,en-US;q=0.5","60fd34d68de7efbcd7de57a0","686d226cabeef709c732f8e1","686e313f3039a140379dac4a","60fd34d68de7efbcd7de57a0","2025-07-09T09:22:06.808Z","","","","","","ControlQ","","","","","","","","","","","","","","","","","","","","","","","","","","","","","","","","","","","","","","50",""
"2078","","<div style=""width:500px;"">
  <p>How would you describe your current emotional state?</p>
  </div>","27","html-slider-response","45","563268","0.0-10.0-3.1","177","1","2025-07-09 09:12:44","7701e855f2ef39aa3fd6c71abdc6918a","188.197.254.76","Mozilla/5.0 (Windows NT 10.0; Win64; x64) AppleWebKit/537.36 (KHTML, like Gecko) Chrome/137.0.0.0 Safari/537.36","WebKit","Chrome","137.0.0.0","Windows","10.0","https://app.prolific.com/","en-SI,en;q=0.9,sl-SI;q=0.8,sl;q=0.7,en-GB;q=0.6,en-US;q=0.5","60fd34d68de7efbcd7de57a0","686d226cabeef709c732f8e1","686e313f3039a140379dac4a","60fd34d68de7efbcd7de57a0","2025-07-09T09:22:08.886Z","","","","","","StressQ","","","","","","","","","","","","","","","","","","","","","","","","","","","","","","","","","","","","","","50",""
"2071","","<div style=""width:500px;"">
  <p>What best describes how you currently feel?</p>
  </div>","38","html-slider-response","46","565340","0.0-10.0-4.1","177","1","2025-07-09 09:12:44","7701e855f2ef39aa3fd6c71abdc6918a","188.197.254.76","Mozilla/5.0 (Windows NT 10.0; Win64; x64) AppleWebKit/537.36 (KHTML, like Gecko) Chrome/137.0.0.0 Safari/537.36","WebKit","Chrome","137.0.0.0","Windows","10.0","https://app.prolific.com/","en-SI,en;q=0.9,sl-SI;q=0.8,sl;q=0.7,en-GB;q=0.6,en-US;q=0.5","60fd34d68de7efbcd7de57a0","686d226cabeef709c732f8e1","686e313f3039a140379dac4a","60fd34d68de7efbcd7de57a0","2025-07-09T09:22:10.958Z","","","","","","MotivationQ","","","","","","","","","","","","","","","","","","","","","","","","","","","","","","","","","","","","","","50",""
"","","","","ctl-task-cpt","47","598845","0.0-10.0-0.2","177","1","2025-07-09 09:12:44","7701e855f2ef39aa3fd6c71abdc6918a","188.197.254.76","Mozilla/5.0 (Windows NT 10.0; Win64; x64) AppleWebKit/537.36 (KHTML, like Gecko) Chrome/137.0.0.0 Safari/537.36","WebKit","Chrome","137.0.0.0","Windows","10.0","https://app.prolific.com/","en-SI,en;q=0.9,sl-SI;q=0.8,sl;q=0.7,en-GB;q=0.6,en-US;q=0.5","60fd34d68de7efbcd7de57a0","686d226cabeef709c732f8e1","686e313f3039a140379dac4a","60fd34d68de7efbcd7de57a0","2025-07-09T09:22:44.463Z","","","","","","","","","","","","","","","","win-only","1","g1:NE,g2:SW","0.8","3","0","568358.6","929.3","5931.1","30486.7","1","4","4","6","2","4","4","15","11","0.11363636363636363","1396.1","3000","560","[""down"",""left""]","{""num_key_presses"":6,""num_perfect"":6,""num_errors"":0,""num_randdir"":0,""num_randdir_good_moves"":0,""num_whilered"":0,""num_whileblue"":0,""num_blue"":2,""num_good_moves"":6}","[353.2142857142857,357.21428666796004,0.1,354.4642857142857,357.21428666796004,101.9,354.4642857142857,357.21428666796004,205.6,354.4642857142857,287.21428666796004,306,349.4642857142857,232.21428666796004,406.2,349.4642857142857,232.21428666796004,506.9,349.4642857142857,232.21428666796004,611.6,336.9642857142857,237.21428666796004,715.9,180.71428571428572,472.21428666796004,816.5,78.21428571428572,595.96428666796,920.1,71.96428571428572,597.21428666796,1021.5,48.214285714285715,637.21428666796,1127.4,60.714285714285715,650.96428666796,1231.2,60.714285714285715,650.96428666796,1332.1,61.964285714285715,650.96428666796,1437.2,61.964285714285715,650.96428666796,1541.4,65.71428571428572,579.71428666796,1641.4,56.964285714285715,317.21428666796004,1741.4,56.964285714285715,317.21428666796004,1842.5,56.964285714285715,317.21428666796004,1946.6,56.964285714285715,317.21428666796004,2047.6,56.964285714285715,317.21428666796004,2151.3,56.964285714285715,317.21428666796004,2253,56.964285714285715,317.21428666796004,2356.8,56.964285714285715,317.21428666796004,2457.3,56.964285714285715,317.21428666796004,2561.2,56.964285714285715,317.21428666796004,2661.7,56.964285714285715,317.21428666796004,2761.8,56.964285714285715,317.21428666796004,2867.4,56.964285714285715,317.21428666796004,2969.5,56.964285714285715,317.21428666796004,3071.1,56.964285714285715,317.21428666796004,3172,56.964285714285715,317.21428666796004,3277.1,56.964285714285715,317.21428666796004,3377.1,56.964285714285715,317.21428666796004,3477.5,56.964285714285715,317.21428666796004,3581.4,56.964285714285715,317.21428666796004,3686.8,56.964285714285715,317.21428666796004,3791.6,56.964285714285715,317.21428666796004,3896.8,56.964285714285715,317.21428666796004,4003.3,56.964285714285715,317.21428666796004,4106.2,56.964285714285715,317.21428666796004,4207.4,56.964285714285715,317.21428666796004,4311.3,56.964285714285715,317.21428666796004,4411.6,56.964285714285715,317.21428666796004,4518.5,56.964285714285715,317.21428666796004,4622,56.964285714285715,317.21428666796004,4726,56.964285714285715,317.21428666796004,4827.1,56.964285714285715,317.21428666796004,4932.6]","[1454.6,1454.6,1000,0,454.6,""smooth"",""down"",""down"",""good_move"",8876.1,7421.2,2889.4,5595.2,391.6,""smooth"",""down"",""down"",""good_move"",15210.6,6334.4,2180.2,12626.5,404,""smooth"",""down"",""down"",""good_move"",17866.6,2655.7,2158.2,15210.9,497.5,""smooth"",""left"",""left"",""good_move"",20812.1,2945.3,2566.2,17866.9,379.1,""smooth"",""left"",""left"",""good_move"",24466.6,3654.2,3301,20812.4,353.2,""smooth"",""left"",""left"",""good_move""]","","",""
"1828","","<div style=""width:500px;"">
  <p>What determined the result of this run?</p>
  </div>","84","html-slider-response","48","600674","0.0-10.0-1.2","177","1","2025-07-09 09:12:44","7701e855f2ef39aa3fd6c71abdc6918a","188.197.254.76","Mozilla/5.0 (Windows NT 10.0; Win64; x64) AppleWebKit/537.36 (KHTML, like Gecko) Chrome/137.0.0.0 Safari/537.36","WebKit","Chrome","137.0.0.0","Windows","10.0","https://app.prolific.com/","en-SI,en;q=0.9,sl-SI;q=0.8,sl;q=0.7,en-GB;q=0.6,en-US;q=0.5","60fd34d68de7efbcd7de57a0","686d226cabeef709c732f8e1","686e313f3039a140379dac4a","60fd34d68de7efbcd7de57a0","2025-07-09T09:22:46.292Z","","","","","","AttribQ","","","","","","","","","","","","","","","","","","","","","","","","","","","","","","","","","","","","","","50",""
"2214","","<div style=""width:500px;"">
  <p>How much control did you have over the ball?</p>
  </div>","81","html-slider-response","49","602889","0.0-10.0-2.2","177","1","2025-07-09 09:12:44","7701e855f2ef39aa3fd6c71abdc6918a","188.197.254.76","Mozilla/5.0 (Windows NT 10.0; Win64; x64) AppleWebKit/537.36 (KHTML, like Gecko) Chrome/137.0.0.0 Safari/537.36","WebKit","Chrome","137.0.0.0","Windows","10.0","https://app.prolific.com/","en-SI,en;q=0.9,sl-SI;q=0.8,sl;q=0.7,en-GB;q=0.6,en-US;q=0.5","60fd34d68de7efbcd7de57a0","686d226cabeef709c732f8e1","686e313f3039a140379dac4a","60fd34d68de7efbcd7de57a0","2025-07-09T09:22:48.507Z","","","","","","ControlQ","","","","","","","","","","","","","","","","","","","","","","","","","","","","","","","","","","","","","","50",""
"1778","","<div style=""width:500px;"">
  <p>How would you describe your current emotional state?</p>
  </div>","18","html-slider-response","50","604668","0.0-10.0-3.2","177","1","2025-07-09 09:12:44","7701e855f2ef39aa3fd6c71abdc6918a","188.197.254.76","Mozilla/5.0 (Windows NT 10.0; Win64; x64) AppleWebKit/537.36 (KHTML, like Gecko) Chrome/137.0.0.0 Safari/537.36","WebKit","Chrome","137.0.0.0","Windows","10.0","https://app.prolific.com/","en-SI,en;q=0.9,sl-SI;q=0.8,sl;q=0.7,en-GB;q=0.6,en-US;q=0.5","60fd34d68de7efbcd7de57a0","686d226cabeef709c732f8e1","686e313f3039a140379dac4a","60fd34d68de7efbcd7de57a0","2025-07-09T09:22:50.286Z","","","","","","StressQ","","","","","","","","","","","","","","","","","","","","","","","","","","","","","","","","","","","","","","50",""
"1968","","<div style=""width:500px;"">
  <p>What best describes how you currently feel?</p>
  </div>","18","html-slider-response","51","606637","0.0-10.0-4.2","177","1","2025-07-09 09:12:44","7701e855f2ef39aa3fd6c71abdc6918a","188.197.254.76","Mozilla/5.0 (Windows NT 10.0; Win64; x64) AppleWebKit/537.36 (KHTML, like Gecko) Chrome/137.0.0.0 Safari/537.36","WebKit","Chrome","137.0.0.0","Windows","10.0","https://app.prolific.com/","en-SI,en;q=0.9,sl-SI;q=0.8,sl;q=0.7,en-GB;q=0.6,en-US;q=0.5","60fd34d68de7efbcd7de57a0","686d226cabeef709c732f8e1","686e313f3039a140379dac4a","60fd34d68de7efbcd7de57a0","2025-07-09T09:22:52.255Z","","","","","","MotivationQ","","","","","","","","","","","","","","","","","","","","","","","","","","","","","","","","","","","","","","50",""
"","","","","ctl-task-cpt","52","640092","0.0-10.0-0.3","177","1","2025-07-09 09:12:44","7701e855f2ef39aa3fd6c71abdc6918a","188.197.254.76","Mozilla/5.0 (Windows NT 10.0; Win64; x64) AppleWebKit/537.36 (KHTML, like Gecko) Chrome/137.0.0.0 Safari/537.36","WebKit","Chrome","137.0.0.0","Windows","10.0","https://app.prolific.com/","en-SI,en;q=0.9,sl-SI;q=0.8,sl;q=0.7,en-GB;q=0.6,en-US;q=0.5","60fd34d68de7efbcd7de57a0","686d226cabeef709c732f8e1","686e313f3039a140379dac4a","60fd34d68de7efbcd7de57a0","2025-07-09T09:23:25.710Z","","","","","","","","","","","","","","","","win-only","0","g1:NW,g2:SE","0.7","4","0","609655.5","810.6","5811.2","30439.7","1","4","8","6","2","8","8","23","15","0.17424242424242425","1311.4","3000","65","[""down"",""right""]","{""num_key_presses"":8,""num_perfect"":6,""num_errors"":0,""num_randdir"":2,""num_randdir_good_moves"":1,""num_whilered"":0,""num_whileblue"":0,""num_blue"":1,""num_good_moves"":7}","[356.9642857142857,355.96428666796004,0.2,356.9642857142857,355.96428666796004,103.5,355.7142857142857,354.71428666796004,206,351.9642857142857,348.46428666796004,310.5,351.9642857142857,348.46428666796004,411.2,345.7142857142857,340.96428666796004,516.1,335.7142857142857,329.71428666796004,620.4,275.7142857142857,264.71428666796004,724.5,380.7142857142857,318.46428666796004,825,575.7142857142857,518.46428666796,931.2,599.4642857142857,563.46428666796,1035.4,609.4642857142857,592.21428666796,1137.1,631.9642857142857,614.71428666796,1240.6,639.4642857142857,618.46428666796,1340.6,639.4642857142857,618.46428666796,1441.1,635.7142857142857,608.46428666796,1545.5,458.2142857142857,364.71428666796004,1645.7,383.2142857142857,267.21428666796004,1745.8,383.2142857142857,267.21428666796004,1850.8,383.2142857142857,267.21428666796004,1956.1,383.2142857142857,267.21428666796004,2058.9,383.2142857142857,267.21428666796004,2160.7,383.2142857142857,267.21428666796004,2260.7,383.2142857142857,267.21428666796004,2366.4,383.2142857142857,267.21428666796004,2467.2,383.2142857142857,267.21428666796004,2571.3,383.2142857142857,267.21428666796004,2671.3,383.2142857142857,267.21428666796004,2776.8,383.2142857142857,267.21428666796004,2880.6,383.2142857142857,267.21428666796004,2981.2,383.2142857142857,267.21428666796004,3087.8,383.2142857142857,267.21428666796004,3190.8,383.2142857142857,267.21428666796004,3291.3,383.2142857142857,267.21428666796004,3391.5,383.2142857142857,267.21428666796004,3495.7,383.2142857142857,267.21428666796004,3600.1,383.2142857142857,267.21428666796004,3701.2,383.2142857142857,267.21428666796004,3801.6,383.2142857142857,267.21428666796004,3902.2,383.2142857142857,267.21428666796004,4005.7,383.2142857142857,267.21428666796004,4110.9,383.2142857142857,267.21428666796004,4217.8,383.2142857142857,267.21428666796004,4320.6,383.2142857142857,267.21428666796004,4425.7,383.2142857142857,267.21428666796004,4526,383.2142857142857,267.21428666796004,4626.5,383.2142857142857,267.21428666796004,4729.8,383.2142857142857,267.21428666796004,4831.4,383.2142857142857,267.21428666796004,4936.1]","[1565.4,1565.4,1000,0,565.4,""oops"",""down"",""down"",""good_move"",4261.9,2696.1,2285.8,1565.8,410.3,""smooth"",""down"",""down"",""good_move"",7133.5,2871.4,2424.4,4262.1,447,""oops"",""down"",""up"",""bad_move"",9753.4,2619.5,2237.1,7133.9,382.4,""smooth"",""down"",""down"",""good_move"",12486.7,2733,2359.7,9753.8,373.2,""smooth"",""down"",""down"",""good_move"",15595.5,3108.5,2760.9,12487,347.6,""smooth"",""right"",""right"",""good_move"",21365.6,5769.8,3216.2,17790.1,359.3,""smooth"",""right"",""right"",""good_move"",24511.2,3145.5,2781.8,21365.7,363.7,""smooth"",""right"",""right"",""good_move""]","","",""
"2229","","<div style=""width:500px;"">
  <p>What determined the result of this run?</p>
  </div>","87","html-slider-response","53","642322","0.0-10.0-1.3","177","1","2025-07-09 09:12:44","7701e855f2ef39aa3fd6c71abdc6918a","188.197.254.76","Mozilla/5.0 (Windows NT 10.0; Win64; x64) AppleWebKit/537.36 (KHTML, like Gecko) Chrome/137.0.0.0 Safari/537.36","WebKit","Chrome","137.0.0.0","Windows","10.0","https://app.prolific.com/","en-SI,en;q=0.9,sl-SI;q=0.8,sl;q=0.7,en-GB;q=0.6,en-US;q=0.5","60fd34d68de7efbcd7de57a0","686d226cabeef709c732f8e1","686e313f3039a140379dac4a","60fd34d68de7efbcd7de57a0","2025-07-09T09:23:27.940Z","","","","","","AttribQ","","","","","","","","","","","","","","","","","","","","","","","","","","","","","","","","","","","","","","50",""
"2713","","<div style=""width:500px;"">
  <p>How much control did you have over the ball?</p>
  </div>","58","html-slider-response","54","645036","0.0-10.0-2.3","177","1","2025-07-09 09:12:44","7701e855f2ef39aa3fd6c71abdc6918a","188.197.254.76","Mozilla/5.0 (Windows NT 10.0; Win64; x64) AppleWebKit/537.36 (KHTML, like Gecko) Chrome/137.0.0.0 Safari/537.36","WebKit","Chrome","137.0.0.0","Windows","10.0","https://app.prolific.com/","en-SI,en;q=0.9,sl-SI;q=0.8,sl;q=0.7,en-GB;q=0.6,en-US;q=0.5","60fd34d68de7efbcd7de57a0","686d226cabeef709c732f8e1","686e313f3039a140379dac4a","60fd34d68de7efbcd7de57a0","2025-07-09T09:23:30.654Z","","","","","","ControlQ","","","","","","","","","","","","","","","","","","","","","","","","","","","","","","","","","","","","","","50",""
"2474","","<div style=""width:500px;"">
  <p>How would you describe your current emotional state?</p>
  </div>","40","html-slider-response","55","647511","0.0-10.0-3.3","177","1","2025-07-09 09:12:44","7701e855f2ef39aa3fd6c71abdc6918a","188.197.254.76","Mozilla/5.0 (Windows NT 10.0; Win64; x64) AppleWebKit/537.36 (KHTML, like Gecko) Chrome/137.0.0.0 Safari/537.36","WebKit","Chrome","137.0.0.0","Windows","10.0","https://app.prolific.com/","en-SI,en;q=0.9,sl-SI;q=0.8,sl;q=0.7,en-GB;q=0.6,en-US;q=0.5","60fd34d68de7efbcd7de57a0","686d226cabeef709c732f8e1","686e313f3039a140379dac4a","60fd34d68de7efbcd7de57a0","2025-07-09T09:23:33.129Z","","","","","","StressQ","","","","","","","","","","","","","","","","","","","","","","","","","","","","","","","","","","","","","","50",""
"1621","","<div style=""width:500px;"">
  <p>What best describes how you currently feel?</p>
  </div>","33","html-slider-response","56","649133","0.0-10.0-4.3","177","1","2025-07-09 09:12:44","7701e855f2ef39aa3fd6c71abdc6918a","188.197.254.76","Mozilla/5.0 (Windows NT 10.0; Win64; x64) AppleWebKit/537.36 (KHTML, like Gecko) Chrome/137.0.0.0 Safari/537.36","WebKit","Chrome","137.0.0.0","Windows","10.0","https://app.prolific.com/","en-SI,en;q=0.9,sl-SI;q=0.8,sl;q=0.7,en-GB;q=0.6,en-US;q=0.5","60fd34d68de7efbcd7de57a0","686d226cabeef709c732f8e1","686e313f3039a140379dac4a","60fd34d68de7efbcd7de57a0","2025-07-09T09:23:34.751Z","","","","","","MotivationQ","","","","","","","","","","","","","","","","","","","","","","","","","","","","","","","","","","","","","","50",""
"","","","","ctl-task-cpt","57","684327","0.0-10.0-0.4","177","1","2025-07-09 09:12:44","7701e855f2ef39aa3fd6c71abdc6918a","188.197.254.76","Mozilla/5.0 (Windows NT 10.0; Win64; x64) AppleWebKit/537.36 (KHTML, like Gecko) Chrome/137.0.0.0 Safari/537.36","WebKit","Chrome","137.0.0.0","Windows","10.0","https://app.prolific.com/","en-SI,en;q=0.9,sl-SI;q=0.8,sl;q=0.7,en-GB;q=0.6,en-US;q=0.5","60fd34d68de7efbcd7de57a0","686d226cabeef709c732f8e1","686e313f3039a140379dac4a","60fd34d68de7efbcd7de57a0","2025-07-09T09:24:09.945Z","","","","","","","","","","","","","","","","win-only","2","g1:SE,g2:NW","0.6","5","0","652151.2","616.1","5621.5","32176.3","1","4","4","6","1","1","1","24","23","0.18181818181818182","1318","3000","490","[""down"",""right""]","{""num_key_presses"":6,""num_perfect"":3,""num_errors"":0,""num_randdir"":3,""num_randdir_good_moves"":2,""num_whilered"":0,""num_whileblue"":0,""num_blue"":3,""num_good_moves"":5}","[359.4642857142857,347.21428666796004,0.1,356.9642857142857,347.21428666796004,100.2,356.9642857142857,347.21428666796004,204.9,356.9642857142857,347.21428666796004,305.2,356.9642857142857,347.21428666796004,410.3,356.9642857142857,347.21428666796004,510.5,356.9642857142857,347.21428666796004,610.5,381.9642857142857,378.46428666796004,715.6,478.2142857142857,468.46428666796004,820.3,563.2142857142857,554.71428666796,924.5,615.7142857142857,617.21428666796,1029.4,639.4642857142857,658.46428666796,1130.5,641.9642857142857,658.46428666796,1233.6,641.9642857142857,657.21428666796,1334.2,641.9642857142857,657.21428666796,1435.2,641.9642857142857,657.21428666796,1536.6,643.2142857142857,647.21428666796,1639.4,665.7142857142857,332.21428666796004,1744.3,679.4642857142857,307.21428666796004,1845,679.4642857142857,307.21428666796004,1945.4,679.4642857142857,307.21428666796004,2051.7,679.4642857142857,307.21428666796004,2155.4,679.4642857142857,307.21428666796004,2255.6,679.4642857142857,307.21428666796004,2359.5,679.4642857142857,307.21428666796004,2459.8,679.4642857142857,307.21428666796004,2565.3,679.4642857142857,307.21428666796004,2670.1,679.4642857142857,307.21428666796004,2770.1,679.4642857142857,307.21428666796004,2870.6,679.4642857142857,307.21428666796004,2976.2,679.4642857142857,307.21428666796004,3082.2,679.4642857142857,307.21428666796004,3184.7,679.4642857142857,307.21428666796004,3284.9,679.4642857142857,307.21428666796004,3384.9,679.4642857142857,307.21428666796004,3489.9,679.4642857142857,307.21428666796004,3590.1,679.4642857142857,307.21428666796004,3694.8,679.4642857142857,307.21428666796004,3796.4,679.4642857142857,307.21428666796004,3902.5,679.4642857142857,307.21428666796004,4004.6,679.4642857142857,307.21428666796004,4110.1,679.4642857142857,307.21428666796004,4216.2,679.4642857142857,307.21428666796004,4318.2,679.4642857142857,307.21428666796004,4419.7,679.4642857142857,307.21428666796004,4520.2,679.4642857142857,307.21428666796004,4625.7,679.4642857142857,307.21428666796004,4731.3,679.4642857142857,307.21428666796004,4832.3,679.4642857142857,307.21428666796004,4934.2]","[1467.4,1467.4,1000,0,467.4,""smooth"",""down"",""down"",""good_move"",4317.5,2849.8,2474.8,1467.7,375,""oops"",""down"",""right"",""good_move"",14219.5,9901.6,2356.4,11435.9,427.2,""oops"",""down"",""up"",""bad_move"",16624.6,2404.9,2004.1,14219.7,400.8,""oops"",""down"",""down"",""good_move"",23529.3,6904.4,2384,20745.1,400.2,""smooth"",""down"",""down"",""good_move"",26463.5,2934,2433.5,23529.5,500.5,""smooth"",""right"",""right"",""good_move""]","","",""
"2111","","<div style=""width:500px;"">
  <p>What determined the result of this run?</p>
  </div>","77","html-slider-response","58","686439","0.0-10.0-1.4","177","1","2025-07-09 09:12:44","7701e855f2ef39aa3fd6c71abdc6918a","188.197.254.76","Mozilla/5.0 (Windows NT 10.0; Win64; x64) AppleWebKit/537.36 (KHTML, like Gecko) Chrome/137.0.0.0 Safari/537.36","WebKit","Chrome","137.0.0.0","Windows","10.0","https://app.prolific.com/","en-SI,en;q=0.9,sl-SI;q=0.8,sl;q=0.7,en-GB;q=0.6,en-US;q=0.5","60fd34d68de7efbcd7de57a0","686d226cabeef709c732f8e1","686e313f3039a140379dac4a","60fd34d68de7efbcd7de57a0","2025-07-09T09:24:12.057Z","","","","","","AttribQ","","","","","","","","","","","","","","","","","","","","","","","","","","","","","","","","","","","","","","50",""
"2017","","<div style=""width:500px;"">
  <p>How much control did you have over the ball?</p>
  </div>","77","html-slider-response","59","688457","0.0-10.0-2.4","177","1","2025-07-09 09:12:44","7701e855f2ef39aa3fd6c71abdc6918a","188.197.254.76","Mozilla/5.0 (Windows NT 10.0; Win64; x64) AppleWebKit/537.36 (KHTML, like Gecko) Chrome/137.0.0.0 Safari/537.36","WebKit","Chrome","137.0.0.0","Windows","10.0","https://app.prolific.com/","en-SI,en;q=0.9,sl-SI;q=0.8,sl;q=0.7,en-GB;q=0.6,en-US;q=0.5","60fd34d68de7efbcd7de57a0","686d226cabeef709c732f8e1","686e313f3039a140379dac4a","60fd34d68de7efbcd7de57a0","2025-07-09T09:24:14.075Z","","","","","","ControlQ","","","","","","","","","","","","","","","","","","","","","","","","","","","","","","","","","","","","","","50",""
"1431","","<div style=""width:500px;"">
  <p>How would you describe your current emotional state?</p>
  </div>","27","html-slider-response","60","689889","0.0-10.0-3.4","177","1","2025-07-09 09:12:44","7701e855f2ef39aa3fd6c71abdc6918a","188.197.254.76","Mozilla/5.0 (Windows NT 10.0; Win64; x64) AppleWebKit/537.36 (KHTML, like Gecko) Chrome/137.0.0.0 Safari/537.36","WebKit","Chrome","137.0.0.0","Windows","10.0","https://app.prolific.com/","en-SI,en;q=0.9,sl-SI;q=0.8,sl;q=0.7,en-GB;q=0.6,en-US;q=0.5","60fd34d68de7efbcd7de57a0","686d226cabeef709c732f8e1","686e313f3039a140379dac4a","60fd34d68de7efbcd7de57a0","2025-07-09T09:24:15.507Z","","","","","","StressQ","","","","","","","","","","","","","","","","","","","","","","","","","","","","","","","","","","","","","","50",""
"1687","","<div style=""width:500px;"">
  <p>What best describes how you currently feel?</p>
  </div>","39","html-slider-response","61","691577","0.0-10.0-4.4","177","1","2025-07-09 09:12:44","7701e855f2ef39aa3fd6c71abdc6918a","188.197.254.76","Mozilla/5.0 (Windows NT 10.0; Win64; x64) AppleWebKit/537.36 (KHTML, like Gecko) Chrome/137.0.0.0 Safari/537.36","WebKit","Chrome","137.0.0.0","Windows","10.0","https://app.prolific.com/","en-SI,en;q=0.9,sl-SI;q=0.8,sl;q=0.7,en-GB;q=0.6,en-US;q=0.5","60fd34d68de7efbcd7de57a0","686d226cabeef709c732f8e1","686e313f3039a140379dac4a","60fd34d68de7efbcd7de57a0","2025-07-09T09:24:17.195Z","","","","","","MotivationQ","","","","","","","","","","","","","","","","","","","","","","","","","","","","","","","","","","","","","","50",""
"","","","","ctl-task-cpt","62","731985","0.0-10.0-0.5","177","1","2025-07-09 09:12:44","7701e855f2ef39aa3fd6c71abdc6918a","188.197.254.76","Mozilla/5.0 (Windows NT 10.0; Win64; x64) AppleWebKit/537.36 (KHTML, like Gecko) Chrome/137.0.0.0 Safari/537.36","WebKit","Chrome","137.0.0.0","Windows","10.0","https://app.prolific.com/","en-SI,en;q=0.9,sl-SI;q=0.8,sl;q=0.7,en-GB;q=0.6,en-US;q=0.5","60fd34d68de7efbcd7de57a0","686d226cabeef709c732f8e1","686e313f3039a140379dac4a","60fd34d68de7efbcd7de57a0","2025-07-09T09:24:57.603Z","","","","","","","","","","","","","","","","win-only","2","g1:SE,g2:NW","0.5","6","0","694595.2","699.1","5704.4","37389.3","1","4","8","6","2","-8","-9","15","24","0.11363636363636363","2266.3","3000","-2580","[""left"",""up""]","{""num_key_presses"":10,""num_perfect"":4,""num_errors"":1,""num_randdir"":5,""num_randdir_good_moves"":2,""num_whilered"":0,""num_whileblue"":0,""num_blue"":1,""num_good_moves"":6}","[361.9642857142857,352.21428666796004,0.1,361.9642857142857,352.21428666796004,101.5,361.9642857142857,352.21428666796004,201.7,361.9642857142857,352.21428666796004,304,361.9642857142857,352.21428666796004,406.8,361.9642857142857,352.21428666796004,511.2,361.9642857142857,352.21428666796004,611.6,249.46428571428572,210.96428666796004,712,151.96428571428572,114.71428666796004,812.9,121.96428571428572,88.46428666796004,916.8,80.71428571428572,68.46428666796004,1017.4,73.21428571428572,67.21428666796004,1125.3,66.96428571428572,67.21428666796004,1227.4,65.71428571428572,67.21428666796004,1327.5,65.71428571428572,65.96428666796004,1433.1,65.71428571428572,64.71428666796004,1538,65.71428571428572,64.71428666796004,1643.1,65.71428571428572,64.71428666796004,1746.2,65.71428571428572,64.71428666796004,1846.5,65.71428571428572,64.71428666796004,1947.3,65.71428571428572,64.71428666796004,2051.4,65.71428571428572,64.71428666796004,2151.4,65.71428571428572,64.71428666796004,2255.6,66.96428571428572,64.71428666796004,2356.2,66.96428571428572,64.71428666796004,2457.3,66.96428571428572,64.71428666796004,2561.7,160.71428571428572,58.46428666796003,2661.8,356.9642857142857,28.46428666796003,2761.9,356.9642857142857,28.46428666796003,2862.9,356.9642857142857,28.46428666796003,2967.4,356.9642857142857,28.46428666796003,3074.4,356.9642857142857,28.46428666796003,3177.1,356.9642857142857,28.46428666796003,3284.2,356.9642857142857,28.46428666796003,3387.2,356.9642857142857,28.46428666796003,3487.2,356.9642857142857,28.46428666796003,3592,356.9642857142857,28.46428666796003,3697.9,356.9642857142857,28.46428666796003,3798,356.9642857142857,28.46428666796003,3906,356.9642857142857,28.46428666796003,4007,356.9642857142857,28.46428666796003,4107.2,356.9642857142857,28.46428666796003,4207.3,356.9642857142857,28.46428666796003,4307.4,356.9642857142857,28.46428666796003,4412,356.9642857142857,28.46428666796003,4512,356.9642857142857,28.46428666796003,4616.1,356.9642857142857,28.46428666796003,4717.8,356.9642857142857,28.46428666796003,4821.5,356.9642857142857,28.46428666796003,4922]","[1413.5,1413.6,1000,0,413.6,""oops"",""left"",""up"",""good_move"",7680.3,6266.4,2181.1,5111.8,387.4,""smooth"",""up"",""up"",""good_move"",10524.2,2843.7,2526.9,7680.5,316.8,""smooth"",""up"",""up"",""good_move"",13257,2732.6,2332.2,10524.4,400.4,""smooth"",""left"",""left"",""good_move"",16260.2,3003,2697.4,13257.2,305.6,""oops"",""left"",""right"",""bad_move"",18917.2,2656.4,2328.1,16260.8,328.3,""smooth"",""left"",""left"",""good_move"",22105.2,3187.7,2852.9,18917.5,334.8,""oops"",""left"",""right"",""bad_move"",24921.5,2816,2507.1,22105.5,308.9,""oops"",""left"",""down"",""bad_move"",25052.3,130.4,2071.5,24921.9,-1941.1,""error"",""-"",""-"",""no_move"",29302,4249.5,2912.8,26054.1,335.1,""oops"",""left"",""up"",""good_move""]","","",""
"3151","","<div style=""width:500px;"">
  <p>What determined the result of this run?</p>
  </div>","24","html-slider-response","63","735138","0.0-10.0-1.5","177","1","2025-07-09 09:12:44","7701e855f2ef39aa3fd6c71abdc6918a","188.197.254.76","Mozilla/5.0 (Windows NT 10.0; Win64; x64) AppleWebKit/537.36 (KHTML, like Gecko) Chrome/137.0.0.0 Safari/537.36","WebKit","Chrome","137.0.0.0","Windows","10.0","https://app.prolific.com/","en-SI,en;q=0.9,sl-SI;q=0.8,sl;q=0.7,en-GB;q=0.6,en-US;q=0.5","60fd34d68de7efbcd7de57a0","686d226cabeef709c732f8e1","686e313f3039a140379dac4a","60fd34d68de7efbcd7de57a0","2025-07-09T09:25:00.756Z","","","","","","AttribQ","","","","","","","","","","","","","","","","","","","","","","","","","","","","","","","","","","","","","","50",""
"1990","","<div style=""width:500px;"">
  <p>How much control did you have over the ball?</p>
  </div>","43","html-slider-response","64","737129","0.0-10.0-2.5","177","1","2025-07-09 09:12:44","7701e855f2ef39aa3fd6c71abdc6918a","188.197.254.76","Mozilla/5.0 (Windows NT 10.0; Win64; x64) AppleWebKit/537.36 (KHTML, like Gecko) Chrome/137.0.0.0 Safari/537.36","WebKit","Chrome","137.0.0.0","Windows","10.0","https://app.prolific.com/","en-SI,en;q=0.9,sl-SI;q=0.8,sl;q=0.7,en-GB;q=0.6,en-US;q=0.5","60fd34d68de7efbcd7de57a0","686d226cabeef709c732f8e1","686e313f3039a140379dac4a","60fd34d68de7efbcd7de57a0","2025-07-09T09:25:02.747Z","","","","","","ControlQ","","","","","","","","","","","","","","","","","","","","","","","","","","","","","","","","","","","","","","50",""
"1807","","<div style=""width:500px;"">
  <p>How would you describe your current emotional state?</p>
  </div>","38","html-slider-response","65","738938","0.0-10.0-3.5","177","1","2025-07-09 09:12:44","7701e855f2ef39aa3fd6c71abdc6918a","188.197.254.76","Mozilla/5.0 (Windows NT 10.0; Win64; x64) AppleWebKit/537.36 (KHTML, like Gecko) Chrome/137.0.0.0 Safari/537.36","WebKit","Chrome","137.0.0.0","Windows","10.0","https://app.prolific.com/","en-SI,en;q=0.9,sl-SI;q=0.8,sl;q=0.7,en-GB;q=0.6,en-US;q=0.5","60fd34d68de7efbcd7de57a0","686d226cabeef709c732f8e1","686e313f3039a140379dac4a","60fd34d68de7efbcd7de57a0","2025-07-09T09:25:04.556Z","","","","","","StressQ","","","","","","","","","","","","","","","","","","","","","","","","","","","","","","","","","","","","","","50",""
"1495","","<div style=""width:500px;"">
  <p>What best describes how you currently feel?</p>
  </div>","37","html-slider-response","66","740434","0.0-10.0-4.5","177","1","2025-07-09 09:12:44","7701e855f2ef39aa3fd6c71abdc6918a","188.197.254.76","Mozilla/5.0 (Windows NT 10.0; Win64; x64) AppleWebKit/537.36 (KHTML, like Gecko) Chrome/137.0.0.0 Safari/537.36","WebKit","Chrome","137.0.0.0","Windows","10.0","https://app.prolific.com/","en-SI,en;q=0.9,sl-SI;q=0.8,sl;q=0.7,en-GB;q=0.6,en-US;q=0.5","60fd34d68de7efbcd7de57a0","686d226cabeef709c732f8e1","686e313f3039a140379dac4a","60fd34d68de7efbcd7de57a0","2025-07-09T09:25:06.052Z","","","","","","MotivationQ","","","","","","","","","","","","","","","","","","","","","","","","","","","","","","","","","","","","","","50",""
"","","","","ctl-task-cpt","67","767844","0.0-10.0-0.6","177","1","2025-07-09 09:12:44","7701e855f2ef39aa3fd6c71abdc6918a","188.197.254.76","Mozilla/5.0 (Windows NT 10.0; Win64; x64) AppleWebKit/537.36 (KHTML, like Gecko) Chrome/137.0.0.0 Safari/537.36","WebKit","Chrome","137.0.0.0","Windows","10.0","https://app.prolific.com/","en-SI,en;q=0.9,sl-SI;q=0.8,sl;q=0.7,en-GB;q=0.6,en-US;q=0.5","60fd34d68de7efbcd7de57a0","686d226cabeef709c732f8e1","686e313f3039a140379dac4a","60fd34d68de7efbcd7de57a0","2025-07-09T09:25:33.462Z","","","","","","","","","","","","","","","","win-only","2","g1:SE,g2:NW","0.4","7","0","743452","1212.5","6217","24391.2","1","4","4","6","1","1","1","16","15","0.12121212121212122","1495.6","3000","1560","[""down"",""right""]","{""num_key_presses"":4,""num_perfect"":3,""num_errors"":0,""num_randdir"":1,""num_randdir_good_moves"":1,""num_whilered"":0,""num_whileblue"":0,""num_blue"":2,""num_good_moves"":4}","[351.9642857142857,349.71428666796004,0.3,351.9642857142857,348.46428666796004,103.7,353.2142857142857,348.46428666796004,208.1,346.9642857142857,368.46428666796004,313.3,346.9642857142857,368.46428666796004,417.5,346.9642857142857,368.46428666796004,518.1,351.9642857142857,354.71428666796004,618.8,350.7142857142857,345.96428666796004,719.3,350.7142857142857,345.96428666796004,823.9,406.9642857142857,332.21428666796004,933.5,465.7142857142857,327.21428666796004,1038.5,673.2142857142857,517.21428666796,1138.9,741.9642857142857,584.71428666796,1238.9,716.9642857142857,628.46428666796,1339,676.9642857142857,647.21428666796,1439.7,671.9642857142857,648.46428666796,1543.2,671.9642857142857,648.46428666796,1648.8,671.9642857142857,647.21428666796,1753.6,621.9642857142857,480.96428666796004,1853.9,528.2142857142857,257.21428666796004,1959.4,530.7142857142857,258.46428666796004,2063.7,530.7142857142857,258.46428666796004,2164.1,530.7142857142857,258.46428666796004,2264.7,530.7142857142857,258.46428666796004,2369.1,530.7142857142857,258.46428666796004,2469.4,530.7142857142857,258.46428666796004,2573.1,530.7142857142857,258.46428666796004,2673.5,530.7142857142857,258.46428666796004,2775,530.7142857142857,258.46428666796004,2876.3,530.7142857142857,258.46428666796004,2980.8,530.7142857142857,258.46428666796004,3082.9,530.7142857142857,258.46428666796004,3183.8,530.7142857142857,258.46428666796004,3288.5,530.7142857142857,258.46428666796004,3388.9,530.7142857142857,258.46428666796004,3490,530.7142857142857,258.46428666796004,3592.8,530.7142857142857,258.46428666796004,3693.7,530.7142857142857,258.46428666796004,3793.9,530.7142857142857,258.46428666796004,3898.9,530.7142857142857,258.46428666796004,3999,530.7142857142857,258.46428666796004,4099.1,530.7142857142857,258.46428666796004,4203.2,530.7142857142857,258.46428666796004,4309.6,530.7142857142857,258.46428666796004,4417.9,530.7142857142857,258.46428666796004,4518.7,530.7142857142857,258.46428666796004,4623.3,530.7142857142857,258.46428666796004,4723.5,530.7142857142857,258.46428666796004,4823.8,530.7142857142857,258.46428666796004,4928]","[5496.2,5496.2,3088.9,2008.6,398.7,""smooth"",""down"",""down"",""good_move"",7749.6,2253,1775.1,5496.6,477.9,""oops"",""down"",""down"",""good_move"",14234.8,6484.9,2904.6,10993.5,336.8,""smooth"",""right"",""right"",""good_move"",18056.5,3821.3,3435.6,14235.2,385.7,""smooth"",""right"",""right"",""good_move""]","","",""
"2437","","<div style=""width:500px;"">
  <p>What determined the result of this run?</p>
  </div>","46","html-slider-response","68","770282","0.0-10.0-1.6","177","1","2025-07-09 09:12:44","7701e855f2ef39aa3fd6c71abdc6918a","188.197.254.76","Mozilla/5.0 (Windows NT 10.0; Win64; x64) AppleWebKit/537.36 (KHTML, like Gecko) Chrome/137.0.0.0 Safari/537.36","WebKit","Chrome","137.0.0.0","Windows","10.0","https://app.prolific.com/","en-SI,en;q=0.9,sl-SI;q=0.8,sl;q=0.7,en-GB;q=0.6,en-US;q=0.5","60fd34d68de7efbcd7de57a0","686d226cabeef709c732f8e1","686e313f3039a140379dac4a","60fd34d68de7efbcd7de57a0","2025-07-09T09:25:35.900Z","","","","","","AttribQ","","","","","","","","","","","","","","","","","","","","","","","","","","","","","","","","","","","","","","50",""
"2382","","<div style=""width:500px;"">
  <p>How much control did you have over the ball?</p>
  </div>","59","html-slider-response","69","772665","0.0-10.0-2.6","177","1","2025-07-09 09:12:44","7701e855f2ef39aa3fd6c71abdc6918a","188.197.254.76","Mozilla/5.0 (Windows NT 10.0; Win64; x64) AppleWebKit/537.36 (KHTML, like Gecko) Chrome/137.0.0.0 Safari/537.36","WebKit","Chrome","137.0.0.0","Windows","10.0","https://app.prolific.com/","en-SI,en;q=0.9,sl-SI;q=0.8,sl;q=0.7,en-GB;q=0.6,en-US;q=0.5","60fd34d68de7efbcd7de57a0","686d226cabeef709c732f8e1","686e313f3039a140379dac4a","60fd34d68de7efbcd7de57a0","2025-07-09T09:25:38.283Z","","","","","","ControlQ","","","","","","","","","","","","","","","","","","","","","","","","","","","","","","","","","","","","","","50",""
"1681","","<div style=""width:500px;"">
  <p>How would you describe your current emotional state?</p>
  </div>","42","html-slider-response","70","774347","0.0-10.0-3.6","177","1","2025-07-09 09:12:44","7701e855f2ef39aa3fd6c71abdc6918a","188.197.254.76","Mozilla/5.0 (Windows NT 10.0; Win64; x64) AppleWebKit/537.36 (KHTML, like Gecko) Chrome/137.0.0.0 Safari/537.36","WebKit","Chrome","137.0.0.0","Windows","10.0","https://app.prolific.com/","en-SI,en;q=0.9,sl-SI;q=0.8,sl;q=0.7,en-GB;q=0.6,en-US;q=0.5","60fd34d68de7efbcd7de57a0","686d226cabeef709c732f8e1","686e313f3039a140379dac4a","60fd34d68de7efbcd7de57a0","2025-07-09T09:25:39.965Z","","","","","","StressQ","","","","","","","","","","","","","","","","","","","","","","","","","","","","","","","","","","","","","","50",""
"1494","","<div style=""width:500px;"">
  <p>What best describes how you currently feel?</p>
  </div>","31","html-slider-response","71","775842","0.0-10.0-4.6","177","1","2025-07-09 09:12:44","7701e855f2ef39aa3fd6c71abdc6918a","188.197.254.76","Mozilla/5.0 (Windows NT 10.0; Win64; x64) AppleWebKit/537.36 (KHTML, like Gecko) Chrome/137.0.0.0 Safari/537.36","WebKit","Chrome","137.0.0.0","Windows","10.0","https://app.prolific.com/","en-SI,en;q=0.9,sl-SI;q=0.8,sl;q=0.7,en-GB;q=0.6,en-US;q=0.5","60fd34d68de7efbcd7de57a0","686d226cabeef709c732f8e1","686e313f3039a140379dac4a","60fd34d68de7efbcd7de57a0","2025-07-09T09:25:41.460Z","","","","","","MotivationQ","","","","","","","","","","","","","","","","","","","","","","","","","","","","","","","","","","","","","","50",""
"","","","","ctl-task-cpt","72","817414","0.0-10.0-0.7","177","1","2025-07-09 09:12:44","7701e855f2ef39aa3fd6c71abdc6918a","188.197.254.76","Mozilla/5.0 (Windows NT 10.0; Win64; x64) AppleWebKit/537.36 (KHTML, like Gecko) Chrome/137.0.0.0 Safari/537.36","WebKit","Chrome","137.0.0.0","Windows","10.0","https://app.prolific.com/","en-SI,en;q=0.9,sl-SI;q=0.8,sl;q=0.7,en-GB;q=0.6,en-US;q=0.5","60fd34d68de7efbcd7de57a0","686d226cabeef709c732f8e1","686e313f3039a140379dac4a","60fd34d68de7efbcd7de57a0","2025-07-09T09:26:23.032Z","","","","","","","","","","","","","","","","win-only","0","g1:NW,g2:SE","0.3","8","0","778859.9","1367.4","6371.2","38555.3","1","4","8","6","2","-8","-9","7","16","0.05303030303030303","1582","3000","-2490","[""down"",""right""]","{""num_key_presses"":11,""num_perfect"":3,""num_errors"":1,""num_randdir"":7,""num_randdir_good_moves"":4,""num_whilered"":0,""num_whileblue"":1,""num_blue"":2,""num_good_moves"":7}","[346.9642857142857,349.71428666796004,0.2,346.9642857142857,352.21428666796004,103.9,346.9642857142857,352.21428666796004,204.2,346.9642857142857,352.21428666796004,308,346.9642857142857,352.21428666796004,414.2,346.9642857142857,352.21428666796004,518.2,346.9642857142857,352.21428666796004,618.7,346.9642857142857,352.21428666796004,723.6,346.9642857142857,352.21428666796004,828.8,346.9642857142857,352.21428666796004,932.7,359.4642857142857,359.71428666796004,1033.1,554.4642857142857,514.71428666796,1133.8,634.4642857142857,608.46428666796,1238.3,645.7142857142857,635.96428666796,1347.2,646.9642857142857,647.21428666796,1448.7,646.9642857142857,647.21428666796,1552.1,646.9642857142857,647.21428666796,1652.2,646.9642857142857,647.21428666796,1753.5,630.7142857142857,415.96428666796004,1858.3,634.4642857142857,374.71428666796004,1959.2,634.4642857142857,374.71428666796004,2063.2,634.4642857142857,374.71428666796004,2168.4,634.4642857142857,374.71428666796004,2273.6,634.4642857142857,374.71428666796004,2378.7,634.4642857142857,374.71428666796004,2478.9,634.4642857142857,374.71428666796004,2583.5,634.4642857142857,374.71428666796004,2683.6,634.4642857142857,374.71428666796004,2788.1,634.4642857142857,374.71428666796004,2888.4,634.4642857142857,374.71428666796004,2988.8,634.4642857142857,374.71428666796004,3093.9,634.4642857142857,374.71428666796004,3198.3,634.4642857142857,374.71428666796004,3303.2,634.4642857142857,374.71428666796004,3403.8,634.4642857142857,374.71428666796004,3509,634.4642857142857,374.71428666796004,3612.8,634.4642857142857,374.71428666796004,3713.9,634.4642857142857,374.71428666796004,3818.4,634.4642857142857,374.71428666796004,3923.8,634.4642857142857,374.71428666796004,4031.1,634.4642857142857,374.71428666796004,4133.6,634.4642857142857,374.71428666796004,4238.5,634.4642857142857,374.71428666796004,4338.6,634.4642857142857,374.71428666796004,4443.8,634.4642857142857,374.71428666796004,4543.8,634.4642857142857,374.71428666796004,4645.4,634.4642857142857,374.71428666796004,4745.7,634.4642857142857,374.71428666796004,4848.2,634.4642857142857,374.71428666796004,4948.3]","[1394.3,1394.3,1000,0,394.3,""oops"",""down"",""right"",""good_move"",3959,2564.4,2158.8,1394.6,405.6,""oops"",""down"",""up"",""bad_move"",6973.3,3013.9,2718.8,3959.4,295.1,""smooth"",""right"",""right"",""good_move"",9644.5,2671,2360.5,6973.5,310.5,""smooth"",""down"",""down"",""good_move"",13322.4,3677.6,3371.7,9644.8,305.9,""oops"",""down"",""down"",""good_move"",15505.9,2183.3,1817.1,13322.6,366.2,""oops"",""down"",""down"",""good_move"",17844.5,2338.4,2022.4,15506.1,316,""oops"",""right"",""right"",""good_move"",20556.4,2711.5,2459.9,17844.9,251.6,""while_blue"",""down"",""up"",""bad_move"",26351.3,5794.6,2035.3,23974.8,341.2,""oops"",""down"",""up"",""bad_move"",28852.4,2500.9,2159.4,26351.5,341.5,""oops"",""down"",""up"",""bad_move"",30768.4,1915.7,1539.8,28852.7,375.9,""smooth"",""down"",""down"",""good_move""]","","",""
"2118","","<div style=""width:500px;"">
  <p>What determined the result of this run?</p>
  </div>","0","html-slider-response","73","819534","0.0-10.0-1.7","177","1","2025-07-09 09:12:44","7701e855f2ef39aa3fd6c71abdc6918a","188.197.254.76","Mozilla/5.0 (Windows NT 10.0; Win64; x64) AppleWebKit/537.36 (KHTML, like Gecko) Chrome/137.0.0.0 Safari/537.36","WebKit","Chrome","137.0.0.0","Windows","10.0","https://app.prolific.com/","en-SI,en;q=0.9,sl-SI;q=0.8,sl;q=0.7,en-GB;q=0.6,en-US;q=0.5","60fd34d68de7efbcd7de57a0","686d226cabeef709c732f8e1","686e313f3039a140379dac4a","60fd34d68de7efbcd7de57a0","2025-07-09T09:26:25.152Z","","","","","","AttribQ","","","","","","","","","","","","","","","","","","","","","","","","","","","","","","","","","","","","","","50",""
"2301","","<div style=""width:500px;"">
  <p>How much control did you have over the ball?</p>
  </div>","1","html-slider-response","74","821836","0.0-10.0-2.7","177","1","2025-07-09 09:12:44","7701e855f2ef39aa3fd6c71abdc6918a","188.197.254.76","Mozilla/5.0 (Windows NT 10.0; Win64; x64) AppleWebKit/537.36 (KHTML, like Gecko) Chrome/137.0.0.0 Safari/537.36","WebKit","Chrome","137.0.0.0","Windows","10.0","https://app.prolific.com/","en-SI,en;q=0.9,sl-SI;q=0.8,sl;q=0.7,en-GB;q=0.6,en-US;q=0.5","60fd34d68de7efbcd7de57a0","686d226cabeef709c732f8e1","686e313f3039a140379dac4a","60fd34d68de7efbcd7de57a0","2025-07-09T09:26:27.454Z","","","","","","ControlQ","","","","","","","","","","","","","","","","","","","","","","","","","","","","","","","","","","","","","","50",""
"1993","","<div style=""width:500px;"">
  <p>How would you describe your current emotional state?</p>
  </div>","62","html-slider-response","75","823830","0.0-10.0-3.7","177","1","2025-07-09 09:12:44","7701e855f2ef39aa3fd6c71abdc6918a","188.197.254.76","Mozilla/5.0 (Windows NT 10.0; Win64; x64) AppleWebKit/537.36 (KHTML, like Gecko) Chrome/137.0.0.0 Safari/537.36","WebKit","Chrome","137.0.0.0","Windows","10.0","https://app.prolific.com/","en-SI,en;q=0.9,sl-SI;q=0.8,sl;q=0.7,en-GB;q=0.6,en-US;q=0.5","60fd34d68de7efbcd7de57a0","686d226cabeef709c732f8e1","686e313f3039a140379dac4a","60fd34d68de7efbcd7de57a0","2025-07-09T09:26:29.448Z","","","","","","StressQ","","","","","","","","","","","","","","","","","","","","","","","","","","","","","","","","","","","","","","50",""
"1584","","<div style=""width:500px;"">
  <p>What best describes how you currently feel?</p>
  </div>","33","html-slider-response","76","825414","0.0-10.0-4.7","177","1","2025-07-09 09:12:44","7701e855f2ef39aa3fd6c71abdc6918a","188.197.254.76","Mozilla/5.0 (Windows NT 10.0; Win64; x64) AppleWebKit/537.36 (KHTML, like Gecko) Chrome/137.0.0.0 Safari/537.36","WebKit","Chrome","137.0.0.0","Windows","10.0","https://app.prolific.com/","en-SI,en;q=0.9,sl-SI;q=0.8,sl;q=0.7,en-GB;q=0.6,en-US;q=0.5","60fd34d68de7efbcd7de57a0","686d226cabeef709c732f8e1","686e313f3039a140379dac4a","60fd34d68de7efbcd7de57a0","2025-07-09T09:26:31.033Z","","","","","","MotivationQ","","","","","","","","","","","","","","","","","","","","","","","","","","","","","","","","","","","","","","50",""
"","","","","ctl-task-cpt","77","858366","0.0-10.0-0.8","177","1","2025-07-09 09:12:44","7701e855f2ef39aa3fd6c71abdc6918a","188.197.254.76","Mozilla/5.0 (Windows NT 10.0; Win64; x64) AppleWebKit/537.36 (KHTML, like Gecko) Chrome/137.0.0.0 Safari/537.36","WebKit","Chrome","137.0.0.0","Windows","10.0","https://app.prolific.com/","en-SI,en;q=0.9,sl-SI;q=0.8,sl;q=0.7,en-GB;q=0.6,en-US;q=0.5","60fd34d68de7efbcd7de57a0","686d226cabeef709c732f8e1","686e313f3039a140379dac4a","60fd34d68de7efbcd7de57a0","2025-07-09T09:27:03.984Z","","","","","","","","","","","","","","","","win-only","3","g1:SW,g2:NE","0.2","9","0","828432.7","978.1","5981.4","29940.7","1","4","4","6","2","4","3","10","7","0.07575757575757576","1938.8","3000","345","[""up"",""right""]","{""num_key_presses"":8,""num_perfect"":2,""num_errors"":1,""num_randdir"":5,""num_randdir_good_moves"":4,""num_whilered"":0,""num_whileblue"":1,""num_blue"":2,""num_good_moves"":7}","[351.9642857142857,363.46428666796004,0.2,351.9642857142857,363.46428666796004,103,351.9642857142857,363.46428666796004,203.1,351.9642857142857,363.46428666796004,313.2,351.9642857142857,363.46428666796004,417.9,351.9642857142857,363.46428666796004,518.1,351.9642857142857,364.71428666796004,619.2,351.9642857142857,364.71428666796004,723.1,351.9642857142857,364.71428666796004,826.5,351.9642857142857,364.71428666796004,930.4,351.9642857142857,364.71428666796004,1032.5,385.7142857142857,339.71428666796004,1133,614.4642857142857,80.96428666796004,1237.4,651.9642857142857,39.71428666796003,1338,651.9642857142857,39.71428666796003,1438.1,651.9642857142857,44.71428666796003,1543,648.2142857142857,47.21428666796003,1649.1,648.2142857142857,47.21428666796003,1749.2,648.2142857142857,47.21428666796003,1853,648.2142857142857,47.21428666796003,1960,648.2142857142857,47.21428666796003,2063.4,648.2142857142857,47.21428666796003,2167.3,648.2142857142857,47.21428666796003,2267.9,648.2142857142857,47.21428666796003,2368.4,648.2142857142857,47.21428666796003,2468.7,648.2142857142857,47.21428666796003,2568.7,648.2142857142857,47.21428666796003,2676.2,648.2142857142857,47.21428666796003,2778.4,648.2142857142857,47.21428666796003,2882.4,648.2142857142857,47.21428666796003,2982.9,648.2142857142857,47.21428666796003,3083.3,648.2142857142857,47.21428666796003,3187.9,648.2142857142857,47.21428666796003,3289.5,648.2142857142857,47.21428666796003,3393.5,648.2142857142857,47.21428666796003,3493.8,648.2142857142857,47.21428666796003,3596.9,648.2142857142857,47.21428666796003,3698.1,648.2142857142857,47.21428666796003,3802.9,648.2142857142857,47.21428666796003,3903.8,648.2142857142857,47.21428666796003,4007.3,648.2142857142857,47.21428666796003,4107.6,648.2142857142857,47.21428666796003,4207.9,648.2142857142857,47.21428666796003,4308,648.2142857142857,47.21428666796003,4409.9,648.2142857142857,47.21428666796003,4512.4,648.2142857142857,47.21428666796003,4612.6,648.2142857142857,47.21428666796003,4718.5,648.2142857142857,47.21428666796003,4822.5,648.2142857142857,47.21428666796003,4923.5]","[1421.6,1421.6,1000,0,421.6,""oops"",""right"",""up"",""good_move"",7414.4,5992.4,2035.3,4960.2,418.9,""oops"",""up"",""down"",""bad_move"",9901.4,2486.7,1971.5,7414.7,515.2,""oops"",""right"",""up"",""good_move"",13178.8,3277,2908.8,9901.8,368.2,""smooth"",""right"",""right"",""good_move"",15713.5,2534.2,2199.5,13179.3,334.7,""smooth"",""right"",""right"",""good_move"",18694,2980.3,2687.2,15713.7,293.1,""while_blue"",""right"",""right"",""good_move"",21297.4,2603.2,2132.9,18694.2,470.3,""oops"",""up"",""up"",""good_move"",23851.4,2553.6,2148.6,21297.8,405,""oops"",""up"",""up"",""good_move""]","","",""
"1704","","<div style=""width:500px;"">
  <p>What determined the result of this run?</p>
  </div>","25","html-slider-response","78","860071","0.0-10.0-1.8","177","1","2025-07-09 09:12:44","7701e855f2ef39aa3fd6c71abdc6918a","188.197.254.76","Mozilla/5.0 (Windows NT 10.0; Win64; x64) AppleWebKit/537.36 (KHTML, like Gecko) Chrome/137.0.0.0 Safari/537.36","WebKit","Chrome","137.0.0.0","Windows","10.0","https://app.prolific.com/","en-SI,en;q=0.9,sl-SI;q=0.8,sl;q=0.7,en-GB;q=0.6,en-US;q=0.5","60fd34d68de7efbcd7de57a0","686d226cabeef709c732f8e1","686e313f3039a140379dac4a","60fd34d68de7efbcd7de57a0","2025-07-09T09:27:05.689Z","","","","","","AttribQ","","","","","","","","","","","","","","","","","","","","","","","","","","","","","","","","","","","","","","50",""
"1868","","<div style=""width:500px;"">
  <p>How much control did you have over the ball?</p>
  </div>","29","html-slider-response","79","861941","0.0-10.0-2.8","177","1","2025-07-09 09:12:44","7701e855f2ef39aa3fd6c71abdc6918a","188.197.254.76","Mozilla/5.0 (Windows NT 10.0; Win64; x64) AppleWebKit/537.36 (KHTML, like Gecko) Chrome/137.0.0.0 Safari/537.36","WebKit","Chrome","137.0.0.0","Windows","10.0","https://app.prolific.com/","en-SI,en;q=0.9,sl-SI;q=0.8,sl;q=0.7,en-GB;q=0.6,en-US;q=0.5","60fd34d68de7efbcd7de57a0","686d226cabeef709c732f8e1","686e313f3039a140379dac4a","60fd34d68de7efbcd7de57a0","2025-07-09T09:27:07.559Z","","","","","","ControlQ","","","","","","","","","","","","","","","","","","","","","","","","","","","","","","","","","","","","","","50",""
"1787","","<div style=""width:500px;"">
  <p>How would you describe your current emotional state?</p>
  </div>","62","html-slider-response","80","863729","0.0-10.0-3.8","177","1","2025-07-09 09:12:44","7701e855f2ef39aa3fd6c71abdc6918a","188.197.254.76","Mozilla/5.0 (Windows NT 10.0; Win64; x64) AppleWebKit/537.36 (KHTML, like Gecko) Chrome/137.0.0.0 Safari/537.36","WebKit","Chrome","137.0.0.0","Windows","10.0","https://app.prolific.com/","en-SI,en;q=0.9,sl-SI;q=0.8,sl;q=0.7,en-GB;q=0.6,en-US;q=0.5","60fd34d68de7efbcd7de57a0","686d226cabeef709c732f8e1","686e313f3039a140379dac4a","60fd34d68de7efbcd7de57a0","2025-07-09T09:27:09.347Z","","","","","","StressQ","","","","","","","","","","","","","","","","","","","","","","","","","","","","","","","","","","","","","","50",""
"1457","","<div style=""width:500px;"">
  <p>What best describes how you currently feel?</p>
