"rt","response_timestamp","stimulus","response","trial_type","trial_index","time_elapsed","internal_node_id","run_id","condition","recorded_at","source_code_version","ip","user_agent","device","browser","browser_version","platform","platform_version","referer","accept_language","PROLIFIC_PID","STUDY_ID","SESSION_ID","prolific_id","realtime","view_history","question_order","consent","success","question_id","eventType","responses","item_order","radio_event_ids","radio_event_times","key_event_times","mouse_event_times","straightlining","zigzagging","honeypot","which_type","canvas_config","goals_layout","control_level","trial_number","tutorial_trial_number","trial_start_time","phase1_start_time","phase2_start_time","phase3_start_time","goal_1_value","goal_1_distance","goal_2_value","goal_2_distance","goal_selected","outcome","outcome_total","participant_final_score","participant_initial_score","participant_final_score_prop","goal_choice_rt","allocated_time","allocated_time_remaining","goal_direction","counts","mouse_movements","key_presses","correct","slider_start"
"15197","1752052157388","<p style='font-size:40px;line-height:1.25'><strong>Welcome to the experiment!</strong></p><p style='font-size:1.1em;line-height:1.25'>Thank you for your interest in our experiment! Before you begin, it is important that we obtain your informed consent to participate in the study.</p><p style='font-size:1.1em;line-height:1.25'>On the next screen will be an <strong>information sheet</strong> for you to read. To participate in the study we need you to read this information sheet and the following consent form carefully. If you agree with all the statements, please click the <strong>I agree</strong> button.</p><p style='font-size:1.1em;line-height:1.25'>Press <strong>Next</strong> to read the information sheet.</p>","0","custom-html-button-response","0","15233","0.0-0.0","133","1","2025-07-09 09:09:00","7701e855f2ef39aa3fd6c71abdc6918a","37.47.210.126","Mozilla/5.0 (Windows NT 10.0; Win64; x64; rv:140.0) Gecko/20100101 Firefox/140.0","","Firefox","140.0","Windows","10.0","https://app.prolific.com/","pl","66a6211743bf2623c0a8eb81","686d226cabeef709c732f8e1","686e31120b16739db1ddbbc1","66a6211743bf2623c0a8eb81","2025-07-09T09:09:17.390Z","","","","","","","","","","","","","","","","","","","","","","","","","","","","","","","","","","","","","","","","","","","",""
"10323","","","","instructions","1","25560","0.0-1.0","133","1","2025-07-09 09:09:00","7701e855f2ef39aa3fd6c71abdc6918a","37.47.210.126","Mozilla/5.0 (Windows NT 10.0; Win64; x64; rv:140.0) Gecko/20100101 Firefox/140.0","","Firefox","140.0","Windows","10.0","https://app.prolific.com/","pl","66a6211743bf2623c0a8eb81","686d226cabeef709c732f8e1","686e31120b16739db1ddbbc1","66a6211743bf2623c0a8eb81","","[{""page_index"":0,""viewing_time"":5541},{""page_index"":1,""viewing_time"":4781}]","","","","","","","","","","","","","","","","","","","","","","","","","","","","","","","","","","","","","","","","","","",""
"4563","","","{""Q0"":"""",""Q1"":"""",""Q2"":"""",""Q3"":"""",""Q4"":"""",""Q5"":"""",""Q6"":""I agree""}","survey-multi-choice","2","30138","0.0-2.0","133","1","2025-07-09 09:09:00","7701e855f2ef39aa3fd6c71abdc6918a","37.47.210.126","Mozilla/5.0 (Windows NT 10.0; Win64; x64; rv:140.0) Gecko/20100101 Firefox/140.0","","Firefox","140.0","Windows","10.0","https://app.prolific.com/","pl","66a6211743bf2623c0a8eb81","686d226cabeef709c732f8e1","686e31120b16739db1ddbbc1","66a6211743bf2623c0a8eb81","","","[0,1,2,3,4,5,6]","true","","","","","","","","","","","","","","","","","","","","","","","","","","","","","","","","","","","","","","","","",""
"6750","","","","fullscreen","3","37900","0.0-4.0","133","1","2025-07-09 09:09:00","7701e855f2ef39aa3fd6c71abdc6918a","37.47.210.126","Mozilla/5.0 (Windows NT 10.0; Win64; x64; rv:140.0) Gecko/20100101 Firefox/140.0","","Firefox","140.0","Windows","10.0","https://app.prolific.com/","pl","66a6211743bf2623c0a8eb81","686d226cabeef709c732f8e1","686e31120b16739db1ddbbc1","66a6211743bf2623c0a8eb81","","","","","true","","","","","","","","","","","","","","","","","","","","","","","","","","","","","","","","","","","","","","","",""
"4166","1752052184225"," <p style='font-size:1.1em;line-height:1.25'>Thank you for completing the consent form and closing all other tabs.</p><p style='font-size:1.1em;line-height:1.25'>We will now invite you to fill in some demographic information and questionnaires, before starting the game.<br>This will take about 5 minutes.<br></p><p style='font-size:1.1em;line-height:1.25'>Press the <strong>Next</strong> button to continue.</p>","0","custom-html-button-response","4","42070","0.0-5.0","133","1","2025-07-09 09:09:00","7701e855f2ef39aa3fd6c71abdc6918a","37.47.210.126","Mozilla/5.0 (Windows NT 10.0; Win64; x64; rv:140.0) Gecko/20100101 Firefox/140.0","","Firefox","140.0","Windows","10.0","https://app.prolific.com/","pl","66a6211743bf2623c0a8eb81","686d226cabeef709c732f8e1","686e31120b16739db1ddbbc1","66a6211743bf2623c0a8eb81","2025-07-09T09:09:44.226Z","","","","","","","","","","","","","","","","","","","","","","","","","","","","","","","","","","","","","","","","","","","",""
"21868","","","{""age"":""39""}","survey-text","5","64027","0.0-6.0-0.0","133","1","2025-07-09 09:09:00","7701e855f2ef39aa3fd6c71abdc6918a","37.47.210.126","Mozilla/5.0 (Windows NT 10.0; Win64; x64; rv:140.0) Gecko/20100101 Firefox/140.0","","Firefox","140.0","Windows","10.0","https://app.prolific.com/","pl","66a6211743bf2623c0a8eb81","686d226cabeef709c732f8e1","686e31120b16739db1ddbbc1","66a6211743bf2623c0a8eb81","","","","","","0","demographics","","","","","","","","","","","","","","","","","","","","","","","","","","","","","","","","","","","","","",""
"2156","","","{""gender_identity"":""female/woman""}","survey-multi-choice","6","66187","0.0-6.0-1.0","133","1","2025-07-09 09:09:00","7701e855f2ef39aa3fd6c71abdc6918a","37.47.210.126","Mozilla/5.0 (Windows NT 10.0; Win64; x64; rv:140.0) Gecko/20100101 Firefox/140.0","","Firefox","140.0","Windows","10.0","https://app.prolific.com/","pl","66a6211743bf2623c0a8eb81","686d226cabeef709c732f8e1","686e31120b16739db1ddbbc1","66a6211743bf2623c0a8eb81","","","[0]","","","1","demographics","","","","","","","","","","","","","","","","","","","","","","","","","","","","","","","","","","","","","",""
"5469","","","{""assigned_sex"":""female""}","survey-multi-choice","7","71659","0.0-6.0-2.0","133","1","2025-07-09 09:09:00","7701e855f2ef39aa3fd6c71abdc6918a","37.47.210.126","Mozilla/5.0 (Windows NT 10.0; Win64; x64; rv:140.0) Gecko/20100101 Firefox/140.0","","Firefox","140.0","Windows","10.0","https://app.prolific.com/","pl","66a6211743bf2623c0a8eb81","686d226cabeef709c732f8e1","686e31120b16739db1ddbbc1","66a6211743bf2623c0a8eb81","","","[0]","","","2","demographics","","","","","","","","","","","","","","","","","","","","","","","","","","","","","","","","","","","","","",""
"63476","","","{""menstrual_cycle"":""No""}","survey-multi-choice","8","135142","0.0-6.0-3.0","133","1","2025-07-09 09:09:00","7701e855f2ef39aa3fd6c71abdc6918a","37.47.210.126","Mozilla/5.0 (Windows NT 10.0; Win64; x64; rv:140.0) Gecko/20100101 Firefox/140.0","","Firefox","140.0","Windows","10.0","https://app.prolific.com/","pl","66a6211743bf2623c0a8eb81","686d226cabeef709c732f8e1","686e31120b16739db1ddbbc1","66a6211743bf2623c0a8eb81","","","[0]","","","4","demographics","","","","","","","","","","","","","","","","","","","","","","","","","","","","","","","","","","","","","",""
"6184","","","{""education"":""Master's Degree (e.g., MSc)""}","survey-multi-choice","9","141337","0.0-6.0-4.0","133","1","2025-07-09 09:09:00","7701e855f2ef39aa3fd6c71abdc6918a","37.47.210.126","Mozilla/5.0 (Windows NT 10.0; Win64; x64; rv:140.0) Gecko/20100101 Firefox/140.0","","Firefox","140.0","Windows","10.0","https://app.prolific.com/","pl","66a6211743bf2623c0a8eb81","686d226cabeef709c732f8e1","686e31120b16739db1ddbbc1","66a6211743bf2623c0a8eb81","","","[0]","","","5","demographics","","","","","","","","","","","","","","","","","","","","","","","","","","","","","","","","","","","","","",""
"52296","","","{""education"":""Bachelor's Degree (e.g., BA)""}","survey-multi-choice","10","193641","0.0-6.0-5.0","133","1","2025-07-09 09:09:00","7701e855f2ef39aa3fd6c71abdc6918a","37.47.210.126","Mozilla/5.0 (Windows NT 10.0; Win64; x64; rv:140.0) Gecko/20100101 Firefox/140.0","","Firefox","140.0","Windows","10.0","https://app.prolific.com/","pl","66a6211743bf2623c0a8eb81","686d226cabeef709c732f8e1","686e31120b16739db1ddbbc1","66a6211743bf2623c0a8eb81","2025-07-09T09:12:15.797Z","","[0]","","","6","demographics","","","","","","","","","","","","","","","","","","","","","","","","","","","","","","","","","","","","","",""
"12518","","","{""mental_health_condition"":""no"",""mental_health_treatment"":""no"",""psychiatric_medication"":""no""}","survey-text","11","206204","0.0-7.0-0.0","133","1","2025-07-09 09:09:00","7701e855f2ef39aa3fd6c71abdc6918a","37.47.210.126","Mozilla/5.0 (Windows NT 10.0; Win64; x64; rv:140.0) Gecko/20100101 Firefox/140.0","","Firefox","140.0","Windows","10.0","https://app.prolific.com/","pl","66a6211743bf2623c0a8eb81","686d226cabeef709c732f8e1","686e31120b16739db1ddbbc1","66a6211743bf2623c0a8eb81","2025-07-09T09:12:28.360Z","","","","","1","mental_health","","","","","","","","","","","","","","","","","","","","","","","","","","","","","","","","","","","","","",""
"8895","","","{""depression_history"":[""No""]}","survey-multi-select","12","215105","0.0-7.0-1.0","133","1","2025-07-09 09:09:00","7701e855f2ef39aa3fd6c71abdc6918a","37.47.210.126","Mozilla/5.0 (Windows NT 10.0; Win64; x64; rv:140.0) Gecko/20100101 Firefox/140.0","","Firefox","140.0","Windows","10.0","https://app.prolific.com/","pl","66a6211743bf2623c0a8eb81","686d226cabeef709c732f8e1","686e31120b16739db1ddbbc1","66a6211743bf2623c0a8eb81","","","[0]","","","","mental_health","","","","","","","","","","","","","","","","","","","","","","","","","","","","","","","","","","","","","",""
"117229","","","","survey-template","13","332352","0.0-7.0-3.0","133","1","2025-07-09 09:09:00","7701e855f2ef39aa3fd6c71abdc6918a","37.47.210.126","Mozilla/5.0 (Windows NT 10.0; Win64; x64; rv:140.0) Gecko/20100101 Firefox/140.0","","Firefox","140.0","Windows","10.0","https://app.prolific.com/","pl","66a6211743bf2623c0a8eb81","686d226cabeef709c732f8e1","686e31120b16739db1ddbbc1","66a6211743bf2623c0a8eb81","2025-07-09T09:14:34.508Z","","","","","","ius","{""Q01"":""1"",""Q02"":""3"",""Q03"":""1"",""Q04"":""2"",""Q05"":""0"",""Q06"":""0"",""Q07"":""1"",""Q08"":""0"",""Q09"":""1"",""Q10"":""1"",""Q11"":""0"",""Q12"":""3"",""Q13"":""2""}","[0,1,2,3,4,5,6,7,8,9,10,11,12]","[""Q01"",""Q02"",""Q13"",""Q12"",""Q11"",""Q10"",""Q09"",""Q03"",""Q04"",""Q05"",""Q06"",""Q07"",""Q08""]","[28569,34517,40785,44687,49040,54105,59233,65507,70109,75653,81001,84871,102694]","[]","[28569,34517,40785,44687,49040,53303,54105,56797,57903,59233,65507,70109,75188,75653,81001,84871,102694,117227]","0.38461538461538464","0.5","0","","","","","","","","","","","","","","","","","","","","","","","","","","","","",""
"41499","1752052516014","<p style='font-size:1.1em;line-height:1.25'>In the following, we will ask you a few questions relating to your experiences over the past month.<br></p><p style='font-size:1.1em;line-height:1.25'>Press the <strong>Next</strong> button to continue.</p>","0","custom-html-button-response","14","373858","0.0-7.0-4.0","133","1","2025-07-09 09:09:00","7701e855f2ef39aa3fd6c71abdc6918a","37.47.210.126","Mozilla/5.0 (Windows NT 10.0; Win64; x64; rv:140.0) Gecko/20100101 Firefox/140.0","","Firefox","140.0","Windows","10.0","https://app.prolific.com/","pl","66a6211743bf2623c0a8eb81","686d226cabeef709c732f8e1","686e31120b16739db1ddbbc1","66a6211743bf2623c0a8eb81","2025-07-09T09:15:16.014Z","","","","","","","","","","","","","","","","","","","","","","","","","","","","","","","","","","","","","","","","","","","",""
"81732","","","","survey-template","15","455596","0.0-7.0-5.0","133","1","2025-07-09 09:09:00","7701e855f2ef39aa3fd6c71abdc6918a","37.47.210.126","Mozilla/5.0 (Windows NT 10.0; Win64; x64; rv:140.0) Gecko/20100101 Firefox/140.0","","Firefox","140.0","Windows","10.0","https://app.prolific.com/","pl","66a6211743bf2623c0a8eb81","686d226cabeef709c732f8e1","686e31120b16739db1ddbbc1","66a6211743bf2623c0a8eb81","2025-07-09T09:16:37.752Z","","","","","","pss","{""Q01"":""1"",""Q02"":""0"",""Q03"":""2"",""Q04"":""0"",""Q05"":""1"",""Q06"":""1"",""Q07"":""1"",""Q08"":""1"",""Q09"":""1"",""Q10"":""0""}","[0,1,2,3,4,5,6,7,8,9]","[""Q01"",""Q02"",""Q03"",""Q04"",""Q10"",""Q09"",""Q08"",""Q07"",""Q06"",""Q05""]","[10321,15492,20324,35309,41279,46087,51762,57269,64233,68329]","[]","[0,10321,15492,20324,34435,35309,41279,46087,51762,57269,62655,64233,68329,81731]","0.3","0.3333333333333333","0","","","","","","","","","","","","","","","","","","","","","","","","","","","","",""
"5457","1752052603214","<p style='font-size:1.1em;line-height:1.25'>Thank you for your answers! Now we will ask you a few more questions relating to your feelings in the last 24 hours.<br></p><p style='font-size:1.1em;line-height:1.25'>Press the <strong>Next</strong> button to continue.</p>","0","custom-html-button-response","16","461058","0.0-7.0-6.0","133","1","2025-07-09 09:09:00","7701e855f2ef39aa3fd6c71abdc6918a","37.47.210.126","Mozilla/5.0 (Windows NT 10.0; Win64; x64; rv:140.0) Gecko/20100101 Firefox/140.0","","Firefox","140.0","Windows","10.0","https://app.prolific.com/","pl","66a6211743bf2623c0a8eb81","686d226cabeef709c732f8e1","686e31120b16739db1ddbbc1","66a6211743bf2623c0a8eb81","2025-07-09T09:16:43.215Z","","","","","","","","","","","","","","","","","","","","","","","","","","","","","","","","","","","","","","","","","","","",""
"65239","","","","survey-template","17","526306","0.0-7.0-7.0","133","1","2025-07-09 09:09:00","7701e855f2ef39aa3fd6c71abdc6918a","37.47.210.126","Mozilla/5.0 (Windows NT 10.0; Win64; x64; rv:140.0) Gecko/20100101 Firefox/140.0","","Firefox","140.0","Windows","10.0","https://app.prolific.com/","pl","66a6211743bf2623c0a8eb81","686d226cabeef709c732f8e1","686e31120b16739db1ddbbc1","66a6211743bf2623c0a8eb81","2025-07-09T09:17:48.463Z","","","","","","drsp","{""Q01"":""0"",""Q02"":""0"",""Q03"":""0"",""Q04"":""1"",""Q05"":""0"",""Q06"":""0"",""Q07"":""1"",""Q08"":""0"",""Q09"":""0"",""Q10"":""0"",""Q11"":""0"",""Q12"":""0"",""Q13"":""1"",""Q14"":""0"",""Q15"":""0"",""Q16"":""0"",""Q17"":""0"",""Q18"":""0"",""Q19"":""0"",""Q20"":""0"",""Q21"":""0""}","[0,1,2,3,4,5,6,7,8,9,10,11,12,13,14,15,16,17,18,19,20]","[""Q01"",""Q02"",""Q03"",""Q04"",""Q05"",""Q06"",""Q07"",""Q08"",""Q09"",""Q21"",""Q20"",""Q19"",""Q18"",""Q17"",""Q15"",""Q11"",""Q10"",""Q12"",""Q13"",""Q13"",""Q14"",""Q16""]","[6059,7799,9040,12575,14985,17541,19062,21635,24608,29349,32045,33943,36541,38238,40518,44127,44926,46569,50432,52747,54975,64141]","[]","[0,6059,7799,9040,12575,14985,17541,19062,21635,24608,29349,32045,33943,36541,38238,39584,40518,43373,44127,44926,46569,50432,52747,54975,58469,64141,65238]","0.8571428571428571","0.3","0","","","","","","","","","","","","","","","","","","","","","","","","","","","","",""
"19697","","","","survey-template","18","546009","0.0-7.0-8.0","133","1","2025-07-09 09:09:00","7701e855f2ef39aa3fd6c71abdc6918a","37.47.210.126","Mozilla/5.0 (Windows NT 10.0; Win64; x64; rv:140.0) Gecko/20100101 Firefox/140.0","","Firefox","140.0","Windows","10.0","https://app.prolific.com/","pl","66a6211743bf2623c0a8eb81","686d226cabeef709c732f8e1","686e31120b16739db1ddbbc1","66a6211743bf2623c0a8eb81","2025-07-09T09:18:08.165Z","","","","","","stress","{""Q01"":""1"",""Q02"":""1"",""Q03"":""0""}","[0,1,2]","[""Q01"",""Q02"",""Q03""]","[4851,13261,18768]","[]","[4851,13261,18768,19696]","0.3333333333333333","0","0","","","","","","","","","","","","","","","","","","","","","","","","","","","","",""
"457447","","","","instructions","19","1003460","0.0-8.0-0.0","133","1","2025-07-09 09:09:00","7701e855f2ef39aa3fd6c71abdc6918a","37.47.210.126","Mozilla/5.0 (Windows NT 10.0; Win64; x64; rv:140.0) Gecko/20100101 Firefox/140.0","","Firefox","140.0","Windows","10.0","https://app.prolific.com/","pl","66a6211743bf2623c0a8eb81","686d226cabeef709c732f8e1","686e31120b16739db1ddbbc1","66a6211743bf2623c0a8eb81","","[{""page_index"":0,""viewing_time"":173354},{""page_index"":1,""viewing_time"":62539},{""page_index"":2,""viewing_time"":179910},{""page_index"":3,""viewing_time"":41644}]","","","","","","","","","","","","","","","","","","","","","","","","","","","","","","","","","","","","","","","","","","",""
"","","","","ctl-task-cpt","20","1029493","0.0-8.0-1.0","133","1","2025-07-09 09:09:00","7701e855f2ef39aa3fd6c71abdc6918a","37.47.210.126","Mozilla/5.0 (Windows NT 10.0; Win64; x64; rv:140.0) Gecko/20100101 Firefox/140.0","","Firefox","140.0","Windows","10.0","https://app.prolific.com/","pl","66a6211743bf2623c0a8eb81","686d226cabeef709c732f8e1","686e31120b16739db1ddbbc1","66a6211743bf2623c0a8eb81","","","","","","","","","","","","","","","","","win-only","2","g1:SE,g2:NW","1","0","1","1005814","4775","8776","23000","2","4","4","6","1","2","1","1","0","0.007575757575757576","1861","4000","3410","[""down"",""right""]","{""num_key_presses"":5,""num_perfect"":4,""num_errors"":1,""num_randdir"":0,""num_randdir_good_moves"":0,""num_whilered"":0,""num_whileblue"":0,""num_blue"":0,""num_good_moves"":4}","[294.22857753208706,291.92857448032925,9,294.22857753208706,291.92857448032925,106,294.22857753208706,291.92857448032925,215,294.22857753208706,291.92857448032925,328,294.22857753208706,291.92857448032925,437,294.22857753208706,291.92857448032925,548,294.22857753208706,291.92857448032925,657,294.22857753208706,291.92857448032925,767,294.22857753208706,291.92857448032925,876,309.22857753208706,304.92857448032925,987,318.22857753208706,313.92857448032925,1097,325.22857753208706,322.92857448032925,1206,343.22857753208706,345.92857448032925,1318,484.22857753208706,437.92857448032925,1431,492.22857753208706,459.92857448032925,1542,528.228577532087,532.9285744803292,1652,537.228577532087,541.9285744803292,1761,540.228577532087,544.9285744803292,1872,540.228577532087,544.9285744803292,1983,540.228577532087,544.9285744803292,2092,540.228577532087,544.9285744803292,2203,541.228577532087,542.9285744803292,2315,541.228577532087,530.9285744803292,2428,541.228577532087,530.9285744803292,2537,541.228577532087,530.9285744803292,2647,541.228577532087,530.9285744803292,2756,541.228577532087,530.9285744803292,2867,541.228577532087,530.9285744803292,2978,541.228577532087,530.9285744803292,3085,541.228577532087,530.9285744803292,3196,541.228577532087,530.9285744803292,3308,541.228577532087,530.9285744803292,3418,541.228577532087,530.9285744803292,3528,541.228577532087,530.9285744803292,3639,541.228577532087,530.9285744803292,3749,541.228577532087,530.9285744803292,3861,541.228577532087,530.9285744803292,3970]","[510,510,1000,0,-490,""error"",""-"",""-"",""no_move"",4775,4265,2702.9,1511,561.1,""smooth"",""right"",""right"",""good_move"",7702,2927,2422.2,4775,504.8,""smooth"",""down"",""down"",""good_move"",11085,3383,2975.8,7703,406.2,""smooth"",""down"",""down"",""good_move"",13933,2847,2424.9,11086,422.1,""smooth"",""right"",""right"",""good_move""]","",""
"20185","","","","instructions","21","1049680","0.0-8.0-2.0","133","1","2025-07-09 09:09:00","7701e855f2ef39aa3fd6c71abdc6918a","37.47.210.126","Mozilla/5.0 (Windows NT 10.0; Win64; x64; rv:140.0) Gecko/20100101 Firefox/140.0","","Firefox","140.0","Windows","10.0","https://app.prolific.com/","pl","66a6211743bf2623c0a8eb81","686d226cabeef709c732f8e1","686e31120b16739db1ddbbc1","66a6211743bf2623c0a8eb81","","[{""page_index"":0,""viewing_time"":20185}]","","","","","","","","","","","","","","","","","","","","","","","","","","","","","","","","","","","","","","","","","","",""
"","","","","ctl-task-cpt","22","1105775","0.0-8.0-3.0","133","1","2025-07-09 09:09:00","7701e855f2ef39aa3fd6c71abdc6918a","37.47.210.126","Mozilla/5.0 (Windows NT 10.0; Win64; x64; rv:140.0) Gecko/20100101 Firefox/140.0","","Firefox","140.0","Windows","10.0","https://app.prolific.com/","pl","66a6211743bf2623c0a8eb81","686d226cabeef709c732f8e1","686e31120b16739db1ddbbc1","66a6211743bf2623c0a8eb81","","","","","","","","","","","","","","","","","win-only","2","g1:SE,g2:NW","0.35","0","3","1052020","1855","5863","53085","2","4","8","6","2","8","5","5","0","0.03787878787878788","1711","4000","2455","[""left"",""up""]","{""num_key_presses"":14,""num_perfect"":5,""num_errors"":3,""num_randdir"":6,""num_randdir_good_moves"":2,""num_whilered"":0,""num_whileblue"":3,""num_blue"":4,""num_good_moves"":10}","[290.22857753208706,297.92857448032925,0,290.22857753208706,297.92857448032925,108,290.22857753208706,297.92857448032925,219,290.22857753208706,297.92857448032925,327,290.22857753208706,297.92857448032925,437,290.22857753208706,297.92857448032925,545,290.22857753208706,297.92857448032925,653,290.22857753208706,297.92857448032925,753,293.22857753208706,279.92857448032925,855,305.22857753208706,274.92857448032925,965,410.22857753208706,339.92857448032925,1074,446.22857753208706,373.92857448032925,1185,167.22857753208706,173.92857448032925,1292,66.22857753208706,19.92857448032924,1403,59.22857753208705,10.928574480329239,1511,42.22857753208705,28.92857448032924,1621,40.22857753208705,35.92857448032924,1730,39.22857753208705,36.92857448032924,1841,39.22857753208705,36.92857448032924,1950,39.22857753208705,36.92857448032924,2059,325.22857753208706,77.92857448032925,2166,978.228577532087,169.92857448032925,2275,978.228577532087,169.92857448032925,2385,978.228577532087,169.92857448032925,2494,978.228577532087,169.92857448032925,2603,978.228577532087,169.92857448032925,2713,978.228577532087,169.92857448032925,2823,978.228577532087,169.92857448032925,2930,978.228577532087,169.92857448032925,3040,978.228577532087,169.92857448032925,3151,978.228577532087,169.92857448032925,3260,978.228577532087,169.92857448032925,3369,978.228577532087,169.92857448032925,3478,978.228577532087,169.92857448032925,3588,978.228577532087,169.92857448032925,3698,978.228577532087,169.92857448032925,3806,978.228577532087,169.92857448032925,3915]","[1406,1406,1000,0,406,""oops"",""left"",""down"",""bad_move"",4015,2609,2014.2,1406,594.8,""oops"",""up"",""up"",""good_move"",7023,3007,2660,4016,347,""while_blue"",""up"",""left"",""good_move"",10315,3292,2662.4,7023,629.6,""oops"",""right"",""right"",""bad_move"",16534,6219,2781,13277,476,""while_blue"",""up"",""left"",""good_move"",19625,3091,2407.8,16534,683.2,""oops"",""up"",""up"",""good_move"",23192,3567,3139.9,19625,427.1,""oops"",""up"",""right"",""bad_move"",27349,4156,3706.1,23193,449.9,""oops"",""up"",""down"",""bad_move"",30823,3474,3112.4,27349,361.6,""smooth"",""up"",""up"",""good_move"",34435,3612,3216.1,30823,395.9,""smooth"",""left"",""left"",""good_move"",37541,3105,2698.1,34436,406.9,""smooth"",""left"",""left"",""good_move"",40740,3198,2854,37542,344,""while_blue"",""up"",""left"",""good_move"",43800,3060,1987.3,40740,1072.7,""smooth"",""up"",""up"",""good_move"",46941,3141,2077.6,43800,1063.4,""smooth"",""up"",""up"",""good_move""]","",""
"74005","","","","instructions","23","1179781","0.0-8.0-4.0","133","1","2025-07-09 09:09:00","7701e855f2ef39aa3fd6c71abdc6918a","37.47.210.126","Mozilla/5.0 (Windows NT 10.0; Win64; x64; rv:140.0) Gecko/20100101 Firefox/140.0","","Firefox","140.0","Windows","10.0","https://app.prolific.com/","pl","66a6211743bf2623c0a8eb81","686d226cabeef709c732f8e1","686e31120b16739db1ddbbc1","66a6211743bf2623c0a8eb81","","[{""page_index"":0,""viewing_time"":30798},{""page_index"":1,""viewing_time"":43206}]","","","","","","","","","","","","","","","","","","","","","","","","","","","","","","","","","","","","","","","","","","",""
"25952","","","{""green_ball"":[""Ball always moves in the direction I press"",""Ball sometimes shakes and moves in a random direction""]}","survey-multi-select","24","1205740","0.0-8.0-5.0-0.0","133","1","2025-07-09 09:09:00","7701e855f2ef39aa3fd6c71abdc6918a","37.47.210.126","Mozilla/5.0 (Windows NT 10.0; Win64; x64; rv:140.0) Gecko/20100101 Firefox/140.0","","Firefox","140.0","Windows","10.0","https://app.prolific.com/","pl","66a6211743bf2623c0a8eb81","686d226cabeef709c732f8e1","686e31120b16739db1ddbbc1","66a6211743bf2623c0a8eb81","","","[0]","","","","quiz","","","","","","","","","","","","","","","","","","","","","","","","","","","","","","","","","","","","","false",""
"2096","","<p align='center'><b>INCORRECT.</b> Usually the green ball moves in the indicated direction, but sometimes it shakes and moves randomly. </p>","0","html-button-response","25","1207840","0.0-8.0-5.0-1.0","133","1","2025-07-09 09:09:00","7701e855f2ef39aa3fd6c71abdc6918a","37.47.210.126","Mozilla/5.0 (Windows NT 10.0; Win64; x64; rv:140.0) Gecko/20100101 Firefox/140.0","","Firefox","140.0","Windows","10.0","https://app.prolific.com/","pl","66a6211743bf2623c0a8eb81","686d226cabeef709c732f8e1","686e31120b16739db1ddbbc1","66a6211743bf2623c0a8eb81","","","","","","","","","","","","","","","","","","","","","","","","","","","","","","","","","","","","","","","","","","","","",""
"2687","","","{""green_ball"":[""Ball always moves in the direction I press""]}","survey-multi-select","26","1210530","0.0-8.0-5.1-0.1","133","1","2025-07-09 09:09:00","7701e855f2ef39aa3fd6c71abdc6918a","37.47.210.126","Mozilla/5.0 (Windows NT 10.0; Win64; x64; rv:140.0) Gecko/20100101 Firefox/140.0","","Firefox","140.0","Windows","10.0","https://app.prolific.com/","pl","66a6211743bf2623c0a8eb81","686d226cabeef709c732f8e1","686e31120b16739db1ddbbc1","66a6211743bf2623c0a8eb81","","","[0]","","","","quiz","","","","","","","","","","","","","","","","","","","","","","","","","","","","","","","","","","","","","false",""
"1441","","<p align='center'><b>INCORRECT.</b> Usually the green ball moves in the indicated direction, but sometimes it shakes and moves randomly. </p>","0","html-button-response","27","1211974","0.0-8.0-5.1-1.1","133","1","2025-07-09 09:09:00","7701e855f2ef39aa3fd6c71abdc6918a","37.47.210.126","Mozilla/5.0 (Windows NT 10.0; Win64; x64; rv:140.0) Gecko/20100101 Firefox/140.0","","Firefox","140.0","Windows","10.0","https://app.prolific.com/","pl","66a6211743bf2623c0a8eb81","686d226cabeef709c732f8e1","686e31120b16739db1ddbbc1","66a6211743bf2623c0a8eb81","","","","","","","","","","","","","","","","","","","","","","","","","","","","","","","","","","","","","","","","","","","","",""
"25368","","","{""green_ball"":[""Ball sometimes shakes and moves in a random direction""]}","survey-multi-select","28","1237346","0.0-8.0-5.2-0.2","133","1","2025-07-09 09:09:00","7701e855f2ef39aa3fd6c71abdc6918a","37.47.210.126","Mozilla/5.0 (Windows NT 10.0; Win64; x64; rv:140.0) Gecko/20100101 Firefox/140.0","","Firefox","140.0","Windows","10.0","https://app.prolific.com/","pl","66a6211743bf2623c0a8eb81","686d226cabeef709c732f8e1","686e31120b16739db1ddbbc1","66a6211743bf2623c0a8eb81","","","[0]","","","","quiz","","","","","","","","","","","","","","","","","","","","","","","","","","","","","","","","","","","","","true",""
"4132","","<p align='center'><b>CORRECT!</b> Indeed, the green ball may sometimes shake and move in a random direction.</p>","0","html-button-response","29","1241482","0.0-8.0-5.2-1.2","133","1","2025-07-09 09:09:00","7701e855f2ef39aa3fd6c71abdc6918a","37.47.210.126","Mozilla/5.0 (Windows NT 10.0; Win64; x64; rv:140.0) Gecko/20100101 Firefox/140.0","","Firefox","140.0","Windows","10.0","https://app.prolific.com/","pl","66a6211743bf2623c0a8eb81","686d226cabeef709c732f8e1","686e31120b16739db1ddbbc1","66a6211743bf2623c0a8eb81","","","","","","","","","","","","","","","","","","","","","","","","","","","","","","","","","","","","","","","","","","","","",""
"14998","","","{""yellow_ball"":[""Ball doesn‘t move and I get -1 penalty point""]}","survey-multi-select","30","1256484","0.0-8.0-6.0-0.0","133","1","2025-07-09 09:09:00","7701e855f2ef39aa3fd6c71abdc6918a","37.47.210.126","Mozilla/5.0 (Windows NT 10.0; Win64; x64; rv:140.0) Gecko/20100101 Firefox/140.0","","Firefox","140.0","Windows","10.0","https://app.prolific.com/","pl","66a6211743bf2623c0a8eb81","686d226cabeef709c732f8e1","686e31120b16739db1ddbbc1","66a6211743bf2623c0a8eb81","","","[0]","","","","quiz","","","","","","","","","","","","","","","","","","","","","","","","","","","","","","","","","","","","","true",""
"1609","","<p align='center'><b>CORRECT!</b> Indeed, the yellow ball never moves and you receive a penalty.</p>","0","html-button-response","31","1258095","0.0-8.0-6.0-1.0","133","1","2025-07-09 09:09:00","7701e855f2ef39aa3fd6c71abdc6918a","37.47.210.126","Mozilla/5.0 (Windows NT 10.0; Win64; x64; rv:140.0) Gecko/20100101 Firefox/140.0","","Firefox","140.0","Windows","10.0","https://app.prolific.com/","pl","66a6211743bf2623c0a8eb81","686d226cabeef709c732f8e1","686e31120b16739db1ddbbc1","66a6211743bf2623c0a8eb81","","","","","","","","","","","","","","","","","","","","","","","","","","","","","","","","","","","","","","","","","","","","",""
"40543","","","{""blue_ball"":[""Ball always shakes and moves in a random direction""]}","survey-multi-select","32","1298641","0.0-8.0-7.0-0.0","133","1","2025-07-09 09:09:00","7701e855f2ef39aa3fd6c71abdc6918a","37.47.210.126","Mozilla/5.0 (Windows NT 10.0; Win64; x64; rv:140.0) Gecko/20100101 Firefox/140.0","","Firefox","140.0","Windows","10.0","https://app.prolific.com/","pl","66a6211743bf2623c0a8eb81","686d226cabeef709c732f8e1","686e31120b16739db1ddbbc1","66a6211743bf2623c0a8eb81","","","[0]","","","","quiz","","","","","","","","","","","","","","","","","","","","","","","","","","","","","","","","","","","","","true",""
"1379","","<p align='center'><b>CORRECT!</b> Indeed, the blue ball always shakes and moves in a random direction. Also there is a penalty of -1 point.</p>","0","html-button-response","33","1300024","0.0-8.0-7.0-1.0","133","1","2025-07-09 09:09:00","7701e855f2ef39aa3fd6c71abdc6918a","37.47.210.126","Mozilla/5.0 (Windows NT 10.0; Win64; x64; rv:140.0) Gecko/20100101 Firefox/140.0","","Firefox","140.0","Windows","10.0","https://app.prolific.com/","pl","66a6211743bf2623c0a8eb81","686d226cabeef709c732f8e1","686e31120b16739db1ddbbc1","66a6211743bf2623c0a8eb81","","","","","","","","","","","","","","","","","","","","","","","","","","","","","","","","","","","","","","","","","","","","",""
"5865","","","{""bonus"":[""When I reach 50% of points""]}","survey-multi-select","34","1305893","0.0-8.0-8.0-0.0","133","1","2025-07-09 09:09:00","7701e855f2ef39aa3fd6c71abdc6918a","37.47.210.126","Mozilla/5.0 (Windows NT 10.0; Win64; x64; rv:140.0) Gecko/20100101 Firefox/140.0","","Firefox","140.0","Windows","10.0","https://app.prolific.com/","pl","66a6211743bf2623c0a8eb81","686d226cabeef709c732f8e1","686e31120b16739db1ddbbc1","66a6211743bf2623c0a8eb81","","","[0]","","","","quiz","","","","","","","","","","","","","","","","","","","","","","","","","","","","","","","","","","","","","true",""
"1311","","<p align='center'><b>CORRECT!</b> Indeed, you receive 2 pounds extra when you reach 50% of points.</p>","0","html-button-response","35","1307207","0.0-8.0-8.0-1.0","133","1","2025-07-09 09:09:00","7701e855f2ef39aa3fd6c71abdc6918a","37.47.210.126","Mozilla/5.0 (Windows NT 10.0; Win64; x64; rv:140.0) Gecko/20100101 Firefox/140.0","","Firefox","140.0","Windows","10.0","https://app.prolific.com/","pl","66a6211743bf2623c0a8eb81","686d226cabeef709c732f8e1","686e31120b16739db1ddbbc1","66a6211743bf2623c0a8eb81","","","","","","","","","","","","","","","","","","","","","","","","","","","","","","","","","","","","","","","","","","","","",""
"13048","","","","instructions","36","1320257","0.0-8.0-9.0","133","1","2025-07-09 09:09:00","7701e855f2ef39aa3fd6c71abdc6918a","37.47.210.126","Mozilla/5.0 (Windows NT 10.0; Win64; x64; rv:140.0) Gecko/20100101 Firefox/140.0","","Firefox","140.0","Windows","10.0","https://app.prolific.com/","pl","66a6211743bf2623c0a8eb81","686d226cabeef709c732f8e1","686e31120b16739db1ddbbc1","66a6211743bf2623c0a8eb81","","[{""page_index"":0,""viewing_time"":13048}]","","","","","","","","","","","","","","","","","","","","","","","","","","","","","","","","","","","","","","","","","","",""
"19775","","<p>Before you start with this game please answer the following three questions yourself. </p>
  <p>Through this game, we measure several aspects of your cognitive performance, such as reaction times, multi-tasking capabilities </p>
  <p>and the ability to assess the situation you are in.</p>
  <p></p>
  <p><b>How good do you usually are in such tasks?</b></p>","86","html-slider-response","37","1340038","0.0-9.0-0.0","133","1","2025-07-09 09:09:00","7701e855f2ef39aa3fd6c71abdc6918a","37.47.210.126","Mozilla/5.0 (Windows NT 10.0; Win64; x64; rv:140.0) Gecko/20100101 Firefox/140.0","","Firefox","140.0","Windows","10.0","https://app.prolific.com/","pl","66a6211743bf2623c0a8eb81","686d226cabeef709c732f8e1","686e31120b16739db1ddbbc1","66a6211743bf2623c0a8eb81","2025-07-09T09:31:22.194Z","","","","","","PreSkillQ","","","","","","","","","","","","","","","","","","","","","","","","","","","","","","","","","","","","","","50"
"6725","","<div style=""width:500px;"">
  <p>How well do you think you will perform in this task compared to other participants?</p>
  </div>","57","html-slider-response","38","1346767","0.0-9.0-1.0","133","1","2025-07-09 09:09:00","7701e855f2ef39aa3fd6c71abdc6918a","37.47.210.126","Mozilla/5.0 (Windows NT 10.0; Win64; x64; rv:140.0) Gecko/20100101 Firefox/140.0","","Firefox","140.0","Windows","10.0","https://app.prolific.com/","pl","66a6211743bf2623c0a8eb81","686d226cabeef709c732f8e1","686e31120b16739db1ddbbc1","66a6211743bf2623c0a8eb81","2025-07-09T09:31:28.923Z","","","","","","PrePerfQ","","","","","","","","","","","","","","","","","","","","","","","","","","","","","","","","","","","","","","50"
"6623","","<div style=""width:500px;"">
  <p>What best describes how you currently feel?</p>
  </div>","95","html-slider-response","39","1353395","0.0-9.0-2.0","133","1","2025-07-09 09:09:00","7701e855f2ef39aa3fd6c71abdc6918a","37.47.210.126","Mozilla/5.0 (Windows NT 10.0; Win64; x64; rv:140.0) Gecko/20100101 Firefox/140.0","","Firefox","140.0","Windows","10.0","https://app.prolific.com/","pl","66a6211743bf2623c0a8eb81","686d226cabeef709c732f8e1","686e31120b16739db1ddbbc1","66a6211743bf2623c0a8eb81","2025-07-09T09:31:35.551Z","","","","","","PreMotivationQ","","","","","","","","","","","","","","","","","","","","","","","","","","","","","","","","","","","","","","50"
"","","","","ctl-task-cpt","40","1379545","0.0-10.0-0.0","133","1","2025-07-09 09:09:00","7701e855f2ef39aa3fd6c71abdc6918a","37.47.210.126","Mozilla/5.0 (Windows NT 10.0; Win64; x64; rv:140.0) Gecko/20100101 Firefox/140.0","","Firefox","140.0","Windows","10.0","https://app.prolific.com/","pl","66a6211743bf2623c0a8eb81","686d226cabeef709c732f8e1","686e31120b16739db1ddbbc1","66a6211743bf2623c0a8eb81","2025-07-09T09:32:01.701Z","","","","","","","","","","","","","","","","win-only","1","g1:NE,g2:SW","1","1","0","1355734","2512","7515","23143","1","4","8","6","2","8","8","8","0","0.06060606060606061","1753","3000","2095","[""down"",""left""]","{""num_key_presses"":6,""num_perfect"":6,""num_errors"":0,""num_randdir"":0,""num_randdir_good_moves"":0,""num_whilered"":0,""num_whileblue"":0,""num_blue"":0,""num_good_moves"":6}","[291.22857753208706,296.92857448032925,1,291.22857753208706,296.92857448032925,117,291.22857753208706,296.92857448032925,225,291.22857753208706,296.92857448032925,336,291.22857753208706,296.92857448032925,444,308.22857753208706,290.92857448032925,554,330.22857753208706,285.92857448032925,665,347.22857753208706,277.92857448032925,774,356.22857753208706,273.92857448032925,884,369.22857753208706,267.92857448032925,998,350.22857753208706,274.92857448032925,1105,197.22857753208706,442.92857448032925,1217,141.22857753208706,488.92857448032925,1330,112.22857753208706,509.92857448032925,1441,81.22857753208706,526.9285744803292,1551,65.22857753208706,530.9285744803292,1660,59.22857753208705,532.9285744803292,1770,59.22857753208705,532.9285744803292,1882,59.22857753208705,532.9285744803292,1991,59.22857753208705,532.9285744803292,2105,59.22857753208705,532.9285744803292,2216,59.22857753208705,532.9285744803292,2325,59.22857753208705,532.9285744803292,2435,59.22857753208705,532.9285744803292,2547,109.22857753208706,506.92857448032925,2655,126.22857753208706,499.92857448032925,2765,126.22857753208706,499.92857448032925,2876,126.22857753208706,499.92857448032925,2986,126.22857753208706,499.92857448032925,3098,126.22857753208706,499.92857448032925,3206,126.22857753208706,499.92857448032925,3317,126.22857753208706,499.92857448032925,3430,126.22857753208706,499.92857448032925,3539,126.22857753208706,499.92857448032925,3648,126.22857753208706,499.92857448032925,3758,126.22857753208706,499.92857448032925,3869,126.22857753208706,499.92857448032925,3978,126.22857753208706,499.92857448032925,4088,126.22857753208706,499.92857448032925,4197,126.22857753208706,499.92857448032925,4310,126.22857753208706,499.92857448032925,4421,126.22857753208706,499.92857448032925,4532,126.22857753208706,499.92857448032925,4643,126.22857753208706,499.92857448032925,4752,126.22857753208706,499.92857448032925,4863,126.22857753208706,499.92857448032925,4972]","[1426,1426,1000,0,426,""smooth"",""down"",""down"",""good_move"",3979,2553,2044.5,1426,508.5,""smooth"",""down"",""down"",""good_move"",5918,1939,1466.5,3979,472.5,""smooth"",""left"",""left"",""good_move"",9104,3185,2564.5,5919,620.5,""smooth"",""down"",""down"",""good_move"",12246,3141,2610.1,9105,530.9,""smooth"",""left"",""left"",""good_move"",15345,3098,1574.7,12247,1523.3,""smooth"",""left"",""left"",""good_move""]","",""
"4209","","<div style=""width:500px;"">
  <p>What determined the result of this run?</p>
  </div>","92","html-slider-response","41","1383755","0.0-10.0-1.0","133","1","2025-07-09 09:09:00","7701e855f2ef39aa3fd6c71abdc6918a","37.47.210.126","Mozilla/5.0 (Windows NT 10.0; Win64; x64; rv:140.0) Gecko/20100101 Firefox/140.0","","Firefox","140.0","Windows","10.0","https://app.prolific.com/","pl","66a6211743bf2623c0a8eb81","686d226cabeef709c732f8e1","686e31120b16739db1ddbbc1","66a6211743bf2623c0a8eb81","2025-07-09T09:32:05.911Z","","","","","","AttribQ","","","","","","","","","","","","","","","","","","","","","","","","","","","","","","","","","","","","","","50"
"3483","","<div style=""width:500px;"">
  <p>How much control did you have over the ball?</p>
  </div>","98","html-slider-response","42","1387241","0.0-10.0-2.0","133","1","2025-07-09 09:09:00","7701e855f2ef39aa3fd6c71abdc6918a","37.47.210.126","Mozilla/5.0 (Windows NT 10.0; Win64; x64; rv:140.0) Gecko/20100101 Firefox/140.0","","Firefox","140.0","Windows","10.0","https://app.prolific.com/","pl","66a6211743bf2623c0a8eb81","686d226cabeef709c732f8e1","686e31120b16739db1ddbbc1","66a6211743bf2623c0a8eb81","2025-07-09T09:32:09.397Z","","","","","","ControlQ","","","","","","","","","","","","","","","","","","","","","","","","","","","","","","","","","","","","","","50"
"6636","","<div style=""width:500px;"">
  <p>How would you describe your current emotional state?</p>
  </div>","20","html-slider-response","43","1393881","0.0-10.0-3.0","133","1","2025-07-09 09:09:00","7701e855f2ef39aa3fd6c71abdc6918a","37.47.210.126","Mozilla/5.0 (Windows NT 10.0; Win64; x64; rv:140.0) Gecko/20100101 Firefox/140.0","","Firefox","140.0","Windows","10.0","https://app.prolific.com/","pl","66a6211743bf2623c0a8eb81","686d226cabeef709c732f8e1","686e31120b16739db1ddbbc1","66a6211743bf2623c0a8eb81","2025-07-09T09:32:16.037Z","","","","","","StressQ","","","","","","","","","","","","","","","","","","","","","","","","","","","","","","","","","","","","","","50"
"5391","","<div style=""width:500px;"">
  <p>What best describes how you currently feel?</p>
  </div>","96","html-slider-response","44","1399274","0.0-10.0-4.0","133","1","2025-07-09 09:09:00","7701e855f2ef39aa3fd6c71abdc6918a","37.47.210.126","Mozilla/5.0 (Windows NT 10.0; Win64; x64; rv:140.0) Gecko/20100101 Firefox/140.0","","Firefox","140.0","Windows","10.0","https://app.prolific.com/","pl","66a6211743bf2623c0a8eb81","686d226cabeef709c732f8e1","686e31120b16739db1ddbbc1","66a6211743bf2623c0a8eb81","2025-07-09T09:32:21.431Z","","","","","","MotivationQ","","","","","","","","","","","","","","","","","","","","","","","","","","","","","","","","","","","","","","50"
"","","","","ctl-task-cpt","45","1463848","0.0-10.0-0.1","133","1","2025-07-09 09:09:00","7701e855f2ef39aa3fd6c71abdc6918a","37.47.210.126","Mozilla/5.0 (Windows NT 10.0; Win64; x64; rv:140.0) Gecko/20100101 Firefox/140.0","","Firefox","140.0","Windows","10.0","https://app.prolific.com/","pl","66a6211743bf2623c0a8eb81","686d226cabeef709c732f8e1","686e31120b16739db1ddbbc1","66a6211743bf2623c0a8eb81","2025-07-09T09:33:26.004Z","","","","","","","","","","","","","","","","win-only","2","g1:SE,g2:NW","0.9","2","0","1401614","1352","6355","61568","1","4","4","6","2","4","1","9","8","0.06818181818181818","4106","3000","1360","[""left"",""up""]","{""num_key_presses"":13,""num_perfect"":9,""num_errors"":3,""num_randdir"":1,""num_randdir_good_moves"":0,""num_whilered"":0,""num_whileblue"":2,""num_blue"":6,""num_good_moves"":9}","[300.22857753208706,292.92857448032925,0,300.22857753208706,292.92857448032925,104,300.22857753208706,292.92857448032925,211,467.22857753208706,292.92857448032925,320,792.228577532087,273.92857448032925,429,792.228577532087,273.92857448032925,538,792.228577532087,273.92857448032925,649,792.228577532087,273.92857448032925,759,792.228577532087,273.92857448032925,868,792.228577532087,273.92857448032925,969,792.228577532087,273.92857448032925,1079,792.228577532087,273.92857448032925,1189,792.228577532087,273.92857448032925,1301,792.228577532087,273.92857448032925,1413,792.228577532087,273.92857448032925,1523,760.228577532087,291.92857448032925,1634,627.228577532087,349.92857448032925,1744,574.228577532087,362.92857448032925,1853,528.228577532087,363.92857448032925,1964,526.228577532087,363.92857448032925,2073,526.228577532087,363.92857448032925,2183,526.228577532087,363.92857448032925,2296,526.228577532087,363.92857448032925,2406,526.228577532087,363.92857448032925,2517,526.228577532087,363.92857448032925,2627,488.22857753208706,358.92857448032925,2737,468.22857753208706,354.92857448032925,2848,468.22857753208706,354.92857448032925,2956,468.22857753208706,354.92857448032925,3067,464.22857753208706,354.92857448032925,3174,457.22857753208706,353.92857448032925,3285,457.22857753208706,353.92857448032925,3399,457.22857753208706,353.92857448032925,3506,450.22857753208706,353.92857448032925,3616,178.22857753208706,237.92857448032925,3726,145.22857753208706,186.92857448032925,3836,83.22857753208706,122.92857448032925,3949,59.22857753208705,45.92857448032924,4057,60.22857753208705,12.928574480329239,4166,60.22857753208705,12.928574480329239,4275,60.22857753208705,12.928574480329239,4387,62.22857753208705,20.92857448032924,4499,63.22857753208705,25.92857448032924,4611,73.22857753208706,42.92857448032924,4720,82.22857753208706,53.92857448032924,4830,83.22857753208706,54.92857448032924,4941]","[163,163,1000,0,-837,""error"",""-"",""-"",""no_move"",4630,4467,2782.1,1178,669.9,""smooth"",""left"",""left"",""good_move"",8264,3634,3243.3,4630,390.7,""smooth"",""up"",""up"",""good_move"",11542,3278,2873.3,8264,404.7,""smooth"",""up"",""up"",""good_move"",14569,3027,2663,11542,364,""while_blue"",""left"",""down"",""bad_move"",17670,3101,2631.8,14569,469.2,""smooth"",""left"",""left"",""good_move"",24356,6686,2261,21740,355,""while_blue"",""up"",""down"",""bad_move"",27889,3533,2944.3,24356,588.7,""smooth"",""up"",""up"",""good_move"",34467,6578,2276.6,31555,635.4,""oops"",""up"",""right"",""bad_move"",37865,3398,2799.1,34467,598.9,""smooth"",""up"",""up"",""good_move"",41528,3663,3122.3,37865,540.7,""smooth"",""up"",""up"",""good_move"",51479,9951,2415.6,48592,471.4,""smooth"",""left"",""left"",""good_move"",54935,3456,2906.2,51479,549.8,""smooth"",""left"",""left"",""good_move""]","",""
"3830","","<div style=""width:500px;"">
  <p>What determined the result of this run?</p>
  </div>","60","html-slider-response","46","1467679","0.0-10.0-1.1","133","1","2025-07-09 09:09:00","7701e855f2ef39aa3fd6c71abdc6918a","37.47.210.126","Mozilla/5.0 (Windows NT 10.0; Win64; x64; rv:140.0) Gecko/20100101 Firefox/140.0","","Firefox","140.0","Windows","10.0","https://app.prolific.com/","pl","66a6211743bf2623c0a8eb81","686d226cabeef709c732f8e1","686e31120b16739db1ddbbc1","66a6211743bf2623c0a8eb81","2025-07-09T09:33:29.835Z","","","","","","AttribQ","","","","","","","","","","","","","","","","","","","","","","","","","","","","","","","","","","","","","","50"
"3419","","<div style=""width:500px;"">
  <p>How much control did you have over the ball?</p>
  </div>","63","html-slider-response","47","1471101","0.0-10.0-2.1","133","1","2025-07-09 09:09:00","7701e855f2ef39aa3fd6c71abdc6918a","37.47.210.126","Mozilla/5.0 (Windows NT 10.0; Win64; x64; rv:140.0) Gecko/20100101 Firefox/140.0","","Firefox","140.0","Windows","10.0","https://app.prolific.com/","pl","66a6211743bf2623c0a8eb81","686d226cabeef709c732f8e1","686e31120b16739db1ddbbc1","66a6211743bf2623c0a8eb81","2025-07-09T09:33:33.257Z","","","","","","ControlQ","","","","","","","","","","","","","","","","","","","","","","","","","","","","","","","","","","","","","","50"
"2986","","<div style=""width:500px;"">
  <p>How would you describe your current emotional state?</p>
  </div>","19","html-slider-response","48","1474089","0.0-10.0-3.1","133","1","2025-07-09 09:09:00","7701e855f2ef39aa3fd6c71abdc6918a","37.47.210.126","Mozilla/5.0 (Windows NT 10.0; Win64; x64; rv:140.0) Gecko/20100101 Firefox/140.0","","Firefox","140.0","Windows","10.0","https://app.prolific.com/","pl","66a6211743bf2623c0a8eb81","686d226cabeef709c732f8e1","686e31120b16739db1ddbbc1","66a6211743bf2623c0a8eb81","2025-07-09T09:33:36.245Z","","","","","","StressQ","","","","","","","","","","","","","","","","","","","","","","","","","","","","","","","","","","","","","","50"
"2857","","<div style=""width:500px;"">
  <p>What best describes how you currently feel?</p>
  </div>","90","html-slider-response","49","1476948","0.0-10.0-4.1","133","1","2025-07-09 09:09:00","7701e855f2ef39aa3fd6c71abdc6918a","37.47.210.126","Mozilla/5.0 (Windows NT 10.0; Win64; x64; rv:140.0) Gecko/20100101 Firefox/140.0","","Firefox","140.0","Windows","10.0","https://app.prolific.com/","pl","66a6211743bf2623c0a8eb81","686d226cabeef709c732f8e1","686e31120b16739db1ddbbc1","66a6211743bf2623c0a8eb81","2025-07-09T09:33:39.105Z","","","","","","MotivationQ","","","","","","","","","","","","","","","","","","","","","","","","","","","","","","","","","","","","","","50"
"","","","","ctl-task-cpt","50","1520205","0.0-10.0-0.2","133","1","2025-07-09 09:09:00","7701e855f2ef39aa3fd6c71abdc6918a","37.47.210.126","Mozilla/5.0 (Windows NT 10.0; Win64; x64; rv:140.0) Gecko/20100101 Firefox/140.0","","Firefox","140.0","Windows","10.0","https://app.prolific.com/","pl","66a6211743bf2623c0a8eb81","686d226cabeef709c732f8e1","686e31120b16739db1ddbbc1","66a6211743bf2623c0a8eb81","2025-07-09T09:34:22.361Z","","","","","","","","","","","","","","","","win-only","1","g1:NE,g2:SW","0.8","3","0","1479287","1377","6385","40253","1","4","4","6","2","4","4","13","9","0.09848484848484848","1256","3000","1550","[""down"",""left""]","{""num_key_presses"":10,""num_perfect"":8,""num_errors"":0,""num_randdir"":2,""num_randdir_good_moves"":0,""num_whilered"":0,""num_whileblue"":0,""num_blue"":1,""num_good_moves"":8}","[296.22857753208706,303.92857448032925,0,296.22857753208706,303.92857448032925,105,296.22857753208706,303.92857448032925,215,296.22857753208706,303.92857448032925,326,296.22857753208706,303.92857448032925,435,296.22857753208706,303.92857448032925,544,294.22857753208706,304.92857448032925,654,67.22857753208706,495.92857448032925,764,40.22857753208705,525.9285744803292,874,19.22857753208705,549.9285744803292,984,21.22857753208705,549.9285744803292,1096,40.22857753208705,539.9285744803292,1205,40.22857753208705,539.9285744803292,1316,40.22857753208705,539.9285744803292,1429,40.22857753208705,539.9285744803292,1541,40.22857753208705,539.9285744803292,1652,159.22857753208706,486.92857448032925,1763,340.22857753208706,393.92857448032925,1873,357.22857753208706,384.92857448032925,1983,600.228577532087,319.92857448032925,2093,659.228577532087,306.92857448032925,2202,659.228577532087,306.92857448032925,2313,659.228577532087,306.92857448032925,2425,673.228577532087,300.92857448032925,2534,673.228577532087,300.92857448032925,2645,673.228577532087,299.92857448032925,2755,673.228577532087,299.92857448032925,2866,673.228577532087,299.92857448032925,2976,673.228577532087,299.92857448032925,3085,673.228577532087,299.92857448032925,3195,673.228577532087,299.92857448032925,3307,673.228577532087,299.92857448032925,3419,673.228577532087,299.92857448032925,3528,673.228577532087,299.92857448032925,3642,673.228577532087,299.92857448032925,3749,673.228577532087,299.92857448032925,3859,673.228577532087,299.92857448032925,3969,673.228577532087,299.92857448032925,4078,673.228577532087,299.92857448032925,4191,673.228577532087,299.92857448032925,4300,673.228577532087,299.92857448032925,4410,673.228577532087,299.92857448032925,4521,673.228577532087,299.92857448032925,4632,673.228577532087,299.92857448032925,4740,673.228577532087,299.92857448032925,4851,673.228577532087,299.92857448032925,4961]","[5346,5346,2778.5,2014,553.5,""smooth"",""left"",""left"",""good_move"",8760,3413,2968.8,5347,444.2,""smooth"",""left"",""left"",""good_move"",12088,3328,2169.6,8760,1158.4,""smooth"",""down"",""down"",""good_move"",15451,3363,2875.7,12088,487.3,""oops"",""down"",""right"",""bad_move"",18915,3464,3032.8,15451,431.2,""smooth"",""down"",""down"",""good_move"",21305,2389,1931.7,18917,456.3,""oops"",""left"",""up"",""bad_move"",24320,3015,2647.5,21305,367.5,""smooth"",""down"",""down"",""good_move"",27176,2856,2405.9,24320,450.1,""smooth"",""down"",""down"",""good_move"",30258,3082,2640.2,27176,441.8,""smooth"",""left"",""left"",""good_move"",33592,3334,2903.9,30258,430.1,""smooth"",""left"",""left"",""good_move""]","",""
"8619","","<div style=""width:500px;"">
  <p>What determined the result of this run?</p>
  </div>","80","html-slider-response","51","1528827","0.0-10.0-1.2","133","1","2025-07-09 09:09:00","7701e855f2ef39aa3fd6c71abdc6918a","37.47.210.126","Mozilla/5.0 (Windows NT 10.0; Win64; x64; rv:140.0) Gecko/20100101 Firefox/140.0","","Firefox","140.0","Windows","10.0","https://app.prolific.com/","pl","66a6211743bf2623c0a8eb81","686d226cabeef709c732f8e1","686e31120b16739db1ddbbc1","66a6211743bf2623c0a8eb81","2025-07-09T09:34:30.983Z","","","","","","AttribQ","","","","","","","","","","","","","","","","","","","","","","","","","","","","","","","","","","","","","","50"
"2963","","<div style=""width:500px;"">
  <p>How much control did you have over the ball?</p>
  </div>","82","html-slider-response","52","1531793","0.0-10.0-2.2","133","1","2025-07-09 09:09:00","7701e855f2ef39aa3fd6c71abdc6918a","37.47.210.126","Mozilla/5.0 (Windows NT 10.0; Win64; x64; rv:140.0) Gecko/20100101 Firefox/140.0","","Firefox","140.0","Windows","10.0","https://app.prolific.com/","pl","66a6211743bf2623c0a8eb81","686d226cabeef709c732f8e1","686e31120b16739db1ddbbc1","66a6211743bf2623c0a8eb81","2025-07-09T09:34:33.949Z","","","","","","ControlQ","","","","","","","","","","","","","","","","","","","","","","","","","","","","","","","","","","","","","","50"
"2215","","<div style=""width:500px;"">
  <p>How would you describe your current emotional state?</p>
  </div>","17","html-slider-response","53","1534010","0.0-10.0-3.2","133","1","2025-07-09 09:09:00","7701e855f2ef39aa3fd6c71abdc6918a","37.47.210.126","Mozilla/5.0 (Windows NT 10.0; Win64; x64; rv:140.0) Gecko/20100101 Firefox/140.0","","Firefox","140.0","Windows","10.0","https://app.prolific.com/","pl","66a6211743bf2623c0a8eb81","686d226cabeef709c732f8e1","686e31120b16739db1ddbbc1","66a6211743bf2623c0a8eb81","2025-07-09T09:34:36.167Z","","","","","","StressQ","","","","","","","","","","","","","","","","","","","","","","","","","","","","","","","","","","","","","","50"
"2929","","<div style=""width:500px;"">
  <p>What best describes how you currently feel?</p>
  </div>","97","html-slider-response","54","1536943","0.0-10.0-4.2","133","1","2025-07-09 09:09:00","7701e855f2ef39aa3fd6c71abdc6918a","37.47.210.126","Mozilla/5.0 (Windows NT 10.0; Win64; x64; rv:140.0) Gecko/20100101 Firefox/140.0","","Firefox","140.0","Windows","10.0","https://app.prolific.com/","pl","66a6211743bf2623c0a8eb81","686d226cabeef709c732f8e1","686e31120b16739db1ddbbc1","66a6211743bf2623c0a8eb81","2025-07-09T09:34:39.099Z","","","","","","MotivationQ","","","","","","","","","","","","","","","","","","","","","","","","","","","","","","","","","","","","","","50"
"","","","","ctl-task-cpt","55","1565814","0.0-10.0-0.3","133","1","2025-07-09 09:09:00","7701e855f2ef39aa3fd6c71abdc6918a","37.47.210.126","Mozilla/5.0 (Windows NT 10.0; Win64; x64; rv:140.0) Gecko/20100101 Firefox/140.0","","Firefox","140.0","Windows","10.0","https://app.prolific.com/","pl","66a6211743bf2623c0a8eb81","686d226cabeef709c732f8e1","686e31120b16739db1ddbbc1","66a6211743bf2623c0a8eb81","2025-07-09T09:35:07.970Z","","","","","","","","","","","","","","","","win-only","0","g1:NW,g2:SE","0.7","4","0","1539282","940","5947","25862","1","4","8","6","2","8","7","20","13","0.15151515151515152","1111","3000","2210","[""down"",""right""]","{""num_key_presses"":6,""num_perfect"":5,""num_errors"":1,""num_randdir"":0,""num_randdir_good_moves"":0,""num_whilered"":0,""num_whileblue"":1,""num_blue"":2,""num_good_moves"":6}","[295.22857753208706,295.92857448032925,0,295.22857753208706,295.92857448032925,108,295.22857753208706,295.92857448032925,216,295.22857753208706,295.92857448032925,326,295.22857753208706,295.92857448032925,433,347.22857753208706,317.92857448032925,545,497.22857753208706,420.92857448032925,651,526.228577532087,506.92857448032925,761,544.228577532087,540.9285744803292,868,558.228577532087,553.9285744803292,978,558.228577532087,553.9285744803292,1086,558.228577532087,553.9285744803292,1194,558.228577532087,553.9285744803292,1305,558.228577532087,553.9285744803292,1414,558.228577532087,553.9285744803292,1525,558.228577532087,489.92857448032925,1632,558.228577532087,489.92857448032925,1742,558.228577532087,489.92857448032925,1850,558.228577532087,489.92857448032925,1958,558.228577532087,489.92857448032925,2067,726.228577532087,356.92857448032925,2179,770.228577532087,326.92857448032925,2287,770.228577532087,326.92857448032925,2396,770.228577532087,326.92857448032925,2504,770.228577532087,326.92857448032925,2613,770.228577532087,326.92857448032925,2724,770.228577532087,326.92857448032925,2830,770.228577532087,326.92857448032925,2940,770.228577532087,326.92857448032925,3048,770.228577532087,326.92857448032925,3159,770.228577532087,326.92857448032925,3269,770.228577532087,326.92857448032925,3378,770.228577532087,326.92857448032925,3488,770.228577532087,326.92857448032925,3599,770.228577532087,326.92857448032925,3708,770.228577532087,326.92857448032925,3816,770.228577532087,326.92857448032925,3925,770.228577532087,326.92857448032925,4036,770.228577532087,326.92857448032925,4145,770.228577532087,326.92857448032925,4254,770.228577532087,326.92857448032925,4365,770.228577532087,326.92857448032925,4476,770.228577532087,326.92857448032925,4585,770.228577532087,326.92857448032925,4695,770.228577532087,326.92857448032925,4806,770.228577532087,326.92857448032925,4913]","[1468,1468,1000,0,468,""smooth"",""down"",""down"",""good_move"",4340,2872,2425.4,1468,446.6,""smooth"",""down"",""down"",""good_move"",7665,3325,2869.3,4340,455.7,""smooth"",""down"",""down"",""good_move"",10593,2928,2550,7665,378,""while_blue"",""right"",""right"",""good_move"",14154,3561,2909.7,10593,651.3,""smooth"",""right"",""right"",""good_move"",19640,5485,2078.8,17022,539.2,""smooth"",""right"",""right"",""good_move""]","",""
"3817","","<div style=""width:500px;"">
  <p>What determined the result of this run?</p>
  </div>","91","html-slider-response","56","1569632","0.0-10.0-1.3","133","1","2025-07-09 09:09:00","7701e855f2ef39aa3fd6c71abdc6918a","37.47.210.126","Mozilla/5.0 (Windows NT 10.0; Win64; x64; rv:140.0) Gecko/20100101 Firefox/140.0","","Firefox","140.0","Windows","10.0","https://app.prolific.com/","pl","66a6211743bf2623c0a8eb81","686d226cabeef709c732f8e1","686e31120b16739db1ddbbc1","66a6211743bf2623c0a8eb81","2025-07-09T09:35:11.789Z","","","","","","AttribQ","","","","","","","","","","","","","","","","","","","","","","","","","","","","","","","","","","","","","","50"
"2832","","<div style=""width:500px;"">
  <p>How much control did you have over the ball?</p>
  </div>","88","html-slider-response","57","1572468","0.0-10.0-2.3","133","1","2025-07-09 09:09:00","7701e855f2ef39aa3fd6c71abdc6918a","37.47.210.126","Mozilla/5.0 (Windows NT 10.0; Win64; x64; rv:140.0) Gecko/20100101 Firefox/140.0","","Firefox","140.0","Windows","10.0","https://app.prolific.com/","pl","66a6211743bf2623c0a8eb81","686d226cabeef709c732f8e1","686e31120b16739db1ddbbc1","66a6211743bf2623c0a8eb81","2025-07-09T09:35:14.625Z","","","","","","ControlQ","","","","","","","","","","","","","","","","","","","","","","","","","","","","","","","","","","","","","","50"
"2495","","<div style=""width:500px;"">
  <p>How would you describe your current emotional state?</p>
  </div>","8","html-slider-response","58","1574967","0.0-10.0-3.3","133","1","2025-07-09 09:09:00","7701e855f2ef39aa3fd6c71abdc6918a","37.47.210.126","Mozilla/5.0 (Windows NT 10.0; Win64; x64; rv:140.0) Gecko/20100101 Firefox/140.0","","Firefox","140.0","Windows","10.0","https://app.prolific.com/","pl","66a6211743bf2623c0a8eb81","686d226cabeef709c732f8e1","686e31120b16739db1ddbbc1","66a6211743bf2623c0a8eb81","2025-07-09T09:35:17.123Z","","","","","","StressQ","","","","","","","","","","","","","","","","","","","","","","","","","","","","","","","","","","","","","","50"
"2993","","<div style=""width:500px;"">
  <p>What best describes how you currently feel?</p>
  </div>","96","html-slider-response","59","1577963","0.0-10.0-4.3","133","1","2025-07-09 09:09:00","7701e855f2ef39aa3fd6c71abdc6918a","37.47.210.126","Mozilla/5.0 (Windows NT 10.0; Win64; x64; rv:140.0) Gecko/20100101 Firefox/140.0","","Firefox","140.0","Windows","10.0","https://app.prolific.com/","pl","66a6211743bf2623c0a8eb81","686d226cabeef709c732f8e1","686e31120b16739db1ddbbc1","66a6211743bf2623c0a8eb81","2025-07-09T09:35:20.119Z","","","","","","MotivationQ","","","","","","","","","","","","","","","","","","","","","","","","","","","","","","","","","","","","","","50"
"","","","","ctl-task-cpt","60","1627857","0.0-10.0-0.4","133","1","2025-07-09 09:09:00","7701e855f2ef39aa3fd6c71abdc6918a","37.47.210.126","Mozilla/5.0 (Windows NT 10.0; Win64; x64; rv:140.0) Gecko/20100101 Firefox/140.0","","Firefox","140.0","Windows","10.0","https://app.prolific.com/","pl","66a6211743bf2623c0a8eb81","686d226cabeef709c732f8e1","686e31120b16739db1ddbbc1","66a6211743bf2623c0a8eb81","2025-07-09T09:36:10.013Z","","","","","","","","","","","","","","","","win-only","3","g1:SW,g2:NE","0.6","5","0","1580302","967","5972","46889","1","4","4","6","2","4","4","24","20","0.18181818181818182","1465","3000","1440","[""up"",""right""]","{""num_key_presses"":10,""num_perfect"":6,""num_errors"":0,""num_randdir"":4,""num_randdir_good_moves"":2,""num_whilered"":0,""num_whileblue"":0,""num_blue"":3,""num_good_moves"":8}","[294.22857753208706,288.92857448032925,0,294.22857753208706,288.92857448032925,115,294.22857753208706,288.92857448032925,224,294.22857753208706,288.92857448032925,335,294.22857753208706,288.92857448032925,444,234.22857753208706,343.92857448032925,557,171.22857753208706,429.92857448032925,664,197.22857753208706,415.92857448032925,774,275.22857753208706,369.92857448032925,885,503.22857753208706,144.92857448032925,995,503.22857753208706,120.92857448032925,1107,515.228577532087,100.92857448032925,1216,532.228577532087,69.92857448032925,1328,536.228577532087,63.92857448032924,1442,536.228577532087,63.92857448032924,1551,536.228577532087,63.92857448032924,1661,536.228577532087,63.92857448032924,1773,537.228577532087,63.92857448032924,1885,791.228577532087,80.92857448032925,1996,791.228577532087,80.92857448032925,2106,791.228577532087,80.92857448032925,2215,791.228577532087,80.92857448032925,2329,791.228577532087,80.92857448032925,2439,791.228577532087,80.92857448032925,2550,791.228577532087,80.92857448032925,2660,791.228577532087,80.92857448032925,2760,791.228577532087,80.92857448032925,2867,791.228577532087,80.92857448032925,2975,791.228577532087,80.92857448032925,3088,791.228577532087,80.92857448032925,3195,791.228577532087,80.92857448032925,3304,791.228577532087,80.92857448032925,3408,791.228577532087,80.92857448032925,3517,791.228577532087,80.92857448032925,3629,791.228577532087,80.92857448032925,3742,791.228577532087,80.92857448032925,3854,791.228577532087,80.92857448032925,3965,791.228577532087,80.92857448032925,4078,791.228577532087,80.92857448032925,4189,791.228577532087,80.92857448032925,4297,791.228577532087,80.92857448032925,4406,791.228577532087,80.92857448032925,4516,791.228577532087,80.92857448032925,4629,791.228577532087,80.92857448032925,4738,791.228577532087,80.92857448032925,4848,791.228577532087,80.92857448032925,4957]","[1588,1588,1000,0,588,""smooth"",""up"",""up"",""good_move"",5740,4152,3665.8,1588,486.2,""smooth"",""up"",""up"",""good_move"",8879,3139,2579.1,5740,559.9,""smooth"",""right"",""right"",""good_move"",11763,2884,2456,8879,428,""smooth"",""right"",""right"",""good_move"",13787,2023,1555.8,11764,467.2,""smooth"",""right"",""right"",""good_move"",20597,6810,2851.8,17109,636.2,""oops"",""up"",""left"",""bad_move"",23700,3103,2407.7,20597,695.3,""smooth"",""up"",""up"",""good_move"",27321,3621,3158.6,23700,462.4,""oops"",""right"",""down"",""bad_move"",37546,10225,2036.7,35054,455.3,""oops"",""right"",""right"",""good_move"",40639,3093,2534,37546,559,""oops"",""up"",""up"",""good_move""]","",""
"2932","","<div style=""width:500px;"">
  <p>What determined the result of this run?</p>
  </div>","86","html-slider-response","61","1630790","0.0-10.0-1.4","133","1","2025-07-09 09:09:00","7701e855f2ef39aa3fd6c71abdc6918a","37.47.210.126","Mozilla/5.0 (Windows NT 10.0; Win64; x64; rv:140.0) Gecko/20100101 Firefox/140.0","","Firefox","140.0","Windows","10.0","https://app.prolific.com/","pl","66a6211743bf2623c0a8eb81","686d226cabeef709c732f8e1","686e31120b16739db1ddbbc1","66a6211743bf2623c0a8eb81","2025-07-09T09:36:12.946Z","","","","","","AttribQ","","","","","","","","","","","","","","","","","","","","","","","","","","","","","","","","","","","","","","50"
"2050","","<div style=""width:500px;"">
  <p>How much control did you have over the ball?</p>
  </div>","74","html-slider-response","62","1632843","0.0-10.0-2.4","133","1","2025-07-09 09:09:00","7701e855f2ef39aa3fd6c71abdc6918a","37.47.210.126","Mozilla/5.0 (Windows NT 10.0; Win64; x64; rv:140.0) Gecko/20100101 Firefox/140.0","","Firefox","140.0","Windows","10.0","https://app.prolific.com/","pl","66a6211743bf2623c0a8eb81","686d226cabeef709c732f8e1","686e31120b16739db1ddbbc1","66a6211743bf2623c0a8eb81","2025-07-09T09:36:14.999Z","","","","","","ControlQ","","","","","","","","","","","","","","","","","","","","","","","","","","","","","","","","","","","","","","50"
"2302","","<div style=""width:500px;"">
  <p>How would you describe your current emotional state?</p>
  </div>","6","html-slider-response","63","1635148","0.0-10.0-3.4","133","1","2025-07-09 09:09:00","7701e855f2ef39aa3fd6c71abdc6918a","37.47.210.126","Mozilla/5.0 (Windows NT 10.0; Win64; x64; rv:140.0) Gecko/20100101 Firefox/140.0","","Firefox","140.0","Windows","10.0","https://app.prolific.com/","pl","66a6211743bf2623c0a8eb81","686d226cabeef709c732f8e1","686e31120b16739db1ddbbc1","66a6211743bf2623c0a8eb81","2025-07-09T09:36:17.304Z","","","","","","StressQ","","","","","","","","","","","","","","","","","","","","","","","","","","","","","","","","","","","","","","50"
"2324","","<div style=""width:500px;"">
  <p>What best describes how you currently feel?</p>
  </div>","95","html-slider-response","64","1637472","0.0-10.0-4.4","133","1","2025-07-09 09:09:00","7701e855f2ef39aa3fd6c71abdc6918a","37.47.210.126","Mozilla/5.0 (Windows NT 10.0; Win64; x64; rv:140.0) Gecko/20100101 Firefox/140.0","","Firefox","140.0","Windows","10.0","https://app.prolific.com/","pl","66a6211743bf2623c0a8eb81","686d226cabeef709c732f8e1","686e31120b16739db1ddbbc1","66a6211743bf2623c0a8eb81","2025-07-09T09:36:19.628Z","","","","","","MotivationQ","","","","","","","","","","","","","","","","","","","","","","","","","","","","","","","","","","","","","","50"
"","","","","ctl-task-cpt","65","1702749","0.0-10.0-0.5","133","1","2025-07-09 09:09:00","7701e855f2ef39aa3fd6c71abdc6918a","37.47.210.126","Mozilla/5.0 (Windows NT 10.0; Win64; x64; rv:140.0) Gecko/20100101 Firefox/140.0","","Firefox","140.0","Windows","10.0","https://app.prolific.com/","pl","66a6211743bf2623c0a8eb81","686d226cabeef709c732f8e1","686e31120b16739db1ddbbc1","66a6211743bf2623c0a8eb81","2025-07-09T09:37:24.905Z","","","","","","","","","","","","","","","","win-only","3","g1:SW,g2:NE","0.5","6","0","1639812","950","5957","62266","1","4","8","6","2","8","8","32","24","0.24242424242424243","1031","3000","960","[""up"",""right""]","{""num_key_presses"":12,""num_perfect"":7,""num_errors"":0,""num_randdir"":5,""num_randdir_good_moves"":2,""num_whilered"":0,""num_whileblue"":0,""num_blue"":6,""num_good_moves"":9}","[295.22857753208706,293.92857448032925,0,295.22857753208706,293.92857448032925,108,295.22857753208706,293.92857448032925,218,295.22857753208706,293.92857448032925,324,295.22857753208706,293.92857448032925,429,295.22857753208706,293.92857448032925,541,335.22857753208706,257.92857448032925,642,477.22857753208706,97.92857448032925,745,497.22857753208706,70.92857448032925,858,528.228577532087,42.92857448032924,963,530.228577532087,41.92857448032924,1073,530.228577532087,41.92857448032924,1177,530.228577532087,41.92857448032924,1281,530.228577532087,41.92857448032924,1389,530.228577532087,41.92857448032924,1490,530.228577532087,41.92857448032924,1594,552.228577532087,134.92857448032925,1705,606.228577532087,225.92857448032925,1807,691.228577532087,226.92857448032925,1918,691.228577532087,226.92857448032925,2023,691.228577532087,226.92857448032925,2131,691.228577532087,226.92857448032925,2239,691.228577532087,226.92857448032925,2348,691.228577532087,226.92857448032925,2454,691.228577532087,226.92857448032925,2560,691.228577532087,226.92857448032925,2672,691.228577532087,226.92857448032925,2782,691.228577532087,226.92857448032925,2893,691.228577532087,226.92857448032925,3005,691.228577532087,226.92857448032925,3106,691.228577532087,226.92857448032925,3206,691.228577532087,226.92857448032925,3313,691.228577532087,226.92857448032925,3421,691.228577532087,226.92857448032925,3525,691.228577532087,226.92857448032925,3634,691.228577532087,226.92857448032925,3744,691.228577532087,226.92857448032925,3858,691.228577532087,226.92857448032925,3962,691.228577532087,226.92857448032925,4074,691.228577532087,226.92857448032925,4186,691.228577532087,226.92857448032925,4298,691.228577532087,226.92857448032925,4408,691.228577532087,226.92857448032925,4519,691.228577532087,226.92857448032925,4623,691.228577532087,226.92857448032925,4732,691.228577532087,226.92857448032925,4836,691.228577532087,226.92857448032925,4949]","[4832,4832,2296.2,2027,508.8,""smooth"",""up"",""up"",""good_move"",11030,6197,2016.8,8455,558.2,""smooth"",""up"",""up"",""good_move"",14265,3234,2457.4,11031,776.6,""smooth"",""up"",""up"",""good_move"",21009,6744,2528.2,17934,546.8,""smooth"",""right"",""right"",""good_move"",23683,2674,1999.8,21009,674.2,""oops"",""right"",""down"",""bad_move"",26797,3112,2669.7,23685,442.3,""oops"",""right"",""up"",""good_move"",34149,7352,3065.8,30455,628.2,""oops"",""right"",""left"",""bad_move"",37593,3444,2967,34149,477,""oops"",""right"",""right"",""good_move"",40139,2546,1954.1,37593,591.9,""smooth"",""right"",""right"",""good_move"",43559,3419,2959.3,40140,459.7,""oops"",""right"",""left"",""bad_move"",49864,6304,2143.3,47251,469.7,""smooth"",""right"",""right"",""good_move"",56013,6149,2313.9,53151,548.1,""smooth"",""right"",""right"",""good_move""]","",""
"2421","","<div style=""width:500px;"">
  <p>What determined the result of this run?</p>
  </div>","89","html-slider-response","66","1705175","0.0-10.0-1.5","133","1","2025-07-09 09:09:00","7701e855f2ef39aa3fd6c71abdc6918a","37.47.210.126","Mozilla/5.0 (Windows NT 10.0; Win64; x64; rv:140.0) Gecko/20100101 Firefox/140.0","","Firefox","140.0","Windows","10.0","https://app.prolific.com/","pl","66a6211743bf2623c0a8eb81","686d226cabeef709c732f8e1","686e31120b16739db1ddbbc1","66a6211743bf2623c0a8eb81","2025-07-09T09:37:27.331Z","","","","","","AttribQ","","","","","","","","","","","","","","","","","","","","","","","","","","","","","","","","","","","","","","50"
"1760","","<div style=""width:500px;"">
  <p>How much control did you have over the ball?</p>
  </div>","82","html-slider-response","67","1706939","0.0-10.0-2.5","133","1","2025-07-09 09:09:00","7701e855f2ef39aa3fd6c71abdc6918a","37.47.210.126","Mozilla/5.0 (Windows NT 10.0; Win64; x64; rv:140.0) Gecko/20100101 Firefox/140.0","","Firefox","140.0","Windows","10.0","https://app.prolific.com/","pl","66a6211743bf2623c0a8eb81","686d226cabeef709c732f8e1","686e31120b16739db1ddbbc1","66a6211743bf2623c0a8eb81","2025-07-09T09:37:29.095Z","","","","","","ControlQ","","","","","","","","","","","","","","","","","","","","","","","","","","","","","","","","","","","","","","50"
"2274","","<div style=""width:500px;"">
  <p>How would you describe your current emotional state?</p>
  </div>","3","html-slider-response","68","1709214","0.0-10.0-3.5","133","1","2025-07-09 09:09:00","7701e855f2ef39aa3fd6c71abdc6918a","37.47.210.126","Mozilla/5.0 (Windows NT 10.0; Win64; x64; rv:140.0) Gecko/20100101 Firefox/140.0","","Firefox","140.0","Windows","10.0","https://app.prolific.com/","pl","66a6211743bf2623c0a8eb81","686d226cabeef709c732f8e1","686e31120b16739db1ddbbc1","66a6211743bf2623c0a8eb81","2025-07-09T09:37:31.370Z","","","","","","StressQ","","","","","","","","","","","","","","","","","","","","","","","","","","","","","","","","","","","","","","50"
"2385","","<div style=""width:500px;"">
  <p>What best describes how you currently feel?</p>
  </div>","98","html-slider-response","69","1711601","0.0-10.0-4.5","133","1","2025-07-09 09:09:00","7701e855f2ef39aa3fd6c71abdc6918a","37.47.210.126","Mozilla/5.0 (Windows NT 10.0; Win64; x64; rv:140.0) Gecko/20100101 Firefox/140.0","","Firefox","140.0","Windows","10.0","https://app.prolific.com/","pl","66a6211743bf2623c0a8eb81","686d226cabeef709c732f8e1","686e31120b16739db1ddbbc1","66a6211743bf2623c0a8eb81","2025-07-09T09:37:33.757Z","","","","","","MotivationQ","","","","","","","","","","","","","","","","","","","","","","","","","","","","","","","","","","","","","","50"
"","","","","ctl-task-cpt","70","1747584","0.0-10.0-0.6","133","1","2025-07-09 09:09:00","7701e855f2ef39aa3fd6c71abdc6918a","37.47.210.126","Mozilla/5.0 (Windows NT 10.0; Win64; x64; rv:140.0) Gecko/20100101 Firefox/140.0","","Firefox","140.0","Windows","10.0","https://app.prolific.com/","pl","66a6211743bf2623c0a8eb81","686d226cabeef709c732f8e1","686e31120b16739db1ddbbc1","66a6211743bf2623c0a8eb81","2025-07-09T09:38:09.740Z","","","","","","","","","","","","","","","","win-only","3","g1:SW,g2:NE","0.4","7","0","1713940","1007","6017","32977","1","4","4","6","2","4","4","36","32","0.2727272727272727","1045","3000","1835","[""up"",""right""]","{""num_key_presses"":8,""num_perfect"":4,""num_errors"":0,""num_randdir"":4,""num_randdir_good_moves"":3,""num_whilered"":0,""num_whileblue"":0,""num_blue"":1,""num_good_moves"":7}","[299.22857753208706,295.92857448032925,0,299.22857753208706,295.92857448032925,102,299.22857753208706,295.92857448032925,214,299.22857753208706,295.92857448032925,324,299.22857753208706,295.92857448032925,434,299.22857753208706,295.92857448032925,543,446.22857753208706,182.92857448032925,653,487.22857753208706,123.92857448032925,764,512.228577532087,100.92857448032925,873,539.228577532087,59.92857448032924,984,540.228577532087,56.92857448032924,1093,540.228577532087,56.92857448032924,1204,540.228577532087,56.92857448032924,1316,540.228577532087,56.92857448032924,1426,784.228577532087,179.92857448032925,1538,834.228577532087,191.92857448032925,1647,834.228577532087,191.92857448032925,1758,834.228577532087,191.92857448032925,1867,834.228577532087,191.92857448032925,1978,834.228577532087,191.92857448032925,2087,834.228577532087,191.92857448032925,2197,834.228577532087,191.92857448032925,2309,834.228577532087,191.92857448032925,2420,834.228577532087,191.92857448032925,2530,834.228577532087,191.92857448032925,2639,834.228577532087,191.92857448032925,2748,834.228577532087,191.92857448032925,2858,834.228577532087,191.92857448032925,2969,834.228577532087,191.92857448032925,3080,834.228577532087,191.92857448032925,3188,834.228577532087,191.92857448032925,3299,834.228577532087,191.92857448032925,3412,834.228577532087,191.92857448032925,3522,834.228577532087,191.92857448032925,3632,834.228577532087,191.92857448032925,3743,834.228577532087,191.92857448032925,3852,834.228577532087,191.92857448032925,3962,834.228577532087,191.92857448032925,4071,834.228577532087,191.92857448032925,4171,834.228577532087,191.92857448032925,4278,834.228577532087,191.92857448032925,4383,834.228577532087,191.92857448032925,4495,834.228577532087,191.92857448032925,4602,834.228577532087,191.92857448032925,4714,834.228577532087,191.92857448032925,4827,834.228577532087,191.92857448032925,4935]","[1450,1450,1000,0,450,""smooth"",""right"",""right"",""good_move"",5056,3606,2966.4,1450,639.6,""smooth"",""up"",""up"",""good_move"",8126,3070,1900,5056,1170,""smooth"",""up"",""up"",""good_move"",11249,3123,2628.7,8126,494.3,""smooth"",""right"",""right"",""good_move"",13996,2746,2328.9,11250,417.1,""oops"",""right"",""left"",""bad_move"",17349,3353,2926.6,13996,426.4,""oops"",""up"",""right"",""good_move"",19754,2405,1962.7,17349,442.3,""oops"",""up"",""up"",""good_move"",26680,6926,2629.2,23577,473.8,""oops"",""right"",""right"",""good_move""]","",""
"1862","","<div style=""width:500px;"">
  <p>What determined the result of this run?</p>
  </div>","92","html-slider-response","71","1749448","0.0-10.0-1.6","133","1","2025-07-09 09:09:00","7701e855f2ef39aa3fd6c71abdc6918a","37.47.210.126","Mozilla/5.0 (Windows NT 10.0; Win64; x64; rv:140.0) Gecko/20100101 Firefox/140.0","","Firefox","140.0","Windows","10.0","https://app.prolific.com/","pl","66a6211743bf2623c0a8eb81","686d226cabeef709c732f8e1","686e31120b16739db1ddbbc1","66a6211743bf2623c0a8eb81","2025-07-09T09:38:11.604Z","","","","","","AttribQ","","","","","","","","","","","","","","","","","","","","","","","","","","","","","","","","","","","","","","50"
"1792","","<div style=""width:500px;"">
  <p>How much control did you have over the ball?</p>
  </div>","81","html-slider-response","72","1751242","0.0-10.0-2.6","133","1","2025-07-09 09:09:00","7701e855f2ef39aa3fd6c71abdc6918a","37.47.210.126","Mozilla/5.0 (Windows NT 10.0; Win64; x64; rv:140.0) Gecko/20100101 Firefox/140.0","","Firefox","140.0","Windows","10.0","https://app.prolific.com/","pl","66a6211743bf2623c0a8eb81","686d226cabeef709c732f8e1","686e31120b16739db1ddbbc1","66a6211743bf2623c0a8eb81","2025-07-09T09:38:13.399Z","","","","","","ControlQ","","","","","","","","","","","","","","","","","","","","","","","","","","","","","","","","","","","","","","50"
"2160","","<div style=""width:500px;"">
  <p>How would you describe your current emotional state?</p>
  </div>","8","html-slider-response","73","1753405","0.0-10.0-3.6","133","1","2025-07-09 09:09:00","7701e855f2ef39aa3fd6c71abdc6918a","37.47.210.126","Mozilla/5.0 (Windows NT 10.0; Win64; x64; rv:140.0) Gecko/20100101 Firefox/140.0","","Firefox","140.0","Windows","10.0","https://app.prolific.com/","pl","66a6211743bf2623c0a8eb81","686d226cabeef709c732f8e1","686e31120b16739db1ddbbc1","66a6211743bf2623c0a8eb81","2025-07-09T09:38:15.561Z","","","","","","StressQ","","","","","","","","","","","","","","","","","","","","","","","","","","","","","","","","","","","","","","50"
"1497","","<div style=""width:500px;"">
  <p>What best describes how you currently feel?</p>
  </div>","96","html-slider-response","74","1754904","0.0-10.0-4.6","133","1","2025-07-09 09:09:00","7701e855f2ef39aa3fd6c71abdc6918a","37.47.210.126","Mozilla/5.0 (Windows NT 10.0; Win64; x64; rv:140.0) Gecko/20100101 Firefox/140.0","","Firefox","140.0","Windows","10.0","https://app.prolific.com/","pl","66a6211743bf2623c0a8eb81","686d226cabeef709c732f8e1","686e31120b16739db1ddbbc1","66a6211743bf2623c0a8eb81","2025-07-09T09:38:17.060Z","","","","","","MotivationQ","","","","","","","","","","","","","","","","","","","","","","","","","","","","","","","","","","","","","","50"
"","","","","ctl-task-cpt","75","1874337","0.0-10.0-0.7","133","1","2025-07-09 09:09:00","7701e855f2ef39aa3fd6c71abdc6918a","37.47.210.126","Mozilla/5.0 (Windows NT 10.0; Win64; x64; rv:140.0) Gecko/20100101 Firefox/140.0","","Firefox","140.0","Windows","10.0","https://app.prolific.com/","pl","66a6211743bf2623c0a8eb81","686d226cabeef709c732f8e1","686e31120b16739db1ddbbc1","66a6211743bf2623c0a8eb81","2025-07-09T09:40:16.493Z","","","","","","","","","","","","","","","","win-only","2","g1:SE,g2:NW","0.3","8","0","1757243","1039","6041","116420","1","4","8","6","2","-8","-14","22","36","0.16666666666666666","983","3000","-950","[""left"",""up""]","{""num_key_presses"":27,""num_perfect"":7,""num_errors"":6,""num_randdir"":14,""num_randdir_good_moves"":6,""num_whilered"":0,""num_whileblue"":4,""num_blue"":11,""num_good_moves"":15}","[291.22857753208706,289.92857448032925,0,291.22857753208706,289.92857448032925,108,291.22857753208706,289.92857448032925,221,291.22857753208706,289.92857448032925,328,291.22857753208706,289.92857448032925,439,291.22857753208706,289.92857448032925,549,137.22857753208706,151.92857448032925,660,82.22857753208706,100.92857448032925,771,43.22857753208705,69.92857448032925,884,36.22857753208705,55.92857448032924,994,36.22857753208705,55.92857448032924,1104,36.22857753208705,55.92857448032924,1214,76.22857753208706,58.92857448032924,1326,747.228577532087,111.92857448032925,1438,816.228577532087,118.92857448032925,1548,816.228577532087,118.92857448032925,1659,816.228577532087,118.92857448032925,1770,816.228577532087,118.92857448032925,1879,816.228577532087,118.92857448032925,1989,816.228577532087,118.92857448032925,2102,816.228577532087,118.92857448032925,2209,816.228577532087,118.92857448032925,2320,816.228577532087,118.92857448032925,2432,816.228577532087,118.92857448032925,2542,816.228577532087,118.92857448032925,2652,816.228577532087,118.92857448032925,2762,816.228577532087,118.92857448032925,2871,816.228577532087,118.92857448032925,2984,816.228577532087,118.92857448032925,3092,816.228577532087,118.92857448032925,3202,816.228577532087,118.92857448032925,3313,816.228577532087,118.92857448032925,3425,816.228577532087,118.92857448032925,3535,816.228577532087,118.92857448032925,3646,816.228577532087,118.92857448032925,3756,816.228577532087,118.92857448032925,3869,816.228577532087,118.92857448032925,3978,816.228577532087,118.92857448032925,4088,816.228577532087,118.92857448032925,4196,816.228577532087,118.92857448032925,4307,816.228577532087,118.92857448032925,4419,816.228577532087,118.92857448032925,4529,816.228577532087,118.92857448032925,4640,816.228577532087,118.92857448032925,4750,816.228577532087,118.92857448032925,4862,816.228577532087,118.92857448032925,4971]","[1451,1451,1000,0,451,""oops"",""up"",""left"",""good_move"",11959,10508,2639,8692,628,""oops"",""left"",""right"",""bad_move"",15283,3323,2911.5,11960,411.5,""oops"",""up"",""right"",""bad_move"",19012,3729,3339,15283,390,""while_blue"",""up"",""down"",""bad_move"",21521,2508,1960.3,19013,547.7,""oops"",""up"",""up"",""good_move"",24661,3140,2406.5,21521,733.5,""smooth"",""up"",""up"",""good_move"",27945,3284,2786.1,24661,497.9,""smooth"",""left"",""left"",""good_move"",31051,3106,2306.7,27945,799.3,""smooth"",""left"",""left"",""good_move"",34162,3111,2486.6,31051,624.4,""oops"",""left"",""down"",""bad_move"",41169,7006,2848.6,37820,500.4,""oops"",""left"",""right"",""bad_move"",44242,3073,2668,41169,405,""oops"",""up"",""right"",""bad_move"",47741,3499,3042.9,44242,456.1,""oops"",""up"",""up"",""good_move"",50749,3008,2602.9,47741,405.1,""oops"",""up"",""up"",""good_move"",53752,3003,2550.6,50749,452.4,""oops"",""left"",""left"",""good_move"",59815,6063,2042.7,57407,365.3,""smooth"",""left"",""left"",""good_move"",62873,3058,2663,59815,395,""while_blue"",""left"",""up"",""good_move"",66099,3226,1428.8,62873,1797.2,""oops"",""left"",""right"",""bad_move"",69640,3540,3049.4,66100,490.6,""smooth"",""left"",""left"",""good_move"",72980,3340,2915.8,69640,424.2,""smooth"",""left"",""left"",""good_move"",83734,10754,2955.2,80285,493.8,""oops"",""left"",""right"",""bad_move"",86277,2543,2131,83734,412,""while_blue"",""left"",""right"",""bad_move"",90141,3863,3466.6,86278,396.4,""oops"",""left"",""left"",""good_move"",93179,3037,2652,90142,385,""while_blue"",""left"",""left"",""good_move"",96283,3104,2485.7,93179,618.3,""oops"",""left"",""right"",""bad_move"",98504,2221,1822.2,96283,398.8,""smooth"",""left"",""left"",""good_move"",100222,1717,2690.6,98505,-973.6,""error"",""-"",""-"",""no_move"",103182,2960,2846.7,101230,-894.7,""error"",""-"",""-"",""no_move""]","",""
"4000","","<div style=""width:500px;"">
  <p>What determined the result of this run?</p>
  </div>","32","html-slider-response","76","1878339","0.0-10.0-1.7","133","1","2025-07-09 09:09:00","7701e855f2ef39aa3fd6c71abdc6918a","37.47.210.126","Mozilla/5.0 (Windows NT 10.0; Win64; x64; rv:140.0) Gecko/20100101 Firefox/140.0","","Firefox","140.0","Windows","10.0","https://app.prolific.com/","pl","66a6211743bf2623c0a8eb81","686d226cabeef709c732f8e1","686e31120b16739db1ddbbc1","66a6211743bf2623c0a8eb81","2025-07-09T09:40:20.495Z","","","","","","AttribQ","","","","","","","","","","","","","","","","","","","","","","","","","","","","","","","","","","","","","","50"
"3040","","<div style=""width:500px;"">
  <p>How much control did you have over the ball?</p>
  </div>","32","html-slider-response","77","1881383","0.0-10.0-2.7","133","1","2025-07-09 09:09:00","7701e855f2ef39aa3fd6c71abdc6918a","37.47.210.126","Mozilla/5.0 (Windows NT 10.0; Win64; x64; rv:140.0) Gecko/20100101 Firefox/140.0","","Firefox","140.0","Windows","10.0","https://app.prolific.com/","pl","66a6211743bf2623c0a8eb81","686d226cabeef709c732f8e1","686e31120b16739db1ddbbc1","66a6211743bf2623c0a8eb81","2025-07-09T09:40:23.539Z","","","","","","ControlQ","","","","","","","","","","","","","","","","","","","","","","","","","","","","","","","","","","","","","","50"
"2095","","<div style=""width:500px;"">
  <p>How would you describe your current emotional state?</p>
  </div>","66","html-slider-response","78","1883480","0.0-10.0-3.7","133","1","2025-07-09 09:09:00","7701e855f2ef39aa3fd6c71abdc6918a","37.47.210.126","Mozilla/5.0 (Windows NT 10.0; Win64; x64; rv:140.0) Gecko/20100101 Firefox/140.0","","Firefox","140.0","Windows","10.0","https://app.prolific.com/","pl","66a6211743bf2623c0a8eb81","686d226cabeef709c732f8e1","686e31120b16739db1ddbbc1","66a6211743bf2623c0a8eb81","2025-07-09T09:40:25.636Z","","","","","","StressQ","","","","","","","","","","","","","","","","","","","","","","","","","","","","","","","","","","","","","","50"
"2985","","<div style=""width:500px;"">
  <p>What best describes how you currently feel?</p>
  </div>","89","html-slider-response","79","1886468","0.0-10.0-4.7","133","1","2025-07-09 09:09:00","7701e855f2ef39aa3fd6c71abdc6918a","37.47.210.126","Mozilla/5.0 (Windows NT 10.0; Win64; x64; rv:140.0) Gecko/20100101 Firefox/140.0","","Firefox","140.0","Windows","10.0","https://app.prolific.com/","pl","66a6211743bf2623c0a8eb81","686d226cabeef709c732f8e1","686e31120b16739db1ddbbc1","66a6211743bf2623c0a8eb81","2025-07-09T09:40:28.624Z","","","","","","MotivationQ","","","","","","","","","","","","","","","","","","","","","","","","","","","","","","","","","","","","","","50"
"","","","","ctl-task-cpt","80","1962865","0.0-10.0-0.8","133","1","2025-07-09 09:09:00","7701e855f2ef39aa3fd6c71abdc6918a","37.47.210.126","Mozilla/5.0 (Windows NT 10.0; Win64; x64; rv:140.0) Gecko/20100101 Firefox/140.0","","Firefox","140.0","Windows","10.0","https://app.prolific.com/","pl","66a6211743bf2623c0a8eb81","686d226cabeef709c732f8e1","686e31120b16739db1ddbbc1","66a6211743bf2623c0a8eb81","2025-07-09T09:41:45.021Z","","","","","","","","","","","","","","","","win-only","1","g1:NE,g2:SW","0.2","9","0","1888808","940","5951","73391","1","4","4","6","2","4","2","24","22","0.18181818181818182","1060","3000","160","[""down"",""left""]","{""num_key_presses"":20,""num_perfect"":4,""num_errors"":2,""num_randdir"":14,""num_randdir_good_moves"":8,""num_whilered"":0,""num_whileblue"":2,""num_blue"":4,""num_good_moves"":13}","[297.22857753208706,299.92857448032925,0,297.22857753208706,299.92857448032925,111,297.22857753208706,299.92857448032925,219,297.22857753208706,299.92857448032925,330,297.22857753208706,299.92857448032925,442,297.22857753208706,299.92857448032925,549,262.22857753208706,323.92857448032925,653,123.22857753208706,475.92857448032925,763,102.22857753208706,495.92857448032925,874,72.22857753208706,516.9285744803292,986,62.22857753208705,523.9285744803292,1098,62.22857753208705,523.9285744803292,1204,62.22857753208705,523.9285744803292,1310,62.22857753208705,523.9285744803292,1420,143.22857753208706,496.92857448032925,1532,737.228577532087,354.92857448032925,1646,737.228577532087,354.92857448032925,1755,737.228577532087,354.92857448032925,1862,737.228577532087,354.92857448032925,1968,737.228577532087,354.92857448032925,2081,737.228577532087,354.92857448032925,2186,737.228577532087,354.92857448032925,2294,737.228577532087,354.92857448032925,2406,737.228577532087,354.92857448032925,2514,737.228577532087,354.92857448032925,2623,737.228577532087,354.92857448032925,2733,737.228577532087,354.92857448032925,2844,737.228577532087,354.92857448032925,2951,737.228577532087,354.92857448032925,3061,737.228577532087,354.92857448032925,3166,737.228577532087,354.92857448032925,3276,737.228577532087,354.92857448032925,3382,737.228577532087,354.92857448032925,3491,737.228577532087,354.92857448032925,3600,737.228577532087,354.92857448032925,3706,737.228577532087,354.92857448032925,3819,737.228577532087,354.92857448032925,3919,737.228577532087,354.92857448032925,4026,737.228577532087,354.92857448032925,4130,737.228577532087,354.92857448032925,4240,737.228577532087,354.92857448032925,4349,737.228577532087,354.92857448032925,4457,737.228577532087,354.92857448032925,4568,737.228577532087,354.92857448032925,4676,737.228577532087,354.92857448032925,4782,737.228577532087,354.92857448032925,4889,737.228577532087,354.92857448032925,4994]","[1501,1501,1000,0,501,""oops"",""down"",""left"",""good_move"",4627,3126,2617.9,1501,508.1,""oops"",""down"",""up"",""bad_move"",7852,3225,2232.5,4627,992.5,""oops"",""down"",""right"",""bad_move"",10671,2819,2358.2,7852,460.8,""smooth"",""down"",""down"",""good_move"",16768,6097,2537.9,13647,583.1,""oops"",""down"",""left"",""good_move"",23594,6826,2659.6,20378,556.4,""smooth"",""down"",""down"",""good_move"",26719,3125,2676.6,23594,448.4,""oops"",""down"",""up"",""bad_move"",30082,3363,2555.8,26719,807.2,""oops"",""down"",""right"",""bad_move"",33486,3403,2896.8,30083,506.2,""oops"",""down"",""down"",""good_move"",36631,3145,2753.9,33486,391.1,""oops"",""down"",""down"",""good_move"",39388,2757,2301.8,36631,455.2,""oops"",""down"",""left"",""good_move"",42861,3473,3051.1,39388,421.9,""oops"",""down"",""right"",""bad_move"",45685,2824,2017.6,42861,806.4,""smooth"",""down"",""down"",""good_move"",48942,3257,2844.8,45685,412.2,""smooth"",""left"",""left"",""good_move"",52621,3679,3248.7,48942,430.3,""oops"",""left"",""left"",""good_move"",55722,3101,2507,52621,594,""oops"",""left"",""up"",""bad_move"",58791,3069,2439.6,55722,629.4,""oops"",""down"",""down"",""good_move"",61762,2971,2560,58791,411,""while_blue"",""left"",""up"",""bad_move"",64835,3073,2677,61762,396,""while_blue"",""down"",""down"",""good_move"",67169,2334,1789.2,64835,544.8,""oops"",""left"",""left"",""good_move""]","",""
"2597","","<div style=""width:500px;"">
  <p>What determined the result of this run?</p>
  </div>","61","html-slider-response","81","1965465","0.0-10.0-1.8","133","1","2025-07-09 09:09:00","7701e855f2ef39aa3fd6c71abdc6918a","37.47.210.126","Mozilla/5.0 (Windows NT 10.0; Win64; x64; rv:140.0) Gecko/20100101 Firefox/140.0","","Firefox","140.0","Windows","10.0","https://app.prolific.com/","pl","66a6211743bf2623c0a8eb81","686d226cabeef709c732f8e1","686e31120b16739db1ddbbc1","66a6211743bf2623c0a8eb81","2025-07-09T09:41:47.621Z","","","","","","AttribQ","","","","","","","","","","","","","","","","","","","","","","","","","","","","","","","","","","","","","","50"
"1456","","<div style=""width:500px;"">
  <p>How much control did you have over the ball?</p>
  </div>","66","html-slider-response","82","1966924","0.0-10.0-2.8","133","1","2025-07-09 09:09:00","7701e855f2ef39aa3fd6c71abdc6918a","37.47.210.126","Mozilla/5.0 (Windows NT 10.0; Win64; x64; rv:140.0) Gecko/20100101 Firefox/140.0","","Firefox","140.0","Windows","10.0","https://app.prolific.com/","pl","66a6211743bf2623c0a8eb81","686d226cabeef709c732f8e1","686e31120b16739db1ddbbc1","66a6211743bf2623c0a8eb81","2025-07-09T09:41:49.080Z","","","","","","ControlQ","","","","","","","","","","","","","","","","","","","","","","","","","","","","","","","","","","","","","","50"
"2497","","<div style=""width:500px;"">
  <p>How would you describe your current emotional state?</p>
  </div>","40","html-slider-response","83","1969423","0.0-10.0-3.8","133","1","2025-07-09 09:09:00","7701e855f2ef39aa3fd6c71abdc6918a","37.47.210.126","Mozilla/5.0 (Windows NT 10.0; Win64; x64; rv:140.0) Gecko/20100101 Firefox/140.0","","Firefox","140.0","Windows","10.0","https://app.prolific.com/","pl","66a6211743bf2623c0a8eb81","686d226cabeef709c732f8e1","686e31120b16739db1ddbbc1","66a6211743bf2623c0a8eb81","2025-07-09T09:41:51.579Z","","","","","","StressQ","","","","","","","","","","","","","","","","","","","","","","","","","","","","","","","","","","","","","","50"
"2000","","<div style=""width:500px;"">
  <p>What best describes how you currently feel?</p>
  </div>","92","html-slider-response","84","1971425","0.0-10.0-4.8","133","1","2025-07-09 09:09:00","7701e855f2ef39aa3fd6c71abdc6918a","37.47.210.126","Mozilla/5.0 (Windows NT 10.0; Win64; x64; rv:140.0) Gecko/20100101 Firefox/140.0","","Firefox","140.0","Windows","10.0","https://app.prolific.com/","pl","66a6211743bf2623c0a8eb81","686d226cabeef709c732f8e1","686e31120b16739db1ddbbc1","66a6211743bf2623c0a8eb81","2025-07-09T09:41:53.581Z","","","","","","MotivationQ","","","","","","","","","","","","","","","","","","","","","","","","","","","","","","","","","","","","","","50"
"","","","","ctl-task-cpt","85","2016602","0.0-10.0-0.9","133","1","2025-07-09 09:09:00","7701e855f2ef39aa3fd6c71abdc6918a","37.47.210.126","Mozilla/5.0 (Windows NT 10.0; Win64; x64; rv:140.0) Gecko/20100101 Firefox/140.0","","Firefox","140.0","Windows","10.0","https://app.prolific.com/","pl","66a6211743bf2623c0a8eb81","686d226cabeef709c732f8e1","686e31120b16739db1ddbbc1","66a6211743bf2623c0a8eb81","2025-07-09T09:42:38.758Z","","","","","","","","","","","","","","","","win-only","2","g1:SE,g2:NW","0.4","10","0","1973765","1014","6022","42167","1","4","8","6","2","8","8","32","24","0.24242424242424243","1007","3000","2035","[""left"",""up""]","{""num_key_presses"":6,""num_perfect"":1,""num_errors"":0,""num_randdir"":5,""num_randdir_good_moves"":5,""num_whilered"":0,""num_whileblue"":0,""num_blue"":5,""num_good_moves"":6}","[301.22857753208706,293.92857448032925,0,301.22857753208706,293.92857448032925,101,301.22857753208706,293.92857448032925,212,301.22857753208706,293.92857448032925,320,301.22857753208706,293.92857448032925,431,301.22857753208706,293.92857448032925,541,126.22857753208706,162.92857448032925,651,83.22857753208706,112.92857448032925,762,57.22857753208705,85.92857448032925,871,48.22857753208705,60.92857448032924,982,48.22857753208705,60.92857448032924,1095,48.22857753208705,60.92857448032924,1202,70.22857753208706,64.92857448032925,1316,784.228577532087,111.92857448032925,1427,923.228577532087,112.92857448032925,1539,923.228577532087,112.92857448032925,1648,923.228577532087,112.92857448032925,1759,923.228577532087,112.92857448032925,1868,923.228577532087,112.92857448032925,1977,923.228577532087,112.92857448032925,2087,923.228577532087,112.92857448032925,2197,923.228577532087,112.92857448032925,2310,923.228577532087,112.92857448032925,2420,923.228577532087,112.92857448032925,2530,923.228577532087,112.92857448032925,2643,923.228577532087,112.92857448032925,2751,923.228577532087,112.92857448032925,2861,923.228577532087,112.92857448032925,2971,923.228577532087,112.92857448032925,3081,923.228577532087,112.92857448032925,3193,923.228577532087,112.92857448032925,3303,923.228577532087,112.92857448032925,3416,923.228577532087,112.92857448032925,3526,923.228577532087,112.92857448032925,3636,923.228577532087,112.92857448032925,3746,923.228577532087,112.92857448032925,3858,923.228577532087,112.92857448032925,3967,923.228577532087,112.92857448032925,4078,923.228577532087,112.92857448032925,4187,923.228577532087,112.92857448032925,4297,923.228577532087,112.92857448032925,4409,923.228577532087,112.92857448032925,4520,923.228577532087,112.92857448032925,4630,923.228577532087,112.92857448032925,4741,923.228577532087,112.92857448032925,4851,923.228577532087,112.92857448032925,4961]","[8937,8937,2291,6149,497,""oops"",""up"",""up"",""good_move"",20007,11070,3095.2,16438,473.8,""smooth"",""up"",""up"",""good_move"",26388,6381,2046.4,23687,654.6,""oops"",""left"",""left"",""good_move"",29571,3183,2257,26388,926,""oops"",""left"",""up"",""good_move"",32692,3120,1348.9,29572,1771.1,""oops"",""left"",""left"",""good_move"",35857,3164,2618.1,32693,545.9,""oops"",""left"",""left"",""good_move""]","",""
"4095","","<div style=""width:500px;"">
  <p>What determined the result of this run?</p>
  </div>","86","html-slider-response","86","2020699","0.0-10.0-1.9","133","1","2025-07-09 09:09:00","7701e855f2ef39aa3fd6c71abdc6918a","37.47.210.126","Mozilla/5.0 (Windows NT 10.0; Win64; x64; rv:140.0) Gecko/20100101 Firefox/140.0","","Firefox","140.0","Windows","10.0","https://app.prolific.com/","pl","66a6211743bf2623c0a8eb81","686d226cabeef709c732f8e1","686e31120b16739db1ddbbc1","66a6211743bf2623c0a8eb81","2025-07-09T09:42:42.855Z","","","","","","AttribQ","","","","","","","","","","","","","","","","","","","","","","","","","","","","","","","","","","","","","","50"
"2001","","<div style=""width:500px;"">
  <p>How much control did you have over the ball?</p>
  </div>","72","html-slider-response","87","2022702","0.0-10.0-2.9","133","1","2025-07-09 09:09:00","7701e855f2ef39aa3fd6c71abdc6918a","37.47.210.126","Mozilla/5.0 (Windows NT 10.0; Win64; x64; rv:140.0) Gecko/20100101 Firefox/140.0","","Firefox","140.0","Windows","10.0","https://app.prolific.com/","pl","66a6211743bf2623c0a8eb81","686d226cabeef709c732f8e1","686e31120b16739db1ddbbc1","66a6211743bf2623c0a8eb81","2025-07-09T09:42:44.858Z","","","","","","ControlQ","","","","","","","","","","","","","","","","","","","","","","","","","","","","","","","","","","","","","","50"
"2152","","<div style=""width:500px;"">
  <p>How would you describe your current emotional state?</p>
  </div>","26","html-slider-response","88","2024855","0.0-10.0-3.9","133","1","2025-07-09 09:09:00","7701e855f2ef39aa3fd6c71abdc6918a","37.47.210.126","Mozilla/5.0 (Windows NT 10.0; Win64; x64; rv:140.0) Gecko/20100101 Firefox/140.0","","Firefox","140.0","Windows","10.0","https://app.prolific.com/","pl","66a6211743bf2623c0a8eb81","686d226cabeef709c732f8e1","686e31120b16739db1ddbbc1","66a6211743bf2623c0a8eb81","2025-07-09T09:42:47.011Z","","","","","","StressQ","","","","","","","","","","","","","","","","","","","","","","","","","","","","","","","","","","","","","","50"
"2233","","<div style=""width:500px;"">
  <p>What best describes how you currently feel?</p>
  </div>","93","html-slider-response","89","2027090","0.0-10.0-4.9","133","1","2025-07-09 09:09:00","7701e855f2ef39aa3fd6c71abdc6918a","37.47.210.126","Mozilla/5.0 (Windows NT 10.0; Win64; x64; rv:140.0) Gecko/20100101 Firefox/140.0","","Firefox","140.0","Windows","10.0","https://app.prolific.com/","pl","66a6211743bf2623c0a8eb81","686d226cabeef709c732f8e1","686e31120b16739db1ddbbc1","66a6211743bf2623c0a8eb81","2025-07-09T09:42:49.246Z","","","","","","MotivationQ","","","","","","","","","","","","","","","","","","","","","","","","","","","","","","","","","","","","","","50"
