"rt","response_timestamp","stimulus","response","trial_type","trial_index","time_elapsed","internal_node_id","run_id","condition","recorded_at","source_code_version","ip","user_agent","device","browser","browser_version","platform","platform_version","referer","accept_language","PROLIFIC_PID","STUDY_ID","SESSION_ID","prolific_id","realtime","view_history","question_order","consent","success","question_id","eventType","responses","item_order","radio_event_ids","radio_event_times","key_event_times","mouse_event_times","straightlining","zigzagging","honeypot","which_type","canvas_config","goals_layout","control_level","trial_number","tutorial_trial_number","trial_start_time","phase1_start_time","phase2_start_time","phase3_start_time","goal_1_value","goal_1_distance","goal_2_value","goal_2_distance","goal_selected","outcome","outcome_total","participant_final_score","participant_initial_score","participant_final_score_prop","goal_choice_rt","allocated_time","allocated_time_remaining","goal_direction","counts","mouse_movements","key_presses","correct","slider_start","sub_question"
"18642","1752051878056","<p style='font-size:40px;line-height:1.25'><strong>Welcome to the experiment!</strong></p><p style='font-size:1.1em;line-height:1.25'>Thank you for your interest in our experiment! Before you begin, it is important that we obtain your informed consent to participate in the study.</p><p style='font-size:1.1em;line-height:1.25'>On the next screen will be an <strong>information sheet</strong> for you to read. To participate in the study we need you to read this information sheet and the following consent form carefully. If you agree with all the statements, please click the <strong>I agree</strong> button.</p><p style='font-size:1.1em;line-height:1.25'>Press <strong>Next</strong> to read the information sheet.</p>","0","custom-html-button-response","0","18647","0.0-0.0","5","1","2025-07-09 09:04:09","7701e855f2ef39aa3fd6c71abdc6918a","137.155.48.9","Mozilla/5.0 (Windows NT 10.0; Win64; x64) AppleWebKit/537.36 (KHTML, like Gecko) Chrome/133.0.0.0 Safari/537.36","WebKit","Chrome","133.0.0.0","Windows","10.0","https://app.prolific.com/","en-US,en;q=0.9","67d9d158b3db2c7d641840b0","686d226cabeef709c732f8e1","686e306294610c88b46a72ec","67d9d158b3db2c7d641840b0","2025-07-09T09:04:38.059Z","","","","","","","","","","","","","","","","","","","","","","","","","","","","","","","","","","","","","","","","","","","","",""
"17331","","","","instructions","1","35982","0.0-1.0","5","1","2025-07-09 09:04:09","7701e855f2ef39aa3fd6c71abdc6918a","137.155.48.9","Mozilla/5.0 (Windows NT 10.0; Win64; x64) AppleWebKit/537.36 (KHTML, like Gecko) Chrome/133.0.0.0 Safari/537.36","WebKit","Chrome","133.0.0.0","Windows","10.0","https://app.prolific.com/","en-US,en;q=0.9","67d9d158b3db2c7d641840b0","686d226cabeef709c732f8e1","686e306294610c88b46a72ec","67d9d158b3db2c7d641840b0","","[{""page_index"":0,""viewing_time"":12763},{""page_index"":1,""viewing_time"":4568}]","","","","","","","","","","","","","","","","","","","","","","","","","","","","","","","","","","","","","","","","","","","",""
"13585","","","{""Q0"":"""",""Q1"":"""",""Q2"":"""",""Q3"":"""",""Q4"":"""",""Q5"":"""",""Q6"":""I agree""}","survey-multi-choice","2","49572","0.0-2.0","5","1","2025-07-09 09:04:09","7701e855f2ef39aa3fd6c71abdc6918a","137.155.48.9","Mozilla/5.0 (Windows NT 10.0; Win64; x64) AppleWebKit/537.36 (KHTML, like Gecko) Chrome/133.0.0.0 Safari/537.36","WebKit","Chrome","133.0.0.0","Windows","10.0","https://app.prolific.com/","en-US,en;q=0.9","67d9d158b3db2c7d641840b0","686d226cabeef709c732f8e1","686e306294610c88b46a72ec","67d9d158b3db2c7d641840b0","","","[0,1,2,3,4,5,6]","true","","","","","","","","","","","","","","","","","","","","","","","","","","","","","","","","","","","","","","","","","",""
"52035","","","","fullscreen","3","102611","0.0-4.0","5","1","2025-07-09 09:04:09","7701e855f2ef39aa3fd6c71abdc6918a","137.155.48.9","Mozilla/5.0 (Windows NT 10.0; Win64; x64) AppleWebKit/537.36 (KHTML, like Gecko) Chrome/133.0.0.0 Safari/537.36","WebKit","Chrome","133.0.0.0","Windows","10.0","https://app.prolific.com/","en-US,en;q=0.9","67d9d158b3db2c7d641840b0","686d226cabeef709c732f8e1","686e306294610c88b46a72ec","67d9d158b3db2c7d641840b0","","","","","true","","","","","","","","","","","","","","","","","","","","","","","","","","","","","","","","","","","","","","","","",""
"5021","1752051967045"," <p style='font-size:1.1em;line-height:1.25'>Thank you for completing the consent form and closing all other tabs.</p><p style='font-size:1.1em;line-height:1.25'>We will now invite you to fill in some demographic information and questionnaires, before starting the game.<br>This will take about 5 minutes.<br></p><p style='font-size:1.1em;line-height:1.25'>Press the <strong>Next</strong> button to continue.</p>","0","custom-html-button-response","4","107635","0.0-5.0","5","1","2025-07-09 09:04:09","7701e855f2ef39aa3fd6c71abdc6918a","137.155.48.9","Mozilla/5.0 (Windows NT 10.0; Win64; x64) AppleWebKit/537.36 (KHTML, like Gecko) Chrome/133.0.0.0 Safari/537.36","WebKit","Chrome","133.0.0.0","Windows","10.0","https://app.prolific.com/","en-US,en;q=0.9","67d9d158b3db2c7d641840b0","686d226cabeef709c732f8e1","686e306294610c88b46a72ec","67d9d158b3db2c7d641840b0","2025-07-09T09:06:07.046Z","","","","","","","","","","","","","","","","","","","","","","","","","","","","","","","","","","","","","","","","","","","","",""
"4102","","","{""age"":""36""}","survey-text","5","111741","0.0-6.0-0.0","5","1","2025-07-09 09:04:09","7701e855f2ef39aa3fd6c71abdc6918a","137.155.48.9","Mozilla/5.0 (Windows NT 10.0; Win64; x64) AppleWebKit/537.36 (KHTML, like Gecko) Chrome/133.0.0.0 Safari/537.36","WebKit","Chrome","133.0.0.0","Windows","10.0","https://app.prolific.com/","en-US,en;q=0.9","67d9d158b3db2c7d641840b0","686d226cabeef709c732f8e1","686e306294610c88b46a72ec","67d9d158b3db2c7d641840b0","","","","","","0","demographics","","","","","","","","","","","","","","","","","","","","","","","","","","","","","","","","","","","","","","",""
"3322","","","{""gender_identity"":""female/woman""}","survey-multi-choice","6","115066","0.0-6.0-1.0","5","1","2025-07-09 09:04:09","7701e855f2ef39aa3fd6c71abdc6918a","137.155.48.9","Mozilla/5.0 (Windows NT 10.0; Win64; x64) AppleWebKit/537.36 (KHTML, like Gecko) Chrome/133.0.0.0 Safari/537.36","WebKit","Chrome","133.0.0.0","Windows","10.0","https://app.prolific.com/","en-US,en;q=0.9","67d9d158b3db2c7d641840b0","686d226cabeef709c732f8e1","686e306294610c88b46a72ec","67d9d158b3db2c7d641840b0","","","[0]","","","1","demographics","","","","","","","","","","","","","","","","","","","","","","","","","","","","","","","","","","","","","","",""
"4803","","","{""assigned_sex"":""female""}","survey-multi-choice","7","119872","0.0-6.0-2.0","5","1","2025-07-09 09:04:09","7701e855f2ef39aa3fd6c71abdc6918a","137.155.48.9","Mozilla/5.0 (Windows NT 10.0; Win64; x64) AppleWebKit/537.36 (KHTML, like Gecko) Chrome/133.0.0.0 Safari/537.36","WebKit","Chrome","133.0.0.0","Windows","10.0","https://app.prolific.com/","en-US,en;q=0.9","67d9d158b3db2c7d641840b0","686d226cabeef709c732f8e1","686e306294610c88b46a72ec","67d9d158b3db2c7d641840b0","","","[0]","","","2","demographics","","","","","","","","","","","","","","","","","","","","","","","","","","","","","","","","","","","","","","",""
"9771","","","{""menstrual_cycle"":""Yes""}","survey-multi-choice","8","129645","0.0-6.0-3.0","5","1","2025-07-09 09:04:09","7701e855f2ef39aa3fd6c71abdc6918a","137.155.48.9","Mozilla/5.0 (Windows NT 10.0; Win64; x64) AppleWebKit/537.36 (KHTML, like Gecko) Chrome/133.0.0.0 Safari/537.36","WebKit","Chrome","133.0.0.0","Windows","10.0","https://app.prolific.com/","en-US,en;q=0.9","67d9d158b3db2c7d641840b0","686d226cabeef709c732f8e1","686e306294610c88b46a72ec","67d9d158b3db2c7d641840b0","","","[0]","","","4","demographics","","","","","","","","","","","","","","","","","","","","","","","","","","","","","","","","","","","","","","",""
"5071","","","{""education"":""Master's Degree (e.g., MSc)""}","survey-multi-choice","9","134719","0.0-6.0-4.0","5","1","2025-07-09 09:04:09","7701e855f2ef39aa3fd6c71abdc6918a","137.155.48.9","Mozilla/5.0 (Windows NT 10.0; Win64; x64) AppleWebKit/537.36 (KHTML, like Gecko) Chrome/133.0.0.0 Safari/537.36","WebKit","Chrome","133.0.0.0","Windows","10.0","https://app.prolific.com/","en-US,en;q=0.9","67d9d158b3db2c7d641840b0","686d226cabeef709c732f8e1","686e306294610c88b46a72ec","67d9d158b3db2c7d641840b0","","","[0]","","","5","demographics","","","","","","","","","","","","","","","","","","","","","","","","","","","","","","","","","","","","","","",""
"6067","","","{""education"":""Bachelor's Degree (e.g., BA)""}","survey-multi-choice","10","140788","0.0-6.0-5.0","5","1","2025-07-09 09:04:09","7701e855f2ef39aa3fd6c71abdc6918a","137.155.48.9","Mozilla/5.0 (Windows NT 10.0; Win64; x64) AppleWebKit/537.36 (KHTML, like Gecko) Chrome/133.0.0.0 Safari/537.36","WebKit","Chrome","133.0.0.0","Windows","10.0","https://app.prolific.com/","en-US,en;q=0.9","67d9d158b3db2c7d641840b0","686d226cabeef709c732f8e1","686e306294610c88b46a72ec","67d9d158b3db2c7d641840b0","2025-07-09T09:06:40.199Z","","[0]","","","6","demographics","","","","","","","","","","","","","","","","","","","","","","","","","","","","","","","","","","","","","","",""
"19547","","","{""mental_health_condition"":""No"",""mental_health_treatment"":""No"",""psychiatric_medication"":""No""}","survey-text","11","160340","0.0-7.0-0.0","5","1","2025-07-09 09:04:09","7701e855f2ef39aa3fd6c71abdc6918a","137.155.48.9","Mozilla/5.0 (Windows NT 10.0; Win64; x64) AppleWebKit/537.36 (KHTML, like Gecko) Chrome/133.0.0.0 Safari/537.36","WebKit","Chrome","133.0.0.0","Windows","10.0","https://app.prolific.com/","en-US,en;q=0.9","67d9d158b3db2c7d641840b0","686d226cabeef709c732f8e1","686e306294610c88b46a72ec","67d9d158b3db2c7d641840b0","2025-07-09T09:06:59.752Z","","","","","1","mental_health","","","","","","","","","","","","","","","","","","","","","","","","","","","","","","","","","","","","","","",""
"14000","","","{""depression_history"":[""Yes""]}","survey-multi-select","12","174348","0.0-7.0-1.0","5","1","2025-07-09 09:04:09","7701e855f2ef39aa3fd6c71abdc6918a","137.155.48.9","Mozilla/5.0 (Windows NT 10.0; Win64; x64) AppleWebKit/537.36 (KHTML, like Gecko) Chrome/133.0.0.0 Safari/537.36","WebKit","Chrome","133.0.0.0","Windows","10.0","https://app.prolific.com/","en-US,en;q=0.9","67d9d158b3db2c7d641840b0","686d226cabeef709c732f8e1","686e306294610c88b46a72ec","67d9d158b3db2c7d641840b0","","","[0]","","","","mental_health","","","","","","","","","","","","","","","","","","","","","","","","","","","","","","","","","","","","","","",""
"19483","","","{""depression_episodes"":""1-2"",""depression_recent"":""More than 1 year ago""}","survey-multi-choice","13","193833","0.0-7.0-2.0-0.0","5","1","2025-07-09 09:04:09","7701e855f2ef39aa3fd6c71abdc6918a","137.155.48.9","Mozilla/5.0 (Windows NT 10.0; Win64; x64) AppleWebKit/537.36 (KHTML, like Gecko) Chrome/133.0.0.0 Safari/537.36","WebKit","Chrome","133.0.0.0","Windows","10.0","https://app.prolific.com/","en-US,en;q=0.9","67d9d158b3db2c7d641840b0","686d226cabeef709c732f8e1","686e306294610c88b46a72ec","67d9d158b3db2c7d641840b0","2025-07-09T09:07:33.244Z","","[0,1]","","","3","mental_health","","","","","","","","","","","","","","","","","","","","","","","","","","","","","","","","","","","","","","",""
"79865.5","","","","survey-template","14","273709","0.0-7.0-3.0","5","1","2025-07-09 09:04:09","7701e855f2ef39aa3fd6c71abdc6918a","137.155.48.9","Mozilla/5.0 (Windows NT 10.0; Win64; x64) AppleWebKit/537.36 (KHTML, like Gecko) Chrome/133.0.0.0 Safari/537.36","WebKit","Chrome","133.0.0.0","Windows","10.0","https://app.prolific.com/","en-US,en;q=0.9","67d9d158b3db2c7d641840b0","686d226cabeef709c732f8e1","686e306294610c88b46a72ec","67d9d158b3db2c7d641840b0","2025-07-09T09:08:53.120Z","","","","","","ius","{""Q01"":""1"",""Q02"":""0"",""Q03"":""3"",""Q04"":""3"",""Q05"":""2"",""Q06"":""4"",""Q07"":""2"",""Q08"":""0"",""Q09"":""1"",""Q10"":""1"",""Q11"":""2"",""Q12"":""2"",""Q13"":""1""}","[0,1,2,3,4,5,6,7,8,9,10,11,12]","[""Q01"",""Q02"",""Q03"",""Q04"",""Q05"",""Q06"",""Q06"",""Q07"",""Q08"",""Q07"",""Q09"",""Q10"",""Q11"",""Q12"",""Q13""]","[18851.800000071526,24781.400000095367,29029.900000095367,34700.200000047684,49725,53991.60000002384,58757.40000009537,62762.10000002384,66329.5,69573.10000002384,71381.80000007153,73112.90000009537,73346.60000002384,77331.20000004768,78481.10000002384]","[]","[18851.800000071526,24781.400000095367,29029.900000095367,34700.200000047684,49725,53991.60000002384,58757.40000009537,62762.10000002384,66329.5,69573.10000002384,71381.80000007153,73112.90000009537,73346.60000002384,77331.20000004768,77764.30000007153,78481.10000002384,79863.20000004768]","0.3076923076923077","0.4166666666666667","0","","","","","","","","","","","","","","","","","","","","","","","","","","","","","",""
"4409","1752052137530","<p style='font-size:1.1em;line-height:1.25'>In the following, we will ask you a few questions relating to your experiences over the past month.<br></p><p style='font-size:1.1em;line-height:1.25'>Press the <strong>Next</strong> button to continue.</p>","0","custom-html-button-response","15","278119","0.0-7.0-4.0","5","1","2025-07-09 09:04:09","7701e855f2ef39aa3fd6c71abdc6918a","137.155.48.9","Mozilla/5.0 (Windows NT 10.0; Win64; x64) AppleWebKit/537.36 (KHTML, like Gecko) Chrome/133.0.0.0 Safari/537.36","WebKit","Chrome","133.0.0.0","Windows","10.0","https://app.prolific.com/","en-US,en;q=0.9","67d9d158b3db2c7d641840b0","686d226cabeef709c732f8e1","686e306294610c88b46a72ec","67d9d158b3db2c7d641840b0","2025-07-09T09:08:57.531Z","","","","","","","","","","","","","","","","","","","","","","","","","","","","","","","","","","","","","","","","","","","","",""
"50392.800000071526","","","","survey-template","16","328519","0.0-7.0-5.0","5","1","2025-07-09 09:04:09","7701e855f2ef39aa3fd6c71abdc6918a","137.155.48.9","Mozilla/5.0 (Windows NT 10.0; Win64; x64) AppleWebKit/537.36 (KHTML, like Gecko) Chrome/133.0.0.0 Safari/537.36","WebKit","Chrome","133.0.0.0","Windows","10.0","https://app.prolific.com/","en-US,en;q=0.9","67d9d158b3db2c7d641840b0","686d226cabeef709c732f8e1","686e306294610c88b46a72ec","67d9d158b3db2c7d641840b0","2025-07-09T09:09:47.930Z","","","","","","pss","{""Q01"":""2"",""Q02"":""2"",""Q03"":""3"",""Q04"":""0"",""Q05"":""1"",""Q06"":""2"",""Q07"":""1"",""Q08"":""2"",""Q09"":""3"",""Q10"":""2""}","[0,1,2,3,4,5,6,7,8,9]","[""Q01"",""Q02"",""Q02"",""Q03"",""Q04"",""Q05"",""Q06"",""Q07"",""Q08"",""Q09"",""Q10""]","[5076.399999976158,10259.800000071526,11262.300000071526,14713.899999976158,18055.100000023842,22245.700000047684,31059.899999976158,34000.5,38914.60000002384,42659.60000002384,45530]","[]","[0,5076.399999976158,10259.800000071526,11262.300000071526,14713.899999976158,18055.100000023842,22245.700000047684,31059.899999976158,34000.5,38914.60000002384,42659.60000002384,43591.800000071526,45000.5,45530,50389.39999997616]","0.5","0.8888888888888888","0","","","","","","","","","","","","","","","","","","","","","","","","","","","","","",""
"4255","1752052192187","<p style='font-size:1.1em;line-height:1.25'>Thank you for your answers! Now we will ask you a few more questions relating to your feelings in the last 24 hours.<br></p><p style='font-size:1.1em;line-height:1.25'>Press the <strong>Next</strong> button to continue.</p>","0","custom-html-button-response","17","332776","0.0-7.0-6.0","5","1","2025-07-09 09:04:09","7701e855f2ef39aa3fd6c71abdc6918a","137.155.48.9","Mozilla/5.0 (Windows NT 10.0; Win64; x64) AppleWebKit/537.36 (KHTML, like Gecko) Chrome/133.0.0.0 Safari/537.36","WebKit","Chrome","133.0.0.0","Windows","10.0","https://app.prolific.com/","en-US,en;q=0.9","67d9d158b3db2c7d641840b0","686d226cabeef709c732f8e1","686e306294610c88b46a72ec","67d9d158b3db2c7d641840b0","2025-07-09T09:09:52.187Z","","","","","","","","","","","","","","","","","","","","","","","","","","","","","","","","","","","","","","","","","","","","",""
"88371.60000002384","","","","survey-template","18","421158","0.0-7.0-7.0","5","1","2025-07-09 09:04:09","7701e855f2ef39aa3fd6c71abdc6918a","137.155.48.9","Mozilla/5.0 (Windows NT 10.0; Win64; x64) AppleWebKit/537.36 (KHTML, like Gecko) Chrome/133.0.0.0 Safari/537.36","WebKit","Chrome","133.0.0.0","Windows","10.0","https://app.prolific.com/","en-US,en;q=0.9","67d9d158b3db2c7d641840b0","686d226cabeef709c732f8e1","686e306294610c88b46a72ec","67d9d158b3db2c7d641840b0","2025-07-09T09:11:20.569Z","","","","","","drsp","{""Q01"":""0"",""Q02"":""0"",""Q03"":""0"",""Q04"":""1"",""Q05"":""3"",""Q06"":""0"",""Q07"":""0"",""Q08"":""1"",""Q09"":""3"",""Q10"":""1"",""Q11"":""2"",""Q12"":""4"",""Q13"":""3"",""Q14"":""4"",""Q15"":""3"",""Q16"":""3"",""Q17"":""0"",""Q18"":""1"",""Q19"":""4"",""Q20"":""4"",""Q21"":""1""}","[0,1,2,3,4,5,6,7,8,9,10,11,12,13,14,15,16,17,18,19,20]","[""Q01"",""Q02"",""Q03"",""Q04"",""Q05"",""Q06"",""Q07"",""Q08"",""Q09"",""Q10"",""Q11"",""Q12"",""Q13"",""Q13"",""Q13"",""Q14"",""Q14"",""Q13"",""Q15"",""Q16"",""Q17"",""Q18"",""Q19"",""Q20"",""Q21""]","[3136.3000000715256,5095.100000023842,7302.200000047684,9663.600000023842,14390.700000047684,18926.600000023842,20481.5,23163.399999976158,28125.300000071526,31463.600000023842,35455.89999997616,39290.800000071526,41469.200000047684,42779,45484.300000071526,49905.300000071526,52201.700000047684,54174.200000047684,58867,61232.200000047684,63708.800000071526,68394.10000002384,75678.5,80674.30000007153,85043.70000004768]","[]","[0,3136.3000000715256,5095.100000023842,7302.200000047684,9663.600000023842,14390.700000047684,18926.600000023842,20481.5,23163.399999976158,28125.300000071526,31463.600000023842,35455.89999997616,39290.800000071526,41469.200000047684,42779,45484.300000071526,49905.300000071526,52201.700000047684,54174.200000047684,58867,61232.200000047684,63708.800000071526,68394.10000002384,75678.5,80674.30000007153,85043.70000004768,88364.70000004768]","0.2857142857142857","0.35","0","","","","","","","","","","","","","","","","","","","","","","","","","","","","","",""
"20892.299999952316","","","","survey-template","19","442054","0.0-7.0-8.0","5","1","2025-07-09 09:04:09","7701e855f2ef39aa3fd6c71abdc6918a","137.155.48.9","Mozilla/5.0 (Windows NT 10.0; Win64; x64) AppleWebKit/537.36 (KHTML, like Gecko) Chrome/133.0.0.0 Safari/537.36","WebKit","Chrome","133.0.0.0","Windows","10.0","https://app.prolific.com/","en-US,en;q=0.9","67d9d158b3db2c7d641840b0","686d226cabeef709c732f8e1","686e306294610c88b46a72ec","67d9d158b3db2c7d641840b0","2025-07-09T09:11:41.465Z","","","","","","stress","{""Q01"":""2"",""Q02"":""4"",""Q03"":""3""}","[0,1,2]","[""Q01"",""Q02"",""Q03""]","[4277.899999976158,9333.200000047684,18212.899999976158]","[]","[4277.899999976158,9333.200000047684,18212.899999976158,20891.600000023842]","0.3333333333333333","0.5","0","","","","","","","","","","","","","","","","","","","","","","","","","","","","","",""
"191972","","","","instructions","20","634026","0.0-8.0-0.0","5","1","2025-07-09 09:04:09","7701e855f2ef39aa3fd6c71abdc6918a","137.155.48.9","Mozilla/5.0 (Windows NT 10.0; Win64; x64) AppleWebKit/537.36 (KHTML, like Gecko) Chrome/133.0.0.0 Safari/537.36","WebKit","Chrome","133.0.0.0","Windows","10.0","https://app.prolific.com/","en-US,en;q=0.9","67d9d158b3db2c7d641840b0","686d226cabeef709c732f8e1","686e306294610c88b46a72ec","67d9d158b3db2c7d641840b0","","[{""page_index"":0,""viewing_time"":32558},{""page_index"":1,""viewing_time"":51051},{""page_index"":2,""viewing_time"":68763},{""page_index"":3,""viewing_time"":39599}]","","","","","","","","","","","","","","","","","","","","","","","","","","","","","","","","","","","","","","","","","","","",""
"","","","","ctl-task-cpt","21","651255","0.0-8.0-1.0","5","1","2025-07-09 09:04:09","7701e855f2ef39aa3fd6c71abdc6918a","137.155.48.9","Mozilla/5.0 (Windows NT 10.0; Win64; x64) AppleWebKit/537.36 (KHTML, like Gecko) Chrome/133.0.0.0 Safari/537.36","WebKit","Chrome","133.0.0.0","Windows","10.0","https://app.prolific.com/","en-US,en;q=0.9","67d9d158b3db2c7d641840b0","686d226cabeef709c732f8e1","686e306294610c88b46a72ec","67d9d158b3db2c7d641840b0","","","","","","","","","","","","","","","","","win-only","3","g1:SW,g2:NE","1","0","1","644938.3","3911","7917.9","14223.7","2","4","4","6","1","-2","-2","0","0","0","2010.5","4000","-2315","[""down"",""left""]","{""num_key_presses"":0,""num_perfect"":0,""num_errors"":0,""num_randdir"":0,""num_randdir_good_moves"":0,""num_whilered"":0,""num_whileblue"":0,""num_blue"":0,""num_good_moves"":0}","[412.07142857142856,420.6808016640799,0.2,412.07142857142856,420.6808016640799,100.2,412.07142857142856,420.6808016640799,200.5,412.07142857142856,420.6808016640799,301.3,412.07142857142856,420.6808016640799,405.5,412.07142857142856,420.6808016640799,505.5,412.07142857142856,420.6808016640799,607.5,410.57142857142856,426.6808016640799,716.1,400.07142857142856,440.1808016640799,816.1,386.57142857142856,455.1808016640799,917.4,386.57142857142856,456.6808016640799,1020.2,377.57142857142856,464.1808016640799,1124.2,341.57142857142856,495.6808016640799,1228.4,298.07142857142856,545.1808016640799,1333.7,245.57142857142856,617.1808016640799,1440,167.57142857142856,681.6808016640799,1544,145.07142857142856,719.1808016640799,1649.8,134.57142857142856,728.1808016640799,1755.6,104.57142857142857,732.6808016640799,1861.1,104.57142857142857,734.1808016640799,1968.4,104.57142857142857,734.1808016640799,2075.4,104.57142857142857,734.1808016640799,2175.9,104.57142857142857,734.1808016640799,2279.5,104.57142857142857,734.1808016640799,2380,104.57142857142857,734.1808016640799,2482.9,104.57142857142857,734.1808016640799,2588.6,107.57142857142857,728.1808016640799,2689.1,116.57142857142857,723.6808016640799,2790.3,146.57142857142856,704.1808016640799,2890.7,206.57142857142856,647.1808016640799,2998.3,290.57142857142856,566.1808016640799,3100.1,326.57142857142856,530.1808016640799,3200.9,356.57142857142856,500.1808016640799,3306.6,382.07142857142856,479.1808016640799,3406.6,419.57142857142856,440.1808016640799,3511.3,430.07142857142856,407.1808016640799,3611.9,434.57142857142856,389.1808016640799,3712.6,442.07142857142856,371.1808016640799,3815,467.57142857142856,317.1808016640799,3922.6]","[]","","",""
"30266","","","","instructions","22","681522","0.0-8.0-2.0","5","1","2025-07-09 09:04:09","7701e855f2ef39aa3fd6c71abdc6918a","137.155.48.9","Mozilla/5.0 (Windows NT 10.0; Win64; x64) AppleWebKit/537.36 (KHTML, like Gecko) Chrome/133.0.0.0 Safari/537.36","WebKit","Chrome","133.0.0.0","Windows","10.0","https://app.prolific.com/","en-US,en;q=0.9","67d9d158b3db2c7d641840b0","686d226cabeef709c732f8e1","686e306294610c88b46a72ec","67d9d158b3db2c7d641840b0","","[{""page_index"":0,""viewing_time"":30265}]","","","","","","","","","","","","","","","","","","","","","","","","","","","","","","","","","","","","","","","","","","","",""
"","","","","ctl-task-cpt","23","696406","0.0-8.0-3.0","5","1","2025-07-09 09:04:09","7701e855f2ef39aa3fd6c71abdc6918a","137.155.48.9","Mozilla/5.0 (Windows NT 10.0; Win64; x64) AppleWebKit/537.36 (KHTML, like Gecko) Chrome/133.0.0.0 Safari/537.36","WebKit","Chrome","133.0.0.0","Windows","10.0","https://app.prolific.com/","en-US,en;q=0.9","67d9d158b3db2c7d641840b0","686d226cabeef709c732f8e1","686e306294610c88b46a72ec","67d9d158b3db2c7d641840b0","","","","","","","","","","","","","","","","","win-only","3","g1:SW,g2:NE","0.35","0","3","692432.1","1649.1","5653.6","11873.7","2","4","8","6","2","-8","-8","0","0","0","4004.5","4000","-2255","[""up"",""right""]","{""num_key_presses"":0,""num_perfect"":0,""num_errors"":0,""num_randdir"":0,""num_randdir_good_moves"":0,""num_whilered"":0,""num_whileblue"":0,""num_blue"":0,""num_good_moves"":0}","[424.07142857142856,414.6808016640799,0.6,424.07142857142856,414.6808016640799,100.6,424.07142857142856,414.6808016640799,200.6,424.07142857142856,414.6808016640799,306,424.07142857142856,414.6808016640799,406.4,424.07142857142856,414.6808016640799,507.4,424.07142857142856,414.6808016640799,608,424.07142857142856,414.6808016640799,713.8,424.07142857142856,414.6808016640799,814.1,424.07142857142856,414.6808016640799,923.1,424.07142857142856,414.6808016640799,1027.2,424.07142857142856,414.6808016640799,1131.3,424.07142857142856,414.6808016640799,1231.6,424.07142857142856,414.6808016640799,1339.2,424.07142857142856,414.6808016640799,1448.2,424.07142857142856,414.6808016640799,1555.3,424.07142857142856,414.6808016640799,1656.6,424.07142857142856,414.6808016640799,1757.2,418.07142857142856,414.6808016640799,1862.9,415.07142857142856,414.6808016640799,1962.9,415.07142857142856,414.6808016640799,2064.1,413.57142857142856,414.6808016640799,2171.6,412.07142857142856,414.6808016640799,2273.5,412.07142857142856,414.6808016640799,2377.6,409.07142857142856,416.1808016640799,2485.6,409.07142857142856,416.1808016640799,2586.6,407.57142857142856,419.1808016640799,2687.8,406.07142857142856,419.1808016640799,2788.2,406.07142857142856,419.1808016640799,2891.9,406.07142857142856,419.1808016640799,2997,406.07142857142856,419.1808016640799,3103.2,406.07142857142856,419.1808016640799,3209.8,406.07142857142856,419.1808016640799,3317.5,406.07142857142856,419.1808016640799,3425,406.07142857142856,419.1808016640799,3525.5,406.07142857142856,419.1808016640799,3627.2,406.07142857142856,419.1808016640799,3731.8,406.07142857142856,419.1808016640799,3833,406.07142857142856,419.1808016640799,3937.7]","[]","","",""
"62020","","","","instructions","24","758427","0.0-8.0-4.0","5","1","2025-07-09 09:04:09","7701e855f2ef39aa3fd6c71abdc6918a","137.155.48.9","Mozilla/5.0 (Windows NT 10.0; Win64; x64) AppleWebKit/537.36 (KHTML, like Gecko) Chrome/133.0.0.0 Safari/537.36","WebKit","Chrome","133.0.0.0","Windows","10.0","https://app.prolific.com/","en-US,en;q=0.9","67d9d158b3db2c7d641840b0","686d226cabeef709c732f8e1","686e306294610c88b46a72ec","67d9d158b3db2c7d641840b0","","[{""page_index"":0,""viewing_time"":15323},{""page_index"":1,""viewing_time"":46696}]","","","","","","","","","","","","","","","","","","","","","","","","","","","","","","","","","","","","","","","","","","","",""
"28317","","","{""green_ball"":[""Ball always moves in the direction I press""]}","survey-multi-select","25","786747","0.0-8.0-5.0-0.0","5","1","2025-07-09 09:04:09","7701e855f2ef39aa3fd6c71abdc6918a","137.155.48.9","Mozilla/5.0 (Windows NT 10.0; Win64; x64) AppleWebKit/537.36 (KHTML, like Gecko) Chrome/133.0.0.0 Safari/537.36","WebKit","Chrome","133.0.0.0","Windows","10.0","https://app.prolific.com/","en-US,en;q=0.9","67d9d158b3db2c7d641840b0","686d226cabeef709c732f8e1","686e306294610c88b46a72ec","67d9d158b3db2c7d641840b0","","","[0]","","","","quiz","","","","","","","","","","","","","","","","","","","","","","","","","","","","","","","","","","","","","false","",""
"4693","","<p align='center'><b>INCORRECT.</b> Usually the green ball moves in the indicated direction, but sometimes it shakes and moves randomly. </p>","0","html-button-response","26","791442","0.0-8.0-5.0-1.0","5","1","2025-07-09 09:04:09","7701e855f2ef39aa3fd6c71abdc6918a","137.155.48.9","Mozilla/5.0 (Windows NT 10.0; Win64; x64) AppleWebKit/537.36 (KHTML, like Gecko) Chrome/133.0.0.0 Safari/537.36","WebKit","Chrome","133.0.0.0","Windows","10.0","https://app.prolific.com/","en-US,en;q=0.9","67d9d158b3db2c7d641840b0","686d226cabeef709c732f8e1","686e306294610c88b46a72ec","67d9d158b3db2c7d641840b0","","","","","","","","","","","","","","","","","","","","","","","","","","","","","","","","","","","","","","","","","","","","","",""
"12237","","","{""green_ball"":[""Ball sometimes shakes and moves in a random direction""]}","survey-multi-select","27","803682","0.0-8.0-5.1-0.1","5","1","2025-07-09 09:04:09","7701e855f2ef39aa3fd6c71abdc6918a","137.155.48.9","Mozilla/5.0 (Windows NT 10.0; Win64; x64) AppleWebKit/537.36 (KHTML, like Gecko) Chrome/133.0.0.0 Safari/537.36","WebKit","Chrome","133.0.0.0","Windows","10.0","https://app.prolific.com/","en-US,en;q=0.9","67d9d158b3db2c7d641840b0","686d226cabeef709c732f8e1","686e306294610c88b46a72ec","67d9d158b3db2c7d641840b0","","","[0]","","","","quiz","","","","","","","","","","","","","","","","","","","","","","","","","","","","","","","","","","","","","true","",""
"4376","","<p align='center'><b>CORRECT!</b> Indeed, the green ball may sometimes shake and move in a random direction.</p>","0","html-button-response","28","808060","0.0-8.0-5.1-1.1","5","1","2025-07-09 09:04:09","7701e855f2ef39aa3fd6c71abdc6918a","137.155.48.9","Mozilla/5.0 (Windows NT 10.0; Win64; x64) AppleWebKit/537.36 (KHTML, like Gecko) Chrome/133.0.0.0 Safari/537.36","WebKit","Chrome","133.0.0.0","Windows","10.0","https://app.prolific.com/","en-US,en;q=0.9","67d9d158b3db2c7d641840b0","686d226cabeef709c732f8e1","686e306294610c88b46a72ec","67d9d158b3db2c7d641840b0","","","","","","","","","","","","","","","","","","","","","","","","","","","","","","","","","","","","","","","","","","","","","",""
"12645","","","{""yellow_ball"":[""Ball doesn‘t move and I get -1 penalty point""]}","survey-multi-select","29","820707","0.0-8.0-6.0-0.0","5","1","2025-07-09 09:04:09","7701e855f2ef39aa3fd6c71abdc6918a","137.155.48.9","Mozilla/5.0 (Windows NT 10.0; Win64; x64) AppleWebKit/537.36 (KHTML, like Gecko) Chrome/133.0.0.0 Safari/537.36","WebKit","Chrome","133.0.0.0","Windows","10.0","https://app.prolific.com/","en-US,en;q=0.9","67d9d158b3db2c7d641840b0","686d226cabeef709c732f8e1","686e306294610c88b46a72ec","67d9d158b3db2c7d641840b0","","","[0]","","","","quiz","","","","","","","","","","","","","","","","","","","","","","","","","","","","","","","","","","","","","true","",""
"1141","","<p align='center'><b>CORRECT!</b> Indeed, the yellow ball never moves and you receive a penalty.</p>","0","html-button-response","30","821850","0.0-8.0-6.0-1.0","5","1","2025-07-09 09:04:09","7701e855f2ef39aa3fd6c71abdc6918a","137.155.48.9","Mozilla/5.0 (Windows NT 10.0; Win64; x64) AppleWebKit/537.36 (KHTML, like Gecko) Chrome/133.0.0.0 Safari/537.36","WebKit","Chrome","133.0.0.0","Windows","10.0","https://app.prolific.com/","en-US,en;q=0.9","67d9d158b3db2c7d641840b0","686d226cabeef709c732f8e1","686e306294610c88b46a72ec","67d9d158b3db2c7d641840b0","","","","","","","","","","","","","","","","","","","","","","","","","","","","","","","","","","","","","","","","","","","","","",""
"18270","","","{""blue_ball"":[""Ball always shakes and moves in a random direction""]}","survey-multi-select","31","840123","0.0-8.0-7.0-0.0","5","1","2025-07-09 09:04:09","7701e855f2ef39aa3fd6c71abdc6918a","137.155.48.9","Mozilla/5.0 (Windows NT 10.0; Win64; x64) AppleWebKit/537.36 (KHTML, like Gecko) Chrome/133.0.0.0 Safari/537.36","WebKit","Chrome","133.0.0.0","Windows","10.0","https://app.prolific.com/","en-US,en;q=0.9","67d9d158b3db2c7d641840b0","686d226cabeef709c732f8e1","686e306294610c88b46a72ec","67d9d158b3db2c7d641840b0","","","[0]","","","","quiz","","","","","","","","","","","","","","","","","","","","","","","","","","","","","","","","","","","","","true","",""
"1406","","<p align='center'><b>CORRECT!</b> Indeed, the blue ball always shakes and moves in a random direction. Also there is a penalty of -1 point.</p>","0","html-button-response","32","841531","0.0-8.0-7.0-1.0","5","1","2025-07-09 09:04:09","7701e855f2ef39aa3fd6c71abdc6918a","137.155.48.9","Mozilla/5.0 (Windows NT 10.0; Win64; x64) AppleWebKit/537.36 (KHTML, like Gecko) Chrome/133.0.0.0 Safari/537.36","WebKit","Chrome","133.0.0.0","Windows","10.0","https://app.prolific.com/","en-US,en;q=0.9","67d9d158b3db2c7d641840b0","686d226cabeef709c732f8e1","686e306294610c88b46a72ec","67d9d158b3db2c7d641840b0","","","","","","","","","","","","","","","","","","","","","","","","","","","","","","","","","","","","","","","","","","","","","",""
"12502","","","{""bonus"":[""When I reach 50% of points""]}","survey-multi-select","33","854036","0.0-8.0-8.0-0.0","5","1","2025-07-09 09:04:09","7701e855f2ef39aa3fd6c71abdc6918a","137.155.48.9","Mozilla/5.0 (Windows NT 10.0; Win64; x64) AppleWebKit/537.36 (KHTML, like Gecko) Chrome/133.0.0.0 Safari/537.36","WebKit","Chrome","133.0.0.0","Windows","10.0","https://app.prolific.com/","en-US,en;q=0.9","67d9d158b3db2c7d641840b0","686d226cabeef709c732f8e1","686e306294610c88b46a72ec","67d9d158b3db2c7d641840b0","","","[0]","","","","quiz","","","","","","","","","","","","","","","","","","","","","","","","","","","","","","","","","","","","","true","",""
"1725","","<p align='center'><b>CORRECT!</b> Indeed, you receive 2 pounds extra when you reach 50% of points.</p>","0","html-button-response","34","855762","0.0-8.0-8.0-1.0","5","1","2025-07-09 09:04:09","7701e855f2ef39aa3fd6c71abdc6918a","137.155.48.9","Mozilla/5.0 (Windows NT 10.0; Win64; x64) AppleWebKit/537.36 (KHTML, like Gecko) Chrome/133.0.0.0 Safari/537.36","WebKit","Chrome","133.0.0.0","Windows","10.0","https://app.prolific.com/","en-US,en;q=0.9","67d9d158b3db2c7d641840b0","686d226cabeef709c732f8e1","686e306294610c88b46a72ec","67d9d158b3db2c7d641840b0","","","","","","","","","","","","","","","","","","","","","","","","","","","","","","","","","","","","","","","","","","","","","",""
"6735","","","","instructions","35","862498","0.0-8.0-9.0","5","1","2025-07-09 09:04:09","7701e855f2ef39aa3fd6c71abdc6918a","137.155.48.9","Mozilla/5.0 (Windows NT 10.0; Win64; x64) AppleWebKit/537.36 (KHTML, like Gecko) Chrome/133.0.0.0 Safari/537.36","WebKit","Chrome","133.0.0.0","Windows","10.0","https://app.prolific.com/","en-US,en;q=0.9","67d9d158b3db2c7d641840b0","686d226cabeef709c732f8e1","686e306294610c88b46a72ec","67d9d158b3db2c7d641840b0","","[{""page_index"":0,""viewing_time"":6734}]","","","","","","","","","","","","","","","","","","","","","","","","","","","","","","","","","","","","","","","","","","","",""
"22566","","<p>Before you start with this game please answer the following three questions yourself. </p>
  <p>Through this game, we measure several aspects of your cognitive performance, such as reaction times, multi-tasking capabilities </p>
  <p>and the ability to assess the situation you are in.</p>
  <p></p>
  <p><b>How good do you usually are in such tasks?</b></p>","100","html-slider-response","36","885067","0.0-9.0-0.0","5","1","2025-07-09 09:04:09","7701e855f2ef39aa3fd6c71abdc6918a","137.155.48.9","Mozilla/5.0 (Windows NT 10.0; Win64; x64) AppleWebKit/537.36 (KHTML, like Gecko) Chrome/133.0.0.0 Safari/537.36","WebKit","Chrome","133.0.0.0","Windows","10.0","https://app.prolific.com/","en-US,en;q=0.9","67d9d158b3db2c7d641840b0","686d226cabeef709c732f8e1","686e306294610c88b46a72ec","67d9d158b3db2c7d641840b0","2025-07-09T09:19:04.478Z","","","","","","PreSkillQ","","","","","","","","","","","","","","","","","","","","","","","","","","","","","","","","","","","","","","50",""
"11349","","<div style=""width:500px;"">
  <p>How well do you think you will perform in this task compared to other participants?</p>
  </div>","100","html-slider-response","37","896418","0.0-9.0-1.0","5","1","2025-07-09 09:04:09","7701e855f2ef39aa3fd6c71abdc6918a","137.155.48.9","Mozilla/5.0 (Windows NT 10.0; Win64; x64) AppleWebKit/537.36 (KHTML, like Gecko) Chrome/133.0.0.0 Safari/537.36","WebKit","Chrome","133.0.0.0","Windows","10.0","https://app.prolific.com/","en-US,en;q=0.9","67d9d158b3db2c7d641840b0","686d226cabeef709c732f8e1","686e306294610c88b46a72ec","67d9d158b3db2c7d641840b0","2025-07-09T09:19:15.830Z","","","","","","PrePerfQ","","","","","","","","","","","","","","","","","","","","","","","","","","","","","","","","","","","","","","50",""
"6334","","<div style=""width:500px;"">
  <p>What best describes how you currently feel?</p>
  </div>","100","html-slider-response","38","902754","0.0-9.0-2.0","5","1","2025-07-09 09:04:09","7701e855f2ef39aa3fd6c71abdc6918a","137.155.48.9","Mozilla/5.0 (Windows NT 10.0; Win64; x64) AppleWebKit/537.36 (KHTML, like Gecko) Chrome/133.0.0.0 Safari/537.36","WebKit","Chrome","133.0.0.0","Windows","10.0","https://app.prolific.com/","en-US,en;q=0.9","67d9d158b3db2c7d641840b0","686d226cabeef709c732f8e1","686e306294610c88b46a72ec","67d9d158b3db2c7d641840b0","2025-07-09T09:19:22.165Z","","","","","","PreMotivationQ","","","","","","","","","","","","","","","","","","","","","","","","","","","","","","","","","","","","","","50",""
"","","","","ctl-task-cpt","39","930204","0.0-10.0-0.0","5","1","2025-07-09 09:04:09","7701e855f2ef39aa3fd6c71abdc6918a","137.155.48.9","Mozilla/5.0 (Windows NT 10.0; Win64; x64) AppleWebKit/537.36 (KHTML, like Gecko) Chrome/133.0.0.0 Safari/537.36","WebKit","Chrome","133.0.0.0","Windows","10.0","https://app.prolific.com/","en-US,en;q=0.9","67d9d158b3db2c7d641840b0","686d226cabeef709c732f8e1","686e306294610c88b46a72ec","67d9d158b3db2c7d641840b0","2025-07-09T09:19:49.615Z","","","","","","","","","","","","","","","","win-only","1","g1:NE,g2:SW","1","1","0","913666.8","7331.6","12340.2","24432.4","1","4","8","6","1","1","1","1","0","0.007575757575757576","5008.6","3000","900","[""up"",""right""]","{""num_key_presses"":4,""num_perfect"":4,""num_errors"":0,""num_randdir"":0,""num_randdir_good_moves"":0,""num_whilered"":0,""num_whileblue"":0,""num_blue"":0,""num_good_moves"":4}","[419.57142857142856,413.1808016640799,0.6,419.57142857142856,413.1808016640799,103.9,419.57142857142856,413.1808016640799,204.5,419.57142857142856,413.1808016640799,310.4,419.57142857142856,413.1808016640799,413.6,419.57142857142856,413.1808016640799,518.5,419.57142857142856,413.1808016640799,620.2,419.57142857142856,413.1808016640799,720.5,419.57142857142856,413.1808016640799,820.8,419.57142857142856,413.1808016640799,925.9,419.57142857142856,413.1808016640799,1030.1,419.57142857142856,413.1808016640799,1138.3,419.57142857142856,413.1808016640799,1244.1,419.57142857142856,413.1808016640799,1347,419.57142857142856,413.1808016640799,1448.9,419.57142857142856,413.1808016640799,1558.6,419.57142857142856,413.1808016640799,1658.9,419.57142857142856,413.1808016640799,1759.6,419.57142857142856,413.1808016640799,1870.3,419.57142857142856,413.1808016640799,1970.6,419.57142857142856,413.1808016640799,2075.1,419.57142857142856,413.1808016640799,2178.1,419.57142857142856,413.1808016640799,2282.2,419.57142857142856,413.1808016640799,2386.1,419.57142857142856,413.1808016640799,2486.2,419.57142857142856,413.1808016640799,2586.6,419.57142857142856,413.1808016640799,2692.8,419.57142857142856,413.1808016640799,2794.7,419.57142857142856,413.1808016640799,2900.5,419.57142857142856,413.1808016640799,3000.5,419.57142857142856,413.1808016640799,3104.6,419.57142857142856,413.1808016640799,3204.9,419.57142857142856,413.1808016640799,3311,419.57142857142856,413.1808016640799,3419.6,419.57142857142856,413.1808016640799,3528.8,419.57142857142856,413.1808016640799,3634.3,419.57142857142856,413.1808016640799,3744.2,419.57142857142856,413.1808016640799,3847.1,419.57142857142856,413.1808016640799,3949.1,419.57142857142856,413.1808016640799,4049.4,419.57142857142856,413.1808016640799,4151.6,419.57142857142856,413.1808016640799,4256.8,419.57142857142856,413.1808016640799,4362.3,419.57142857142856,413.1808016640799,4462.6,419.57142857142856,413.1808016640799,4568,419.57142857142856,413.1808016640799,4669.6,419.57142857142856,413.1808016640799,4770.2,419.57142857142856,413.1808016640799,4873.2,419.57142857142856,413.1808016640799,4977.6]","[1612.9,1612.9,1000,0,612.9,""smooth"",""up"",""up"",""good_move"",6375.2,4761.6,3547.6,1613.7,1213.9,""smooth"",""up"",""up"",""good_move"",9073,2697.4,2076.4,6375.6,621,""smooth"",""up"",""right"",""good_move"",11976.2,2902.7,2524.5,9073.5,378.2,""smooth"",""right"",""right"",""good_move""]","","",""
"6500","","<div style=""width:500px;"">
  <p>What determined the result of this run?</p>
  </div>","100","html-slider-response","40","936705","0.0-10.0-1.0","5","1","2025-07-09 09:04:09","7701e855f2ef39aa3fd6c71abdc6918a","137.155.48.9","Mozilla/5.0 (Windows NT 10.0; Win64; x64) AppleWebKit/537.36 (KHTML, like Gecko) Chrome/133.0.0.0 Safari/537.36","WebKit","Chrome","133.0.0.0","Windows","10.0","https://app.prolific.com/","en-US,en;q=0.9","67d9d158b3db2c7d641840b0","686d226cabeef709c732f8e1","686e306294610c88b46a72ec","67d9d158b3db2c7d641840b0","2025-07-09T09:19:56.116Z","","","","","","AttribQ","","","","","","","","","","","","","","","","","","","","","","","","","","","","","","","","","","","","","","50",""
"5959","","<div style=""width:500px;"">
  <p>How much control did you have over the ball?</p>
  </div>","100","html-slider-response","41","942666","0.0-10.0-2.0","5","1","2025-07-09 09:04:09","7701e855f2ef39aa3fd6c71abdc6918a","137.155.48.9","Mozilla/5.0 (Windows NT 10.0; Win64; x64) AppleWebKit/537.36 (KHTML, like Gecko) Chrome/133.0.0.0 Safari/537.36","WebKit","Chrome","133.0.0.0","Windows","10.0","https://app.prolific.com/","en-US,en;q=0.9","67d9d158b3db2c7d641840b0","686d226cabeef709c732f8e1","686e306294610c88b46a72ec","67d9d158b3db2c7d641840b0","2025-07-09T09:20:02.077Z","","","","","","ControlQ","","","","","","","","","","","","","","","","","","","","","","","","","","","","","","","","","","","","","","50",""
"10384","","<div style=""width:500px;"">
  <p>How would you describe your current emotional state?</p>
  </div>","0","html-slider-response","42","953052","0.0-10.0-3.0","5","1","2025-07-09 09:04:09","7701e855f2ef39aa3fd6c71abdc6918a","137.155.48.9","Mozilla/5.0 (Windows NT 10.0; Win64; x64) AppleWebKit/537.36 (KHTML, like Gecko) Chrome/133.0.0.0 Safari/537.36","WebKit","Chrome","133.0.0.0","Windows","10.0","https://app.prolific.com/","en-US,en;q=0.9","67d9d158b3db2c7d641840b0","686d226cabeef709c732f8e1","686e306294610c88b46a72ec","67d9d158b3db2c7d641840b0","2025-07-09T09:20:12.463Z","","","","","","StressQ","","","","","","","","","","","","","","","","","","","","","","","","","","","","","","","","","","","","","","50",""
"9524","","<div style=""width:500px;"">
  <p>What best describes how you currently feel?</p>
  </div>","100","html-slider-response","43","962578","0.0-10.0-4.0","5","1","2025-07-09 09:04:09","7701e855f2ef39aa3fd6c71abdc6918a","137.155.48.9","Mozilla/5.0 (Windows NT 10.0; Win64; x64) AppleWebKit/537.36 (KHTML, like Gecko) Chrome/133.0.0.0 Safari/537.36","WebKit","Chrome","133.0.0.0","Windows","10.0","https://app.prolific.com/","en-US,en;q=0.9","67d9d158b3db2c7d641840b0","686d226cabeef709c732f8e1","686e306294610c88b46a72ec","67d9d158b3db2c7d641840b0","2025-07-09T09:20:21.989Z","","","","","","MotivationQ","","","","","","","","","","","","","","","","","","","","","","","","","","","","","","","","","","","","","","50",""
"","","","","ctl-task-cpt","44","1000374","0.0-10.0-0.1","5","1","2025-07-09 09:04:09","7701e855f2ef39aa3fd6c71abdc6918a","137.155.48.9","Mozilla/5.0 (Windows NT 10.0; Win64; x64) AppleWebKit/537.36 (KHTML, like Gecko) Chrome/133.0.0.0 Safari/537.36","WebKit","Chrome","133.0.0.0","Windows","10.0","https://app.prolific.com/","en-US,en;q=0.9","67d9d158b3db2c7d641840b0","686d226cabeef709c732f8e1","686e306294610c88b46a72ec","67d9d158b3db2c7d641840b0","2025-07-09T09:20:59.785Z","","","","","","","","","","","","","","","","win-only","2","g1:SE,g2:NW","0.9","2","0","973489.6","3863.3","8867","34787.7","1","4","4","6","1","1","-1","0","1","0","5003.7","3000","1100","[""down"",""right""]","{""num_key_presses"":9,""num_perfect"":6,""num_errors"":2,""num_randdir"":1,""num_randdir_good_moves"":0,""num_whilered"":0,""num_whileblue"":1,""num_blue"":1,""num_good_moves"":6}","[412.07142857142856,423.6808016640799,0.3,412.07142857142856,423.6808016640799,100.6,412.07142857142856,423.6808016640799,205,412.07142857142856,423.6808016640799,317.5,412.07142857142856,423.6808016640799,420.8,412.07142857142856,423.6808016640799,522.5,412.07142857142856,423.6808016640799,626.7,412.07142857142856,423.6808016640799,726.9,412.07142857142856,423.6808016640799,827.6,412.07142857142856,423.6808016640799,935.7,412.07142857142856,423.6808016640799,1039.4,412.07142857142856,423.6808016640799,1149.5,412.07142857142856,423.6808016640799,1258.1,412.07142857142856,423.6808016640799,1359.4,412.07142857142856,423.6808016640799,1459.9,412.07142857142856,423.6808016640799,1566.8,412.07142857142856,423.6808016640799,1667.8,412.07142857142856,423.6808016640799,1768.8,412.07142857142856,423.6808016640799,1872.8,412.07142857142856,423.6808016640799,1976.5,412.07142857142856,423.6808016640799,2076.6,412.07142857142856,423.6808016640799,2176.8,412.07142857142856,423.6808016640799,2283.9,412.07142857142856,423.6808016640799,2391.2,412.07142857142856,423.6808016640799,2491.3,412.07142857142856,423.6808016640799,2593.1,412.07142857142856,423.6808016640799,2700.8,412.07142857142856,423.6808016640799,2806,412.07142857142856,423.6808016640799,2906.6,412.07142857142856,423.6808016640799,3007,412.07142857142856,423.6808016640799,3107.6,412.07142857142856,423.6808016640799,3210.8,412.07142857142856,423.6808016640799,3320.6,412.07142857142856,423.6808016640799,3421.6,412.07142857142856,423.6808016640799,3523.1,412.07142857142856,423.6808016640799,3630.9,412.07142857142856,423.6808016640799,3733.9,412.07142857142856,423.6808016640799,3835.4,412.07142857142856,423.6808016640799,3942.3,412.07142857142856,423.6808016640799,4043.3,412.07142857142856,423.6808016640799,4143.4,412.07142857142856,423.6808016640799,4254.9,412.07142857142856,423.6808016640799,4358.4,412.07142857142856,423.6808016640799,4463.9,412.07142857142856,423.6808016640799,4570.4,412.07142857142856,423.6808016640799,4675.1,412.07142857142856,423.6808016640799,4775.6,412.07142857142856,423.6808016640799,4881.6,412.07142857142856,423.6808016640799,4986.9]","[1377.4,1377.4,1000,0,377.4,""smooth"",""down"",""down"",""good_move"",3553.6,2175.7,2684.6,1378,-509,""error"",""-"",""-"",""no_move"",7603.3,4049.1,2641.5,4559.6,402.2,""smooth"",""down"",""down"",""good_move"",11083.6,3480.2,3075.8,7603.6,404.3,""smooth"",""right"",""right"",""good_move"",14086.6,3002.5,2650.5,11084.1,352,""oops"",""right"",""up"",""bad_move"",16916.2,2828.8,2561.3,14087.4,267.6,""while_blue"",""right"",""left"",""bad_move"",19523,2606.2,2301.7,16916.9,304.4,""smooth"",""down"",""down"",""good_move"",22629.2,3105.9,2716.5,19523.3,389.4,""smooth"",""right"",""right"",""good_move"",25811.5,3182,2743.2,22629.5,438.8,""smooth"",""right"",""right"",""good_move""]","","",""
"12441","","<div style=""width:500px;"">
  <p>What determined the result of this run?</p>
  </div>","100","html-slider-response","45","1012818","0.0-10.0-1.1","5","1","2025-07-09 09:04:09","7701e855f2ef39aa3fd6c71abdc6918a","137.155.48.9","Mozilla/5.0 (Windows NT 10.0; Win64; x64) AppleWebKit/537.36 (KHTML, like Gecko) Chrome/133.0.0.0 Safari/537.36","WebKit","Chrome","133.0.0.0","Windows","10.0","https://app.prolific.com/","en-US,en;q=0.9","67d9d158b3db2c7d641840b0","686d226cabeef709c732f8e1","686e306294610c88b46a72ec","67d9d158b3db2c7d641840b0","2025-07-09T09:21:12.229Z","","","","","","AttribQ","","","","","","","","","","","","","","","","","","","","","","","","","","","","","","","","","","","","","","50",""
"5398","","<div style=""width:500px;"">
  <p>How much control did you have over the ball?</p>
  </div>","64","html-slider-response","46","1018217","0.0-10.0-2.1","5","1","2025-07-09 09:04:09","7701e855f2ef39aa3fd6c71abdc6918a","137.155.48.9","Mozilla/5.0 (Windows NT 10.0; Win64; x64) AppleWebKit/537.36 (KHTML, like Gecko) Chrome/133.0.0.0 Safari/537.36","WebKit","Chrome","133.0.0.0","Windows","10.0","https://app.prolific.com/","en-US,en;q=0.9","67d9d158b3db2c7d641840b0","686d226cabeef709c732f8e1","686e306294610c88b46a72ec","67d9d158b3db2c7d641840b0","2025-07-09T09:21:17.628Z","","","","","","ControlQ","","","","","","","","","","","","","","","","","","","","","","","","","","","","","","","","","","","","","","50",""
"10456","","<div style=""width:500px;"">
  <p>How would you describe your current emotional state?</p>
  </div>","56","html-slider-response","47","1028675","0.0-10.0-3.1","5","1","2025-07-09 09:04:09","7701e855f2ef39aa3fd6c71abdc6918a","137.155.48.9","Mozilla/5.0 (Windows NT 10.0; Win64; x64) AppleWebKit/537.36 (KHTML, like Gecko) Chrome/133.0.0.0 Safari/537.36","WebKit","Chrome","133.0.0.0","Windows","10.0","https://app.prolific.com/","en-US,en;q=0.9","67d9d158b3db2c7d641840b0","686d226cabeef709c732f8e1","686e306294610c88b46a72ec","67d9d158b3db2c7d641840b0","2025-07-09T09:21:28.086Z","","","","","","StressQ","","","","","","","","","","","","","","","","","","","","","","","","","","","","","","","","","","","","","","50",""
"8812","","<div style=""width:500px;"">
  <p>What best describes how you currently feel?</p>
  </div>","93","html-slider-response","48","1037489","0.0-10.0-4.1","5","1","2025-07-09 09:04:09","7701e855f2ef39aa3fd6c71abdc6918a","137.155.48.9","Mozilla/5.0 (Windows NT 10.0; Win64; x64) AppleWebKit/537.36 (KHTML, like Gecko) Chrome/133.0.0.0 Safari/537.36","WebKit","Chrome","133.0.0.0","Windows","10.0","https://app.prolific.com/","en-US,en;q=0.9","67d9d158b3db2c7d641840b0","686d226cabeef709c732f8e1","686e306294610c88b46a72ec","67d9d158b3db2c7d641840b0","2025-07-09T09:21:36.900Z","","","","","","MotivationQ","","","","","","","","","","","","","","","","","","","","","","","","","","","","","","","","","","","","","","50",""
"","","","","ctl-task-cpt","49","1067917","0.0-10.0-0.2","5","1","2025-07-09 09:04:09","7701e855f2ef39aa3fd6c71abdc6918a","137.155.48.9","Mozilla/5.0 (Windows NT 10.0; Win64; x64) AppleWebKit/537.36 (KHTML, like Gecko) Chrome/133.0.0.0 Safari/537.36","WebKit","Chrome","133.0.0.0","Windows","10.0","https://app.prolific.com/","en-US,en;q=0.9","67d9d158b3db2c7d641840b0","686d226cabeef709c732f8e1","686e306294610c88b46a72ec","67d9d158b3db2c7d641840b0","2025-07-09T09:22:07.328Z","","","","","","","","","","","","","","","","win-only","1","g1:NE,g2:SW","0.8","3","0","1048400.7","4141.1","9146.6","27394","1","4","8","6","1","1","1","1","0","0.007575757575757576","5005.5","3000","1195","[""up"",""right""]","{""num_key_presses"":6,""num_perfect"":4,""num_errors"":0,""num_randdir"":2,""num_randdir_good_moves"":1,""num_whilered"":0,""num_whileblue"":0,""num_blue"":1,""num_good_moves"":5}","[424.07142857142856,420.6808016640799,0.4,424.07142857142856,420.6808016640799,102.2,424.07142857142856,420.6808016640799,208.7,424.07142857142856,420.6808016640799,311.3,424.07142857142856,420.6808016640799,420.4,424.07142857142856,420.6808016640799,527.9,424.07142857142856,420.6808016640799,629.1,424.07142857142856,420.6808016640799,733,424.07142857142856,420.6808016640799,835,424.07142857142856,420.6808016640799,935.1,424.07142857142856,420.6808016640799,1038.7,424.07142857142856,420.6808016640799,1139.7,424.07142857142856,420.6808016640799,1248,424.07142857142856,420.6808016640799,1350.1,424.07142857142856,420.6808016640799,1458.1,424.07142857142856,420.6808016640799,1560.3,424.07142857142856,420.6808016640799,1661.1,424.07142857142856,420.6808016640799,1765.3,424.07142857142856,420.6808016640799,1866.3,424.07142857142856,420.6808016640799,1972.5,424.07142857142856,420.6808016640799,2073.1,424.07142857142856,420.6808016640799,2175.3,424.07142857142856,420.6808016640799,2280.9,424.07142857142856,420.6808016640799,2381.8,424.07142857142856,420.6808016640799,2484.6,424.07142857142856,420.6808016640799,2589.7,424.07142857142856,420.6808016640799,2694.4,424.07142857142856,420.6808016640799,2795.1,424.07142857142856,420.6808016640799,2895.7,424.07142857142856,420.6808016640799,2997.2,424.07142857142856,420.6808016640799,3100,424.07142857142856,420.6808016640799,3202.4,424.07142857142856,420.6808016640799,3304.2,424.07142857142856,420.6808016640799,3404.9,424.07142857142856,420.6808016640799,3514.3,424.07142857142856,420.6808016640799,3619.9,424.07142857142856,420.6808016640799,3723.4,424.07142857142856,420.6808016640799,3825.5,424.07142857142856,420.6808016640799,3925.8,424.07142857142856,420.6808016640799,4031.4,424.07142857142856,420.6808016640799,4134.4,421.07142857142856,420.6808016640799,4239.2,421.07142857142856,420.6808016640799,4339.9,421.07142857142856,420.6808016640799,4447.3,421.07142857142856,420.6808016640799,4553.1,421.07142857142856,420.6808016640799,4653.3,421.07142857142856,420.6808016640799,4754.5,421.07142857142856,420.6808016640799,4864.6,421.07142857142856,420.6808016640799,4964.6]","[1398.8,1398.8,1000,0,398.8,""smooth"",""up"",""up"",""good_move"",4136.5,2736.8,2403.5,1399.8,333.2,""smooth"",""up"",""up"",""good_move"",6839.6,2702.8,2296.5,4136.8,406.3,""oops"",""right"",""down"",""bad_move"",12380,5539.9,1673.3,10338.1,368.7,""oops"",""right"",""right"",""good_move"",15109.1,2728.3,2279.4,12380.8,448.9,""smooth"",""up"",""up"",""good_move"",18115.1,3005.6,2602.8,15109.6,402.7,""smooth"",""right"",""right"",""good_move""]","","",""
"3674","","<div style=""width:500px;"">
  <p>What determined the result of this run?</p>
  </div>","100","html-slider-response","50","1071594","0.0-10.0-1.2","5","1","2025-07-09 09:04:09","7701e855f2ef39aa3fd6c71abdc6918a","137.155.48.9","Mozilla/5.0 (Windows NT 10.0; Win64; x64) AppleWebKit/537.36 (KHTML, like Gecko) Chrome/133.0.0.0 Safari/537.36","WebKit","Chrome","133.0.0.0","Windows","10.0","https://app.prolific.com/","en-US,en;q=0.9","67d9d158b3db2c7d641840b0","686d226cabeef709c732f8e1","686e306294610c88b46a72ec","67d9d158b3db2c7d641840b0","2025-07-09T09:22:11.005Z","","","","","","AttribQ","","","","","","","","","","","","","","","","","","","","","","","","","","","","","","","","","","","","","","50",""
"6174","","<div style=""width:500px;"">
  <p>How much control did you have over the ball?</p>
  </div>","76","html-slider-response","51","1077769","0.0-10.0-2.2","5","1","2025-07-09 09:04:09","7701e855f2ef39aa3fd6c71abdc6918a","137.155.48.9","Mozilla/5.0 (Windows NT 10.0; Win64; x64) AppleWebKit/537.36 (KHTML, like Gecko) Chrome/133.0.0.0 Safari/537.36","WebKit","Chrome","133.0.0.0","Windows","10.0","https://app.prolific.com/","en-US,en;q=0.9","67d9d158b3db2c7d641840b0","686d226cabeef709c732f8e1","686e306294610c88b46a72ec","67d9d158b3db2c7d641840b0","2025-07-09T09:22:17.180Z","","","","","","ControlQ","","","","","","","","","","","","","","","","","","","","","","","","","","","","","","","","","","","","","","50",""
"9295","","<div style=""width:500px;"">
  <p>How would you describe your current emotional state?</p>
  </div>","31","html-slider-response","52","1087066","0.0-10.0-3.2","5","1","2025-07-09 09:04:09","7701e855f2ef39aa3fd6c71abdc6918a","137.155.48.9","Mozilla/5.0 (Windows NT 10.0; Win64; x64) AppleWebKit/537.36 (KHTML, like Gecko) Chrome/133.0.0.0 Safari/537.36","WebKit","Chrome","133.0.0.0","Windows","10.0","https://app.prolific.com/","en-US,en;q=0.9","67d9d158b3db2c7d641840b0","686d226cabeef709c732f8e1","686e306294610c88b46a72ec","67d9d158b3db2c7d641840b0","2025-07-09T09:22:26.478Z","","","","","","StressQ","","","","","","","","","","","","","","","","","","","","","","","","","","","","","","","","","","","","","","50",""
"4269","","<div style=""width:500px;"">
  <p>What best describes how you currently feel?</p>
  </div>","100","html-slider-response","53","1091338","0.0-10.0-4.2","5","1","2025-07-09 09:04:09","7701e855f2ef39aa3fd6c71abdc6918a","137.155.48.9","Mozilla/5.0 (Windows NT 10.0; Win64; x64) AppleWebKit/537.36 (KHTML, like Gecko) Chrome/133.0.0.0 Safari/537.36","WebKit","Chrome","133.0.0.0","Windows","10.0","https://app.prolific.com/","en-US,en;q=0.9","67d9d158b3db2c7d641840b0","686d226cabeef709c732f8e1","686e306294610c88b46a72ec","67d9d158b3db2c7d641840b0","2025-07-09T09:22:30.749Z","","","","","","MotivationQ","","","","","","","","","","","","","","","","","","","","","","","","","","","","","","","","","","","","","","50",""
"","","","","ctl-task-cpt","54","1141367","0.0-10.0-0.3","5","1","2025-07-09 09:04:09","7701e855f2ef39aa3fd6c71abdc6918a","137.155.48.9","Mozilla/5.0 (Windows NT 10.0; Win64; x64) AppleWebKit/537.36 (KHTML, like Gecko) Chrome/133.0.0.0 Safari/537.36","WebKit","Chrome","133.0.0.0","Windows","10.0","https://app.prolific.com/","en-US,en;q=0.9","67d9d158b3db2c7d641840b0","686d226cabeef709c732f8e1","686e306294610c88b46a72ec","67d9d158b3db2c7d641840b0","2025-07-09T09:23:20.778Z","","","","","","","","","","","","","","","","win-only","1","g1:NE,g2:SW","0.7","4","0","1102250","2068.1","7071.5","47016.5","1","4","4","6","2","-4","-5","0","1","0","5003.4","3000","-2110","[""down"",""left""]","{""num_key_presses"":10,""num_perfect"":6,""num_errors"":1,""num_randdir"":3,""num_randdir_good_moves"":1,""num_whilered"":0,""num_whileblue"":1,""num_blue"":4,""num_good_moves"":7}","[419.57142857142856,416.1808016640799,0.5,419.57142857142856,416.1808016640799,105.2,419.57142857142856,416.1808016640799,208.5,419.57142857142856,416.1808016640799,318.5,419.57142857142856,416.1808016640799,418.5,419.57142857142856,416.1808016640799,534.3,419.57142857142856,416.1808016640799,634.5,419.57142857142856,416.1808016640799,735.8,419.57142857142856,416.1808016640799,837.8,419.57142857142856,416.1808016640799,938.6,419.57142857142856,416.1808016640799,1051.1,419.57142857142856,416.1808016640799,1157.9,419.57142857142856,416.1808016640799,1267,419.57142857142856,416.1808016640799,1368.8,419.57142857142856,416.1808016640799,1476.8,419.57142857142856,416.1808016640799,1587.2,419.57142857142856,416.1808016640799,1690.9,419.57142857142856,416.1808016640799,1801.7,419.57142857142856,416.1808016640799,1901.9,419.57142857142856,416.1808016640799,2004,419.57142857142856,416.1808016640799,2108.1,419.57142857142856,416.1808016640799,2214.9,419.57142857142856,416.1808016640799,2318.1,419.57142857142856,416.1808016640799,2424.5,419.57142857142856,416.1808016640799,2524.5,419.57142857142856,416.1808016640799,2627.9,419.57142857142856,416.1808016640799,2732.5,419.57142857142856,416.1808016640799,2837.2,419.57142857142856,416.1808016640799,2938.1,419.57142857142856,416.1808016640799,3043,419.57142857142856,416.1808016640799,3148,419.57142857142856,416.1808016640799,3254,419.57142857142856,416.1808016640799,3362.9,419.57142857142856,416.1808016640799,3463.6,419.57142857142856,416.1808016640799,3565,419.57142857142856,416.1808016640799,3670.8,419.57142857142856,416.1808016640799,3773.2,419.57142857142856,416.1808016640799,3884,419.57142857142856,416.1808016640799,4001,419.57142857142856,416.1808016640799,4115.3,419.57142857142856,416.1808016640799,4217.6,419.57142857142856,416.1808016640799,4324,419.57142857142856,416.1808016640799,4428,419.57142857142856,416.1808016640799,4534.2,419.57142857142856,416.1808016640799,4639.7,419.57142857142856,416.1808016640799,4745.3,419.57142857142856,416.1808016640799,4848.9,419.57142857142856,416.1808016640799,4949.1]","[1458.1,1458.1,1000,0,458.1,""oops"",""down"",""right"",""bad_move"",4526.4,3067.4,2627.4,1459.1,439.9,""smooth"",""down"",""down"",""good_move"",7577.4,3050.5,2696.6,4526.9,353.9,""smooth"",""left"",""left"",""good_move"",10291.1,2713,2365.3,7578.1,347.8,""oops"",""down"",""left"",""good_move"",13200.3,2909,2543.8,10291.3,365.2,""while_blue"",""down"",""right"",""bad_move"",15892.3,2691.7,2226.6,13200.6,465.1,""smooth"",""down"",""down"",""good_move"",21924,6031.5,2361.1,19026.9,536,""oops"",""left"",""right"",""bad_move"",28413.7,6489.4,2403.7,25602.3,407.7,""smooth"",""left"",""left"",""good_move"",31077.3,2663.2,2134.2,28414.1,529,""smooth"",""left"",""left"",""good_move"",33658.2,2580.6,2149.4,31077.7,431.2,""smooth"",""down"",""down"",""good_move""]","","",""
"6784","","<div style=""width:500px;"">
  <p>What determined the result of this run?</p>
  </div>","100","html-slider-response","55","1148153","0.0-10.0-1.3","5","1","2025-07-09 09:04:09","7701e855f2ef39aa3fd6c71abdc6918a","137.155.48.9","Mozilla/5.0 (Windows NT 10.0; Win64; x64) AppleWebKit/537.36 (KHTML, like Gecko) Chrome/133.0.0.0 Safari/537.36","WebKit","Chrome","133.0.0.0","Windows","10.0","https://app.prolific.com/","en-US,en;q=0.9","67d9d158b3db2c7d641840b0","686d226cabeef709c732f8e1","686e306294610c88b46a72ec","67d9d158b3db2c7d641840b0","2025-07-09T09:23:27.564Z","","","","","","AttribQ","","","","","","","","","","","","","","","","","","","","","","","","","","","","","","","","","","","","","","50",""
"4998","","<div style=""width:500px;"">
  <p>How much control did you have over the ball?</p>
  </div>","51","html-slider-response","56","1153153","0.0-10.0-2.3","5","1","2025-07-09 09:04:09","7701e855f2ef39aa3fd6c71abdc6918a","137.155.48.9","Mozilla/5.0 (Windows NT 10.0; Win64; x64) AppleWebKit/537.36 (KHTML, like Gecko) Chrome/133.0.0.0 Safari/537.36","WebKit","Chrome","133.0.0.0","Windows","10.0","https://app.prolific.com/","en-US,en;q=0.9","67d9d158b3db2c7d641840b0","686d226cabeef709c732f8e1","686e306294610c88b46a72ec","67d9d158b3db2c7d641840b0","2025-07-09T09:23:32.564Z","","","","","","ControlQ","","","","","","","","","","","","","","","","","","","","","","","","","","","","","","","","","","","","","","50",""
"6615","","<div style=""width:500px;"">
  <p>How would you describe your current emotional state?</p>
  </div>","50","html-slider-response","57","1159770","0.0-10.0-3.3","5","1","2025-07-09 09:04:09","7701e855f2ef39aa3fd6c71abdc6918a","137.155.48.9","Mozilla/5.0 (Windows NT 10.0; Win64; x64) AppleWebKit/537.36 (KHTML, like Gecko) Chrome/133.0.0.0 Safari/537.36","WebKit","Chrome","133.0.0.0","Windows","10.0","https://app.prolific.com/","en-US,en;q=0.9","67d9d158b3db2c7d641840b0","686d226cabeef709c732f8e1","686e306294610c88b46a72ec","67d9d158b3db2c7d641840b0","2025-07-09T09:23:39.181Z","","","","","","StressQ","","","","","","","","","","","","","","","","","","","","","","","","","","","","","","","","","","","","","","50",""
"6198","","<div style=""width:500px;"">
  <p>What best describes how you currently feel?</p>
  </div>","81","html-slider-response","58","1165970","0.0-10.0-4.3","5","1","2025-07-09 09:04:09","7701e855f2ef39aa3fd6c71abdc6918a","137.155.48.9","Mozilla/5.0 (Windows NT 10.0; Win64; x64) AppleWebKit/537.36 (KHTML, like Gecko) Chrome/133.0.0.0 Safari/537.36","WebKit","Chrome","133.0.0.0","Windows","10.0","https://app.prolific.com/","en-US,en;q=0.9","67d9d158b3db2c7d641840b0","686d226cabeef709c732f8e1","686e306294610c88b46a72ec","67d9d158b3db2c7d641840b0","2025-07-09T09:23:45.381Z","","","","","","MotivationQ","","","","","","","","","","","","","","","","","","","","","","","","","","","","","","","","","","","","","","50",""
"","","","","ctl-task-cpt","59","1189364","0.0-10.0-0.4","5","1","2025-07-09 09:04:09","7701e855f2ef39aa3fd6c71abdc6918a","137.155.48.9","Mozilla/5.0 (Windows NT 10.0; Win64; x64) AppleWebKit/537.36 (KHTML, like Gecko) Chrome/133.0.0.0 Safari/537.36","WebKit","Chrome","133.0.0.0","Windows","10.0","https://app.prolific.com/","en-US,en;q=0.9","67d9d158b3db2c7d641840b0","686d226cabeef709c732f8e1","686e306294610c88b46a72ec","67d9d158b3db2c7d641840b0","2025-07-09T09:24:08.775Z","","","","","","","","","","","","","","","","win-only","2","g1:SE,g2:NW","0.6","5","0","1176881.1","1708.8","6713.1","20373.3","1","4","4","6","1","1","1","1","0","0.007575757575757576","5004.3","3000","2040","[""down"",""right""]","{""num_key_presses"":4,""num_perfect"":3,""num_errors"":0,""num_randdir"":1,""num_randdir_good_moves"":1,""num_whilered"":0,""num_whileblue"":0,""num_blue"":1,""num_good_moves"":4}","[419.57142857142856,416.1808016640799,0.3,419.57142857142856,416.1808016640799,101.8,419.57142857142856,416.1808016640799,210.9,419.57142857142856,416.1808016640799,313.1,419.57142857142856,416.1808016640799,427.9,419.57142857142856,416.1808016640799,528.5,419.57142857142856,416.1808016640799,628.7,419.57142857142856,416.1808016640799,743.6,419.57142857142856,416.1808016640799,853,419.57142857142856,416.1808016640799,962.1,419.57142857142856,416.1808016640799,1075.2,419.57142857142856,416.1808016640799,1178.8,419.57142857142856,416.1808016640799,1281.6,419.57142857142856,416.1808016640799,1385,419.57142857142856,416.1808016640799,1497.8,419.57142857142856,416.1808016640799,1602.4,419.57142857142856,416.1808016640799,1709,419.57142857142856,416.1808016640799,1810.3,419.57142857142856,416.1808016640799,1915.7,419.57142857142856,416.1808016640799,2017.7,419.57142857142856,416.1808016640799,2119.4,419.57142857142856,416.1808016640799,2222.7,419.57142857142856,416.1808016640799,2324,419.57142857142856,416.1808016640799,2425.3,419.57142857142856,416.1808016640799,2529.8,419.57142857142856,416.1808016640799,2631.9,419.57142857142856,416.1808016640799,2732.2,419.57142857142856,416.1808016640799,2838.9,419.57142857142856,416.1808016640799,2942.9,419.57142857142856,416.1808016640799,3049.5,419.57142857142856,416.1808016640799,3159.5,419.57142857142856,416.1808016640799,3261.4,419.57142857142856,416.1808016640799,3362.5,419.57142857142856,416.1808016640799,3466.7,419.57142857142856,416.1808016640799,3567.9,419.57142857142856,416.1808016640799,3674.2,419.57142857142856,416.1808016640799,3774.9,419.57142857142856,416.1808016640799,3888.6,419.57142857142856,416.1808016640799,3996.7,419.57142857142856,416.1808016640799,4099.3,419.57142857142856,416.1808016640799,4202,419.57142857142856,416.1808016640799,4307.3,419.57142857142856,416.1808016640799,4408.3,419.57142857142856,416.1808016640799,4526.1,419.57142857142856,416.1808016640799,4630.7,419.57142857142856,416.1808016640799,4733.4,419.57142857142856,416.1808016640799,4833.7,419.57142857142856,416.1808016640799,4940.7]","[1351.4,1351.4,1000,0,351.4,""oops"",""down"",""right"",""good_move"",4583.4,3231.2,2842.9,1352.2,388.4,""smooth"",""down"",""down"",""good_move"",7428.3,2844.1,2488.6,4584.2,355.5,""smooth"",""right"",""right"",""good_move"",13539.6,6110.9,2191.2,11028.1,320.3,""smooth"",""down"",""down"",""good_move""]","","",""
"4907","","<div style=""width:500px;"">
  <p>What determined the result of this run?</p>
  </div>","100","html-slider-response","60","1194273","0.0-10.0-1.4","5","1","2025-07-09 09:04:09","7701e855f2ef39aa3fd6c71abdc6918a","137.155.48.9","Mozilla/5.0 (Windows NT 10.0; Win64; x64) AppleWebKit/537.36 (KHTML, like Gecko) Chrome/133.0.0.0 Safari/537.36","WebKit","Chrome","133.0.0.0","Windows","10.0","https://app.prolific.com/","en-US,en;q=0.9","67d9d158b3db2c7d641840b0","686d226cabeef709c732f8e1","686e306294610c88b46a72ec","67d9d158b3db2c7d641840b0","2025-07-09T09:24:13.685Z","","","","","","AttribQ","","","","","","","","","","","","","","","","","","","","","","","","","","","","","","","","","","","","","","50",""
"3767","","<div style=""width:500px;"">
  <p>How much control did you have over the ball?</p>
  </div>","100","html-slider-response","61","1198042","0.0-10.0-2.4","5","1","2025-07-09 09:04:09","7701e855f2ef39aa3fd6c71abdc6918a","137.155.48.9","Mozilla/5.0 (Windows NT 10.0; Win64; x64) AppleWebKit/537.36 (KHTML, like Gecko) Chrome/133.0.0.0 Safari/537.36","WebKit","Chrome","133.0.0.0","Windows","10.0","https://app.prolific.com/","en-US,en;q=0.9","67d9d158b3db2c7d641840b0","686d226cabeef709c732f8e1","686e306294610c88b46a72ec","67d9d158b3db2c7d641840b0","2025-07-09T09:24:17.453Z","","","","","","ControlQ","","","","","","","","","","","","","","","","","","","","","","","","","","","","","","","","","","","","","","50",""
"5484","","<div style=""width:500px;"">
  <p>How would you describe your current emotional state?</p>
  </div>","18","html-slider-response","62","1203529","0.0-10.0-3.4","5","1","2025-07-09 09:04:09","7701e855f2ef39aa3fd6c71abdc6918a","137.155.48.9","Mozilla/5.0 (Windows NT 10.0; Win64; x64) AppleWebKit/537.36 (KHTML, like Gecko) Chrome/133.0.0.0 Safari/537.36","WebKit","Chrome","133.0.0.0","Windows","10.0","https://app.prolific.com/","en-US,en;q=0.9","67d9d158b3db2c7d641840b0","686d226cabeef709c732f8e1","686e306294610c88b46a72ec","67d9d158b3db2c7d641840b0","2025-07-09T09:24:22.940Z","","","","","","StressQ","","","","","","","","","","","","","","","","","","","","","","","","","","","","","","","","","","","","","","50",""
"4199","","<div style=""width:500px;"">
  <p>What best describes how you currently feel?</p>
  </div>","90","html-slider-response","63","1207729","0.0-10.0-4.4","5","1","2025-07-09 09:04:09","7701e855f2ef39aa3fd6c71abdc6918a","137.155.48.9","Mozilla/5.0 (Windows NT 10.0; Win64; x64) AppleWebKit/537.36 (KHTML, like Gecko) Chrome/133.0.0.0 Safari/537.36","WebKit","Chrome","133.0.0.0","Windows","10.0","https://app.prolific.com/","en-US,en;q=0.9","67d9d158b3db2c7d641840b0","686d226cabeef709c732f8e1","686e306294610c88b46a72ec","67d9d158b3db2c7d641840b0","2025-07-09T09:24:27.140Z","","","","","","MotivationQ","","","","","","","","","","","","","","","","","","","","","","","","","","","","","","","","","","","","","","50",""
"","","","","ctl-task-cpt","64","1240837","0.0-10.0-0.5","5","1","2025-07-09 09:04:09","7701e855f2ef39aa3fd6c71abdc6918a","137.155.48.9","Mozilla/5.0 (Windows NT 10.0; Win64; x64) AppleWebKit/537.36 (KHTML, like Gecko) Chrome/133.0.0.0 Safari/537.36","WebKit","Chrome","133.0.0.0","Windows","10.0","https://app.prolific.com/","en-US,en;q=0.9","67d9d158b3db2c7d641840b0","686d226cabeef709c732f8e1","686e306294610c88b46a72ec","67d9d158b3db2c7d641840b0","2025-07-09T09:25:00.248Z","","","","","","","","","","","","","","","","win-only","3","g1:SW,g2:NE","0.5","6","0","1218640.6","1446","6454.1","30082.3","1","4","8","6","1","1","1","2","1","0.015151515151515152","5008.1","3000","1720","[""down"",""left""]","{""num_key_presses"":4,""num_perfect"":3,""num_errors"":0,""num_randdir"":1,""num_randdir_good_moves"":1,""num_whilered"":0,""num_whileblue"":0,""num_blue"":4,""num_good_moves"":4}","[416.57142857142856,417.6808016640799,0.3,416.57142857142856,417.6808016640799,100.1,416.57142857142856,417.6808016640799,201.8,416.57142857142856,417.6808016640799,304.7,416.57142857142856,417.6808016640799,405.1,416.57142857142856,417.6808016640799,510.7,416.57142857142856,417.6808016640799,614.5,416.57142857142856,417.6808016640799,714.8,416.57142857142856,417.6808016640799,823,416.57142857142856,417.6808016640799,932.7,416.57142857142856,417.6808016640799,1033.2,416.57142857142856,417.6808016640799,1140.6,416.57142857142856,417.6808016640799,1250,416.57142857142856,417.6808016640799,1351.4,416.57142857142856,417.6808016640799,1458,416.57142857142856,417.6808016640799,1563.5,416.57142857142856,417.6808016640799,1667,416.57142857142856,417.6808016640799,1769.7,416.57142857142856,417.6808016640799,1878.8,416.57142857142856,417.6808016640799,1979.3,416.57142857142856,417.6808016640799,2080.4,416.57142857142856,417.6808016640799,2180.5,416.57142857142856,417.6808016640799,2293.3,416.57142857142856,417.6808016640799,2409.4,416.57142857142856,417.6808016640799,2512.2,416.57142857142856,417.6808016640799,2615,416.57142857142856,417.6808016640799,2715,416.57142857142856,417.6808016640799,2817.4,416.57142857142856,417.6808016640799,2923.1,416.57142857142856,417.6808016640799,3033.6,416.57142857142856,417.6808016640799,3144.2,416.57142857142856,417.6808016640799,3259.3,416.57142857142856,417.6808016640799,3361.5,416.57142857142856,417.6808016640799,3466.4,416.57142857142856,417.6808016640799,3570.5,416.57142857142856,417.6808016640799,3676.5,416.57142857142856,417.6808016640799,3777.1,416.57142857142856,417.6808016640799,3881.6,416.57142857142856,417.6808016640799,3988.9,416.57142857142856,417.6808016640799,4092.9,416.57142857142856,417.6808016640799,4194.3,416.57142857142856,417.6808016640799,4299.6,416.57142857142856,417.6808016640799,4399.6,416.57142857142856,417.6808016640799,4499.7,416.57142857142856,417.6808016640799,4606.1,416.57142857142856,417.6808016640799,4713.1,416.57142857142856,417.6808016640799,4813.8,416.57142857142856,417.6808016640799,4915]","[1419.2,1419.2,1000,0,419.2,""oops"",""down"",""left"",""good_move"",4292.8,2873.1,2267.5,1419.7,605.6,""smooth"",""down"",""down"",""good_move"",10275.7,5982.3,2070.6,7821.6,383.5,""smooth"",""left"",""left"",""good_move"",23501.6,13225.6,2118.1,20916.5,467,""smooth"",""down"",""down"",""good_move""]","","",""
"4762","","<div style=""width:500px;"">
  <p>What determined the result of this run?</p>
  </div>","100","html-slider-response","65","1245601","0.0-10.0-1.5","5","1","2025-07-09 09:04:09","7701e855f2ef39aa3fd6c71abdc6918a","137.155.48.9","Mozilla/5.0 (Windows NT 10.0; Win64; x64) AppleWebKit/537.36 (KHTML, like Gecko) Chrome/133.0.0.0 Safari/537.36","WebKit","Chrome","133.0.0.0","Windows","10.0","https://app.prolific.com/","en-US,en;q=0.9","67d9d158b3db2c7d641840b0","686d226cabeef709c732f8e1","686e306294610c88b46a72ec","67d9d158b3db2c7d641840b0","2025-07-09T09:25:05.012Z","","","","","","AttribQ","","","","","","","","","","","","","","","","","","","","","","","","","","","","","","","","","","","","","","50",""
"3607","","<div style=""width:500px;"">
  <p>How much control did you have over the ball?</p>
  </div>","100","html-slider-response","66","1249209","0.0-10.0-2.5","5","1","2025-07-09 09:04:09","7701e855f2ef39aa3fd6c71abdc6918a","137.155.48.9","Mozilla/5.0 (Windows NT 10.0; Win64; x64) AppleWebKit/537.36 (KHTML, like Gecko) Chrome/133.0.0.0 Safari/537.36","WebKit","Chrome","133.0.0.0","Windows","10.0","https://app.prolific.com/","en-US,en;q=0.9","67d9d158b3db2c7d641840b0","686d226cabeef709c732f8e1","686e306294610c88b46a72ec","67d9d158b3db2c7d641840b0","2025-07-09T09:25:08.621Z","","","","","","ControlQ","","","","","","","","","","","","","","","","","","","","","","","","","","","","","","","","","","","","","","50",""
"8334","","<div style=""width:500px;"">
  <p>How would you describe your current emotional state?</p>
  </div>","20","html-slider-response","67","1257546","0.0-10.0-3.5","5","1","2025-07-09 09:04:09","7701e855f2ef39aa3fd6c71abdc6918a","137.155.48.9","Mozilla/5.0 (Windows NT 10.0; Win64; x64) AppleWebKit/537.36 (KHTML, like Gecko) Chrome/133.0.0.0 Safari/537.36","WebKit","Chrome","133.0.0.0","Windows","10.0","https://app.prolific.com/","en-US,en;q=0.9","67d9d158b3db2c7d641840b0","686d226cabeef709c732f8e1","686e306294610c88b46a72ec","67d9d158b3db2c7d641840b0","2025-07-09T09:25:16.957Z","","","","","","StressQ","","","","","","","","","","","","","","","","","","","","","","","","","","","","","","","","","","","","","","50",""
"5021","","<div style=""width:500px;"">
  <p>What best describes how you currently feel?</p>
  </div>","97","html-slider-response","68","1262569","0.0-10.0-4.5","5","1","2025-07-09 09:04:09","7701e855f2ef39aa3fd6c71abdc6918a","137.155.48.9","Mozilla/5.0 (Windows NT 10.0; Win64; x64) AppleWebKit/537.36 (KHTML, like Gecko) Chrome/133.0.0.0 Safari/537.36","WebKit","Chrome","133.0.0.0","Windows","10.0","https://app.prolific.com/","en-US,en;q=0.9","67d9d158b3db2c7d641840b0","686d226cabeef709c732f8e1","686e306294610c88b46a72ec","67d9d158b3db2c7d641840b0","2025-07-09T09:25:21.980Z","","","","","","MotivationQ","","","","","","","","","","","","","","","","","","","","","","","","","","","","","","","","","","","","","","50",""
"","","","","ctl-task-cpt","69","1307272","0.0-10.0-0.6","5","1","2025-07-09 09:04:09","7701e855f2ef39aa3fd6c71abdc6918a","137.155.48.9","Mozilla/5.0 (Windows NT 10.0; Win64; x64) AppleWebKit/537.36 (KHTML, like Gecko) Chrome/133.0.0.0 Safari/537.36","WebKit","Chrome","133.0.0.0","Windows","10.0","https://app.prolific.com/","en-US,en;q=0.9","67d9d158b3db2c7d641840b0","686d226cabeef709c732f8e1","686e306294610c88b46a72ec","67d9d158b3db2c7d641840b0","2025-07-09T09:26:06.683Z","","","","","","","","","","","","","","","","win-only","1","g1:NE,g2:SW","0.4","7","0","1273480.1","2006.4","7007.7","41690.3","1","4","8","6","2","-8","-9","0","2","0","5001.3","3000","-2015","[""down"",""left""]","{""num_key_presses"":11,""num_perfect"":4,""num_errors"":1,""num_randdir"":6,""num_randdir_good_moves"":2,""num_whilered"":0,""num_whileblue"":1,""num_blue"":2,""num_good_moves"":7}","[419.57142857142856,420.6808016640799,0.3,419.57142857142856,420.6808016640799,104.8,419.57142857142856,420.6808016640799,206,419.57142857142856,420.6808016640799,307,419.57142857142856,420.6808016640799,410.8,419.57142857142856,420.6808016640799,525.1,419.57142857142856,420.6808016640799,626.7,419.57142857142856,420.6808016640799,741.9,419.57142857142856,420.6808016640799,842.9,419.57142857142856,420.6808016640799,945.2,419.57142857142856,420.6808016640799,1046.8,419.57142857142856,420.6808016640799,1150.1,419.57142857142856,420.6808016640799,1250.2,419.57142857142856,420.6808016640799,1358.7,419.57142857142856,420.6808016640799,1459.2,419.57142857142856,420.6808016640799,1565.4,419.57142857142856,420.6808016640799,1666.5,419.57142857142856,420.6808016640799,1773.9,419.57142857142856,420.6808016640799,1877.7,419.57142857142856,420.6808016640799,1979.1,419.57142857142856,420.6808016640799,2079.6,419.57142857142856,420.6808016640799,2179.9,419.57142857142856,420.6808016640799,2291.4,419.57142857142856,420.6808016640799,2392,419.57142857142856,420.6808016640799,2492.1,419.57142857142856,420.6808016640799,2592.1,419.57142857142856,420.6808016640799,2695.6,419.57142857142856,420.6808016640799,2798.5,419.57142857142856,420.6808016640799,2907.8,419.57142857142856,420.6808016640799,3020.4,419.57142857142856,420.6808016640799,3123.5,419.57142857142856,420.6808016640799,3224.3,419.57142857142856,420.6808016640799,3332.3,419.57142857142856,420.6808016640799,3434.1,419.57142857142856,420.6808016640799,3540.9,419.57142857142856,420.6808016640799,3644.9,419.57142857142856,420.6808016640799,3753.7,419.57142857142856,420.6808016640799,3856.9,419.57142857142856,420.6808016640799,3960.3,419.57142857142856,420.6808016640799,4065.5,419.57142857142856,420.6808016640799,4173.1,419.57142857142856,420.6808016640799,4277.4,419.57142857142856,420.6808016640799,4377.9,419.57142857142856,420.6808016640799,4481.5,419.57142857142856,420.6808016640799,4585,419.57142857142856,420.6808016640799,4689.4,419.57142857142856,420.6808016640799,4790.9,419.57142857142856,420.6808016640799,4903.1]","[1376.1,1376.1,1000,0,376.1,""oops"",""down"",""up"",""bad_move"",4524.4,3147.6,2633.2,1376.8,514.4,""oops"",""down"",""left"",""good_move"",7444,2919.1,2505.2,4525,413.8,""oops"",""down"",""up"",""bad_move"",9732.7,2288.4,1735.2,7444.3,553.2,""oops"",""down"",""down"",""good_move"",12729.8,2996.5,2469.8,9733.3,526.7,""oops"",""down"",""up"",""bad_move"",15303.8,2573.6,2238.5,12730.2,335.2,""smooth"",""down"",""down"",""good_move"",17846.8,2542.7,2064.1,15304.3,478.6,""smooth"",""down"",""down"",""good_move"",20060.3,2212.9,1778.7,17847.4,434.2,""smooth"",""down"",""down"",""good_move"",26444.1,6383.5,2122.3,23938.5,383.3,""smooth"",""down"",""down"",""good_move"",29729.7,3285.2,2942.2,26444.5,343,""oops"",""down"",""up"",""bad_move"",32481.6,2751.2,2364.6,29730.4,386.7,""while_blue"",""left"",""down"",""good_move""]","","",""
"7817","","<div style=""width:500px;"">
  <p>What determined the result of this run?</p>
  </div>","97","html-slider-response","70","1315091","0.0-10.0-1.6","5","1","2025-07-09 09:04:09","7701e855f2ef39aa3fd6c71abdc6918a","137.155.48.9","Mozilla/5.0 (Windows NT 10.0; Win64; x64) AppleWebKit/537.36 (KHTML, like Gecko) Chrome/133.0.0.0 Safari/537.36","WebKit","Chrome","133.0.0.0","Windows","10.0","https://app.prolific.com/","en-US,en;q=0.9","67d9d158b3db2c7d641840b0","686d226cabeef709c732f8e1","686e306294610c88b46a72ec","67d9d158b3db2c7d641840b0","2025-07-09T09:26:14.502Z","","","","","","AttribQ","","","","","","","","","","","","","","","","","","","","","","","","","","","","","","","","","","","","","","50",""
"23005","","<div style=""width:500px;"">
  <p>How much control did you have over the ball?</p>
  </div>","31","html-slider-response","71","1338098","0.0-10.0-2.6","5","1","2025-07-09 09:04:09","7701e855f2ef39aa3fd6c71abdc6918a","137.155.48.9","Mozilla/5.0 (Windows NT 10.0; Win64; x64) AppleWebKit/537.36 (KHTML, like Gecko) Chrome/133.0.0.0 Safari/537.36","WebKit","Chrome","133.0.0.0","Windows","10.0","https://app.prolific.com/","en-US,en;q=0.9","67d9d158b3db2c7d641840b0","686d226cabeef709c732f8e1","686e306294610c88b46a72ec","67d9d158b3db2c7d641840b0","2025-07-09T09:26:37.509Z","","","","","","ControlQ","","","","","","","","","","","","","","","","","","","","","","","","","","","","","","","","","","","","","","50",""
"6868","","<div style=""width:500px;"">
  <p>How would you describe your current emotional state?</p>
  </div>","61","html-slider-response","72","1344969","0.0-10.0-3.6","5","1","2025-07-09 09:04:09","7701e855f2ef39aa3fd6c71abdc6918a","137.155.48.9","Mozilla/5.0 (Windows NT 10.0; Win64; x64) AppleWebKit/537.36 (KHTML, like Gecko) Chrome/133.0.0.0 Safari/537.36","WebKit","Chrome","133.0.0.0","Windows","10.0","https://app.prolific.com/","en-US,en;q=0.9","67d9d158b3db2c7d641840b0","686d226cabeef709c732f8e1","686e306294610c88b46a72ec","67d9d158b3db2c7d641840b0","2025-07-09T09:26:44.380Z","","","","","","StressQ","","","","","","","","","","","","","","","","","","","","","","","","","","","","","","","","","","","","","","50",""
"6070","","<div style=""width:500px;"">
  <p>What best describes how you currently feel?</p>
  </div>","35","html-slider-response","73","1351040","0.0-10.0-4.6","5","1","2025-07-09 09:04:09","7701e855f2ef39aa3fd6c71abdc6918a","137.155.48.9","Mozilla/5.0 (Windows NT 10.0; Win64; x64) AppleWebKit/537.36 (KHTML, like Gecko) Chrome/133.0.0.0 Safari/537.36","WebKit","Chrome","133.0.0.0","Windows","10.0","https://app.prolific.com/","en-US,en;q=0.9","67d9d158b3db2c7d641840b0","686d226cabeef709c732f8e1","686e306294610c88b46a72ec","67d9d158b3db2c7d641840b0","2025-07-09T09:26:50.452Z","","","","","","MotivationQ","","","","","","","","","","","","","","","","","","","","","","","","","","","","","","","","","","","","","","50",""
"","","","","ctl-task-cpt","74","1414981","0.0-10.0-0.7","5","1","2025-07-09 09:04:09","7701e855f2ef39aa3fd6c71abdc6918a","137.155.48.9","Mozilla/5.0 (Windows NT 10.0; Win64; x64) AppleWebKit/537.36 (KHTML, like Gecko) Chrome/133.0.0.0 Safari/537.36","WebKit","Chrome","133.0.0.0","Windows","10.0","https://app.prolific.com/","en-US,en;q=0.9","67d9d158b3db2c7d641840b0","686d226cabeef709c732f8e1","686e306294610c88b46a72ec","67d9d158b3db2c7d641840b0","2025-07-09T09:27:54.392Z","","","","","","","","","","","","","","","","win-only","2","g1:SE,g2:NW","0.3","8","0","1361951.9","1582.2","6588","60918.1","1","4","4","6","1","-1","-2","0","0","0","5005.8","3000","-2020","[""down"",""right""]","{""num_key_presses"":12,""num_perfect"":3,""num_errors"":1,""num_randdir"":8,""num_randdir_good_moves"":2,""num_whilered"":0,""num_whileblue"":0,""num_blue"":5,""num_good_moves"":4}","[410.57142857142856,419.1808016640799,0.3,410.57142857142856,419.1808016640799,103.8,410.57142857142856,419.1808016640799,203.9,410.57142857142856,419.1808016640799,308.7,410.57142857142856,419.1808016640799,412.9,410.57142857142856,419.1808016640799,516.3,410.57142857142856,419.1808016640799,620.8,410.57142857142856,419.1808016640799,737.3,410.57142857142856,419.1808016640799,839.1,410.57142857142856,419.1808016640799,954.4,410.57142857142856,419.1808016640799,1059,410.57142857142856,419.1808016640799,1160.6,410.57142857142856,419.1808016640799,1264.3,410.57142857142856,419.1808016640799,1369.7,410.57142857142856,419.1808016640799,1487.3,410.57142857142856,419.1808016640799,1592.8,410.57142857142856,419.1808016640799,1701.7,410.57142857142856,419.1808016640799,1806.7,410.57142857142856,419.1808016640799,1909.4,410.57142857142856,419.1808016640799,2013.3,410.57142857142856,419.1808016640799,2113.4,410.57142857142856,419.1808016640799,2214.6,410.57142857142856,419.1808016640799,2333.8,410.57142857142856,419.1808016640799,2439.7,410.57142857142856,419.1808016640799,2548.8,410.57142857142856,419.1808016640799,2650.7,410.57142857142856,419.1808016640799,2754.5,410.57142857142856,419.1808016640799,2854.8,410.57142857142856,419.1808016640799,2956.2,410.57142857142856,419.1808016640799,3060.9,410.57142857142856,419.1808016640799,3164.1,410.57142857142856,419.1808016640799,3270.9,410.57142857142856,419.1808016640799,3377.6,410.57142857142856,419.1808016640799,3480.5,410.57142857142856,419.1808016640799,3590.6,410.57142857142856,419.1808016640799,3700.6,410.57142857142856,419.1808016640799,3806.8,410.57142857142856,419.1808016640799,3918.7,410.57142857142856,419.1808016640799,4020.9,410.57142857142856,419.1808016640799,4126.3,410.57142857142856,419.1808016640799,4235.4,410.57142857142856,419.1808016640799,4348.1,410.57142857142856,419.1808016640799,4450,410.57142857142856,419.1808016640799,4554.2,410.57142857142856,419.1808016640799,4654.7,410.57142857142856,419.1808016640799,4754.8,410.57142857142856,419.1808016640799,4867.7,410.57142857142856,419.1808016640799,4982]","[1322.6,1322.6,1000,0,322.6,""oops"",""down"",""down"",""good_move"",4681.3,3358.2,2998.6,1323.1,359.6,""smooth"",""right"",""right"",""good_move"",7782.8,3101.1,2738.5,4681.7,362.6,""oops"",""right"",""down"",""good_move"",24290.5,16507.5,2462.3,21390.2,438.1,""oops"",""right"",""up"",""bad_move"",27081.1,2790.1,2286.1,24291,504,""oops"",""right"",""left"",""bad_move"",32626.8,5545.1,2223.9,30020.1,382.9,""smooth"",""down"",""down"",""good_move"",35541.5,2914,2499.5,32627.5,414.5,""oops"",""right"",""left"",""bad_move"",38504.2,2962.2,2394.3,35542,567.9,""smooth"",""left"",""left"",""bad_move"",42238.9,3734.3,3392.9,38504.7,341.3,""oops"",""right"",""left"",""bad_move"",45118,2878.5,2474.1,42239.5,404.5,""oops"",""right"",""up"",""bad_move"",47857.5,2738.8,2334,45118.7,404.8,""oops"",""right"",""up"",""bad_move"",50147.5,2289.6,2956.3,47857.9,-666.7,""error"",""-"",""-"",""no_move""]","","",""
"13746","","<div style=""width:500px;"">
  <p>What determined the result of this run?</p>
  </div>","33","html-slider-response","75","1428729","0.0-10.0-1.7","5","1","2025-07-09 09:04:09","7701e855f2ef39aa3fd6c71abdc6918a","137.155.48.9","Mozilla/5.0 (Windows NT 10.0; Win64; x64) AppleWebKit/537.36 (KHTML, like Gecko) Chrome/133.0.0.0 Safari/537.36","WebKit","Chrome","133.0.0.0","Windows","10.0","https://app.prolific.com/","en-US,en;q=0.9","67d9d158b3db2c7d641840b0","686d226cabeef709c732f8e1","686e306294610c88b46a72ec","67d9d158b3db2c7d641840b0","2025-07-09T09:28:08.141Z","","","","","","AttribQ","","","","","","","","","","","","","","","","","","","","","","","","","","","","","","","","","","","","","","50",""
"6453","","<div style=""width:500px;"">
  <p>How much control did you have over the ball?</p>
  </div>","25","html-slider-response","76","1435185","0.0-10.0-2.7","5","1","2025-07-09 09:04:09","7701e855f2ef39aa3fd6c71abdc6918a","137.155.48.9","Mozilla/5.0 (Windows NT 10.0; Win64; x64) AppleWebKit/537.36 (KHTML, like Gecko) Chrome/133.0.0.0 Safari/537.36","WebKit","Chrome","133.0.0.0","Windows","10.0","https://app.prolific.com/","en-US,en;q=0.9","67d9d158b3db2c7d641840b0","686d226cabeef709c732f8e1","686e306294610c88b46a72ec","67d9d158b3db2c7d641840b0","2025-07-09T09:28:14.596Z","","","","","","ControlQ","","","","","","","","","","","","","","","","","","","","","","","","","","","","","","","","","","","","","","50",""
"6854","","<div style=""width:500px;"">
  <p>How would you describe your current emotional state?</p>
  </div>","41","html-slider-response","77","1442041","0.0-10.0-3.7","5","1","2025-07-09 09:04:09","7701e855f2ef39aa3fd6c71abdc6918a","137.155.48.9","Mozilla/5.0 (Windows NT 10.0; Win64; x64) AppleWebKit/537.36 (KHTML, like Gecko) Chrome/133.0.0.0 Safari/537.36","WebKit","Chrome","133.0.0.0","Windows","10.0","https://app.prolific.com/","en-US,en;q=0.9","67d9d158b3db2c7d641840b0","686d226cabeef709c732f8e1","686e306294610c88b46a72ec","67d9d158b3db2c7d641840b0","2025-07-09T09:28:21.452Z","","","","","","StressQ","","","","","","","","","","","","","","","","","","","","","","","","","","","","","","","","","","","","","","50",""
"5981","","<div style=""width:500px;"">
  <p>What best describes how you currently feel?</p>
  </div>","73","html-slider-response","78","1448024","0.0-10.0-4.7","5","1","2025-07-09 09:04:09","7701e855f2ef39aa3fd6c71abdc6918a","137.155.48.9","Mozilla/5.0 (Windows NT 10.0; Win64; x64) AppleWebKit/537.36 (KHTML, like Gecko) Chrome/133.0.0.0 Safari/537.36","WebKit","Chrome","133.0.0.0","Windows","10.0","https://app.prolific.com/","en-US,en;q=0.9","67d9d158b3db2c7d641840b0","686d226cabeef709c732f8e1","686e306294610c88b46a72ec","67d9d158b3db2c7d641840b0","2025-07-09T09:28:27.436Z","","","","","","MotivationQ","","","","","","","","","","","","","","","","","","","","","","","","","","","","","","","","","","","","","","50",""
"","","","","ctl-task-cpt","79","1507934","0.0-10.0-0.8","5","1","2025-07-09 09:04:09","7701e855f2ef39aa3fd6c71abdc6918a","137.155.48.9","Mozilla/5.0 (Windows NT 10.0; Win64; x64) AppleWebKit/537.36 (KHTML, like Gecko) Chrome/133.0.0.0 Safari/537.36","WebKit","Chrome","133.0.0.0","Windows","10.0","https://app.prolific.com/","en-US,en;q=0.9","67d9d158b3db2c7d641840b0","686d226cabeef709c732f8e1","686e306294610c88b46a72ec","67d9d158b3db2c7d641840b0","2025-07-09T09:29:27.345Z","","","","","","","","","","","","","","","","win-only","3","g1:SW,g2:NE","0.2","9","0","1458936.3","1548.9","6553.7","56884.9","1","4","4","6","1","-1","-1","0","0","0","5004.8","3000","-2015","[""down"",""left""]","{""num_key_presses"":10,""num_perfect"":2,""num_errors"":0,""num_randdir"":8,""num_randdir_good_moves"":1,""num_whilered"":0,""num_whileblue"":0,""num_blue"":6,""num_good_moves"":3}","[415.07142857142856,420.6808016640799,0.4,415.07142857142856,420.6808016640799,103.1,415.07142857142856,420.6808016640799,204.8,415.07142857142856,420.6808016640799,315.4,415.07142857142856,420.6808016640799,422.8,415.07142857142856,420.6808016640799,531.4,410.57142857142856,423.6808016640799,636,407.57142857142856,428.1808016640799,738.6,407.57142857142856,428.1808016640799,850.3,407.57142857142856,428.1808016640799,965.6,407.57142857142856,428.1808016640799,1071.4,407.57142857142856,428.1808016640799,1174.2,407.57142857142856,428.1808016640799,1287,407.57142857142856,428.1808016640799,1389,407.57142857142856,428.1808016640799,1489.6,407.57142857142856,428.1808016640799,1590.3,407.57142857142856,428.1808016640799,1690.3,407.57142857142856,428.1808016640799,1793.4,407.57142857142856,428.1808016640799,1904.4,407.57142857142856,428.1808016640799,2008.4,407.57142857142856,428.1808016640799,2108.9,407.57142857142856,428.1808016640799,2213,407.57142857142856,428.1808016640799,2314.3,406.07142857142856,428.1808016640799,2418.1,406.07142857142856,428.1808016640799,2523.5,406.07142857142856,428.1808016640799,2632.5,406.07142857142856,428.1808016640799,2734.2,406.07142857142856,428.1808016640799,2834.6,406.07142857142856,428.1808016640799,2939.9,406.07142857142856,428.1808016640799,3043.2,406.07142857142856,428.1808016640799,3143.2,406.07142857142856,428.1808016640799,3243.3,406.07142857142856,428.1808016640799,3346.6,406.07142857142856,428.1808016640799,3451.6,406.07142857142856,428.1808016640799,3555.2,406.07142857142856,428.1808016640799,3659.3,406.07142857142856,428.1808016640799,3760.8,406.07142857142856,428.1808016640799,3863.7,406.07142857142856,428.1808016640799,3977,406.07142857142856,428.1808016640799,4077.6,406.07142857142856,428.1808016640799,4178.1,406.07142857142856,428.1808016640799,4287.1,406.07142857142856,428.1808016640799,4399.6,406.07142857142856,428.1808016640799,4503.9,406.07142857142856,428.1808016640799,4604,406.07142857142856,428.1808016640799,4714.9,406.07142857142856,428.1808016640799,4830.7,406.07142857142856,428.1808016640799,4935.4]","[5502.5,5502.5,3086.7,2016.6,399.2,""oops"",""down"",""right"",""bad_move"",8222.6,2719.3,2237.2,5503.3,482.1,""smooth"",""left"",""left"",""good_move"",14658.2,6434.9,2673.9,11509.3,475,""oops"",""left"",""up"",""bad_move"",17812.8,3153.7,2570.1,14659.1,583.6,""oops"",""down"",""right"",""bad_move"",23406.7,5593.3,2642.9,20393,370.9,""oops"",""left"",""right"",""bad_move"",26429.2,3022.2,2546.2,23407.1,476,""smooth"",""down"",""down"",""good_move"",32599.9,6170,2416.8,29810.5,372.6,""oops"",""down"",""up"",""bad_move"",39130.8,6530,2173.7,36516.2,440.9,""oops"",""down"",""down"",""good_move"",44910.9,5779.4,2196.6,42258.9,455.5,""oops"",""down"",""right"",""bad_move"",47629.9,2718.4,2098.6,44911.5,619.8,""oops"",""down"",""up"",""bad_move""]","","",""
"9043","","<div style=""width:500px;"">
  <p>What determined the result of this run?</p>
  </div>","16","html-slider-response","80","1516979","0.0-10.0-1.8","5","1","2025-07-09 09:04:09","7701e855f2ef39aa3fd6c71abdc6918a","137.155.48.9","Mozilla/5.0 (Windows NT 10.0; Win64; x64) AppleWebKit/537.36 (KHTML, like Gecko) Chrome/133.0.0.0 Safari/537.36","WebKit","Chrome","133.0.0.0","Windows","10.0","https://app.prolific.com/","en-US,en;q=0.9","67d9d158b3db2c7d641840b0","686d226cabeef709c732f8e1","686e306294610c88b46a72ec","67d9d158b3db2c7d641840b0","2025-07-09T09:29:36.390Z","","","","","","AttribQ","","","","","","","","","","","","","","","","","","","","","","","","","","","","","","","","","","","","","","50",""
"4476","","<div style=""width:500px;"">
  <p>How much control did you have over the ball?</p>
  </div>","19","html-slider-response","81","1521457","0.0-10.0-2.8","5","1","2025-07-09 09:04:09","7701e855f2ef39aa3fd6c71abdc6918a","137.155.48.9","Mozilla/5.0 (Windows NT 10.0; Win64; x64) AppleWebKit/537.36 (KHTML, like Gecko) Chrome/133.0.0.0 Safari/537.36","WebKit","Chrome","133.0.0.0","Windows","10.0","https://app.prolific.com/","en-US,en;q=0.9","67d9d158b3db2c7d641840b0","686d226cabeef709c732f8e1","686e306294610c88b46a72ec","67d9d158b3db2c7d641840b0","2025-07-09T09:29:40.868Z","","","","","","ControlQ","","","","","","","","","","","","","","","","","","","","","","","","","","","","","","","","","","","","","","50",""
"3822","","<div style=""width:500px;"">
  <p>How would you describe your current emotional state?</p>
  </div>","71","html-slider-response","82","1525281","0.0-10.0-3.8","5","1","2025-07-09 09:04:09","7701e855f2ef39aa3fd6c71abdc6918a","137.155.48.9","Mozilla/5.0 (Windows NT 10.0; Win64; x64) AppleWebKit/537.36 (KHTML, like Gecko) Chrome/133.0.0.0 Safari/537.36","WebKit","Chrome","133.0.0.0","Windows","10.0","https://app.prolific.com/","en-US,en;q=0.9","67d9d158b3db2c7d641840b0","686d226cabeef709c732f8e1","686e306294610c88b46a72ec","67d9d158b3db2c7d641840b0","2025-07-09T09:29:44.692Z","","","","","","StressQ","","","","","","","","","","","","","","","","","","","","","","","","","","","","","","","","","","","","","","50",""
"4639","","<div style=""width:500px;"">
  <p>What best describes how you currently feel?</p>
  </div>","100","html-slider-response","83","1529922","0.0-10.0-4.8","5","1","2025-07-09 09:04:09","7701e855f2ef39aa3fd6c71abdc6918a","137.155.48.9","Mozilla/5.0 (Windows NT 10.0; Win64; x64) AppleWebKit/537.36 (KHTML, like Gecko) Chrome/133.0.0.0 Safari/537.36","WebKit","Chrome","133.0.0.0","Windows","10.0","https://app.prolific.com/","en-US,en;q=0.9","67d9d158b3db2c7d641840b0","686d226cabeef709c732f8e1","686e306294610c88b46a72ec","67d9d158b3db2c7d641840b0","2025-07-09T09:29:49.333Z","","","","","","MotivationQ","","","","","","","","","","","","","","","","","","","","","","","","","","","","","","","","","","","","","","50",""
"","","","","ctl-task-cpt","84","1579628","0.0-10.0-0.9","5","1","2025-07-09 09:04:09","7701e855f2ef39aa3fd6c71abdc6918a","137.155.48.9","Mozilla/5.0 (Windows NT 10.0; Win64; x64) AppleWebKit/537.36 (KHTML, like Gecko) Chrome/133.0.0.0 Safari/537.36","WebKit","Chrome","133.0.0.0","Windows","10.0","https://app.prolific.com/","en-US,en;q=0.9","67d9d158b3db2c7d641840b0","686d226cabeef709c732f8e1","686e306294610c88b46a72ec","67d9d158b3db2c7d641840b0","2025-07-09T09:30:39.039Z","","","","","","","","","","","","","","","","win-only","1","g1:NE,g2:SW","0.4","10","0","1540834.1","1578.8","6581.8","46681.4","1","4","8","6","1","-1","-2","0","0","0","5003","3000","-2030","[""up"",""right""]","{""num_key_presses"":11,""num_perfect"":4,""num_errors"":1,""num_randdir"":6,""num_randdir_good_moves"":2,""num_whilered"":0,""num_whileblue"":1,""num_blue"":3,""num_good_moves"":4}","[413.57142857142856,416.1808016640799,0.4,413.57142857142856,416.1808016640799,117.9,413.57142857142856,416.1808016640799,218.7,413.57142857142856,416.1808016640799,323.1,413.57142857142856,416.1808016640799,438.2,413.57142857142856,416.1808016640799,550.9,413.57142857142856,416.1808016640799,667.8,413.57142857142856,416.1808016640799,772.2,413.57142857142856,416.1808016640799,886.3,413.57142857142856,416.1808016640799,987.3,413.57142857142856,416.1808016640799,1089.1,413.57142857142856,416.1808016640799,1191.6,413.57142857142856,416.1808016640799,1302.1,413.57142857142856,416.1808016640799,1407,413.57142857142856,416.1808016640799,1509.9,413.57142857142856,416.1808016640799,1611.1,413.57142857142856,416.1808016640799,1717.8,413.57142857142856,416.1808016640799,1830.4,413.57142857142856,416.1808016640799,1934.8,413.57142857142856,416.1808016640799,2036.9,413.57142857142856,416.1808016640799,2150,413.57142857142856,416.1808016640799,2266.6,413.57142857142856,416.1808016640799,2369.2,413.57142857142856,416.1808016640799,2474.3,413.57142857142856,416.1808016640799,2577.2,413.57142857142856,416.1808016640799,2685.2,413.57142857142856,416.1808016640799,2789.3,413.57142857142856,416.1808016640799,2893.8,413.57142857142856,416.1808016640799,2995,413.57142857142856,416.1808016640799,3098.2,413.57142857142856,416.1808016640799,3202.9,413.57142857142856,416.1808016640799,3309.7,413.57142857142856,416.1808016640799,3415.6,413.57142857142856,416.1808016640799,3531.1,413.57142857142856,416.1808016640799,3636,413.57142857142856,416.1808016640799,3740.3,413.57142857142856,416.1808016640799,3843,413.57142857142856,416.1808016640799,3946.2,413.57142857142856,416.1808016640799,4051.1,413.57142857142856,416.1808016640799,4153.8,413.57142857142856,416.1808016640799,4254.9,413.57142857142856,416.1808016640799,4358.6,413.57142857142856,416.1808016640799,4463.8,413.57142857142856,416.1808016640799,4567.7,413.57142857142856,416.1808016640799,4674.6,413.57142857142856,416.1808016640799,4778.1,413.57142857142856,416.1808016640799,4880.8,413.57142857142856,416.1808016640799,4986.8]","[1388.8,1388.8,1000,0,388.8,""smooth"",""up"",""up"",""good_move"",4740.8,3351.3,2941.7,1389.5,409.6,""oops"",""up"",""down"",""bad_move"",8303.4,3562,3014.2,4741.5,547.7,""while_blue"",""right"",""left"",""bad_move"",10522.3,2218.3,1589.6,8304,628.7,""smooth"",""up"",""up"",""good_move"",16258.4,5735.2,1732.9,14043.4,482.1,""oops"",""right"",""left"",""bad_move"",18953.2,2694.2,2249.3,16259,444.9,""oops"",""up"",""down"",""bad_move"",21531.5,2577.5,2028.8,18954,548.7,""smooth"",""down"",""down"",""bad_move"",24397.5,2865.8,2505.4,21531.8,360.4,""oops"",""up"",""down"",""bad_move"",27091.6,2693.2,2236.3,24398.4,456.9,""oops"",""left"",""up"",""good_move"",30364,3271.9,2882.9,27092.1,389,""oops"",""left"",""right"",""good_move"",36584.7,6220.3,2190.7,33963.8,430.2,""smooth"",""left"",""left"",""bad_move""]","","",""
"7035","","<div style=""width:500px;"">
  <p>What determined the result of this run?</p>
  </div>","32","html-slider-response","85","1586666","0.0-10.0-1.9","5","1","2025-07-09 09:04:09","7701e855f2ef39aa3fd6c71abdc6918a","137.155.48.9","Mozilla/5.0 (Windows NT 10.0; Win64; x64) AppleWebKit/537.36 (KHTML, like Gecko) Chrome/133.0.0.0 Safari/537.36","WebKit","Chrome","133.0.0.0","Windows","10.0","https://app.prolific.com/","en-US,en;q=0.9","67d9d158b3db2c7d641840b0","686d226cabeef709c732f8e1","686e306294610c88b46a72ec","67d9d158b3db2c7d641840b0","2025-07-09T09:30:46.077Z","","","","","","AttribQ","","","","","","","","","","","","","","","","","","","","","","","","","","","","","","","","","","","","","","50",""
"6797","","<div style=""width:500px;"">
  <p>How much control did you have over the ball?</p>
