"rt","response_timestamp","stimulus","response","trial_type","trial_index","time_elapsed","internal_node_id","run_id","condition","recorded_at","source_code_version","ip","user_agent","device","browser","browser_version","platform","platform_version","referer","accept_language","PROLIFIC_PID","STUDY_ID","SESSION_ID","prolific_id","realtime","view_history","question_order","consent","success","question_id","eventType","responses","item_order","radio_event_ids","radio_event_times","key_event_times","mouse_event_times","straightlining","zigzagging","honeypot","which_type","canvas_config","goals_layout","control_level","trial_number","tutorial_trial_number","trial_start_time","phase1_start_time","phase2_start_time","phase3_start_time","goal_1_value","goal_1_distance","goal_2_value","goal_2_distance","goal_selected","outcome","outcome_total","participant_final_score","participant_initial_score","participant_final_score_prop","goal_choice_rt","allocated_time","allocated_time_remaining","goal_direction","counts","mouse_movements","key_presses","correct","slider_start","sub_question"
"19433","1752052098274","<p style='font-size:40px;line-height:1.25'><strong>Welcome to the experiment!</strong></p><p style='font-size:1.1em;line-height:1.25'>Thank you for your interest in our experiment! Before you begin, it is important that we obtain your informed consent to participate in the study.</p><p style='font-size:1.1em;line-height:1.25'>On the next screen will be an <strong>information sheet</strong> for you to read. To participate in the study we need you to read this information sheet and the following consent form carefully. If you agree with all the statements, please click the <strong>I agree</strong> button.</p><p style='font-size:1.1em;line-height:1.25'>Press <strong>Next</strong> to read the information sheet.</p>","0","custom-html-button-response","0","19435","0.0-0.0","100","1","2025-07-09 09:07:56","7701e855f2ef39aa3fd6c71abdc6918a","102.135.144.119","Mozilla/5.0 (Windows NT 10.0; Win64; x64) AppleWebKit/537.36 (KHTML, like Gecko) Chrome/138.0.0.0 Safari/537.36","WebKit","Chrome","138.0.0.0","Windows","10.0","https://app.prolific.com/","en-US,en;q=0.9","669f431d69d93f9fdb0d119d","686d226cabeef709c732f8e1","686e3132843cdf712f5f4bdd","669f431d69d93f9fdb0d119d","2025-07-09T09:08:18.275Z","","","","","","","","","","","","","","","","","","","","","","","","","","","","","","","","","","","","","","","","","","","","",""
"53256","","","","instructions","1","72692","0.0-1.0","100","1","2025-07-09 09:07:56","7701e855f2ef39aa3fd6c71abdc6918a","102.135.144.119","Mozilla/5.0 (Windows NT 10.0; Win64; x64) AppleWebKit/537.36 (KHTML, like Gecko) Chrome/138.0.0.0 Safari/537.36","WebKit","Chrome","138.0.0.0","Windows","10.0","https://app.prolific.com/","en-US,en;q=0.9","669f431d69d93f9fdb0d119d","686d226cabeef709c732f8e1","686e3132843cdf712f5f4bdd","669f431d69d93f9fdb0d119d","","[{""page_index"":0,""viewing_time"":15182},{""page_index"":1,""viewing_time"":38072}]","","","","","","","","","","","","","","","","","","","","","","","","","","","","","","","","","","","","","","","","","","","",""
"4981","","","{""Q0"":"""",""Q1"":"""",""Q2"":"""",""Q3"":"""",""Q4"":"""",""Q5"":"""",""Q6"":""I agree""}","survey-multi-choice","2","77675","0.0-2.0","100","1","2025-07-09 09:07:56","7701e855f2ef39aa3fd6c71abdc6918a","102.135.144.119","Mozilla/5.0 (Windows NT 10.0; Win64; x64) AppleWebKit/537.36 (KHTML, like Gecko) Chrome/138.0.0.0 Safari/537.36","WebKit","Chrome","138.0.0.0","Windows","10.0","https://app.prolific.com/","en-US,en;q=0.9","669f431d69d93f9fdb0d119d","686d226cabeef709c732f8e1","686e3132843cdf712f5f4bdd","669f431d69d93f9fdb0d119d","","","[0,1,2,3,4,5,6]","true","","","","","","","","","","","","","","","","","","","","","","","","","","","","","","","","","","","","","","","","","",""
"8126","","","","fullscreen","3","86811","0.0-4.0","100","1","2025-07-09 09:07:56","7701e855f2ef39aa3fd6c71abdc6918a","102.135.144.119","Mozilla/5.0 (Windows NT 10.0; Win64; x64) AppleWebKit/537.36 (KHTML, like Gecko) Chrome/138.0.0.0 Safari/537.36","WebKit","Chrome","138.0.0.0","Windows","10.0","https://app.prolific.com/","en-US,en;q=0.9","669f431d69d93f9fdb0d119d","686d226cabeef709c732f8e1","686e3132843cdf712f5f4bdd","669f431d69d93f9fdb0d119d","","","","","true","","","","","","","","","","","","","","","","","","","","","","","","","","","","","","","","","","","","","","","","",""
"6422","1752052172074"," <p style='font-size:1.1em;line-height:1.25'>Thank you for completing the consent form and closing all other tabs.</p><p style='font-size:1.1em;line-height:1.25'>We will now invite you to fill in some demographic information and questionnaires, before starting the game.<br>This will take about 5 minutes.<br></p><p style='font-size:1.1em;line-height:1.25'>Press the <strong>Next</strong> button to continue.</p>","0","custom-html-button-response","4","93235","0.0-5.0","100","1","2025-07-09 09:07:56","7701e855f2ef39aa3fd6c71abdc6918a","102.135.144.119","Mozilla/5.0 (Windows NT 10.0; Win64; x64) AppleWebKit/537.36 (KHTML, like Gecko) Chrome/138.0.0.0 Safari/537.36","WebKit","Chrome","138.0.0.0","Windows","10.0","https://app.prolific.com/","en-US,en;q=0.9","669f431d69d93f9fdb0d119d","686d226cabeef709c732f8e1","686e3132843cdf712f5f4bdd","669f431d69d93f9fdb0d119d","2025-07-09T09:09:32.075Z","","","","","","","","","","","","","","","","","","","","","","","","","","","","","","","","","","","","","","","","","","","","",""
"5180","","","{""age"":""35""}","survey-text","5","98420","0.0-6.0-0.0","100","1","2025-07-09 09:07:56","7701e855f2ef39aa3fd6c71abdc6918a","102.135.144.119","Mozilla/5.0 (Windows NT 10.0; Win64; x64) AppleWebKit/537.36 (KHTML, like Gecko) Chrome/138.0.0.0 Safari/537.36","WebKit","Chrome","138.0.0.0","Windows","10.0","https://app.prolific.com/","en-US,en;q=0.9","669f431d69d93f9fdb0d119d","686d226cabeef709c732f8e1","686e3132843cdf712f5f4bdd","669f431d69d93f9fdb0d119d","","","","","","0","demographics","","","","","","","","","","","","","","","","","","","","","","","","","","","","","","","","","","","","","","",""
"2670","","","{""gender_identity"":""female/woman""}","survey-multi-choice","6","101091","0.0-6.0-1.0","100","1","2025-07-09 09:07:56","7701e855f2ef39aa3fd6c71abdc6918a","102.135.144.119","Mozilla/5.0 (Windows NT 10.0; Win64; x64) AppleWebKit/537.36 (KHTML, like Gecko) Chrome/138.0.0.0 Safari/537.36","WebKit","Chrome","138.0.0.0","Windows","10.0","https://app.prolific.com/","en-US,en;q=0.9","669f431d69d93f9fdb0d119d","686d226cabeef709c732f8e1","686e3132843cdf712f5f4bdd","669f431d69d93f9fdb0d119d","","","[0]","","","1","demographics","","","","","","","","","","","","","","","","","","","","","","","","","","","","","","","","","","","","","","",""
"4942","","","{""assigned_sex"":""female""}","survey-multi-choice","7","106035","0.0-6.0-2.0","100","1","2025-07-09 09:07:56","7701e855f2ef39aa3fd6c71abdc6918a","102.135.144.119","Mozilla/5.0 (Windows NT 10.0; Win64; x64) AppleWebKit/537.36 (KHTML, like Gecko) Chrome/138.0.0.0 Safari/537.36","WebKit","Chrome","138.0.0.0","Windows","10.0","https://app.prolific.com/","en-US,en;q=0.9","669f431d69d93f9fdb0d119d","686d226cabeef709c732f8e1","686e3132843cdf712f5f4bdd","669f431d69d93f9fdb0d119d","","","[0]","","","2","demographics","","","","","","","","","","","","","","","","","","","","","","","","","","","","","","","","","","","","","","",""
"4567","","","{""menstrual_cycle"":""Yes""}","survey-multi-choice","8","110603","0.0-6.0-3.0","100","1","2025-07-09 09:07:56","7701e855f2ef39aa3fd6c71abdc6918a","102.135.144.119","Mozilla/5.0 (Windows NT 10.0; Win64; x64) AppleWebKit/537.36 (KHTML, like Gecko) Chrome/138.0.0.0 Safari/537.36","WebKit","Chrome","138.0.0.0","Windows","10.0","https://app.prolific.com/","en-US,en;q=0.9","669f431d69d93f9fdb0d119d","686d226cabeef709c732f8e1","686e3132843cdf712f5f4bdd","669f431d69d93f9fdb0d119d","","","[0]","","","4","demographics","","","","","","","","","","","","","","","","","","","","","","","","","","","","","","","","","","","","","","",""
"8647","","","{""education"":""Bachelor's Degree (e.g., BA)""}","survey-multi-choice","9","119251","0.0-6.0-4.0","100","1","2025-07-09 09:07:56","7701e855f2ef39aa3fd6c71abdc6918a","102.135.144.119","Mozilla/5.0 (Windows NT 10.0; Win64; x64) AppleWebKit/537.36 (KHTML, like Gecko) Chrome/138.0.0.0 Safari/537.36","WebKit","Chrome","138.0.0.0","Windows","10.0","https://app.prolific.com/","en-US,en;q=0.9","669f431d69d93f9fdb0d119d","686d226cabeef709c732f8e1","686e3132843cdf712f5f4bdd","669f431d69d93f9fdb0d119d","","","[0]","","","5","demographics","","","","","","","","","","","","","","","","","","","","","","","","","","","","","","","","","","","","","","",""
"14215","","","{""education"":""Higher National Certificate""}","survey-multi-choice","10","133467","0.0-6.0-5.0","100","1","2025-07-09 09:07:56","7701e855f2ef39aa3fd6c71abdc6918a","102.135.144.119","Mozilla/5.0 (Windows NT 10.0; Win64; x64) AppleWebKit/537.36 (KHTML, like Gecko) Chrome/138.0.0.0 Safari/537.36","WebKit","Chrome","138.0.0.0","Windows","10.0","https://app.prolific.com/","en-US,en;q=0.9","669f431d69d93f9fdb0d119d","686d226cabeef709c732f8e1","686e3132843cdf712f5f4bdd","669f431d69d93f9fdb0d119d","2025-07-09T09:10:12.307Z","","[0]","","","6","demographics","","","","","","","","","","","","","","","","","","","","","","","","","","","","","","","","","","","","","","",""
"20844","","","{""mental_health_condition"":""NO"",""mental_health_treatment"":""NO"",""psychiatric_medication"":""""}","survey-text","11","154324","0.0-7.0-0.0","100","1","2025-07-09 09:07:56","7701e855f2ef39aa3fd6c71abdc6918a","102.135.144.119","Mozilla/5.0 (Windows NT 10.0; Win64; x64) AppleWebKit/537.36 (KHTML, like Gecko) Chrome/138.0.0.0 Safari/537.36","WebKit","Chrome","138.0.0.0","Windows","10.0","https://app.prolific.com/","en-US,en;q=0.9","669f431d69d93f9fdb0d119d","686d226cabeef709c732f8e1","686e3132843cdf712f5f4bdd","669f431d69d93f9fdb0d119d","2025-07-09T09:10:33.164Z","","","","","1","mental_health","","","","","","","","","","","","","","","","","","","","","","","","","","","","","","","","","","","","","","",""
"17628","","","{""depression_history"":[""Yes""]}","survey-multi-select","12","171955","0.0-7.0-1.0","100","1","2025-07-09 09:07:56","7701e855f2ef39aa3fd6c71abdc6918a","102.135.144.119","Mozilla/5.0 (Windows NT 10.0; Win64; x64) AppleWebKit/537.36 (KHTML, like Gecko) Chrome/138.0.0.0 Safari/537.36","WebKit","Chrome","138.0.0.0","Windows","10.0","https://app.prolific.com/","en-US,en;q=0.9","669f431d69d93f9fdb0d119d","686d226cabeef709c732f8e1","686e3132843cdf712f5f4bdd","669f431d69d93f9fdb0d119d","","","[0]","","","","mental_health","","","","","","","","","","","","","","","","","","","","","","","","","","","","","","","","","","","","","","",""
"10998","","","{""depression_episodes"":""3-5"",""depression_recent"":""Currently experiencing an episode""}","survey-multi-choice","13","182955","0.0-7.0-2.0-0.0","100","1","2025-07-09 09:07:56","7701e855f2ef39aa3fd6c71abdc6918a","102.135.144.119","Mozilla/5.0 (Windows NT 10.0; Win64; x64) AppleWebKit/537.36 (KHTML, like Gecko) Chrome/138.0.0.0 Safari/537.36","WebKit","Chrome","138.0.0.0","Windows","10.0","https://app.prolific.com/","en-US,en;q=0.9","669f431d69d93f9fdb0d119d","686d226cabeef709c732f8e1","686e3132843cdf712f5f4bdd","669f431d69d93f9fdb0d119d","2025-07-09T09:11:01.795Z","","[0,1]","","","3","mental_health","","","","","","","","","","","","","","","","","","","","","","","","","","","","","","","","","","","","","","",""
"75078.89999997616","","","","survey-template","14","258037","0.0-7.0-3.0","100","1","2025-07-09 09:07:56","7701e855f2ef39aa3fd6c71abdc6918a","102.135.144.119","Mozilla/5.0 (Windows NT 10.0; Win64; x64) AppleWebKit/537.36 (KHTML, like Gecko) Chrome/138.0.0.0 Safari/537.36","WebKit","Chrome","138.0.0.0","Windows","10.0","https://app.prolific.com/","en-US,en;q=0.9","669f431d69d93f9fdb0d119d","686d226cabeef709c732f8e1","686e3132843cdf712f5f4bdd","669f431d69d93f9fdb0d119d","2025-07-09T09:12:16.877Z","","","","","","ius","{""Q01"":""3"",""Q02"":""4"",""Q03"":""2"",""Q04"":""3"",""Q05"":""3"",""Q06"":""2"",""Q07"":""1"",""Q08"":""0"",""Q09"":""3"",""Q10"":""2"",""Q11"":""3"",""Q12"":""3"",""Q13"":""4""}","[0,1,2,3,4,5,6,7,8,9,10,11,12]","[""Q01"",""Q02"",""Q03"",""Q04"",""Q05"",""Q06"",""Q07"",""Q08"",""Q09"",""Q10"",""Q11"",""Q12"",""Q13""]","[14541.399999976158,21333.299999952316,27589.299999952316,33709.199999928474,36877.39999997616,40573.299999952316,47325.299999952316,51717.199999928474,59245.199999928474,63389.199999928474,67373.19999992847,70197.29999995232,74365.19999992847]","[]","[14541.399999976158,21333.299999952316,27589.299999952316,33709.199999928474,36877.39999997616,40573.299999952316,47325.299999952316,51717.199999928474,59245.199999928474,63389.199999928474,67373.19999992847,70197.29999995232,74365.19999992847,75077.29999995232]","0.46153846153846156","0.6666666666666666","0","","","","","","","","","","","","","","","","","","","","","","","","","","","","","",""
"2188","1752052339066","<p style='font-size:1.1em;line-height:1.25'>In the following, we will ask you a few questions relating to your experiences over the past month.<br></p><p style='font-size:1.1em;line-height:1.25'>Press the <strong>Next</strong> button to continue.</p>","0","custom-html-button-response","15","260226","0.0-7.0-4.0","100","1","2025-07-09 09:07:56","7701e855f2ef39aa3fd6c71abdc6918a","102.135.144.119","Mozilla/5.0 (Windows NT 10.0; Win64; x64) AppleWebKit/537.36 (KHTML, like Gecko) Chrome/138.0.0.0 Safari/537.36","WebKit","Chrome","138.0.0.0","Windows","10.0","https://app.prolific.com/","en-US,en;q=0.9","669f431d69d93f9fdb0d119d","686d226cabeef709c732f8e1","686e3132843cdf712f5f4bdd","669f431d69d93f9fdb0d119d","2025-07-09T09:12:19.066Z","","","","","","","","","","","","","","","","","","","","","","","","","","","","","","","","","","","","","","","","","","","","",""
"137999.60000002384","","","","survey-template","16","398228","0.0-7.0-5.0","100","1","2025-07-09 09:07:56","7701e855f2ef39aa3fd6c71abdc6918a","102.135.144.119","Mozilla/5.0 (Windows NT 10.0; Win64; x64) AppleWebKit/537.36 (KHTML, like Gecko) Chrome/138.0.0.0 Safari/537.36","WebKit","Chrome","138.0.0.0","Windows","10.0","https://app.prolific.com/","en-US,en;q=0.9","669f431d69d93f9fdb0d119d","686d226cabeef709c732f8e1","686e3132843cdf712f5f4bdd","669f431d69d93f9fdb0d119d","2025-07-09T09:14:37.068Z","","","","","","pss","{""Q01"":""4"",""Q02"":""3"",""Q03"":""4"",""Q04"":""1"",""Q05"":""3"",""Q06"":""3"",""Q07"":""1"",""Q08"":""2"",""Q09"":""4"",""Q10"":""4""}","[0,1,2,3,4,5,6,7,8,9]","[""Q01"",""Q02"",""Q03"",""Q04"",""Q05"",""Q06"",""Q07"",""Q08"",""Q09"",""Q10""]","[25334.700000047684,32454.5,38454.700000047684,47950.5,62734.5,72974.5,86262.40000009537,91334.5,100838.5,137438.40000009537]","[]","[0,12462.5,14430.600000023842,14798.5,15078.600000023842,25334.700000047684,32454.5,38454.700000047684,47950.5,62734.5,72974.5,86262.40000009537,91334.5,100838.5,137438.40000009537,137998.40000009537]","0.4","0.4444444444444444","0","","","","","","","","","","","","","","","","","","","","","","","","","","","","","",""
"1268","1752052478338","<p style='font-size:1.1em;line-height:1.25'>Thank you for your answers! Now we will ask you a few more questions relating to your feelings in the last 24 hours.<br></p><p style='font-size:1.1em;line-height:1.25'>Press the <strong>Next</strong> button to continue.</p>","0","custom-html-button-response","17","399498","0.0-7.0-6.0","100","1","2025-07-09 09:07:56","7701e855f2ef39aa3fd6c71abdc6918a","102.135.144.119","Mozilla/5.0 (Windows NT 10.0; Win64; x64) AppleWebKit/537.36 (KHTML, like Gecko) Chrome/138.0.0.0 Safari/537.36","WebKit","Chrome","138.0.0.0","Windows","10.0","https://app.prolific.com/","en-US,en;q=0.9","669f431d69d93f9fdb0d119d","686d226cabeef709c732f8e1","686e3132843cdf712f5f4bdd","669f431d69d93f9fdb0d119d","2025-07-09T09:14:38.338Z","","","","","","","","","","","","","","","","","","","","","","","","","","","","","","","","","","","","","","","","","","","","",""
"146152.5","","","","survey-template","18","545653","0.0-7.0-7.0","100","1","2025-07-09 09:07:56","7701e855f2ef39aa3fd6c71abdc6918a","102.135.144.119","Mozilla/5.0 (Windows NT 10.0; Win64; x64) AppleWebKit/537.36 (KHTML, like Gecko) Chrome/138.0.0.0 Safari/537.36","WebKit","Chrome","138.0.0.0","Windows","10.0","https://app.prolific.com/","en-US,en;q=0.9","669f431d69d93f9fdb0d119d","686d226cabeef709c732f8e1","686e3132843cdf712f5f4bdd","669f431d69d93f9fdb0d119d","2025-07-09T09:17:04.494Z","","","","","","drsp","{""Q01"":""3"",""Q02"":""0"",""Q03"":""4"",""Q04"":""3"",""Q05"":""0"",""Q06"":""5"",""Q07"":""4"",""Q08"":""1"",""Q09"":""2"",""Q10"":""3"",""Q11"":""1"",""Q12"":""3"",""Q13"":""3"",""Q14"":""4"",""Q15"":""1"",""Q16"":""1"",""Q17"":""0"",""Q18"":""0"",""Q19"":""1"",""Q20"":""1"",""Q21"":""2""}","[0,1,2,3,4,5,6,7,8,9,10,11,12,13,14,15,16,17,18,19,20]","[""Q01"",""Q02"",""Q03"",""Q04"",""Q05"",""Q06"",""Q07"",""Q08"",""Q08"",""Q09"",""Q10"",""Q11"",""Q12"",""Q13"",""Q14"",""Q15"",""Q16"",""Q17"",""Q18"",""Q19"",""Q20"",""Q21""]","[6550.299999952316,11022,14438.299999952316,18398.299999952316,20622.199999928474,26038.199999928474,29766.100000023842,33990.199999928474,36430.10000002384,96934,107238.19999992847,110558.10000002384,114685.79999995232,116774.10000002384,119613.89999997616,123918,125861.89999997616,127381.89999997616,130997.89999997616,136742,139166,145526]","[]","[0.10000002384185791,6550.299999952316,11022,14438.299999952316,18398.299999952316,20622.199999928474,26038.199999928474,29766.100000023842,31846.100000023842,33990.199999928474,36430.10000002384,96934,104502,107238.19999992847,110558.10000002384,114685.79999995232,116774.10000002384,119613.89999997616,123918,125861.89999997616,127381.89999997616,130997.89999997616,136742,139166,145526,146150]","0.2857142857142857","0.45","0","","","","","","","","","","","","","","","","","","","","","","","","","","","","","",""
"26507.100000023842","","","","survey-template","19","572163","0.0-7.0-8.0","100","1","2025-07-09 09:07:56","7701e855f2ef39aa3fd6c71abdc6918a","102.135.144.119","Mozilla/5.0 (Windows NT 10.0; Win64; x64) AppleWebKit/537.36 (KHTML, like Gecko) Chrome/138.0.0.0 Safari/537.36","WebKit","Chrome","138.0.0.0","Windows","10.0","https://app.prolific.com/","en-US,en;q=0.9","669f431d69d93f9fdb0d119d","686d226cabeef709c732f8e1","686e3132843cdf712f5f4bdd","669f431d69d93f9fdb0d119d","2025-07-09T09:17:31.003Z","","","","","","stress","{""Q01"":""2"",""Q02"":""4"",""Q03"":""2""}","[0,1,2]","[""Q01"",""Q02"",""Q03""]","[12338.5,16826.399999976158,25738.799999952316]","[]","[12338.5,16826.399999976158,25738.799999952316,26506.5]","0.6666666666666666","1","0","","","","","","","","","","","","","","","","","","","","","","","","","","","","","",""
"32790","","","","instructions","20","604954","0.0-8.0-0.0","100","1","2025-07-09 09:07:56","7701e855f2ef39aa3fd6c71abdc6918a","102.135.144.119","Mozilla/5.0 (Windows NT 10.0; Win64; x64) AppleWebKit/537.36 (KHTML, like Gecko) Chrome/138.0.0.0 Safari/537.36","WebKit","Chrome","138.0.0.0","Windows","10.0","https://app.prolific.com/","en-US,en;q=0.9","669f431d69d93f9fdb0d119d","686d226cabeef709c732f8e1","686e3132843cdf712f5f4bdd","669f431d69d93f9fdb0d119d","","[{""page_index"":0,""viewing_time"":19462},{""page_index"":1,""viewing_time"":8088},{""page_index"":2,""viewing_time"":3664},{""page_index"":3,""viewing_time"":1576}]","","","","","","","","","","","","","","","","","","","","","","","","","","","","","","","","","","","","","","","","","","","",""
"","","","","ctl-task-cpt","21","623217","0.0-8.0-1.0","100","1","2025-07-09 09:07:56","7701e855f2ef39aa3fd6c71abdc6918a","102.135.144.119","Mozilla/5.0 (Windows NT 10.0; Win64; x64) AppleWebKit/537.36 (KHTML, like Gecko) Chrome/138.0.0.0 Safari/537.36","WebKit","Chrome","138.0.0.0","Windows","10.0","https://app.prolific.com/","en-US,en;q=0.9","669f431d69d93f9fdb0d119d","686d226cabeef709c732f8e1","686e3132843cdf712f5f4bdd","669f431d69d93f9fdb0d119d","","","","","","","","","","","","","","","","","win-only","0","g1:NW,g2:SE","1","0","1","607406.4","6247","10252.6","15258.3","2","4","4","6","2","-4","-4","0","0","0","3727.3","4000","-3005","[""down"",""right""]","{""num_key_presses"":0,""num_perfect"":0,""num_errors"":0,""num_randdir"":0,""num_randdir_good_moves"":0,""num_whilered"":0,""num_whileblue"":0,""num_blue"":0,""num_good_moves"":0}","[283.03973214285713,285.44598214285713,0.6,283.03973214285713,285.44598214285713,104.3,283.03973214285713,285.44598214285713,204.9,283.03973214285713,285.44598214285713,309.2,283.03973214285713,285.44598214285713,413.8,283.03973214285713,285.44598214285713,513.8,283.03973214285713,285.44598214285713,613.8,283.03973214285713,285.44598214285713,718.4,283.03973214285713,285.44598214285713,818.5,283.03973214285713,285.44598214285713,918.9,283.03973214285713,285.44598214285713,1019.3,283.03973214285713,285.44598214285713,1124.9,283.03973214285713,285.44598214285713,1228.5,283.03973214285713,285.44598214285713,1328.8,283.03973214285713,285.44598214285713,1433.6,283.03973214285713,285.44598214285713,1534.2,283.03973214285713,285.44598214285713,1639.2,283.03973214285713,285.44598214285713,1743.6,283.03973214285713,285.44598214285713,1843.8,283.03973214285713,285.44598214285713,1948.9,283.03973214285713,285.44598214285713,2049.1,285.03973214285713,296.44598214285713,2155.1,289.03973214285713,306.44598214285713,2255.2,335.03973214285713,357.44598214285713,2358.4,351.03973214285713,395.44598214285713,2460.3,280.03973214285713,403.44598214285713,2563.4,208.03973214285713,432.44598214285713,2663.7,217.03973214285713,440.44598214285713,2768.8,254.03973214285713,455.44598214285713,2873.5,286.03973214285713,455.44598214285713,2974.3,297.03973214285713,452.44598214285713,3079,330.03973214285713,450.44598214285713,3184.2,343.03973214285713,449.44598214285713,3289.4,355.03973214285713,441.44598214285713,3394,444.03973214285713,483.44598214285713,3494.3,516.0397321428571,529.4459821428571,3600.6,539.0397321428571,547.4459821428571,3704.9,539.0397321428571,547.4459821428571,3806,539.0397321428571,546.4459821428571,3909]","[]","","",""
"4040","","","","instructions","22","627258","0.0-8.0-2.0","100","1","2025-07-09 09:07:56","7701e855f2ef39aa3fd6c71abdc6918a","102.135.144.119","Mozilla/5.0 (Windows NT 10.0; Win64; x64) AppleWebKit/537.36 (KHTML, like Gecko) Chrome/138.0.0.0 Safari/537.36","WebKit","Chrome","138.0.0.0","Windows","10.0","https://app.prolific.com/","en-US,en;q=0.9","669f431d69d93f9fdb0d119d","686d226cabeef709c732f8e1","686e3132843cdf712f5f4bdd","669f431d69d93f9fdb0d119d","","[{""page_index"":0,""viewing_time"":4040}]","","","","","","","","","","","","","","","","","","","","","","","","","","","","","","","","","","","","","","","","","","","",""
"","","","","ctl-task-cpt","23","640713","0.0-8.0-3.0","100","1","2025-07-09 09:07:56","7701e855f2ef39aa3fd6c71abdc6918a","102.135.144.119","Mozilla/5.0 (Windows NT 10.0; Win64; x64) AppleWebKit/537.36 (KHTML, like Gecko) Chrome/138.0.0.0 Safari/537.36","WebKit","Chrome","138.0.0.0","Windows","10.0","https://app.prolific.com/","en-US,en;q=0.9","669f431d69d93f9fdb0d119d","686d226cabeef709c732f8e1","686e3132843cdf712f5f4bdd","669f431d69d93f9fdb0d119d","","","","","","","","","","","","","","","","","win-only","0","g1:NW,g2:SE","0.35","0","3","629709.4","1422.9","5427.4","10436.8","2","4","8","6","1","-2","-2","0","0","0","1410.6","4000","-3015","[""left"",""up""]","{""num_key_presses"":0,""num_perfect"":0,""num_errors"":0,""num_randdir"":0,""num_randdir_good_moves"":0,""num_whilered"":0,""num_whileblue"":0,""num_blue"":0,""num_good_moves"":0}","[278.03973214285713,287.44598214285713,0.5,278.03973214285713,287.44598214285713,102.8,278.03973214285713,287.44598214285713,202.9,278.03973214285713,287.44598214285713,307.9,278.03973214285713,287.44598214285713,407.9,278.03973214285713,287.44598214285713,509.6,278.03973214285713,287.44598214285713,614.1,278.03973214285713,287.44598214285713,717.5,266.03973214285713,281.44598214285713,818.3,199.03973214285713,213.44598214285713,918.3,99.03973214285713,117.44598214285713,1024,93.03973214285713,98.44598214285713,1128.4,78.03973214285713,64.44598214285713,1234.4,76.03973214285713,62.44598214285714,1338.5,75.03973214285713,61.44598214285714,1443.6,75.03973214285713,63.44598214285714,1543.7,75.03973214285713,63.44598214285714,1643.8,74.03973214285713,65.44598214285713,1748.6,72.03973214285713,67.44598214285713,1853.1,72.03973214285713,68.44598214285713,1957.9,72.03973214285713,71.44598214285713,2058,72.03973214285713,72.44598214285713,2158.2,72.03973214285713,78.44598214285713,2264.4,101.03973214285713,131.44598214285713,2367.6,176.03973214285713,244.44598214285713,2468.3,221.03973214285713,318.44598214285713,2572.8,225.03973214285713,326.44598214285713,2673,229.03973214285713,332.44598214285713,2773.6,233.03973214285713,331.44598214285713,2874.4,233.03973214285713,331.44598214285713,2977.7,234.03973214285713,330.44598214285713,3079.8,235.03973214285713,329.44598214285713,3183.5,235.03973214285713,325.44598214285713,3284.1,236.03973214285713,322.44598214285713,3387.7,241.03973214285713,311.44598214285713,3495.3,245.03973214285713,286.44598214285713,3597.9,245.03973214285713,286.44598214285713,3703.2,245.03973214285713,286.44598214285713,3808.5,245.03973214285713,286.44598214285713,3912.7]","[]","","",""
"19081","","","","instructions","24","659794","0.0-8.0-4.0","100","1","2025-07-09 09:07:56","7701e855f2ef39aa3fd6c71abdc6918a","102.135.144.119","Mozilla/5.0 (Windows NT 10.0; Win64; x64) AppleWebKit/537.36 (KHTML, like Gecko) Chrome/138.0.0.0 Safari/537.36","WebKit","Chrome","138.0.0.0","Windows","10.0","https://app.prolific.com/","en-US,en;q=0.9","669f431d69d93f9fdb0d119d","686d226cabeef709c732f8e1","686e3132843cdf712f5f4bdd","669f431d69d93f9fdb0d119d","","[{""page_index"":0,""viewing_time"":12745},{""page_index"":1,""viewing_time"":6335}]","","","","","","","","","","","","","","","","","","","","","","","","","","","","","","","","","","","","","","","","","","","",""
"16814","","","{""green_ball"":[""Ball sometimes shakes and moves in a random direction""]}","survey-multi-select","25","676610","0.0-8.0-5.0-0.0","100","1","2025-07-09 09:07:56","7701e855f2ef39aa3fd6c71abdc6918a","102.135.144.119","Mozilla/5.0 (Windows NT 10.0; Win64; x64) AppleWebKit/537.36 (KHTML, like Gecko) Chrome/138.0.0.0 Safari/537.36","WebKit","Chrome","138.0.0.0","Windows","10.0","https://app.prolific.com/","en-US,en;q=0.9","669f431d69d93f9fdb0d119d","686d226cabeef709c732f8e1","686e3132843cdf712f5f4bdd","669f431d69d93f9fdb0d119d","","","[0]","","","","quiz","","","","","","","","","","","","","","","","","","","","","","","","","","","","","","","","","","","","","true","",""
"5135","","<p align='center'><b>CORRECT!</b> Indeed, the green ball may sometimes shake and move in a random direction.</p>","0","html-button-response","26","681746","0.0-8.0-5.0-1.0","100","1","2025-07-09 09:07:56","7701e855f2ef39aa3fd6c71abdc6918a","102.135.144.119","Mozilla/5.0 (Windows NT 10.0; Win64; x64) AppleWebKit/537.36 (KHTML, like Gecko) Chrome/138.0.0.0 Safari/537.36","WebKit","Chrome","138.0.0.0","Windows","10.0","https://app.prolific.com/","en-US,en;q=0.9","669f431d69d93f9fdb0d119d","686d226cabeef709c732f8e1","686e3132843cdf712f5f4bdd","669f431d69d93f9fdb0d119d","","","","","","","","","","","","","","","","","","","","","","","","","","","","","","","","","","","","","","","","","","","","","",""
"8446","","","{""yellow_ball"":[""Ball sometimes shakes and moves in a random direction""]}","survey-multi-select","27","690194","0.0-8.0-6.0-0.0","100","1","2025-07-09 09:07:56","7701e855f2ef39aa3fd6c71abdc6918a","102.135.144.119","Mozilla/5.0 (Windows NT 10.0; Win64; x64) AppleWebKit/537.36 (KHTML, like Gecko) Chrome/138.0.0.0 Safari/537.36","WebKit","Chrome","138.0.0.0","Windows","10.0","https://app.prolific.com/","en-US,en;q=0.9","669f431d69d93f9fdb0d119d","686d226cabeef709c732f8e1","686e3132843cdf712f5f4bdd","669f431d69d93f9fdb0d119d","","","[0]","","","","quiz","","","","","","","","","","","","","","","","","","","","","","","","","","","","","","","","","","","","","false","",""
"1318","","<p align='center'><b>INCORRECT.</b> The yellow ball never moves and you reveice a penalty if you press anyways. </p>","0","html-button-response","28","691514","0.0-8.0-6.0-1.0","100","1","2025-07-09 09:07:56","7701e855f2ef39aa3fd6c71abdc6918a","102.135.144.119","Mozilla/5.0 (Windows NT 10.0; Win64; x64) AppleWebKit/537.36 (KHTML, like Gecko) Chrome/138.0.0.0 Safari/537.36","WebKit","Chrome","138.0.0.0","Windows","10.0","https://app.prolific.com/","en-US,en;q=0.9","669f431d69d93f9fdb0d119d","686d226cabeef709c732f8e1","686e3132843cdf712f5f4bdd","669f431d69d93f9fdb0d119d","","","","","","","","","","","","","","","","","","","","","","","","","","","","","","","","","","","","","","","","","","","","","",""
"10479","","","{""yellow_ball"":[""Ball always moves in the direction I press""]}","survey-multi-select","29","701994","0.0-8.0-6.1-0.1","100","1","2025-07-09 09:07:56","7701e855f2ef39aa3fd6c71abdc6918a","102.135.144.119","Mozilla/5.0 (Windows NT 10.0; Win64; x64) AppleWebKit/537.36 (KHTML, like Gecko) Chrome/138.0.0.0 Safari/537.36","WebKit","Chrome","138.0.0.0","Windows","10.0","https://app.prolific.com/","en-US,en;q=0.9","669f431d69d93f9fdb0d119d","686d226cabeef709c732f8e1","686e3132843cdf712f5f4bdd","669f431d69d93f9fdb0d119d","","","[0]","","","","quiz","","","","","","","","","","","","","","","","","","","","","","","","","","","","","","","","","","","","","false","",""
"1071","","<p align='center'><b>INCORRECT.</b> The yellow ball never moves and you reveice a penalty if you press anyways. </p>","0","html-button-response","30","703066","0.0-8.0-6.1-1.1","100","1","2025-07-09 09:07:56","7701e855f2ef39aa3fd6c71abdc6918a","102.135.144.119","Mozilla/5.0 (Windows NT 10.0; Win64; x64) AppleWebKit/537.36 (KHTML, like Gecko) Chrome/138.0.0.0 Safari/537.36","WebKit","Chrome","138.0.0.0","Windows","10.0","https://app.prolific.com/","en-US,en;q=0.9","669f431d69d93f9fdb0d119d","686d226cabeef709c732f8e1","686e3132843cdf712f5f4bdd","669f431d69d93f9fdb0d119d","","","","","","","","","","","","","","","","","","","","","","","","","","","","","","","","","","","","","","","","","","","","","",""
"3431","","","{""yellow_ball"":[""Ball always shakes and moves in a random direction""]}","survey-multi-select","31","706499","0.0-8.0-6.2-0.2","100","1","2025-07-09 09:07:56","7701e855f2ef39aa3fd6c71abdc6918a","102.135.144.119","Mozilla/5.0 (Windows NT 10.0; Win64; x64) AppleWebKit/537.36 (KHTML, like Gecko) Chrome/138.0.0.0 Safari/537.36","WebKit","Chrome","138.0.0.0","Windows","10.0","https://app.prolific.com/","en-US,en;q=0.9","669f431d69d93f9fdb0d119d","686d226cabeef709c732f8e1","686e3132843cdf712f5f4bdd","669f431d69d93f9fdb0d119d","","","[0]","","","","quiz","","","","","","","","","","","","","","","","","","","","","","","","","","","","","","","","","","","","","false","",""
"1102","","<p align='center'><b>INCORRECT.</b> The yellow ball never moves and you reveice a penalty if you press anyways. </p>","0","html-button-response","32","707602","0.0-8.0-6.2-1.2","100","1","2025-07-09 09:07:56","7701e855f2ef39aa3fd6c71abdc6918a","102.135.144.119","Mozilla/5.0 (Windows NT 10.0; Win64; x64) AppleWebKit/537.36 (KHTML, like Gecko) Chrome/138.0.0.0 Safari/537.36","WebKit","Chrome","138.0.0.0","Windows","10.0","https://app.prolific.com/","en-US,en;q=0.9","669f431d69d93f9fdb0d119d","686d226cabeef709c732f8e1","686e3132843cdf712f5f4bdd","669f431d69d93f9fdb0d119d","","","","","","","","","","","","","","","","","","","","","","","","","","","","","","","","","","","","","","","","","","","","","",""
"2199","","","{""yellow_ball"":[""Ball doesn‘t move and I get -1 penalty point""]}","survey-multi-select","33","709802","0.0-8.0-6.3-0.3","100","1","2025-07-09 09:07:56","7701e855f2ef39aa3fd6c71abdc6918a","102.135.144.119","Mozilla/5.0 (Windows NT 10.0; Win64; x64) AppleWebKit/537.36 (KHTML, like Gecko) Chrome/138.0.0.0 Safari/537.36","WebKit","Chrome","138.0.0.0","Windows","10.0","https://app.prolific.com/","en-US,en;q=0.9","669f431d69d93f9fdb0d119d","686d226cabeef709c732f8e1","686e3132843cdf712f5f4bdd","669f431d69d93f9fdb0d119d","","","[0]","","","","quiz","","","","","","","","","","","","","","","","","","","","","","","","","","","","","","","","","","","","","true","",""
"983","","<p align='center'><b>CORRECT!</b> Indeed, the yellow ball never moves and you receive a penalty.</p>","0","html-button-response","34","710786","0.0-8.0-6.3-1.3","100","1","2025-07-09 09:07:56","7701e855f2ef39aa3fd6c71abdc6918a","102.135.144.119","Mozilla/5.0 (Windows NT 10.0; Win64; x64) AppleWebKit/537.36 (KHTML, like Gecko) Chrome/138.0.0.0 Safari/537.36","WebKit","Chrome","138.0.0.0","Windows","10.0","https://app.prolific.com/","en-US,en;q=0.9","669f431d69d93f9fdb0d119d","686d226cabeef709c732f8e1","686e3132843cdf712f5f4bdd","669f431d69d93f9fdb0d119d","","","","","","","","","","","","","","","","","","","","","","","","","","","","","","","","","","","","","","","","","","","","","",""
"15183","","","{""blue_ball"":[""Ball always moves in the direction I press""]}","survey-multi-select","35","725970","0.0-8.0-7.0-0.0","100","1","2025-07-09 09:07:56","7701e855f2ef39aa3fd6c71abdc6918a","102.135.144.119","Mozilla/5.0 (Windows NT 10.0; Win64; x64) AppleWebKit/537.36 (KHTML, like Gecko) Chrome/138.0.0.0 Safari/537.36","WebKit","Chrome","138.0.0.0","Windows","10.0","https://app.prolific.com/","en-US,en;q=0.9","669f431d69d93f9fdb0d119d","686d226cabeef709c732f8e1","686e3132843cdf712f5f4bdd","669f431d69d93f9fdb0d119d","","","[0]","","","","quiz","","","","","","","","","","","","","","","","","","","","","","","","","","","","","","","","","","","","","false","",""
"1247","","<p align='center'><b>INCORRECT.</b> The blue ball always shakes and moves randomly.</p>","0","html-button-response","36","727218","0.0-8.0-7.0-1.0","100","1","2025-07-09 09:07:56","7701e855f2ef39aa3fd6c71abdc6918a","102.135.144.119","Mozilla/5.0 (Windows NT 10.0; Win64; x64) AppleWebKit/537.36 (KHTML, like Gecko) Chrome/138.0.0.0 Safari/537.36","WebKit","Chrome","138.0.0.0","Windows","10.0","https://app.prolific.com/","en-US,en;q=0.9","669f431d69d93f9fdb0d119d","686d226cabeef709c732f8e1","686e3132843cdf712f5f4bdd","669f431d69d93f9fdb0d119d","","","","","","","","","","","","","","","","","","","","","","","","","","","","","","","","","","","","","","","","","","","","","",""
"1191","","","{""blue_ball"":[""Ball doesn‘t move and I get -1 penalty point""]}","survey-multi-select","37","728410","0.0-8.0-7.1-0.1","100","1","2025-07-09 09:07:56","7701e855f2ef39aa3fd6c71abdc6918a","102.135.144.119","Mozilla/5.0 (Windows NT 10.0; Win64; x64) AppleWebKit/537.36 (KHTML, like Gecko) Chrome/138.0.0.0 Safari/537.36","WebKit","Chrome","138.0.0.0","Windows","10.0","https://app.prolific.com/","en-US,en;q=0.9","669f431d69d93f9fdb0d119d","686d226cabeef709c732f8e1","686e3132843cdf712f5f4bdd","669f431d69d93f9fdb0d119d","","","[0]","","","","quiz","","","","","","","","","","","","","","","","","","","","","","","","","","","","","","","","","","","","","false","",""
"1063","","<p align='center'><b>INCORRECT.</b> The blue ball always shakes and moves randomly.</p>","0","html-button-response","38","729474","0.0-8.0-7.1-1.1","100","1","2025-07-09 09:07:56","7701e855f2ef39aa3fd6c71abdc6918a","102.135.144.119","Mozilla/5.0 (Windows NT 10.0; Win64; x64) AppleWebKit/537.36 (KHTML, like Gecko) Chrome/138.0.0.0 Safari/537.36","WebKit","Chrome","138.0.0.0","Windows","10.0","https://app.prolific.com/","en-US,en;q=0.9","669f431d69d93f9fdb0d119d","686d226cabeef709c732f8e1","686e3132843cdf712f5f4bdd","669f431d69d93f9fdb0d119d","","","","","","","","","","","","","","","","","","","","","","","","","","","","","","","","","","","","","","","","","","","","","",""
"2815","","","{""blue_ball"":[""Ball always shakes and moves in a random direction""]}","survey-multi-select","39","732290","0.0-8.0-7.2-0.2","100","1","2025-07-09 09:07:56","7701e855f2ef39aa3fd6c71abdc6918a","102.135.144.119","Mozilla/5.0 (Windows NT 10.0; Win64; x64) AppleWebKit/537.36 (KHTML, like Gecko) Chrome/138.0.0.0 Safari/537.36","WebKit","Chrome","138.0.0.0","Windows","10.0","https://app.prolific.com/","en-US,en;q=0.9","669f431d69d93f9fdb0d119d","686d226cabeef709c732f8e1","686e3132843cdf712f5f4bdd","669f431d69d93f9fdb0d119d","","","[0]","","","","quiz","","","","","","","","","","","","","","","","","","","","","","","","","","","","","","","","","","","","","true","",""
"1238","","<p align='center'><b>CORRECT!</b> Indeed, the blue ball always shakes and moves in a random direction. Also there is a penalty of -1 point.</p>","0","html-button-response","40","733529","0.0-8.0-7.2-1.2","100","1","2025-07-09 09:07:56","7701e855f2ef39aa3fd6c71abdc6918a","102.135.144.119","Mozilla/5.0 (Windows NT 10.0; Win64; x64) AppleWebKit/537.36 (KHTML, like Gecko) Chrome/138.0.0.0 Safari/537.36","WebKit","Chrome","138.0.0.0","Windows","10.0","https://app.prolific.com/","en-US,en;q=0.9","669f431d69d93f9fdb0d119d","686d226cabeef709c732f8e1","686e3132843cdf712f5f4bdd","669f431d69d93f9fdb0d119d","","","","","","","","","","","","","","","","","","","","","","","","","","","","","","","","","","","","","","","","","","","","","",""
"63439","","","{""bonus"":[""When I reach all possible points""]}","survey-multi-select","41","796970","0.0-8.0-8.0-0.0","100","1","2025-07-09 09:07:56","7701e855f2ef39aa3fd6c71abdc6918a","102.135.144.119","Mozilla/5.0 (Windows NT 10.0; Win64; x64) AppleWebKit/537.36 (KHTML, like Gecko) Chrome/138.0.0.0 Safari/537.36","WebKit","Chrome","138.0.0.0","Windows","10.0","https://app.prolific.com/","en-US,en;q=0.9","669f431d69d93f9fdb0d119d","686d226cabeef709c732f8e1","686e3132843cdf712f5f4bdd","669f431d69d93f9fdb0d119d","","","[0]","","","","quiz","","","","","","","","","","","","","","","","","","","","","","","","","","","","","","","","","","","","","false","",""
"1158","","<p align='center'><b>INCORRECT.</b> You receive 2 pounds extra when you reach 50% of points </p>","0","html-button-response","42","798129","0.0-8.0-8.0-1.0","100","1","2025-07-09 09:07:56","7701e855f2ef39aa3fd6c71abdc6918a","102.135.144.119","Mozilla/5.0 (Windows NT 10.0; Win64; x64) AppleWebKit/537.36 (KHTML, like Gecko) Chrome/138.0.0.0 Safari/537.36","WebKit","Chrome","138.0.0.0","Windows","10.0","https://app.prolific.com/","en-US,en;q=0.9","669f431d69d93f9fdb0d119d","686d226cabeef709c732f8e1","686e3132843cdf712f5f4bdd","669f431d69d93f9fdb0d119d","","","","","","","","","","","","","","","","","","","","","","","","","","","","","","","","","","","","","","","","","","","","","",""
"1847","","","{""bonus"":[""When I reach 80% of points""]}","survey-multi-select","43","799978","0.0-8.0-8.1-0.1","100","1","2025-07-09 09:07:56","7701e855f2ef39aa3fd6c71abdc6918a","102.135.144.119","Mozilla/5.0 (Windows NT 10.0; Win64; x64) AppleWebKit/537.36 (KHTML, like Gecko) Chrome/138.0.0.0 Safari/537.36","WebKit","Chrome","138.0.0.0","Windows","10.0","https://app.prolific.com/","en-US,en;q=0.9","669f431d69d93f9fdb0d119d","686d226cabeef709c732f8e1","686e3132843cdf712f5f4bdd","669f431d69d93f9fdb0d119d","","","[0]","","","","quiz","","","","","","","","","","","","","","","","","","","","","","","","","","","","","","","","","","","","","false","",""
"1119","","<p align='center'><b>INCORRECT.</b> You receive 2 pounds extra when you reach 50% of points </p>","0","html-button-response","44","801098","0.0-8.0-8.1-1.1","100","1","2025-07-09 09:07:56","7701e855f2ef39aa3fd6c71abdc6918a","102.135.144.119","Mozilla/5.0 (Windows NT 10.0; Win64; x64) AppleWebKit/537.36 (KHTML, like Gecko) Chrome/138.0.0.0 Safari/537.36","WebKit","Chrome","138.0.0.0","Windows","10.0","https://app.prolific.com/","en-US,en;q=0.9","669f431d69d93f9fdb0d119d","686d226cabeef709c732f8e1","686e3132843cdf712f5f4bdd","669f431d69d93f9fdb0d119d","","","","","","","","","","","","","","","","","","","","","","","","","","","","","","","","","","","","","","","","","","","","","",""
"1151","","","{""bonus"":[""When I don‘t get penalty points""]}","survey-multi-select","45","802250","0.0-8.0-8.2-0.2","100","1","2025-07-09 09:07:56","7701e855f2ef39aa3fd6c71abdc6918a","102.135.144.119","Mozilla/5.0 (Windows NT 10.0; Win64; x64) AppleWebKit/537.36 (KHTML, like Gecko) Chrome/138.0.0.0 Safari/537.36","WebKit","Chrome","138.0.0.0","Windows","10.0","https://app.prolific.com/","en-US,en;q=0.9","669f431d69d93f9fdb0d119d","686d226cabeef709c732f8e1","686e3132843cdf712f5f4bdd","669f431d69d93f9fdb0d119d","","","[0]","","","","quiz","","","","","","","","","","","","","","","","","","","","","","","","","","","","","","","","","","","","","false","",""
"871","","<p align='center'><b>INCORRECT.</b> You receive 2 pounds extra when you reach 50% of points </p>","0","html-button-response","46","803122","0.0-8.0-8.2-1.2","100","1","2025-07-09 09:07:56","7701e855f2ef39aa3fd6c71abdc6918a","102.135.144.119","Mozilla/5.0 (Windows NT 10.0; Win64; x64) AppleWebKit/537.36 (KHTML, like Gecko) Chrome/138.0.0.0 Safari/537.36","WebKit","Chrome","138.0.0.0","Windows","10.0","https://app.prolific.com/","en-US,en;q=0.9","669f431d69d93f9fdb0d119d","686d226cabeef709c732f8e1","686e3132843cdf712f5f4bdd","669f431d69d93f9fdb0d119d","","","","","","","","","","","","","","","","","","","","","","","","","","","","","","","","","","","","","","","","","","","","","",""
"1367","","","{""bonus"":[""When I reach 50% of points""]}","survey-multi-select","47","804490","0.0-8.0-8.3-0.3","100","1","2025-07-09 09:07:56","7701e855f2ef39aa3fd6c71abdc6918a","102.135.144.119","Mozilla/5.0 (Windows NT 10.0; Win64; x64) AppleWebKit/537.36 (KHTML, like Gecko) Chrome/138.0.0.0 Safari/537.36","WebKit","Chrome","138.0.0.0","Windows","10.0","https://app.prolific.com/","en-US,en;q=0.9","669f431d69d93f9fdb0d119d","686d226cabeef709c732f8e1","686e3132843cdf712f5f4bdd","669f431d69d93f9fdb0d119d","","","[0]","","","","quiz","","","","","","","","","","","","","","","","","","","","","","","","","","","","","","","","","","","","","true","",""
"1182","","<p align='center'><b>CORRECT!</b> Indeed, you receive 2 pounds extra when you reach 50% of points.</p>","0","html-button-response","48","805674","0.0-8.0-8.3-1.3","100","1","2025-07-09 09:07:56","7701e855f2ef39aa3fd6c71abdc6918a","102.135.144.119","Mozilla/5.0 (Windows NT 10.0; Win64; x64) AppleWebKit/537.36 (KHTML, like Gecko) Chrome/138.0.0.0 Safari/537.36","WebKit","Chrome","138.0.0.0","Windows","10.0","https://app.prolific.com/","en-US,en;q=0.9","669f431d69d93f9fdb0d119d","686d226cabeef709c732f8e1","686e3132843cdf712f5f4bdd","669f431d69d93f9fdb0d119d","","","","","","","","","","","","","","","","","","","","","","","","","","","","","","","","","","","","","","","","","","","","","",""
"2200","","","","instructions","49","807874","0.0-8.0-9.0","100","1","2025-07-09 09:07:56","7701e855f2ef39aa3fd6c71abdc6918a","102.135.144.119","Mozilla/5.0 (Windows NT 10.0; Win64; x64) AppleWebKit/537.36 (KHTML, like Gecko) Chrome/138.0.0.0 Safari/537.36","WebKit","Chrome","138.0.0.0","Windows","10.0","https://app.prolific.com/","en-US,en;q=0.9","669f431d69d93f9fdb0d119d","686d226cabeef709c732f8e1","686e3132843cdf712f5f4bdd","669f431d69d93f9fdb0d119d","","[{""page_index"":0,""viewing_time"":2199}]","","","","","","","","","","","","","","","","","","","","","","","","","","","","","","","","","","","","","","","","","","","",""
"14573","","<p>Before you start with this game please answer the following three questions yourself. </p>
  <p>Through this game, we measure several aspects of your cognitive performance, such as reaction times, multi-tasking capabilities </p>
  <p>and the ability to assess the situation you are in.</p>
  <p></p>
  <p><b>How good do you usually are in such tasks?</b></p>","84","html-slider-response","50","822458","0.0-9.0-0.0","100","1","2025-07-09 09:07:56","7701e855f2ef39aa3fd6c71abdc6918a","102.135.144.119","Mozilla/5.0 (Windows NT 10.0; Win64; x64) AppleWebKit/537.36 (KHTML, like Gecko) Chrome/138.0.0.0 Safari/537.36","WebKit","Chrome","138.0.0.0","Windows","10.0","https://app.prolific.com/","en-US,en;q=0.9","669f431d69d93f9fdb0d119d","686d226cabeef709c732f8e1","686e3132843cdf712f5f4bdd","669f431d69d93f9fdb0d119d","2025-07-09T09:21:41.298Z","","","","","","PreSkillQ","","","","","","","","","","","","","","","","","","","","","","","","","","","","","","","","","","","","","","50",""
"7846","","<div style=""width:500px;"">
  <p>How well do you think you will perform in this task compared to other participants?</p>
  </div>","63","html-slider-response","51","830306","0.0-9.0-1.0","100","1","2025-07-09 09:07:56","7701e855f2ef39aa3fd6c71abdc6918a","102.135.144.119","Mozilla/5.0 (Windows NT 10.0; Win64; x64) AppleWebKit/537.36 (KHTML, like Gecko) Chrome/138.0.0.0 Safari/537.36","WebKit","Chrome","138.0.0.0","Windows","10.0","https://app.prolific.com/","en-US,en;q=0.9","669f431d69d93f9fdb0d119d","686d226cabeef709c732f8e1","686e3132843cdf712f5f4bdd","669f431d69d93f9fdb0d119d","2025-07-09T09:21:49.146Z","","","","","","PrePerfQ","","","","","","","","","","","","","","","","","","","","","","","","","","","","","","","","","","","","","","50",""
"11014","","<div style=""width:500px;"">
  <p>What best describes how you currently feel?</p>
  </div>","31","html-slider-response","52","841322","0.0-9.0-2.0","100","1","2025-07-09 09:07:56","7701e855f2ef39aa3fd6c71abdc6918a","102.135.144.119","Mozilla/5.0 (Windows NT 10.0; Win64; x64) AppleWebKit/537.36 (KHTML, like Gecko) Chrome/138.0.0.0 Safari/537.36","WebKit","Chrome","138.0.0.0","Windows","10.0","https://app.prolific.com/","en-US,en;q=0.9","669f431d69d93f9fdb0d119d","686d226cabeef709c732f8e1","686e3132843cdf712f5f4bdd","669f431d69d93f9fdb0d119d","2025-07-09T09:22:00.162Z","","","","","","PreMotivationQ","","","","","","","","","","","","","","","","","","","","","","","","","","","","","","","","","","","","","","50",""
"","","","","ctl-task-cpt","53","858319","0.0-10.0-0.0","100","1","2025-07-09 09:07:56","7701e855f2ef39aa3fd6c71abdc6918a","102.135.144.119","Mozilla/5.0 (Windows NT 10.0; Win64; x64) AppleWebKit/537.36 (KHTML, like Gecko) Chrome/138.0.0.0 Safari/537.36","WebKit","Chrome","138.0.0.0","Windows","10.0","https://app.prolific.com/","en-US,en;q=0.9","669f431d69d93f9fdb0d119d","686d226cabeef709c732f8e1","686e3132843cdf712f5f4bdd","669f431d69d93f9fdb0d119d","2025-07-09T09:22:17.159Z","","","","","","","","","","","","","","","","win-only","1","g1:NE,g2:SW","1","1","0","843774.9","4958.5","9961.5","13977.2","1","4","8","6","2","-8","-8","0","0","0","2486.6","3000","-3015","[""down"",""left""]","{""num_key_presses"":0,""num_perfect"":0,""num_errors"":0,""num_randdir"":0,""num_randdir_good_moves"":0,""num_whilered"":0,""num_whileblue"":0,""num_blue"":0,""num_good_moves"":0}","[287.03973214285713,285.44598214285713,0.5,287.03973214285713,285.44598214285713,102.4,287.03973214285713,285.44598214285713,202.7,287.03973214285713,285.44598214285713,303.1,287.03973214285713,285.44598214285713,406.9,287.03973214285713,285.44598214285713,513.8,287.03973214285713,285.44598214285713,617.4,287.03973214285713,285.44598214285713,722.3,278.03973214285713,297.44598214285713,822.3,104.03973214285713,463.44598214285713,922.9,93.03973214285713,489.44598214285713,1027.6,93.03973214285713,489.44598214285713,1133.3,97.03973214285713,487.44598214285713,1237.8,113.03973214285713,468.44598214285713,1346.2,192.03973214285713,386.44598214285713,1447.1,192.03973214285713,386.44598214285713,1547.4,192.03973214285713,386.44598214285713,1652.8,192.03973214285713,386.44598214285713,1752.8,192.03973214285713,386.44598214285713,1852.9,185.03973214285713,400.44598214285713,1959.4,65.03973214285713,463.44598214285713,2062.8,52.03973214285714,487.44598214285713,2163,40.03973214285714,507.44598214285713,2263.4,38.03973214285714,508.44598214285713,2368.1,38.03973214285714,508.44598214285713,2473,38.03973214285714,508.44598214285713,2577.1,35.03973214285714,505.44598214285713,2677.9,35.03973214285714,505.44598214285713,2782.6,35.03973214285714,505.44598214285713,2882.6,35.03973214285714,503.44598214285713,2993.6,35.03973214285714,503.44598214285713,3098.3,35.03973214285714,503.44598214285713,3198.8,35.03973214285714,503.44598214285713,3302.9,35.03973214285714,503.44598214285713,3408.9,36.03973214285714,502.44598214285713,3513.9,37.03973214285714,501.44598214285713,3617.2,37.03973214285714,501.44598214285713,3723.2,37.03973214285714,501.44598214285713,3827.9,37.03973214285714,501.44598214285713,3933.9,37.03973214285714,501.44598214285713,4033.9,37.03973214285714,501.44598214285713,4137.7,37.03973214285714,501.44598214285713,4243.6,37.03973214285714,501.44598214285713,4343.6,37.03973214285714,501.44598214285713,4443.6,37.03973214285714,501.44598214285713,4548.2,37.03973214285714,501.44598214285713,4648.3,37.03973214285714,501.44598214285713,4753.2,37.03973214285714,501.44598214285713,4858.1,37.03973214285714,501.44598214285713,4959.1]","[]","","",""
"8090","","<div style=""width:500px;"">
  <p>What determined the result of this run?</p>
  </div>","66","html-slider-response","54","866409","0.0-10.0-1.0","100","1","2025-07-09 09:07:56","7701e855f2ef39aa3fd6c71abdc6918a","102.135.144.119","Mozilla/5.0 (Windows NT 10.0; Win64; x64) AppleWebKit/537.36 (KHTML, like Gecko) Chrome/138.0.0.0 Safari/537.36","WebKit","Chrome","138.0.0.0","Windows","10.0","https://app.prolific.com/","en-US,en;q=0.9","669f431d69d93f9fdb0d119d","686d226cabeef709c732f8e1","686e3132843cdf712f5f4bdd","669f431d69d93f9fdb0d119d","2025-07-09T09:22:25.250Z","","","","","","AttribQ","","","","","","","","","","","","","","","","","","","","","","","","","","","","","","","","","","","","","","50",""
"5343","","<div style=""width:500px;"">
  <p>How much control did you have over the ball?</p>
  </div>","64","html-slider-response","55","871753","0.0-10.0-2.0","100","1","2025-07-09 09:07:56","7701e855f2ef39aa3fd6c71abdc6918a","102.135.144.119","Mozilla/5.0 (Windows NT 10.0; Win64; x64) AppleWebKit/537.36 (KHTML, like Gecko) Chrome/138.0.0.0 Safari/537.36","WebKit","Chrome","138.0.0.0","Windows","10.0","https://app.prolific.com/","en-US,en;q=0.9","669f431d69d93f9fdb0d119d","686d226cabeef709c732f8e1","686e3132843cdf712f5f4bdd","669f431d69d93f9fdb0d119d","2025-07-09T09:22:30.593Z","","","","","","ControlQ","","","","","","","","","","","","","","","","","","","","","","","","","","","","","","","","","","","","","","50",""
"5455","","<div style=""width:500px;"">
  <p>How would you describe your current emotional state?</p>
  </div>","66","html-slider-response","56","877209","0.0-10.0-3.0","100","1","2025-07-09 09:07:56","7701e855f2ef39aa3fd6c71abdc6918a","102.135.144.119","Mozilla/5.0 (Windows NT 10.0; Win64; x64) AppleWebKit/537.36 (KHTML, like Gecko) Chrome/138.0.0.0 Safari/537.36","WebKit","Chrome","138.0.0.0","Windows","10.0","https://app.prolific.com/","en-US,en;q=0.9","669f431d69d93f9fdb0d119d","686d226cabeef709c732f8e1","686e3132843cdf712f5f4bdd","669f431d69d93f9fdb0d119d","2025-07-09T09:22:36.050Z","","","","","","StressQ","","","","","","","","","","","","","","","","","","","","","","","","","","","","","","","","","","","","","","50",""
"4543","","<div style=""width:500px;"">
  <p>What best describes how you currently feel?</p>
  </div>","29","html-slider-response","57","881754","0.0-10.0-4.0","100","1","2025-07-09 09:07:56","7701e855f2ef39aa3fd6c71abdc6918a","102.135.144.119","Mozilla/5.0 (Windows NT 10.0; Win64; x64) AppleWebKit/537.36 (KHTML, like Gecko) Chrome/138.0.0.0 Safari/537.36","WebKit","Chrome","138.0.0.0","Windows","10.0","https://app.prolific.com/","en-US,en;q=0.9","669f431d69d93f9fdb0d119d","686d226cabeef709c732f8e1","686e3132843cdf712f5f4bdd","669f431d69d93f9fdb0d119d","2025-07-09T09:22:40.594Z","","","","","","MotivationQ","","","","","","","","","","","","","","","","","","","","","","","","","","","","","","","","","","","","","","50",""
"","","","","ctl-task-cpt","58","895133","0.0-10.0-0.1","100","1","2025-07-09 09:07:56","7701e855f2ef39aa3fd6c71abdc6918a","102.135.144.119","Mozilla/5.0 (Windows NT 10.0; Win64; x64) AppleWebKit/537.36 (KHTML, like Gecko) Chrome/138.0.0.0 Safari/537.36","WebKit","Chrome","138.0.0.0","Windows","10.0","https://app.prolific.com/","en-US,en;q=0.9","669f431d69d93f9fdb0d119d","686d226cabeef709c732f8e1","686e3132843cdf712f5f4bdd","669f431d69d93f9fdb0d119d","2025-07-09T09:22:53.973Z","","","","","","","","","","","","","","","","win-only","1","g1:NE,g2:SW","0.9","2","0","884206.1","1343.9","6346.3","10361.6","1","4","4","6","1","-1","-1","0","0","0","2064.4","3000","-3015","[""up"",""right""]","{""num_key_presses"":0,""num_perfect"":0,""num_errors"":0,""num_randdir"":0,""num_randdir_good_moves"":0,""num_whilered"":0,""num_whileblue"":0,""num_blue"":0,""num_good_moves"":0}","[289.03973214285713,280.44598214285713,0.3,289.03973214285713,280.44598214285713,101.7,289.03973214285713,280.44598214285713,201.8,289.03973214285713,280.44598214285713,302.2,289.03973214285713,280.44598214285713,414.3,289.03973214285713,280.44598214285713,516.9,289.03973214285713,280.44598214285713,621.6,300.03973214285713,269.44598214285713,723.2,302.03973214285713,269.44598214285713,827.7,316.03973214285713,269.44598214285713,928.2,330.03973214285713,263.44598214285713,1028.2,338.03973214285713,259.44598214285713,1129.4,427.03973214285713,209.44598214285713,1231.9,490.03973214285713,143.44598214285713,1337.9,499.03973214285713,120.44598214285713,1443.3,526.0397321428571,77.44598214285713,1544,527.0397321428571,66.44598214285713,1647.3,527.0397321428571,66.44598214285713,1752.8,527.0397321428571,66.44598214285713,1853,527.0397321428571,66.44598214285713,1956.6,527.0397321428571,66.44598214285713,2066,527.0397321428571,66.44598214285713,2167.3,527.0397321428571,66.44598214285713,2268.4,527.0397321428571,66.44598214285713,2371.4,527.0397321428571,66.44598214285713,2471.7,527.0397321428571,66.44598214285713,2573.1,527.0397321428571,66.44598214285713,2678,527.0397321428571,66.44598214285713,2783,527.0397321428571,66.44598214285713,2886.9,527.0397321428571,66.44598214285713,2993.5,527.0397321428571,66.44598214285713,3097,527.0397321428571,66.44598214285713,3197.3,527.0397321428571,66.44598214285713,3302.6,527.0397321428571,66.44598214285713,3406.9,527.0397321428571,66.44598214285713,3512,527.0397321428571,66.44598214285713,3616.4,527.0397321428571,66.44598214285713,3716.5,527.0397321428571,66.44598214285713,3817,527.0397321428571,66.44598214285713,3921.8,527.0397321428571,66.44598214285713,4022.5,527.0397321428571,66.44598214285713,4127.7,527.0397321428571,66.44598214285713,4228.1,527.0397321428571,66.44598214285713,4331.7,527.0397321428571,66.44598214285713,4432.7,527.0397321428571,66.44598214285713,4536.5,526.0397321428571,66.44598214285713,4637,492.03973214285713,80.44598214285713,4744.1,472.03973214285713,89.44598214285713,4847.9,430.03973214285713,182.44598214285713,4948.3]","[]","","",""
"3332","","<div style=""width:500px;"">
  <p>What determined the result of this run?</p>
  </div>","66","html-slider-response","59","898466","0.0-10.0-1.1","100","1","2025-07-09 09:07:56","7701e855f2ef39aa3fd6c71abdc6918a","102.135.144.119","Mozilla/5.0 (Windows NT 10.0; Win64; x64) AppleWebKit/537.36 (KHTML, like Gecko) Chrome/138.0.0.0 Safari/537.36","WebKit","Chrome","138.0.0.0","Windows","10.0","https://app.prolific.com/","en-US,en;q=0.9","669f431d69d93f9fdb0d119d","686d226cabeef709c732f8e1","686e3132843cdf712f5f4bdd","669f431d69d93f9fdb0d119d","2025-07-09T09:22:57.306Z","","","","","","AttribQ","","","","","","","","","","","","","","","","","","","","","","","","","","","","","","","","","","","","","","50",""
"2526","","<div style=""width:500px;"">
  <p>How much control did you have over the ball?</p>
  </div>","66","html-slider-response","60","900993","0.0-10.0-2.1","100","1","2025-07-09 09:07:56","7701e855f2ef39aa3fd6c71abdc6918a","102.135.144.119","Mozilla/5.0 (Windows NT 10.0; Win64; x64) AppleWebKit/537.36 (KHTML, like Gecko) Chrome/138.0.0.0 Safari/537.36","WebKit","Chrome","138.0.0.0","Windows","10.0","https://app.prolific.com/","en-US,en;q=0.9","669f431d69d93f9fdb0d119d","686d226cabeef709c732f8e1","686e3132843cdf712f5f4bdd","669f431d69d93f9fdb0d119d","2025-07-09T09:22:59.833Z","","","","","","ControlQ","","","","","","","","","","","","","","","","","","","","","","","","","","","","","","","","","","","","","","50",""
"2408","","<div style=""width:500px;"">
  <p>How would you describe your current emotional state?</p>
  </div>","68","html-slider-response","61","903402","0.0-10.0-3.1","100","1","2025-07-09 09:07:56","7701e855f2ef39aa3fd6c71abdc6918a","102.135.144.119","Mozilla/5.0 (Windows NT 10.0; Win64; x64) AppleWebKit/537.36 (KHTML, like Gecko) Chrome/138.0.0.0 Safari/537.36","WebKit","Chrome","138.0.0.0","Windows","10.0","https://app.prolific.com/","en-US,en;q=0.9","669f431d69d93f9fdb0d119d","686d226cabeef709c732f8e1","686e3132843cdf712f5f4bdd","669f431d69d93f9fdb0d119d","2025-07-09T09:23:02.242Z","","","","","","StressQ","","","","","","","","","","","","","","","","","","","","","","","","","","","","","","","","","","","","","","50",""
"3031","","<div style=""width:500px;"">
  <p>What best describes how you currently feel?</p>
  </div>","32","html-slider-response","62","906434","0.0-10.0-4.1","100","1","2025-07-09 09:07:56","7701e855f2ef39aa3fd6c71abdc6918a","102.135.144.119","Mozilla/5.0 (Windows NT 10.0; Win64; x64) AppleWebKit/537.36 (KHTML, like Gecko) Chrome/138.0.0.0 Safari/537.36","WebKit","Chrome","138.0.0.0","Windows","10.0","https://app.prolific.com/","en-US,en;q=0.9","669f431d69d93f9fdb0d119d","686d226cabeef709c732f8e1","686e3132843cdf712f5f4bdd","669f431d69d93f9fdb0d119d","2025-07-09T09:23:05.274Z","","","","","","MotivationQ","","","","","","","","","","","","","","","","","","","","","","","","","","","","","","","","","","","","","","50",""
"","","","","ctl-task-cpt","63","920885","0.0-10.0-0.2","100","1","2025-07-09 09:07:56","7701e855f2ef39aa3fd6c71abdc6918a","102.135.144.119","Mozilla/5.0 (Windows NT 10.0; Win64; x64) AppleWebKit/537.36 (KHTML, like Gecko) Chrome/138.0.0.0 Safari/537.36","WebKit","Chrome","138.0.0.0","Windows","10.0","https://app.prolific.com/","en-US,en;q=0.9","669f431d69d93f9fdb0d119d","686d226cabeef709c732f8e1","686e3132843cdf712f5f4bdd","669f431d69d93f9fdb0d119d","2025-07-09T09:23:19.725Z","","","","","","","","","","","","","","","","win-only","1","g1:NE,g2:SW","0.8","3","0","908886","2366.6","7367.6","11436","1","4","8","6","1","-1","-1","0","0","0","1632","3000","-2840","[""up"",""right""]","{""num_key_presses"":0,""num_perfect"":0,""num_errors"":0,""num_randdir"":0,""num_randdir_good_moves"":0,""num_whilered"":0,""num_whileblue"":0,""num_blue"":0,""num_good_moves"":0}","[289.03973214285713,283.44598214285713,0.5,289.03973214285713,283.44598214285713,100.4,289.03973214285713,283.44598214285713,200.4,289.03973214285713,283.44598214285713,306.7,288.03973214285713,285.44598214285713,411.7,188.03973214285713,471.44598214285713,515.1,170.03973214285713,486.44598214285713,620.9,131.03973214285713,489.44598214285713,726.4,93.03973214285713,492.44598214285713,826.4,88.03973214285713,492.44598214285713,930.2,87.03973214285713,492.44598214285713,1037.6,159.03973214285713,447.44598214285713,1141.8,502.03973214285713,201.44598214285713,1242.8,507.03973214285713,167.44598214285713,1346.2,507.03973214285713,129.44598214285713,1447.1,504.03973214285713,78.44598214285713,1549.6,504.03973214285713,68.44598214285713,1656.6,504.03973214285713,68.44598214285713,1757.9,503.03973214285713,69.44598214285713,1858.4,496.03973214285713,89.44598214285713,1961.6,485.03973214285713,124.44598214285713,2065.9,473.03973214285713,140.44598214285713,2170.8,470.03973214285713,143.44598214285713,2275.9,470.03973214285713,143.44598214285713,2376.3,470.03973214285713,143.44598214285713,2480.3,467.03973214285713,154.44598214285713,2584.8,445.03973214285713,221.44598214285713,2692.1,424.03973214285713,277.44598214285713,2792.5,418.03973214285713,302.44598214285713,2895.4,416.03973214285713,309.44598214285713,2999.2,416.03973214285713,311.44598214285713,3100.3,416.03973214285713,313.44598214285713,3200.3,416.03973214285713,314.44598214285713,3305.7,416.03973214285713,315.44598214285713,3409.8,416.03973214285713,315.44598214285713,3513.6,415.03973214285713,316.44598214285713,3614.1,413.03973214285713,316.44598214285713,3714.7,408.03973214285713,316.44598214285713,3815.7,403.03973214285713,315.44598214285713,3920.2,403.03973214285713,315.44598214285713,4030,403.03973214285713,315.44598214285713,4134.7,399.03973214285713,315.44598214285713,4235.2,396.03973214285713,315.44598214285713,4335.9,396.03973214285713,315.44598214285713,4435.9,396.03973214285713,315.44598214285713,4542,396.03973214285713,315.44598214285713,4645,396.03973214285713,315.44598214285713,4750.1,396.03973214285713,315.44598214285713,4850.8,396.03973214285713,315.44598214285713,4954.7]","[]","","",""
"5148","","<div style=""width:500px;"">
  <p>What determined the result of this run?</p>
  </div>","69","html-slider-response","64","926034","0.0-10.0-1.2","100","1","2025-07-09 09:07:56","7701e855f2ef39aa3fd6c71abdc6918a","102.135.144.119","Mozilla/5.0 (Windows NT 10.0; Win64; x64) AppleWebKit/537.36 (KHTML, like Gecko) Chrome/138.0.0.0 Safari/537.36","WebKit","Chrome","138.0.0.0","Windows","10.0","https://app.prolific.com/","en-US,en;q=0.9","669f431d69d93f9fdb0d119d","686d226cabeef709c732f8e1","686e3132843cdf712f5f4bdd","669f431d69d93f9fdb0d119d","2025-07-09T09:23:24.874Z","","","","","","AttribQ","","","","","","","","","","","","","","","","","","","","","","","","","","","","","","","","","","","","","","50",""
"2894","","<div style=""width:500px;"">
  <p>How much control did you have over the ball?</p>
  </div>","63","html-slider-response","65","928929","0.0-10.0-2.2","100","1","2025-07-09 09:07:56","7701e855f2ef39aa3fd6c71abdc6918a","102.135.144.119","Mozilla/5.0 (Windows NT 10.0; Win64; x64) AppleWebKit/537.36 (KHTML, like Gecko) Chrome/138.0.0.0 Safari/537.36","WebKit","Chrome","138.0.0.0","Windows","10.0","https://app.prolific.com/","en-US,en;q=0.9","669f431d69d93f9fdb0d119d","686d226cabeef709c732f8e1","686e3132843cdf712f5f4bdd","669f431d69d93f9fdb0d119d","2025-07-09T09:23:27.769Z","","","","","","ControlQ","","","","","","","","","","","","","","","","","","","","","","","","","","","","","","","","","","","","","","50",""
"4455","","<div style=""width:500px;"">
  <p>How would you describe your current emotional state?</p>
  </div>","30","html-slider-response","66","933386","0.0-10.0-3.2","100","1","2025-07-09 09:07:56","7701e855f2ef39aa3fd6c71abdc6918a","102.135.144.119","Mozilla/5.0 (Windows NT 10.0; Win64; x64) AppleWebKit/537.36 (KHTML, like Gecko) Chrome/138.0.0.0 Safari/537.36","WebKit","Chrome","138.0.0.0","Windows","10.0","https://app.prolific.com/","en-US,en;q=0.9","669f431d69d93f9fdb0d119d","686d226cabeef709c732f8e1","686e3132843cdf712f5f4bdd","669f431d69d93f9fdb0d119d","2025-07-09T09:23:32.226Z","","","","","","StressQ","","","","","","","","","","","","","","","","","","","","","","","","","","","","","","","","","","","","","","50",""
"3302","","<div style=""width:500px;"">
  <p>What best describes how you currently feel?</p>
  </div>","39","html-slider-response","67","936689","0.0-10.0-4.2","100","1","2025-07-09 09:07:56","7701e855f2ef39aa3fd6c71abdc6918a","102.135.144.119","Mozilla/5.0 (Windows NT 10.0; Win64; x64) AppleWebKit/537.36 (KHTML, like Gecko) Chrome/138.0.0.0 Safari/537.36","WebKit","Chrome","138.0.0.0","Windows","10.0","https://app.prolific.com/","en-US,en;q=0.9","669f431d69d93f9fdb0d119d","686d226cabeef709c732f8e1","686e3132843cdf712f5f4bdd","669f431d69d93f9fdb0d119d","2025-07-09T09:23:35.529Z","","","","","","MotivationQ","","","","","","","","","","","","","","","","","","","","","","","","","","","","","","","","","","","","","","50",""
"","","","","ctl-task-cpt","68","954280","0.0-10.0-0.3","100","1","2025-07-09 09:07:56","7701e855f2ef39aa3fd6c71abdc6918a","102.135.144.119","Mozilla/5.0 (Windows NT 10.0; Win64; x64) AppleWebKit/537.36 (KHTML, like Gecko) Chrome/138.0.0.0 Safari/537.36","WebKit","Chrome","138.0.0.0","Windows","10.0","https://app.prolific.com/","en-US,en;q=0.9","669f431d69d93f9fdb0d119d","686d226cabeef709c732f8e1","686e3132843cdf712f5f4bdd","669f431d69d93f9fdb0d119d","2025-07-09T09:23:53.120Z","","","","","","","","","","","","","","","","win-only","0","g1:NW,g2:SE","0.7","4","0","939142.2","1607.4","6608.8","14568.4","1","4","4","6","2","-4","-4","0","0","0","2327.6","3000","-2935","[""down"",""right""]","{""num_key_presses"":0,""num_perfect"":0,""num_errors"":0,""num_randdir"":0,""num_randdir_good_moves"":0,""num_whilered"":0,""num_whileblue"":0,""num_blue"":1,""num_good_moves"":0}","[283.03973214285713,290.44598214285713,0.4,283.03973214285713,290.44598214285713,100,283.03973214285713,290.44598214285713,200.6,283.03973214285713,290.44598214285713,304.7,283.03973214285713,290.44598214285713,409.8,283.03973214285713,290.44598214285713,511,283.03973214285713,290.44598214285713,615.2,283.03973214285713,290.44598214285713,718.4,279.03973214285713,295.44598214285713,819.4,278.03973214285713,338.44598214285713,920.2,311.03973214285713,400.44598214285713,1024.8,415.03973214285713,474.44598214285713,1130.9,434.03973214285713,481.44598214285713,1235,448.03973214285713,489.44598214285713,1339.7,452.03973214285713,490.44598214285713,1446.3,453.03973214285713,490.44598214285713,1546.4,456.03973214285713,492.44598214285713,1655.8,466.03973214285713,497.44598214285713,1761.7,471.03973214285713,498.44598214285713,1861.7,471.03973214285713,498.44598214285713,1965.1,476.03973214285713,500.44598214285713,2066.7,483.03973214285713,503.44598214285713,2169.7,504.03973214285713,514.4459821428571,2270,504.03973214285713,514.4459821428571,2377.3,505.03973214285713,514.4459821428571,2480.1,505.03973214285713,514.4459821428571,2583.6,505.03973214285713,514.4459821428571,2684.1,505.03973214285713,514.4459821428571,2786.1,505.03973214285713,514.4459821428571,2888.6,505.03973214285713,514.4459821428571,2989,505.03973214285713,514.4459821428571,3089.7,505.03973214285713,514.4459821428571,3197.2,505.03973214285713,514.4459821428571,3297.9,505.03973214285713,514.4459821428571,3400.3,505.03973214285713,514.4459821428571,3501,505.03973214285713,514.4459821428571,3604.4,505.03973214285713,514.4459821428571,3711,505.03973214285713,514.4459821428571,3816.3,505.03973214285713,514.4459821428571,3919.8,505.03973214285713,514.4459821428571,4022.6,504.03973214285713,511.44598214285713,4123.5,503.03973214285713,509.44598214285713,4223.5,502.03973214285713,509.44598214285713,4328.5,502.03973214285713,507.44598214285713,4430.7,502.03973214285713,507.44598214285713,4532.2,502.03973214285713,507.44598214285713,4634,502.03973214285713,507.44598214285713,4738.9,503.03973214285713,507.44598214285713,4846.1,503.03973214285713,507.44598214285713,4947.2]","[]","","",""
"2649","","<div style=""width:500px;"">
  <p>What determined the result of this run?</p>
  </div>","62","html-slider-response","69","956930","0.0-10.0-1.3","100","1","2025-07-09 09:07:56","7701e855f2ef39aa3fd6c71abdc6918a","102.135.144.119","Mozilla/5.0 (Windows NT 10.0; Win64; x64) AppleWebKit/537.36 (KHTML, like Gecko) Chrome/138.0.0.0 Safari/537.36","WebKit","Chrome","138.0.0.0","Windows","10.0","https://app.prolific.com/","en-US,en;q=0.9","669f431d69d93f9fdb0d119d","686d226cabeef709c732f8e1","686e3132843cdf712f5f4bdd","669f431d69d93f9fdb0d119d","2025-07-09T09:23:55.770Z","","","","","","AttribQ","","","","","","","","","","","","","","","","","","","","","","","","","","","","","","","","","","","","","","50",""
"4174","","<div style=""width:500px;"">
  <p>How much control did you have over the ball?</p>
  </div>","42","html-slider-response","70","961105","0.0-10.0-2.3","100","1","2025-07-09 09:07:56","7701e855f2ef39aa3fd6c71abdc6918a","102.135.144.119","Mozilla/5.0 (Windows NT 10.0; Win64; x64) AppleWebKit/537.36 (KHTML, like Gecko) Chrome/138.0.0.0 Safari/537.36","WebKit","Chrome","138.0.0.0","Windows","10.0","https://app.prolific.com/","en-US,en;q=0.9","669f431d69d93f9fdb0d119d","686d226cabeef709c732f8e1","686e3132843cdf712f5f4bdd","669f431d69d93f9fdb0d119d","2025-07-09T09:23:59.945Z","","","","","","ControlQ","","","","","","","","","","","","","","","","","","","","","","","","","","","","","","","","","","","","","","50",""
"1647","","<div style=""width:500px;"">
  <p>How would you describe your current emotional state?</p>
  </div>","66","html-slider-response","71","962753","0.0-10.0-3.3","100","1","2025-07-09 09:07:56","7701e855f2ef39aa3fd6c71abdc6918a","102.135.144.119","Mozilla/5.0 (Windows NT 10.0; Win64; x64) AppleWebKit/537.36 (KHTML, like Gecko) Chrome/138.0.0.0 Safari/537.36","WebKit","Chrome","138.0.0.0","Windows","10.0","https://app.prolific.com/","en-US,en;q=0.9","669f431d69d93f9fdb0d119d","686d226cabeef709c732f8e1","686e3132843cdf712f5f4bdd","669f431d69d93f9fdb0d119d","2025-07-09T09:24:01.594Z","","","","","","StressQ","","","","","","","","","","","","","","","","","","","","","","","","","","","","","","","","","","","","","","50",""
"1751","","<div style=""width:500px;"">
  <p>What best describes how you currently feel?</p>
  </div>","30","html-slider-response","72","964506","0.0-10.0-4.3","100","1","2025-07-09 09:07:56","7701e855f2ef39aa3fd6c71abdc6918a","102.135.144.119","Mozilla/5.0 (Windows NT 10.0; Win64; x64) AppleWebKit/537.36 (KHTML, like Gecko) Chrome/138.0.0.0 Safari/537.36","WebKit","Chrome","138.0.0.0","Windows","10.0","https://app.prolific.com/","en-US,en;q=0.9","669f431d69d93f9fdb0d119d","686d226cabeef709c732f8e1","686e3132843cdf712f5f4bdd","669f431d69d93f9fdb0d119d","2025-07-09T09:24:03.346Z","","","","","","MotivationQ","","","","","","","","","","","","","","","","","","","","","","","","","","","","","","","","","","","","","","50",""
"","","","","ctl-task-cpt","73","984807","0.0-10.0-0.4","100","1","2025-07-09 09:07:56","7701e855f2ef39aa3fd6c71abdc6918a","102.135.144.119","Mozilla/5.0 (Windows NT 10.0; Win64; x64) AppleWebKit/537.36 (KHTML, like Gecko) Chrome/138.0.0.0 Safari/537.36","WebKit","Chrome","138.0.0.0","Windows","10.0","https://app.prolific.com/","en-US,en;q=0.9","669f431d69d93f9fdb0d119d","686d226cabeef709c732f8e1","686e3132843cdf712f5f4bdd","669f431d69d93f9fdb0d119d","2025-07-09T09:24:23.647Z","","","","","","","","","","","","","","","","win-only","0","g1:NW,g2:SE","0.6","5","0","966958.6","1053.6","6058.1","17281.2","1","4","8","6","1","-1","-1","0","0","0","833.5","3000","-2890","[""left"",""up""]","{""num_key_presses"":0,""num_perfect"":0,""num_errors"":0,""num_randdir"":0,""num_randdir_good_moves"":0,""num_whilered"":0,""num_whileblue"":0,""num_blue"":2,""num_good_moves"":0}","[286.03973214285713,286.44598214285713,0.8,286.03973214285713,286.44598214285713,102.1,286.03973214285713,286.44598214285713,204.9,285.03973214285713,286.44598214285713,305.5,268.03973214285713,270.44598214285713,409.6,170.03973214285713,199.44598214285713,515.4,93.03973214285713,115.44598214285713,619.9,52.03973214285714,67.44598214285713,723.5,49.03973214285714,61.44598214285714,827,49.03973214285714,63.44598214285714,932.7,83.03973214285713,108.44598214285713,1036.1,165.03973214285713,191.44598214285713,1141,199.03973214285713,217.44598214285713,1242.6,205.03973214285713,225.44598214285713,1343.4,206.03973214285713,225.44598214285713,1443.9,217.03973214285713,235.44598214285713,1550.6,231.03973214285713,246.44598214285713,1651.3,231.03973214285713,246.44598214285713,1751.8,231.03973214285713,246.44598214285713,1853.1,231.03973214285713,246.44598214285713,1958.3,231.03973214285713,246.44598214285713,2064.5,231.03973214285713,246.44598214285713,2164.6,231.03973214285713,246.44598214285713,2272,231.03973214285713,246.44598214285713,2374.7,231.03973214285713,246.44598214285713,2477.6,231.03973214285713,246.44598214285713,2580.6,231.03973214285713,246.44598214285713,2687.5,231.03973214285713,246.44598214285713,2792.3,231.03973214285713,246.44598214285713,2892.3,231.03973214285713,246.44598214285713,2992.4,231.03973214285713,246.44598214285713,3093,231.03973214285713,246.44598214285713,3193.8,231.03973214285713,246.44598214285713,3294.6,231.03973214285713,246.44598214285713,3400.5,231.03973214285713,246.44598214285713,3504.6,231.03973214285713,246.44598214285713,3609,231.03973214285713,246.44598214285713,3714.4,231.03973214285713,246.44598214285713,3815,231.03973214285713,246.44598214285713,3922.2,231.03973214285713,246.44598214285713,4023.9,231.03973214285713,246.44598214285713,4124.4,231.03973214285713,246.44598214285713,4224.9,231.03973214285713,246.44598214285713,4325,231.03973214285713,246.44598214285713,4425,231.03973214285713,246.44598214285713,4528,231.03973214285713,246.44598214285713,4631,231.03973214285713,246.44598214285713,4737.2,231.03973214285713,246.44598214285713,4839.4,231.03973214285713,246.44598214285713,4942.8]","[]","","",""
"2665","","<div style=""width:500px;"">
  <p>What determined the result of this run?</p>
  </div>","61","html-slider-response","74","987475","0.0-10.0-1.4","100","1","2025-07-09 09:07:56","7701e855f2ef39aa3fd6c71abdc6918a","102.135.144.119","Mozilla/5.0 (Windows NT 10.0; Win64; x64) AppleWebKit/537.36 (KHTML, like Gecko) Chrome/138.0.0.0 Safari/537.36","WebKit","Chrome","138.0.0.0","Windows","10.0","https://app.prolific.com/","en-US,en;q=0.9","669f431d69d93f9fdb0d119d","686d226cabeef709c732f8e1","686e3132843cdf712f5f4bdd","669f431d69d93f9fdb0d119d","2025-07-09T09:24:26.315Z","","","","","","AttribQ","","","","","","","","","","","","","","","","","","","","","","","","","","","","","","","","","","","","","","50",""
"1718","","<div style=""width:500px;"">
  <p>How much control did you have over the ball?</p>
  </div>","39","html-slider-response","75","989194","0.0-10.0-2.4","100","1","2025-07-09 09:07:56","7701e855f2ef39aa3fd6c71abdc6918a","102.135.144.119","Mozilla/5.0 (Windows NT 10.0; Win64; x64) AppleWebKit/537.36 (KHTML, like Gecko) Chrome/138.0.0.0 Safari/537.36","WebKit","Chrome","138.0.0.0","Windows","10.0","https://app.prolific.com/","en-US,en;q=0.9","669f431d69d93f9fdb0d119d","686d226cabeef709c732f8e1","686e3132843cdf712f5f4bdd","669f431d69d93f9fdb0d119d","2025-07-09T09:24:28.034Z","","","","","","ControlQ","","","","","","","","","","","","","","","","","","","","","","","","","","","","","","","","","","","","","","50",""
"1967","","<div style=""width:500px;"">
  <p>How would you describe your current emotional state?</p>
  </div>","63","html-slider-response","76","991162","0.0-10.0-3.4","100","1","2025-07-09 09:07:56","7701e855f2ef39aa3fd6c71abdc6918a","102.135.144.119","Mozilla/5.0 (Windows NT 10.0; Win64; x64) AppleWebKit/537.36 (KHTML, like Gecko) Chrome/138.0.0.0 Safari/537.36","WebKit","Chrome","138.0.0.0","Windows","10.0","https://app.prolific.com/","en-US,en;q=0.9","669f431d69d93f9fdb0d119d","686d226cabeef709c732f8e1","686e3132843cdf712f5f4bdd","669f431d69d93f9fdb0d119d","2025-07-09T09:24:30.002Z","","","","","","StressQ","","","","","","","","","","","","","","","","","","","","","","","","","","","","","","","","","","","","","","50",""
"1646","","<div style=""width:500px;"">
  <p>What best describes how you currently feel?</p>
  </div>","38","html-slider-response","77","992809","0.0-10.0-4.4","100","1","2025-07-09 09:07:56","7701e855f2ef39aa3fd6c71abdc6918a","102.135.144.119","Mozilla/5.0 (Windows NT 10.0; Win64; x64) AppleWebKit/537.36 (KHTML, like Gecko) Chrome/138.0.0.0 Safari/537.36","WebKit","Chrome","138.0.0.0","Windows","10.0","https://app.prolific.com/","en-US,en;q=0.9","669f431d69d93f9fdb0d119d","686d226cabeef709c732f8e1","686e3132843cdf712f5f4bdd","669f431d69d93f9fdb0d119d","2025-07-09T09:24:31.649Z","","","","","","MotivationQ","","","","","","","","","","","","","","","","","","","","","","","","","","","","","","","","","","","","","","50",""
"","","","","ctl-task-cpt","78","1006922","0.0-10.0-0.5","100","1","2025-07-09 09:07:56","7701e855f2ef39aa3fd6c71abdc6918a","102.135.144.119","Mozilla/5.0 (Windows NT 10.0; Win64; x64) AppleWebKit/537.36 (KHTML, like Gecko) Chrome/138.0.0.0 Safari/537.36","WebKit","Chrome","138.0.0.0","Windows","10.0","https://app.prolific.com/","en-US,en;q=0.9","669f431d69d93f9fdb0d119d","686d226cabeef709c732f8e1","686e3132843cdf712f5f4bdd","669f431d69d93f9fdb0d119d","2025-07-09T09:24:45.762Z","","","","","","","","","","","","","","","","win-only","0","g1:NW,g2:SE","0.5","6","0","995261.6","974.6","5977.6","11092.2","1","4","4","6","2","-4","-4","0","0","0","1457","3000","-1830","[""down"",""right""]","{""num_key_presses"":0,""num_perfect"":0,""num_errors"":0,""num_randdir"":0,""num_randdir_good_moves"":0,""num_whilered"":0,""num_whileblue"":0,""num_blue"":0,""num_good_moves"":0}","[282.03973214285713,290.44598214285713,0.3,282.03973214285713,290.44598214285713,101.3,282.03973214285713,290.44598214285713,203.5,282.03973214285713,290.44598214285713,309.4,282.03973214285713,290.44598214285713,410.2,282.03973214285713,290.44598214285713,515.1,282.03973214285713,290.44598214285713,616.4,282.03973214285713,290.44598214285713,718.8,283.03973214285713,310.44598214285713,823.6,354.03973214285713,426.44598214285713,925.2,430.03973214285713,496.44598214285713,1031.4,462.03973214285713,517.4459821428571,1138.1,467.03973214285713,517.4459821428571,1245.3,475.03973214285713,517.4459821428571,1345.7,485.03973214285713,515.4459821428571,1446.7,486.03973214285713,515.4459821428571,1551.6,489.03973214285713,515.4459821428571,1651.7,489.03973214285713,515.4459821428571,1751.8,489.03973214285713,515.4459821428571,1853.7,489.03973214285713,512.4459821428571,1961.3,487.03973214285713,510.44598214285713,2061.5,487.03973214285713,509.44598214285713,2162.6,487.03973214285713,509.44598214285713,2265.3,485.03973214285713,504.44598214285713,2366.7,482.03973214285713,501.44598214285713,2474,479.03973214285713,498.44598214285713,2574.1,478.03973214285713,496.44598214285713,2681.4,466.03973214285713,488.44598214285713,2785.1,454.03973214285713,481.44598214285713,2888.9,446.03973214285713,479.44598214285713,2989.6,434.03973214285713,473.44598214285713,3097.8,413.03973214285713,458.44598214285713,3201.7,392.03973214285713,445.44598214285713,3301.8,364.03973214285713,427.44598214285713,3403.4,346.03973214285713,414.44598214285713,3508.7,345.03973214285713,414.44598214285713,3612.5,345.03973214285713,414.44598214285713,3715.2,345.03973214285713,414.44598214285713,3818.9,345.03973214285713,414.44598214285713,3923.8,343.03973214285713,412.44598214285713,4024.7,343.03973214285713,412.44598214285713,4130.5,342.03973214285713,411.44598214285713,4231.2,340.03973214285713,409.44598214285713,4338.8,338.03973214285713,404.44598214285713,4439.8,335.03973214285713,399.44598214285713,4546,332.03973214285713,395.44598214285713,4647,330.03973214285713,393.44598214285713,4748.7,330.03973214285713,393.44598214285713,4853.1,326.03973214285713,391.44598214285713,4957.7]","[]","","",""
"61288","","<div style=""width:500px;"">
  <p>What determined the result of this run?</p>
  </div>","64","html-slider-response","79","1068211","0.0-10.0-1.5","100","1","2025-07-09 09:07:56","7701e855f2ef39aa3fd6c71abdc6918a","102.135.144.119","Mozilla/5.0 (Windows NT 10.0; Win64; x64) AppleWebKit/537.36 (KHTML, like Gecko) Chrome/138.0.0.0 Safari/537.36","WebKit","Chrome","138.0.0.0","Windows","10.0","https://app.prolific.com/","en-US,en;q=0.9","669f431d69d93f9fdb0d119d","686d226cabeef709c732f8e1","686e3132843cdf712f5f4bdd","669f431d69d93f9fdb0d119d","2025-07-09T09:25:47.051Z","","","","","","AttribQ","","","","","","","","","","","","","","","","","","","","","","","","","","","","","","","","","","","","","","50",""
"3364","","<div style=""width:500px;"">
  <p>How much control did you have over the ball?</p>
  </div>","62","html-slider-response","80","1071577","0.0-10.0-2.5","100","1","2025-07-09 09:07:56","7701e855f2ef39aa3fd6c71abdc6918a","102.135.144.119","Mozilla/5.0 (Windows NT 10.0; Win64; x64) AppleWebKit/537.36 (KHTML, like Gecko) Chrome/138.0.0.0 Safari/537.36","WebKit","Chrome","138.0.0.0","Windows","10.0","https://app.prolific.com/","en-US,en;q=0.9","669f431d69d93f9fdb0d119d","686d226cabeef709c732f8e1","686e3132843cdf712f5f4bdd","669f431d69d93f9fdb0d119d","2025-07-09T09:25:50.417Z","","","","","","ControlQ","","","","","","","","","","","","","","","","","","","","","","","","","","","","","","","","","","","","","","50",""
"2528","","<div style=""width:500px;"">
  <p>How would you describe your current emotional state?</p>
  </div>","35","html-slider-response","81","1074106","0.0-10.0-3.5","100","1","2025-07-09 09:07:56","7701e855f2ef39aa3fd6c71abdc6918a","102.135.144.119","Mozilla/5.0 (Windows NT 10.0; Win64; x64) AppleWebKit/537.36 (KHTML, like Gecko) Chrome/138.0.0.0 Safari/537.36","WebKit","Chrome","138.0.0.0","Windows","10.0","https://app.prolific.com/","en-US,en;q=0.9","669f431d69d93f9fdb0d119d","686d226cabeef709c732f8e1","686e3132843cdf712f5f4bdd","669f431d69d93f9fdb0d119d","2025-07-09T09:25:52.946Z","","","","","","StressQ","","","","","","","","","","","","","","","","","","","","","","","","","","","","","","","","","","","","","","50",""
"1855","","<div style=""width:500px;"">
  <p>What best describes how you currently feel?</p>
  </div>","70","html-slider-response","82","1075962","0.0-10.0-4.5","100","1","2025-07-09 09:07:56","7701e855f2ef39aa3fd6c71abdc6918a","102.135.144.119","Mozilla/5.0 (Windows NT 10.0; Win64; x64) AppleWebKit/537.36 (KHTML, like Gecko) Chrome/138.0.0.0 Safari/537.36","WebKit","Chrome","138.0.0.0","Windows","10.0","https://app.prolific.com/","en-US,en;q=0.9","669f431d69d93f9fdb0d119d","686d226cabeef709c732f8e1","686e3132843cdf712f5f4bdd","669f431d69d93f9fdb0d119d","2025-07-09T09:25:54.802Z","","","","","","MotivationQ","","","","","","","","","","","","","","","","","","","","","","","","","","","","","","","","","","","","","","50",""
"","","","","ctl-task-cpt","83","1094620","0.0-10.0-0.6","100","1","2025-07-09 09:07:56","7701e855f2ef39aa3fd6c71abdc6918a","102.135.144.119","Mozilla/5.0 (Windows NT 10.0; Win64; x64) AppleWebKit/537.36 (KHTML, like Gecko) Chrome/138.0.0.0 Safari/537.36","WebKit","Chrome","138.0.0.0","Windows","10.0","https://app.prolific.com/","en-US,en;q=0.9","669f431d69d93f9fdb0d119d","686d226cabeef709c732f8e1","686e3132843cdf712f5f4bdd","669f431d69d93f9fdb0d119d","2025-07-09T09:26:13.460Z","","","","","","","","","","","","","","","","win-only","0","g1:NW,g2:SE","0.4","7","0","1078414.7","678.6","5683","15632.4","1","4","4","6","1","-1","-1","0","0","0","911.3","3000","-1390","[""left"",""up""]","{""num_key_presses"":0,""num_perfect"":0,""num_errors"":0,""num_randdir"":0,""num_randdir_good_moves"":0,""num_whilered"":0,""num_whileblue"":0,""num_blue"":1,""num_good_moves"":0}","[280.03973214285713,281.44598214285713,0.3,279.03973214285713,281.44598214285713,103,279.03973214285713,281.44598214285713,209.5,279.03973214285713,281.44598214285713,318.1,280.03973214285713,281.44598214285713,424.9,280.03973214285713,280.44598214285713,527.8,269.03973214285713,267.44598214285713,628.9,51.03973214285714,77.44598214285713,736,14.03973214285714,45.44598214285714,837.1,14.03973214285714,45.44598214285714,938.6,17.03973214285714,44.44598214285714,1043.2,26.03973214285714,52.44598214285714,1144.5,143.03973214285713,139.44598214285713,1252.7,471.03973214285713,414.44598214285713,1352.8,473.03973214285713,416.44598214285713,1459.2,473.03973214285713,416.44598214285713,1563.2,461.03973214285713,431.44598214285713,1666.1,376.03973214285713,478.44598214285713,1774.1,347.03973214285713,486.44598214285713,1876.1,339.03973214285713,488.44598214285713,1982.6,330.03973214285713,491.44598214285713,2088.3,330.03973214285713,491.44598214285713,2193.6,330.03973214285713,491.44598214285713,2293.9,330.03973214285713,491.44598214285713,2400.7,330.03973214285713,491.44598214285713,2507.5,330.03973214285713,491.44598214285713,2608.2,330.03973214285713,491.44598214285713,2708.2,330.03973214285713,491.44598214285713,2810.9,330.03973214285713,491.44598214285713,2916.2,330.03973214285713,491.44598214285713,3021.9,330.03973214285713,491.44598214285713,3126,330.03973214285713,491.44598214285713,3230.2,330.03973214285713,491.44598214285713,3340,330.03973214285713,491.44598214285713,3441.9,330.03973214285713,491.44598214285713,3544.3,330.03973214285713,491.44598214285713,3646.3,330.03973214285713,491.44598214285713,3753.2,330.03973214285713,491.44598214285713,3856.4,325.03973214285713,490.44598214285713,3960.7,321.03973214285713,485.44598214285713,4063.3,317.03973214285713,473.44598214285713,4163.5,316.03973214285713,470.44598214285713,4264.9,314.03973214285713,462.44598214285713,4369.2,314.03973214285713,460.44598214285713,4473.5,314.03973214285713,456.44598214285713,4573.9,314.03973214285713,453.44598214285713,4676.3,314.03973214285713,449.44598214285713,4780.1,314.03973214285713,445.44598214285713,4888.1,314.03973214285713,443.44598214285713,4988.8]","[]","","",""
"6091","","<div style=""width:500px;"">
  <p>What determined the result of this run?</p>
  </div>","68","html-slider-response","84","1100714","0.0-10.0-1.6","100","1","2025-07-09 09:07:56","7701e855f2ef39aa3fd6c71abdc6918a","102.135.144.119","Mozilla/5.0 (Windows NT 10.0; Win64; x64) AppleWebKit/537.36 (KHTML, like Gecko) Chrome/138.0.0.0 Safari/537.36","WebKit","Chrome","138.0.0.0","Windows","10.0","https://app.prolific.com/","en-US,en;q=0.9","669f431d69d93f9fdb0d119d","686d226cabeef709c732f8e1","686e3132843cdf712f5f4bdd","669f431d69d93f9fdb0d119d","2025-07-09T09:26:19.554Z","","","","","","AttribQ","","","","","","","","","","","","","","","","","","","","","","","","","","","","","","","","","","","","","","50",""
"1790","","<div style=""width:500px;"">
  <p>How much control did you have over the ball?</p>
  </div>","32","html-slider-response","85","1102506","0.0-10.0-2.6","100","1","2025-07-09 09:07:56","7701e855f2ef39aa3fd6c71abdc6918a","102.135.144.119","Mozilla/5.0 (Windows NT 10.0; Win64; x64) AppleWebKit/537.36 (KHTML, like Gecko) Chrome/138.0.0.0 Safari/537.36","WebKit","Chrome","138.0.0.0","Windows","10.0","https://app.prolific.com/","en-US,en;q=0.9","669f431d69d93f9fdb0d119d","686d226cabeef709c732f8e1","686e3132843cdf712f5f4bdd","669f431d69d93f9fdb0d119d","2025-07-09T09:26:21.346Z","","","","","","ControlQ","","","","","","","","","","","","","","","","","","","","","","","","","","","","","","","","","","","","","","50",""
"2678","","<div style=""width:500px;"">
  <p>How would you describe your current emotional state?</p>
  </div>","67","html-slider-response","86","1105186","0.0-10.0-3.6","100","1","2025-07-09 09:07:56","7701e855f2ef39aa3fd6c71abdc6918a","102.135.144.119","Mozilla/5.0 (Windows NT 10.0; Win64; x64) AppleWebKit/537.36 (KHTML, like Gecko) Chrome/138.0.0.0 Safari/537.36","WebKit","Chrome","138.0.0.0","Windows","10.0","https://app.prolific.com/","en-US,en;q=0.9","669f431d69d93f9fdb0d119d","686d226cabeef709c732f8e1","686e3132843cdf712f5f4bdd","669f431d69d93f9fdb0d119d","2025-07-09T09:26:24.026Z","","","","","","StressQ","","","","","","","","","","","","","","","","","","","","","","","","","","","","","","","","","","","","","","50",""
"1654","","<div style=""width:500px;"">
  <p>What best describes how you currently feel?</p>
  </div>","37","html-slider-response","87","1106841","0.0-10.0-4.6","100","1","2025-07-09 09:07:56","7701e855f2ef39aa3fd6c71abdc6918a","102.135.144.119","Mozilla/5.0 (Windows NT 10.0; Win64; x64) AppleWebKit/537.36 (KHTML, like Gecko) Chrome/138.0.0.0 Safari/537.36","WebKit","Chrome","138.0.0.0","Windows","10.0","https://app.prolific.com/","en-US,en;q=0.9","669f431d69d93f9fdb0d119d","686d226cabeef709c732f8e1","686e3132843cdf712f5f4bdd","669f431d69d93f9fdb0d119d","2025-07-09T09:26:25.681Z","","","","","","MotivationQ","","","","","","","","","","","","","","","","","","","","","","","","","","","","","","","","","","","","","","50",""
"","","","","ctl-task-cpt","88","1129406","0.0-10.0-0.7","100","1","2025-07-09 09:07:56","7701e855f2ef39aa3fd6c71abdc6918a","102.135.144.119","Mozilla/5.0 (Windows NT 10.0; Win64; x64) AppleWebKit/537.36 (KHTML, like Gecko) Chrome/138.0.0.0 Safari/537.36","WebKit","Chrome","138.0.0.0","Windows","10.0","https://app.prolific.com/","en-US,en;q=0.9","669f431d69d93f9fdb0d119d","686d226cabeef709c732f8e1","686e3132843cdf712f5f4bdd","669f431d69d93f9fdb0d119d","2025-07-09T09:26:48.246Z","","","","","","","","","","","","","","","","win-only","0","g1:NW,g2:SE","0.3","8","0","1109294.7","1456.8","6476.2","19538.4","1","4","8","6","1","-1","-1","0","0","0","1101.8","3000","-755","[""left"",""up""]","{""num_key_presses"":0,""num_perfect"":0,""num_errors"":0,""num_randdir"":0,""num_randdir_good_moves"":0,""num_whilered"":0,""num_whileblue"":0,""num_blue"":0,""num_good_moves"":0}","[278.03973214285713,289.44598214285713,0.3,278.03973214285713,289.44598214285713,104.9,278.03973214285713,289.44598214285713,218,278.03973214285713,289.44598214285713,334.7,278.03973214285713,289.44598214285713,449,278.03973214285713,289.44598214285713,565.6,244.03973214285713,224.44598214285713,683.7,92.03973214285713,100.44598214285713,800.6,87.03973214285713,87.44598214285713,920,71.03973214285713,64.44598214285713,1035.7,71.03973214285713,64.44598214285713,1142.9,71.03973214285713,64.44598214285713,1261.4,71.03973214285713,64.44598214285713,1374.5,71.03973214285713,64.44598214285713,1487.8,71.03973214285713,64.44598214285713,1601.1,71.03973214285713,64.44598214285713,1714.2,76.03973214285713,74.44598214285713,1828.4,93.03973214285713,102.44598214285713,1936.7,143.03973214285713,165.44598214285713,2061.1,181.03973214285713,241.44598214285713,2166.3,196.03973214285713,274.44598214285713,2277.2,200.03973214285713,280.44598214285713,2389.5,200.03973214285713,280.44598214285713,2502,200.03973214285713,280.44598214285713,2618.3,200.03973214285713,280.44598214285713,2732.5,200.03973214285713,280.44598214285713,2847.6,206.03973214285713,280.44598214285713,2964.5,220.03973214285713,271.44598214285713,3066.5,225.03973214285713,261.44598214285713,3186.3,231.03973214285713,252.44598214285713,3307.2,233.03973214285713,250.44598214285713,3421.7,233.03973214285713,250.44598214285713,3521.7,233.03973214285713,250.44598214285713,3642.4,233.03973214285713,250.44598214285713,3754.5,233.03973214285713,250.44598214285713,3871.4,233.03973214285713,250.44598214285713,3989.5,233.03973214285713,250.44598214285713,4095.4,233.03973214285713,250.44598214285713,4212.7,233.03973214285713,250.44598214285713,4329.6,233.03973214285713,250.44598214285713,4446,233.03973214285713,250.44598214285713,4561.9,233.03973214285713,250.44598214285713,4678.6,233.03973214285713,250.44598214285713,4779,233.03973214285713,250.44598214285713,4915.9]","[]","","",""
"2913","","<div style=""width:500px;"">
  <p>What determined the result of this run?</p>
  </div>","67","html-slider-response","89","1132321","0.0-10.0-1.7","100","1","2025-07-09 09:07:56","7701e855f2ef39aa3fd6c71abdc6918a","102.135.144.119","Mozilla/5.0 (Windows NT 10.0; Win64; x64) AppleWebKit/537.36 (KHTML, like Gecko) Chrome/138.0.0.0 Safari/537.36","WebKit","Chrome","138.0.0.0","Windows","10.0","https://app.prolific.com/","en-US,en;q=0.9","669f431d69d93f9fdb0d119d","686d226cabeef709c732f8e1","686e3132843cdf712f5f4bdd","669f431d69d93f9fdb0d119d","2025-07-09T09:26:51.161Z","","","","","","AttribQ","","","","","","","","","","","","","","","","","","","","","","","","","","","","","","","","","","","","","","50",""
"1775","","<div style=""width:500px;"">
  <p>How much control did you have over the ball?</p>
  </div>","37","html-slider-response","90","1134098","0.0-10.0-2.7","100","1","2025-07-09 09:07:56","7701e855f2ef39aa3fd6c71abdc6918a","102.135.144.119","Mozilla/5.0 (Windows NT 10.0; Win64; x64) AppleWebKit/537.36 (KHTML, like Gecko) Chrome/138.0.0.0 Safari/537.36","WebKit","Chrome","138.0.0.0","Windows","10.0","https://app.prolific.com/","en-US,en;q=0.9","669f431d69d93f9fdb0d119d","686d226cabeef709c732f8e1","686e3132843cdf712f5f4bdd","669f431d69d93f9fdb0d119d","2025-07-09T09:26:52.938Z","","","","","","ControlQ","","","","","","","","","","","","","","","","","","","","","","","","","","","","","","","","","","","","","","50",""
"1629","","<div style=""width:500px;"">
  <p>How would you describe your current emotional state?</p>
  </div>","65","html-slider-response","91","1135730","0.0-10.0-3.7","100","1","2025-07-09 09:07:56","7701e855f2ef39aa3fd6c71abdc6918a","102.135.144.119","Mozilla/5.0 (Windows NT 10.0; Win64; x64) AppleWebKit/537.36 (KHTML, like Gecko) Chrome/138.0.0.0 Safari/537.36","WebKit","Chrome","138.0.0.0","Windows","10.0","https://app.prolific.com/","en-US,en;q=0.9","669f431d69d93f9fdb0d119d","686d226cabeef709c732f8e1","686e3132843cdf712f5f4bdd","669f431d69d93f9fdb0d119d","2025-07-09T09:26:54.570Z","","","","","","StressQ","","","","","","","","","","","","","","","","","","","","","","","","","","","","","","","","","","","","","","50",""
"1894","","<div style=""width:500px;"">
  <p>What best describes how you currently feel?</p>
  </div>","34","html-slider-response","92","1137625","0.0-10.0-4.7","100","1","2025-07-09 09:07:56","7701e855f2ef39aa3fd6c71abdc6918a","102.135.144.119","Mozilla/5.0 (Windows NT 10.0; Win64; x64) AppleWebKit/537.36 (KHTML, like Gecko) Chrome/138.0.0.0 Safari/537.36","WebKit","Chrome","138.0.0.0","Windows","10.0","https://app.prolific.com/","en-US,en;q=0.9","669f431d69d93f9fdb0d119d","686d226cabeef709c732f8e1","686e3132843cdf712f5f4bdd","669f431d69d93f9fdb0d119d","2025-07-09T09:26:56.465Z","","","","","","MotivationQ","","","","","","","","","","","","","","","","","","","","","","","","","","","","","","","","","","","","","","50",""
"","","","","ctl-task-cpt","93","1156222","0.0-10.0-0.8","100","1","2025-07-09 09:07:56","7701e855f2ef39aa3fd6c71abdc6918a","102.135.144.119","Mozilla/5.0 (Windows NT 10.0; Win64; x64) AppleWebKit/537.36 (KHTML, like Gecko) Chrome/138.0.0.0 Safari/537.36","WebKit","Chrome","138.0.0.0","Windows","10.0","https://app.prolific.com/","en-US,en;q=0.9","669f431d69d93f9fdb0d119d","686d226cabeef709c732f8e1","686e3132843cdf712f5f4bdd","669f431d69d93f9fdb0d119d","2025-07-09T09:27:15.062Z","","","","","","","","","","","","","","","","win-only","3","g1:SW,g2:NE","0.2","9","0","1140077.6","1542.5","6548.4","15564.5","1","4","4","6","2","-4","-4","0","0","0","1607.8","3000","-1120","[""up"",""right""]","{""num_key_presses"":0,""num_perfect"":0,""num_errors"":0,""num_randdir"":0,""num_randdir_good_moves"":0,""num_whilered"":0,""num_whileblue"":0,""num_blue"":0,""num_good_moves"":0}","[279.03973214285713,286.44598214285713,0.8,279.03973214285713,286.44598214285713,108.6,279.03973214285713,286.44598214285713,212.2,279.03973214285713,286.44598214285713,317.2,279.03973214285713,286.44598214285713,424.2,279.03973214285713,286.44598214285713,524.5,228.03973214285713,276.44598214285713,636.1,124.03973214285713,374.44598214285713,752.1,109.03973214285713,435.44598214285713,852.5,99.03973214285713,464.44598214285713,961.1,90.03973214285713,478.44598214285713,1075.5,397.03973214285713,152.44598214285713,1198.9,442.03973214285713,96.44598214285713,1307.8,444.03973214285713,93.44598214285713,1424.9,487.03973214285713,76.44598214285713,1536.4,495.03973214285713,73.44598214285713,1643.4,495.03973214285713,73.44598214285713,1744.3,495.03973214285713,73.44598214285713,1844.9,494.03973214285713,75.44598214285713,1946.9,487.03973214285713,87.44598214285713,2055.7,475.03973214285713,102.44598214285713,2166.9,466.03973214285713,117.44598214285713,2273.6,447.03973214285713,139.44598214285713,2374,369.03973214285713,208.44598214285713,2475.3,323.03973214285713,246.44598214285713,2587.2,291.03973214285713,267.44598214285713,2688.7,215.03973214285713,306.44598214285713,2789.4,163.03973214285713,338.44598214285713,2898.3,163.03973214285713,338.44598214285713,2999.4,163.03973214285713,338.44598214285713,3107.3,163.03973214285713,338.44598214285713,3209.5,163.03973214285713,338.44598214285713,3318.3,163.03973214285713,338.44598214285713,3422.4,163.03973214285713,338.44598214285713,3522.6,163.03973214285713,338.44598214285713,3624.6,163.03973214285713,338.44598214285713,3731.7,163.03973214285713,338.44598214285713,3834.2,163.03973214285713,338.44598214285713,3938.8,163.03973214285713,338.44598214285713,4046.8,163.03973214285713,338.44598214285713,4153.3,163.03973214285713,338.44598214285713,4260.3,163.03973214285713,338.44598214285713,4366.6,163.03973214285713,338.44598214285713,4472.9,163.03973214285713,338.44598214285713,4577.3,163.03973214285713,338.44598214285713,4681.2,163.03973214285713,338.44598214285713,4785.1,163.03973214285713,338.44598214285713,4889.3,163.03973214285713,338.44598214285713,4994.1]","[]","","",""
"15449","","<div style=""width:500px;"">
  <p>What determined the result of this run?</p>
  </div>","69","html-slider-response","94","1171674","0.0-10.0-1.8","100","1","2025-07-09 09:07:56","7701e855f2ef39aa3fd6c71abdc6918a","102.135.144.119","Mozilla/5.0 (Windows NT 10.0; Win64; x64) AppleWebKit/537.36 (KHTML, like Gecko) Chrome/138.0.0.0 Safari/537.36","WebKit","Chrome","138.0.0.0","Windows","10.0","https://app.prolific.com/","en-US,en;q=0.9","669f431d69d93f9fdb0d119d","686d226cabeef709c732f8e1","686e3132843cdf712f5f4bdd","669f431d69d93f9fdb0d119d","2025-07-09T09:27:30.514Z","","","","","","AttribQ","","","","","","","","","","","","","","","","","","","","","","","","","","","","","","","","","","","","","","50",""
"1709","","<div style=""width:500px;"">
  <p>How much control did you have over the ball?</p>
  </div>","71","html-slider-response","95","1173385","0.0-10.0-2.8","100","1","2025-07-09 09:07:56","7701e855f2ef39aa3fd6c71abdc6918a","102.135.144.119","Mozilla/5.0 (Windows NT 10.0; Win64; x64) AppleWebKit/537.36 (KHTML, like Gecko) Chrome/138.0.0.0 Safari/537.36","WebKit","Chrome","138.0.0.0","Windows","10.0","https://app.prolific.com/","en-US,en;q=0.9","669f431d69d93f9fdb0d119d","686d226cabeef709c732f8e1","686e3132843cdf712f5f4bdd","669f431d69d93f9fdb0d119d","2025-07-09T09:27:32.225Z","","","","","","ControlQ","","","","","","","","","","","","","","","","","","","","","","","","","","","","","","","","","","","","","","50",""
"2198","","<div style=""width:500px;"">
  <p>How would you describe your current emotional state?</p>
  </div>","31","html-slider-response","96","1175585","0.0-10.0-3.8","100","1","2025-07-09 09:07:56","7701e855f2ef39aa3fd6c71abdc6918a","102.135.144.119","Mozilla/5.0 (Windows NT 10.0; Win64; x64) AppleWebKit/537.36 (KHTML, like Gecko) Chrome/138.0.0.0 Safari/537.36","WebKit","Chrome","138.0.0.0","Windows","10.0","https://app.prolific.com/","en-US,en;q=0.9","669f431d69d93f9fdb0d119d","686d226cabeef709c732f8e1","686e3132843cdf712f5f4bdd","669f431d69d93f9fdb0d119d","2025-07-09T09:27:34.425Z","","","","","","StressQ","","","","","","","","","","","","","","","","","","","","","","","","","","","","","","","","","","","","","","50",""
"3102","","<div style=""width:500px;"">
  <p>What best describes how you currently feel?</p>
  </div>","63","html-slider-response","97","1178692","0.0-10.0-4.8","100","1","2025-07-09 09:07:56","7701e855f2ef39aa3fd6c71abdc6918a","102.135.144.119","Mozilla/5.0 (Windows NT 10.0; Win64; x64) AppleWebKit/537.36 (KHTML, like Gecko) Chrome/138.0.0.0 Safari/537.36","WebKit","Chrome","138.0.0.0","Windows","10.0","https://app.prolific.com/","en-US,en;q=0.9","669f431d69d93f9fdb0d119d","686d226cabeef709c732f8e1","686e3132843cdf712f5f4bdd","669f431d69d93f9fdb0d119d","2025-07-09T09:27:37.532Z","","","","","","MotivationQ","","","","","","","","","","","","","","","","","","","","","","","","","","","","","","","","","","","","","","50",""
