"rt","response_timestamp","stimulus","response","trial_type","trial_index","time_elapsed","internal_node_id","run_id","condition","recorded_at","source_code_version","ip","user_agent","device","browser","browser_version","platform","platform_version","referer","accept_language","PROLIFIC_PID","STUDY_ID","SESSION_ID","prolific_id","realtime","view_history","question_order","consent","success","question_id","eventType","responses","item_order","radio_event_ids","radio_event_times","key_event_times","mouse_event_times","straightlining","zigzagging","honeypot","which_type","canvas_config","goals_layout","control_level","trial_number","tutorial_trial_number","trial_start_time","phase1_start_time","phase2_start_time","phase3_start_time","goal_1_value","goal_1_distance","goal_2_value","goal_2_distance","goal_selected","outcome","outcome_total","participant_final_score","participant_initial_score","participant_final_score_prop","goal_choice_rt","allocated_time","allocated_time_remaining","goal_direction","counts","mouse_movements","key_presses","correct","slider_start"
"10667","1752052395239","<p style='font-size:40px;line-height:1.25'><strong>Welcome to the experiment!</strong></p><p style='font-size:1.1em;line-height:1.25'>Thank you for your interest in our experiment! Before you begin, it is important that we obtain your informed consent to participate in the study.</p><p style='font-size:1.1em;line-height:1.25'>On the next screen will be an <strong>information sheet</strong> for you to read. To participate in the study we need you to read this information sheet and the following consent form carefully. If you agree with all the statements, please click the <strong>I agree</strong> button.</p><p style='font-size:1.1em;line-height:1.25'>Press <strong>Next</strong> to read the information sheet.</p>","0","custom-html-button-response","0","10684","0.0-0.0","178","1","2025-07-09 09:12:51","7701e855f2ef39aa3fd6c71abdc6918a","216.120.189.45","Mozilla/5.0 (Windows NT 10.0; Win64; x64) AppleWebKit/537.36 (KHTML, like Gecko) Chrome/137.0.0.0 Safari/537.36","WebKit","Chrome","137.0.0.0","Windows","10.0","https://app.prolific.com/","en-US,en;q=0.9","673594215b1a0b92d5835525","686d226cabeef709c732f8e1","686e314222d1bfaadc1433c1","673594215b1a0b92d5835525","2025-07-09T09:13:15.246Z","","","","","","","","","","","","","","","","","","","","","","","","","","","","","","","","","","","","","","","","","","","",""
"44281","","","","instructions","1","54968","0.0-1.0","178","1","2025-07-09 09:12:51","7701e855f2ef39aa3fd6c71abdc6918a","216.120.189.45","Mozilla/5.0 (Windows NT 10.0; Win64; x64) AppleWebKit/537.36 (KHTML, like Gecko) Chrome/137.0.0.0 Safari/537.36","WebKit","Chrome","137.0.0.0","Windows","10.0","https://app.prolific.com/","en-US,en;q=0.9","673594215b1a0b92d5835525","686d226cabeef709c732f8e1","686e314222d1bfaadc1433c1","673594215b1a0b92d5835525","","[{""page_index"":0,""viewing_time"":18208},{""page_index"":1,""viewing_time"":26070}]","","","","","","","","","","","","","","","","","","","","","","","","","","","","","","","","","","","","","","","","","","",""
"3094","","","{""Q0"":"""",""Q1"":"""",""Q2"":"""",""Q3"":"""",""Q4"":"""",""Q5"":"""",""Q6"":""I agree""}","survey-multi-choice","2","58066","0.0-2.0","178","1","2025-07-09 09:12:51","7701e855f2ef39aa3fd6c71abdc6918a","216.120.189.45","Mozilla/5.0 (Windows NT 10.0; Win64; x64) AppleWebKit/537.36 (KHTML, like Gecko) Chrome/137.0.0.0 Safari/537.36","WebKit","Chrome","137.0.0.0","Windows","10.0","https://app.prolific.com/","en-US,en;q=0.9","673594215b1a0b92d5835525","686d226cabeef709c732f8e1","686e314222d1bfaadc1433c1","673594215b1a0b92d5835525","","","[0,1,2,3,4,5,6]","true","","","","","","","","","","","","","","","","","","","","","","","","","","","","","","","","","","","","","","","","",""
"1245","","","","fullscreen","3","60314","0.0-4.0","178","1","2025-07-09 09:12:51","7701e855f2ef39aa3fd6c71abdc6918a","216.120.189.45","Mozilla/5.0 (Windows NT 10.0; Win64; x64) AppleWebKit/537.36 (KHTML, like Gecko) Chrome/137.0.0.0 Safari/537.36","WebKit","Chrome","137.0.0.0","Windows","10.0","https://app.prolific.com/","en-US,en;q=0.9","673594215b1a0b92d5835525","686d226cabeef709c732f8e1","686e314222d1bfaadc1433c1","673594215b1a0b92d5835525","","","","","true","","","","","","","","","","","","","","","","","","","","","","","","","","","","","","","","","","","","","","","",""
"57892","1752052502770"," <p style='font-size:1.1em;line-height:1.25'>Thank you for completing the consent form and closing all other tabs.</p><p style='font-size:1.1em;line-height:1.25'>We will now invite you to fill in some demographic information and questionnaires, before starting the game.<br>This will take about 5 minutes.<br></p><p style='font-size:1.1em;line-height:1.25'>Press the <strong>Next</strong> button to continue.</p>","0","custom-html-button-response","4","118208","0.0-5.0","178","1","2025-07-09 09:12:51","7701e855f2ef39aa3fd6c71abdc6918a","216.120.189.45","Mozilla/5.0 (Windows NT 10.0; Win64; x64) AppleWebKit/537.36 (KHTML, like Gecko) Chrome/137.0.0.0 Safari/537.36","WebKit","Chrome","137.0.0.0","Windows","10.0","https://app.prolific.com/","en-US,en;q=0.9","673594215b1a0b92d5835525","686d226cabeef709c732f8e1","686e314222d1bfaadc1433c1","673594215b1a0b92d5835525","2025-07-09T09:15:02.770Z","","","","","","","","","","","","","","","","","","","","","","","","","","","","","","","","","","","","","","","","","","","",""
"4242","","","{""age"":""32""}","survey-text","5","122457","0.0-6.0-0.0","178","1","2025-07-09 09:12:51","7701e855f2ef39aa3fd6c71abdc6918a","216.120.189.45","Mozilla/5.0 (Windows NT 10.0; Win64; x64) AppleWebKit/537.36 (KHTML, like Gecko) Chrome/137.0.0.0 Safari/537.36","WebKit","Chrome","137.0.0.0","Windows","10.0","https://app.prolific.com/","en-US,en;q=0.9","673594215b1a0b92d5835525","686d226cabeef709c732f8e1","686e314222d1bfaadc1433c1","673594215b1a0b92d5835525","","","","","","0","demographics","","","","","","","","","","","","","","","","","","","","","","","","","","","","","","","","","","","","","",""
"2806","","","{""gender_identity"":""female/woman""}","survey-multi-choice","6","125265","0.0-6.0-1.0","178","1","2025-07-09 09:12:51","7701e855f2ef39aa3fd6c71abdc6918a","216.120.189.45","Mozilla/5.0 (Windows NT 10.0; Win64; x64) AppleWebKit/537.36 (KHTML, like Gecko) Chrome/137.0.0.0 Safari/537.36","WebKit","Chrome","137.0.0.0","Windows","10.0","https://app.prolific.com/","en-US,en;q=0.9","673594215b1a0b92d5835525","686d226cabeef709c732f8e1","686e314222d1bfaadc1433c1","673594215b1a0b92d5835525","","","[0]","","","1","demographics","","","","","","","","","","","","","","","","","","","","","","","","","","","","","","","","","","","","","",""
"3880","","","{""assigned_sex"":""female""}","survey-multi-choice","7","129145","0.0-6.0-2.0","178","1","2025-07-09 09:12:51","7701e855f2ef39aa3fd6c71abdc6918a","216.120.189.45","Mozilla/5.0 (Windows NT 10.0; Win64; x64) AppleWebKit/537.36 (KHTML, like Gecko) Chrome/137.0.0.0 Safari/537.36","WebKit","Chrome","137.0.0.0","Windows","10.0","https://app.prolific.com/","en-US,en;q=0.9","673594215b1a0b92d5835525","686d226cabeef709c732f8e1","686e314222d1bfaadc1433c1","673594215b1a0b92d5835525","","","[0]","","","2","demographics","","","","","","","","","","","","","","","","","","","","","","","","","","","","","","","","","","","","","",""
"11414","","","{""menstrual_cycle"":""Yes""}","survey-multi-choice","8","140561","0.0-6.0-3.0","178","1","2025-07-09 09:12:51","7701e855f2ef39aa3fd6c71abdc6918a","216.120.189.45","Mozilla/5.0 (Windows NT 10.0; Win64; x64) AppleWebKit/537.36 (KHTML, like Gecko) Chrome/137.0.0.0 Safari/537.36","WebKit","Chrome","137.0.0.0","Windows","10.0","https://app.prolific.com/","en-US,en;q=0.9","673594215b1a0b92d5835525","686d226cabeef709c732f8e1","686e314222d1bfaadc1433c1","673594215b1a0b92d5835525","","","[0]","","","4","demographics","","","","","","","","","","","","","","","","","","","","","","","","","","","","","","","","","","","","","",""
"105053","","","{""education"":""Bachelor's Degree (e.g., BA)""}","survey-multi-choice","9","245618","0.0-6.0-4.0","178","1","2025-07-09 09:12:51","7701e855f2ef39aa3fd6c71abdc6918a","216.120.189.45","Mozilla/5.0 (Windows NT 10.0; Win64; x64) AppleWebKit/537.36 (KHTML, like Gecko) Chrome/137.0.0.0 Safari/537.36","WebKit","Chrome","137.0.0.0","Windows","10.0","https://app.prolific.com/","en-US,en;q=0.9","673594215b1a0b92d5835525","686d226cabeef709c732f8e1","686e314222d1bfaadc1433c1","673594215b1a0b92d5835525","","","[0]","","","5","demographics","","","","","","","","","","","","","","","","","","","","","","","","","","","","","","","","","","","","","",""
"7087","","","{""education"":""Bachelor's Degree (e.g., BA)""}","survey-multi-choice","10","252706","0.0-6.0-5.0","178","1","2025-07-09 09:12:51","7701e855f2ef39aa3fd6c71abdc6918a","216.120.189.45","Mozilla/5.0 (Windows NT 10.0; Win64; x64) AppleWebKit/537.36 (KHTML, like Gecko) Chrome/137.0.0.0 Safari/537.36","WebKit","Chrome","137.0.0.0","Windows","10.0","https://app.prolific.com/","en-US,en;q=0.9","673594215b1a0b92d5835525","686d226cabeef709c732f8e1","686e314222d1bfaadc1433c1","673594215b1a0b92d5835525","2025-07-09T09:17:17.268Z","","[0]","","","6","demographics","","","","","","","","","","","","","","","","","","","","","","","","","","","","","","","","","","","","","",""
"71484","","","{""mental_health_condition"":""N/A"",""mental_health_treatment"":""N/A"",""psychiatric_medication"":""N/A""}","survey-text","11","324193","0.0-7.0-0.0","178","1","2025-07-09 09:12:51","7701e855f2ef39aa3fd6c71abdc6918a","216.120.189.45","Mozilla/5.0 (Windows NT 10.0; Win64; x64) AppleWebKit/537.36 (KHTML, like Gecko) Chrome/137.0.0.0 Safari/537.36","WebKit","Chrome","137.0.0.0","Windows","10.0","https://app.prolific.com/","en-US,en;q=0.9","673594215b1a0b92d5835525","686d226cabeef709c732f8e1","686e314222d1bfaadc1433c1","673594215b1a0b92d5835525","2025-07-09T09:18:28.755Z","","","","","1","mental_health","","","","","","","","","","","","","","","","","","","","","","","","","","","","","","","","","","","","","",""
"79566","","","{""depression_history"":[""No""]}","survey-multi-select","12","403763","0.0-7.0-1.0","178","1","2025-07-09 09:12:51","7701e855f2ef39aa3fd6c71abdc6918a","216.120.189.45","Mozilla/5.0 (Windows NT 10.0; Win64; x64) AppleWebKit/537.36 (KHTML, like Gecko) Chrome/137.0.0.0 Safari/537.36","WebKit","Chrome","137.0.0.0","Windows","10.0","https://app.prolific.com/","en-US,en;q=0.9","673594215b1a0b92d5835525","686d226cabeef709c732f8e1","686e314222d1bfaadc1433c1","673594215b1a0b92d5835525","","","[0]","","","","mental_health","","","","","","","","","","","","","","","","","","","","","","","","","","","","","","","","","","","","","",""
"717515","","","","survey-template","13","1121286","0.0-7.0-3.0","178","1","2025-07-09 09:12:51","7701e855f2ef39aa3fd6c71abdc6918a","216.120.189.45","Mozilla/5.0 (Windows NT 10.0; Win64; x64) AppleWebKit/537.36 (KHTML, like Gecko) Chrome/137.0.0.0 Safari/537.36","WebKit","Chrome","137.0.0.0","Windows","10.0","https://app.prolific.com/","en-US,en;q=0.9","673594215b1a0b92d5835525","686d226cabeef709c732f8e1","686e314222d1bfaadc1433c1","673594215b1a0b92d5835525","2025-07-09T09:31:45.848Z","","","","","","ius","{""Q01"":""4"",""Q02"":""3"",""Q03"":""4"",""Q04"":""4"",""Q05"":""4"",""Q06"":""0"",""Q07"":""1"",""Q08"":""0"",""Q09"":""4"",""Q10"":""0"",""Q11"":""1"",""Q12"":""4"",""Q13"":""3""}","[0,1,2,3,4,5,6,7,8,9,10,11,12]","[""Q01"",""Q02"",""Q03"",""Q03"",""Q02"",""Q03"",""Q04"",""Q05"",""Q06"",""Q07"",""Q08"",""Q09"",""Q10"",""Q11"",""Q12"",""Q13""]","[585703.1000000238,589319.1000000238,590783.1000000238,593118.9000000358,593951.7000000477,598175.1000000238,614462.7000000477,622102.9000000358,650126.4000000358,658590.4000000358,666358.7000000477,674542.9000000358,688438.9000000358,698583.3000000119,714452.9000000358,716479.6000000238]","[]","[585703.1000000238,589319.1000000238,590783.1000000238,593118.9000000358,593951.7000000477,596158.8000000119,598175.1000000238,614462.7000000477,622102.9000000358,650126.4000000358,658590.4000000358,666358.7000000477,674542.9000000358,688438.9000000358,696863.4000000358,698583.3000000119,714452.9000000358,715399.3000000119,716479.6000000238,717511.9000000358]","0.46153846153846156","0.75","0","","","","","","","","","","","","","","","","","","","","","","","","","","","","",""
"4809","1752053510658","<p style='font-size:1.1em;line-height:1.25'>In the following, we will ask you a few questions relating to your experiences over the past month.<br></p><p style='font-size:1.1em;line-height:1.25'>Press the <strong>Next</strong> button to continue.</p>","0","custom-html-button-response","14","1126097","0.0-7.0-4.0","178","1","2025-07-09 09:12:51","7701e855f2ef39aa3fd6c71abdc6918a","216.120.189.45","Mozilla/5.0 (Windows NT 10.0; Win64; x64) AppleWebKit/537.36 (KHTML, like Gecko) Chrome/137.0.0.0 Safari/537.36","WebKit","Chrome","137.0.0.0","Windows","10.0","https://app.prolific.com/","en-US,en;q=0.9","673594215b1a0b92d5835525","686d226cabeef709c732f8e1","686e314222d1bfaadc1433c1","673594215b1a0b92d5835525","2025-07-09T09:31:50.659Z","","","","","","","","","","","","","","","","","","","","","","","","","","","","","","","","","","","","","","","","","","","",""
"192909.19999998808","","","","survey-template","15","1319009","0.0-7.0-5.0","178","1","2025-07-09 09:12:51","7701e855f2ef39aa3fd6c71abdc6918a","216.120.189.45","Mozilla/5.0 (Windows NT 10.0; Win64; x64) AppleWebKit/537.36 (KHTML, like Gecko) Chrome/137.0.0.0 Safari/537.36","WebKit","Chrome","137.0.0.0","Windows","10.0","https://app.prolific.com/","en-US,en;q=0.9","673594215b1a0b92d5835525","686d226cabeef709c732f8e1","686e314222d1bfaadc1433c1","673594215b1a0b92d5835525","2025-07-09T09:35:03.572Z","","","","","","pss","{""Q01"":""2"",""Q02"":""0"",""Q03"":""2"",""Q04"":""0"",""Q05"":""0"",""Q06"":""0"",""Q07"":""0"",""Q08"":""0"",""Q09"":""2"",""Q10"":""1""}","[0,1,2,3,4,5,6,7,8,9]","[""Q01"",""Q02"",""Q03"",""Q04"",""Q05"",""Q06"",""Q07"",""Q08"",""Q09"",""Q10""]","[84381.79999995232,91169.19999998808,96730.09999996424,110555.39999997616,118318.19999998808,124123.5,135990.39999997616,144262.19999998808,152326.59999996424,162771.19999998808]","[]","[0,84381.79999995232,91169.19999998808,96730.09999996424,110555.39999997616,118318.19999998808,124123.5,134710.69999998808,135990.39999997616,144262.19999998808,152326.59999996424,162771.19999998808,192902.5]","0.4","0.3333333333333333","0","","","","","","","","","","","","","","","","","","","","","","","","","","","","",""
"2868","1752053706442","<p style='font-size:1.1em;line-height:1.25'>Thank you for your answers! Now we will ask you a few more questions relating to your feelings in the last 24 hours.<br></p><p style='font-size:1.1em;line-height:1.25'>Press the <strong>Next</strong> button to continue.</p>","0","custom-html-button-response","16","1321880","0.0-7.0-6.0","178","1","2025-07-09 09:12:51","7701e855f2ef39aa3fd6c71abdc6918a","216.120.189.45","Mozilla/5.0 (Windows NT 10.0; Win64; x64) AppleWebKit/537.36 (KHTML, like Gecko) Chrome/137.0.0.0 Safari/537.36","WebKit","Chrome","137.0.0.0","Windows","10.0","https://app.prolific.com/","en-US,en;q=0.9","673594215b1a0b92d5835525","686d226cabeef709c732f8e1","686e314222d1bfaadc1433c1","673594215b1a0b92d5835525","2025-07-09T09:35:06.442Z","","","","","","","","","","","","","","","","","","","","","","","","","","","","","","","","","","","","","","","","","","","",""
"134789.39999997616","","","","survey-template","17","1456675","0.0-7.0-7.0","178","1","2025-07-09 09:12:51","7701e855f2ef39aa3fd6c71abdc6918a","216.120.189.45","Mozilla/5.0 (Windows NT 10.0; Win64; x64) AppleWebKit/537.36 (KHTML, like Gecko) Chrome/137.0.0.0 Safari/537.36","WebKit","Chrome","137.0.0.0","Windows","10.0","https://app.prolific.com/","en-US,en;q=0.9","673594215b1a0b92d5835525","686d226cabeef709c732f8e1","686e314222d1bfaadc1433c1","673594215b1a0b92d5835525","2025-07-09T09:37:21.237Z","","","","","","drsp","{""Q01"":""0"",""Q02"":""0"",""Q03"":""0"",""Q04"":""0"",""Q05"":""0"",""Q06"":""0"",""Q07"":""0"",""Q08"":""0"",""Q09"":""0"",""Q10"":""0"",""Q11"":""1"",""Q12"":""2"",""Q13"":""3"",""Q14"":""0"",""Q15"":""0"",""Q16"":""1"",""Q17"":""0"",""Q18"":""1"",""Q19"":""0"",""Q20"":""0"",""Q21"":""0""}","[0,1,2,3,4,5,6,7,8,9,10,11,12,13,14,15,16,17,18,19,20]","[""Q01"",""Q02"",""Q03"",""Q04"",""Q05"",""Q06"",""Q17"",""Q16"",""Q15"",""Q14"",""Q13"",""Q12"",""Q11"",""Q10"",""Q09"",""Q08"",""Q07"",""Q18"",""Q19"",""Q20"",""Q21""]","[9733.899999976158,10510,11662.099999964237,12773.5,13717.899999976158,15141.899999976158,24677.69999998808,27285.799999952316,29077.69999998808,39789.5,42381.69999998808,46022.09999996424,50054.19999998808,51590,52165.89999997616,54038.299999952316,57197.799999952316,68077.29999995232,80077.19999998808,83653.89999997616,85902.59999996424]","[]","[0.09999996423721313,9733.899999976158,10510,11662.099999964237,12773.5,13717.899999976158,15141.899999976158,24677.69999998808,27285.799999952316,29077.69999998808,39789.5,42381.69999998808,46022.09999996424,50054.19999998808,51590,52165.89999997616,54038.299999952316,57197.799999952316,68077.29999995232,80077.19999998808,83653.89999997616,85902.59999996424,134777.09999996424]","0.7619047619047619","0.35","0","","","","","","","","","","","","","","","","","","","","","","","","","","","","",""
"24203.799999952316","","","","survey-template","18","1480882","0.0-7.0-8.0","178","1","2025-07-09 09:12:51","7701e855f2ef39aa3fd6c71abdc6918a","216.120.189.45","Mozilla/5.0 (Windows NT 10.0; Win64; x64) AppleWebKit/537.36 (KHTML, like Gecko) Chrome/137.0.0.0 Safari/537.36","WebKit","Chrome","137.0.0.0","Windows","10.0","https://app.prolific.com/","en-US,en;q=0.9","673594215b1a0b92d5835525","686d226cabeef709c732f8e1","686e314222d1bfaadc1433c1","673594215b1a0b92d5835525","2025-07-09T09:37:45.444Z","","","","","","stress","{""Q01"":""0"",""Q02"":""4"",""Q03"":""0""}","[0,1,2]","[""Q01"",""Q02"",""Q03""]","[3874.2999999523163,6242.099999964237,12386.799999952316]","[]","[3874.2999999523163,6242.099999964237,12386.799999952316,24202.69999998808]","0.6666666666666666","1","0","","","","","","","","","","","","","","","","","","","","","","","","","","","","",""
"199710","","","","instructions","19","1680593","0.0-8.0-0.0","178","1","2025-07-09 09:12:51","7701e855f2ef39aa3fd6c71abdc6918a","216.120.189.45","Mozilla/5.0 (Windows NT 10.0; Win64; x64) AppleWebKit/537.36 (KHTML, like Gecko) Chrome/137.0.0.0 Safari/537.36","WebKit","Chrome","137.0.0.0","Windows","10.0","https://app.prolific.com/","en-US,en;q=0.9","673594215b1a0b92d5835525","686d226cabeef709c732f8e1","686e314222d1bfaadc1433c1","673594215b1a0b92d5835525","","[{""page_index"":0,""viewing_time"":80413},{""page_index"":1,""viewing_time"":61536},{""page_index"":2,""viewing_time"":27488},{""page_index"":3,""viewing_time"":30272}]","","","","","","","","","","","","","","","","","","","","","","","","","","","","","","","","","","","","","","","","","","",""
"","","","","ctl-task-cpt","20","1723998","0.0-8.0-1.0","178","1","2025-07-09 09:12:51","7701e855f2ef39aa3fd6c71abdc6918a","216.120.189.45","Mozilla/5.0 (Windows NT 10.0; Win64; x64) AppleWebKit/537.36 (KHTML, like Gecko) Chrome/137.0.0.0 Safari/537.36","WebKit","Chrome","137.0.0.0","Windows","10.0","https://app.prolific.com/","en-US,en;q=0.9","673594215b1a0b92d5835525","686d226cabeef709c732f8e1","686e314222d1bfaadc1433c1","673594215b1a0b92d5835525","","","","","","","","","","","","","","","","","win-only","1","g1:NE,g2:SW","1","0","1","1694236.5","5630.9","9638.5","40394.5","2","4","4","6","1","2","-2","0","0","0","2273.3","4000","760","[""up"",""right""]","{""num_key_presses"":15,""num_perfect"":4,""num_errors"":4,""num_randdir"":0,""num_randdir_good_moves"":0,""num_whilered"":7,""num_whileblue"":0,""num_blue"":3,""num_good_moves"":4}","[263.896875,260.303125,2.2,263.896875,260.303125,104.8,261.896875,260.303125,211.6,225.896875,259.303125,316.2,222.896875,257.303125,424.2,233.896875,250.303125,526.9,234.896875,250.303125,626.9,234.896875,250.303125,730.2,234.896875,250.303125,844.3,235.896875,250.303125,946.9,235.896875,255.303125,1047.2,235.896875,257.303125,1152.6,235.896875,257.303125,1259.8,235.896875,257.303125,1360.5,238.896875,259.303125,1462,257.896875,259.303125,1567.6,265.896875,254.303125,1677.2,339.896875,221.303125,1780.3,380.896875,151.303125,1881,421.896875,104.303125,1982.4,449.896875,85.303125,2093.5,485.896875,61.303125,2199.6,485.896875,61.303125,2301,485.896875,57.303125,2410.2,417.896875,91.303125,2517.9,400.896875,107.303125,2618.5,396.896875,127.303125,2725.8,396.896875,139.303125,2826,-153.103125,393.303125,2928.4,-421.103125,554.303125,3032.5,-421.103125,554.303125,3146.2,-421.103125,554.303125,3255.4,-421.103125,554.303125,3361.7,-421.103125,554.303125,3463.6,-421.103125,554.303125,3567,-421.103125,554.303125,3673.6,-421.103125,554.303125,3777.1,-421.103125,554.303125,3883.6,-421.103125,554.303125,3984.9]","[121,120.9,1000,0.1,-879.1,""error"",""-"",""-"",""no_move"",279.9,157.3,1000,0.1,-720.2,""while_red"",""-"",""-"",""no_move"",418.8,296.2,1000,0.1,-581.3,""while_red"",""-"",""-"",""no_move"",564.3,441.8,1000,0.1,-435.7,""while_red"",""-"",""-"",""no_move"",4900.5,4777.9,2831.6,4463.5,-2394.6,""error"",""-"",""-"",""no_move"",5207.1,299.4,2831.6,4463.5,-2087.9,""while_red"",""-"",""-"",""no_move"",8808.2,3900.4,2172.6,5910,725.7,""smooth"",""up"",""up"",""good_move"",9090.6,280.9,2807.6,8809.7,-2526.6,""error"",""-"",""-"",""no_move"",9248.1,154.2,2807.6,8809.7,-2369.2,""while_red"",""-"",""-"",""no_move"",9408.9,315,2807.6,8809.7,-2208.4,""while_red"",""-"",""-"",""no_move"",9695.9,602,2807.6,8809.7,-1921.4,""while_red"",""-"",""-"",""no_move"",10228.4,1134.5,2657.9,10096.4,-2525.9,""error"",""-"",""-"",""no_move"",17673.7,7444.6,1752,15388.9,532.8,""smooth"",""right"",""right"",""good_move"",27088.9,9414.6,2897.7,21103,3088.2,""smooth"",""up"",""up"",""good_move"",30613.2,3519.3,2728.2,27093.9,791.1,""smooth"",""right"",""right"",""good_move""]","",""
"17632","","","","instructions","21","1741632","0.0-8.0-2.0","178","1","2025-07-09 09:12:51","7701e855f2ef39aa3fd6c71abdc6918a","216.120.189.45","Mozilla/5.0 (Windows NT 10.0; Win64; x64) AppleWebKit/537.36 (KHTML, like Gecko) Chrome/137.0.0.0 Safari/537.36","WebKit","Chrome","137.0.0.0","Windows","10.0","https://app.prolific.com/","en-US,en;q=0.9","673594215b1a0b92d5835525","686d226cabeef709c732f8e1","686e314222d1bfaadc1433c1","673594215b1a0b92d5835525","","[{""page_index"":0,""viewing_time"":17631}]","","","","","","","","","","","","","","","","","","","","","","","","","","","","","","","","","","","","","","","","","","",""
"","","","","ctl-task-cpt","22","1783954","0.0-8.0-3.0","178","1","2025-07-09 09:12:51","7701e855f2ef39aa3fd6c71abdc6918a","216.120.189.45","Mozilla/5.0 (Windows NT 10.0; Win64; x64) AppleWebKit/537.36 (KHTML, like Gecko) Chrome/137.0.0.0 Safari/537.36","WebKit","Chrome","137.0.0.0","Windows","10.0","https://app.prolific.com/","en-US,en;q=0.9","673594215b1a0b92d5835525","686d226cabeef709c732f8e1","686e314222d1bfaadc1433c1","673594215b1a0b92d5835525","","","","","","","","","","","","","","","","","win-only","1","g1:NE,g2:SW","0.35","0","3","1755273.5","1428.4","5436.4","39307.7","2","4","8","6","1","-2","-2","0","0","0","2352","4000","-2115","[""up"",""right""]","{""num_key_presses"":9,""num_perfect"":4,""num_errors"":0,""num_randdir"":5,""num_randdir_good_moves"":3,""num_whilered"":0,""num_whileblue"":0,""num_blue"":1,""num_good_moves"":6}","[261.896875,261.303125,0.9,261.896875,261.303125,103,261.896875,261.303125,208.1,313.896875,270.303125,312.3,363.896875,282.303125,420.2,363.896875,282.303125,532.5,363.896875,282.303125,632.7,363.896875,282.303125,733.9,363.896875,282.303125,837,363.896875,282.303125,945.5,363.896875,282.303125,1047.5,363.896875,282.303125,1156.9,363.896875,282.303125,1256.9,363.896875,282.303125,1361.9,363.896875,282.303125,1465,363.896875,282.303125,1574.5,363.896875,282.303125,1679.9,370.896875,282.303125,1781.9,459.896875,129.303125,1882.9,473.896875,89.303125,1983.6,479.896875,49.303125,2088.9,480.896875,46.303125,2193.8,480.896875,43.303125,2298.5,480.896875,43.303125,2402.4,480.896875,43.303125,2506.6,478.896875,47.303125,2613.8,473.896875,61.303125,2717.1,461.896875,102.303125,2818.6,378.896875,249.303125,2927.1,372.896875,290.303125,3036.2,370.896875,298.303125,3138.7,370.896875,299.303125,3248.7,370.896875,299.303125,3356.2,370.896875,299.303125,3457.3,370.896875,299.303125,3559.8,370.896875,299.303125,3660.3,370.896875,299.303125,3763.2,370.896875,299.303125,3867.4,370.896875,299.303125,3972.9]","[1825.2,1825.2,1000,0,825.2,""oops"",""up"",""right"",""good_move"",5868.5,4042.7,2782.5,1825.9,1260.2,""oops"",""up"",""left"",""bad_move"",9220.2,3347.2,2616.7,5873.1,730.4,""smooth"",""right"",""right"",""good_move"",12096.1,2874.3,2364.7,9221.9,509.5,""oops"",""right"",""down"",""bad_move"",19800.6,7697.1,3222.5,16034.8,543.4,""smooth"",""down"",""down"",""bad_move"",22702.5,2901.3,2358.9,19801.3,542.3,""smooth"",""up"",""up"",""good_move"",25635.6,2932.4,2474.2,22703.2,458.2,""oops"",""up"",""up"",""good_move"",27676.3,2038.4,1514.8,25637.9,523.6,""smooth"",""up"",""up"",""good_move"",30568.7,2891.5,2546.1,27677.3,345.4,""oops"",""up"",""up"",""good_move""]","",""
"46380","","","","instructions","23","1830337","0.0-8.0-4.0","178","1","2025-07-09 09:12:51","7701e855f2ef39aa3fd6c71abdc6918a","216.120.189.45","Mozilla/5.0 (Windows NT 10.0; Win64; x64) AppleWebKit/537.36 (KHTML, like Gecko) Chrome/137.0.0.0 Safari/537.36","WebKit","Chrome","137.0.0.0","Windows","10.0","https://app.prolific.com/","en-US,en;q=0.9","673594215b1a0b92d5835525","686d226cabeef709c732f8e1","686e314222d1bfaadc1433c1","673594215b1a0b92d5835525","","[{""page_index"":0,""viewing_time"":12724},{""page_index"":1,""viewing_time"":33656}]","","","","","","","","","","","","","","","","","","","","","","","","","","","","","","","","","","","","","","","","","","",""
"13246","","","{""green_ball"":[""Ball sometimes shakes and moves in a random direction""]}","survey-multi-select","24","1843586","0.0-8.0-5.0-0.0","178","1","2025-07-09 09:12:51","7701e855f2ef39aa3fd6c71abdc6918a","216.120.189.45","Mozilla/5.0 (Windows NT 10.0; Win64; x64) AppleWebKit/537.36 (KHTML, like Gecko) Chrome/137.0.0.0 Safari/537.36","WebKit","Chrome","137.0.0.0","Windows","10.0","https://app.prolific.com/","en-US,en;q=0.9","673594215b1a0b92d5835525","686d226cabeef709c732f8e1","686e314222d1bfaadc1433c1","673594215b1a0b92d5835525","","","[0]","","","","quiz","","","","","","","","","","","","","","","","","","","","","","","","","","","","","","","","","","","","","true",""
"3253","","<p align='center'><b>CORRECT!</b> Indeed, the green ball may sometimes shake and move in a random direction.</p>","0","html-button-response","25","1846841","0.0-8.0-5.0-1.0","178","1","2025-07-09 09:12:51","7701e855f2ef39aa3fd6c71abdc6918a","216.120.189.45","Mozilla/5.0 (Windows NT 10.0; Win64; x64) AppleWebKit/537.36 (KHTML, like Gecko) Chrome/137.0.0.0 Safari/537.36","WebKit","Chrome","137.0.0.0","Windows","10.0","https://app.prolific.com/","en-US,en;q=0.9","673594215b1a0b92d5835525","686d226cabeef709c732f8e1","686e314222d1bfaadc1433c1","673594215b1a0b92d5835525","","","","","","","","","","","","","","","","","","","","","","","","","","","","","","","","","","","","","","","","","","","","",""
"7542","","","{""yellow_ball"":[""Ball doesn‘t move and I get -1 penalty point""]}","survey-multi-select","26","1854385","0.0-8.0-6.0-0.0","178","1","2025-07-09 09:12:51","7701e855f2ef39aa3fd6c71abdc6918a","216.120.189.45","Mozilla/5.0 (Windows NT 10.0; Win64; x64) AppleWebKit/537.36 (KHTML, like Gecko) Chrome/137.0.0.0 Safari/537.36","WebKit","Chrome","137.0.0.0","Windows","10.0","https://app.prolific.com/","en-US,en;q=0.9","673594215b1a0b92d5835525","686d226cabeef709c732f8e1","686e314222d1bfaadc1433c1","673594215b1a0b92d5835525","","","[0]","","","","quiz","","","","","","","","","","","","","","","","","","","","","","","","","","","","","","","","","","","","","true",""
"846","","<p align='center'><b>CORRECT!</b> Indeed, the yellow ball never moves and you receive a penalty.</p>","0","html-button-response","27","1855232","0.0-8.0-6.0-1.0","178","1","2025-07-09 09:12:51","7701e855f2ef39aa3fd6c71abdc6918a","216.120.189.45","Mozilla/5.0 (Windows NT 10.0; Win64; x64) AppleWebKit/537.36 (KHTML, like Gecko) Chrome/137.0.0.0 Safari/537.36","WebKit","Chrome","137.0.0.0","Windows","10.0","https://app.prolific.com/","en-US,en;q=0.9","673594215b1a0b92d5835525","686d226cabeef709c732f8e1","686e314222d1bfaadc1433c1","673594215b1a0b92d5835525","","","","","","","","","","","","","","","","","","","","","","","","","","","","","","","","","","","","","","","","","","","","",""
"4128","","","{""blue_ball"":[""Ball doesn‘t move and I get -1 penalty point""]}","survey-multi-select","28","1859361","0.0-8.0-7.0-0.0","178","1","2025-07-09 09:12:51","7701e855f2ef39aa3fd6c71abdc6918a","216.120.189.45","Mozilla/5.0 (Windows NT 10.0; Win64; x64) AppleWebKit/537.36 (KHTML, like Gecko) Chrome/137.0.0.0 Safari/537.36","WebKit","Chrome","137.0.0.0","Windows","10.0","https://app.prolific.com/","en-US,en;q=0.9","673594215b1a0b92d5835525","686d226cabeef709c732f8e1","686e314222d1bfaadc1433c1","673594215b1a0b92d5835525","","","[0]","","","","quiz","","","","","","","","","","","","","","","","","","","","","","","","","","","","","","","","","","","","","false",""
"1414","","<p align='center'><b>INCORRECT.</b> The blue ball always shakes and moves randomly.</p>","0","html-button-response","29","1860777","0.0-8.0-7.0-1.0","178","1","2025-07-09 09:12:51","7701e855f2ef39aa3fd6c71abdc6918a","216.120.189.45","Mozilla/5.0 (Windows NT 10.0; Win64; x64) AppleWebKit/537.36 (KHTML, like Gecko) Chrome/137.0.0.0 Safari/537.36","WebKit","Chrome","137.0.0.0","Windows","10.0","https://app.prolific.com/","en-US,en;q=0.9","673594215b1a0b92d5835525","686d226cabeef709c732f8e1","686e314222d1bfaadc1433c1","673594215b1a0b92d5835525","","","","","","","","","","","","","","","","","","","","","","","","","","","","","","","","","","","","","","","","","","","","",""
"23207","","","{""blue_ball"":[""Ball always shakes and moves in a random direction""]}","survey-multi-select","30","1883986","0.0-8.0-7.1-0.1","178","1","2025-07-09 09:12:51","7701e855f2ef39aa3fd6c71abdc6918a","216.120.189.45","Mozilla/5.0 (Windows NT 10.0; Win64; x64) AppleWebKit/537.36 (KHTML, like Gecko) Chrome/137.0.0.0 Safari/537.36","WebKit","Chrome","137.0.0.0","Windows","10.0","https://app.prolific.com/","en-US,en;q=0.9","673594215b1a0b92d5835525","686d226cabeef709c732f8e1","686e314222d1bfaadc1433c1","673594215b1a0b92d5835525","","","[0]","","","","quiz","","","","","","","","","","","","","","","","","","","","","","","","","","","","","","","","","","","","","true",""
"6900","","<p align='center'><b>CORRECT!</b> Indeed, the blue ball always shakes and moves in a random direction. Also there is a penalty of -1 point.</p>","0","html-button-response","31","1890888","0.0-8.0-7.1-1.1","178","1","2025-07-09 09:12:51","7701e855f2ef39aa3fd6c71abdc6918a","216.120.189.45","Mozilla/5.0 (Windows NT 10.0; Win64; x64) AppleWebKit/537.36 (KHTML, like Gecko) Chrome/137.0.0.0 Safari/537.36","WebKit","Chrome","137.0.0.0","Windows","10.0","https://app.prolific.com/","en-US,en;q=0.9","673594215b1a0b92d5835525","686d226cabeef709c732f8e1","686e314222d1bfaadc1433c1","673594215b1a0b92d5835525","","","","","","","","","","","","","","","","","","","","","","","","","","","","","","","","","","","","","","","","","","","","",""
"3792","","","{""bonus"":[""When I reach 50% of points""]}","survey-multi-select","32","1894682","0.0-8.0-8.0-0.0","178","1","2025-07-09 09:12:51","7701e855f2ef39aa3fd6c71abdc6918a","216.120.189.45","Mozilla/5.0 (Windows NT 10.0; Win64; x64) AppleWebKit/537.36 (KHTML, like Gecko) Chrome/137.0.0.0 Safari/537.36","WebKit","Chrome","137.0.0.0","Windows","10.0","https://app.prolific.com/","en-US,en;q=0.9","673594215b1a0b92d5835525","686d226cabeef709c732f8e1","686e314222d1bfaadc1433c1","673594215b1a0b92d5835525","","","[0]","","","","quiz","","","","","","","","","","","","","","","","","","","","","","","","","","","","","","","","","","","","","true",""
"1717","","<p align='center'><b>CORRECT!</b> Indeed, you receive 2 pounds extra when you reach 50% of points.</p>","0","html-button-response","33","1896400","0.0-8.0-8.0-1.0","178","1","2025-07-09 09:12:51","7701e855f2ef39aa3fd6c71abdc6918a","216.120.189.45","Mozilla/5.0 (Windows NT 10.0; Win64; x64) AppleWebKit/537.36 (KHTML, like Gecko) Chrome/137.0.0.0 Safari/537.36","WebKit","Chrome","137.0.0.0","Windows","10.0","https://app.prolific.com/","en-US,en;q=0.9","673594215b1a0b92d5835525","686d226cabeef709c732f8e1","686e314222d1bfaadc1433c1","673594215b1a0b92d5835525","","","","","","","","","","","","","","","","","","","","","","","","","","","","","","","","","","","","","","","","","","","","",""
"270191","","","","instructions","34","2166592","0.0-8.0-9.0","178","1","2025-07-09 09:12:51","7701e855f2ef39aa3fd6c71abdc6918a","216.120.189.45","Mozilla/5.0 (Windows NT 10.0; Win64; x64) AppleWebKit/537.36 (KHTML, like Gecko) Chrome/137.0.0.0 Safari/537.36","WebKit","Chrome","137.0.0.0","Windows","10.0","https://app.prolific.com/","en-US,en;q=0.9","673594215b1a0b92d5835525","686d226cabeef709c732f8e1","686e314222d1bfaadc1433c1","673594215b1a0b92d5835525","","[{""page_index"":0,""viewing_time"":270191}]","","","","","","","","","","","","","","","","","","","","","","","","","","","","","","","","","","","","","","","","","","",""
"18231","","<p>Before you start with this game please answer the following three questions yourself. </p>
  <p>Through this game, we measure several aspects of your cognitive performance, such as reaction times, multi-tasking capabilities </p>
  <p>and the ability to assess the situation you are in.</p>
  <p></p>
  <p><b>How good do you usually are in such tasks?</b></p>","82","html-slider-response","35","2184825","0.0-9.0-0.0","178","1","2025-07-09 09:12:51","7701e855f2ef39aa3fd6c71abdc6918a","216.120.189.45","Mozilla/5.0 (Windows NT 10.0; Win64; x64) AppleWebKit/537.36 (KHTML, like Gecko) Chrome/137.0.0.0 Safari/537.36","WebKit","Chrome","137.0.0.0","Windows","10.0","https://app.prolific.com/","en-US,en;q=0.9","673594215b1a0b92d5835525","686d226cabeef709c732f8e1","686e314222d1bfaadc1433c1","673594215b1a0b92d5835525","2025-07-09T09:49:29.387Z","","","","","","PreSkillQ","","","","","","","","","","","","","","","","","","","","","","","","","","","","","","","","","","","","","","50"
"5262","","<div style=""width:500px;"">
  <p>How well do you think you will perform in this task compared to other participants?</p>
  </div>","88","html-slider-response","36","2190088","0.0-9.0-1.0","178","1","2025-07-09 09:12:51","7701e855f2ef39aa3fd6c71abdc6918a","216.120.189.45","Mozilla/5.0 (Windows NT 10.0; Win64; x64) AppleWebKit/537.36 (KHTML, like Gecko) Chrome/137.0.0.0 Safari/537.36","WebKit","Chrome","137.0.0.0","Windows","10.0","https://app.prolific.com/","en-US,en;q=0.9","673594215b1a0b92d5835525","686d226cabeef709c732f8e1","686e314222d1bfaadc1433c1","673594215b1a0b92d5835525","2025-07-09T09:49:34.650Z","","","","","","PrePerfQ","","","","","","","","","","","","","","","","","","","","","","","","","","","","","","","","","","","","","","50"
"3736","","<div style=""width:500px;"">
  <p>What best describes how you currently feel?</p>
  </div>","100","html-slider-response","37","2193825","0.0-9.0-2.0","178","1","2025-07-09 09:12:51","7701e855f2ef39aa3fd6c71abdc6918a","216.120.189.45","Mozilla/5.0 (Windows NT 10.0; Win64; x64) AppleWebKit/537.36 (KHTML, like Gecko) Chrome/137.0.0.0 Safari/537.36","WebKit","Chrome","137.0.0.0","Windows","10.0","https://app.prolific.com/","en-US,en;q=0.9","673594215b1a0b92d5835525","686d226cabeef709c732f8e1","686e314222d1bfaadc1433c1","673594215b1a0b92d5835525","2025-07-09T09:49:38.387Z","","","","","","PreMotivationQ","","","","","","","","","","","","","","","","","","","","","","","","","","","","","","","","","","","","","","50"
"","","","","ctl-task-cpt","38","2225121","0.0-10.0-0.0","178","1","2025-07-09 09:12:51","7701e855f2ef39aa3fd6c71abdc6918a","216.120.189.45","Mozilla/5.0 (Windows NT 10.0; Win64; x64) AppleWebKit/537.36 (KHTML, like Gecko) Chrome/137.0.0.0 Safari/537.36","WebKit","Chrome","137.0.0.0","Windows","10.0","https://app.prolific.com/","en-US,en;q=0.9","673594215b1a0b92d5835525","686d226cabeef709c732f8e1","686e314222d1bfaadc1433c1","673594215b1a0b92d5835525","2025-07-09T09:50:09.684Z","","","","","","","","","","","","","","","","win-only","3","g1:SW,g2:NE","1","1","0","2207467.5","1195.8","6205","28285.6","1","4","4","6","2","4","4","4","0","0.030303030303030304","2267.1","3000","1030","[""up"",""right""]","{""num_key_presses"":6,""num_perfect"":6,""num_errors"":0,""num_randdir"":0,""num_randdir_good_moves"":0,""num_whilered"":0,""num_whileblue"":0,""num_blue"":1,""num_good_moves"":6}","[260.896875,262.303125,1.6,260.896875,262.303125,107.1,260.896875,262.303125,208,264.896875,275.303125,310.6,265.896875,275.303125,410.7,265.896875,275.303125,520.3,265.896875,275.303125,624.6,265.896875,275.303125,725,265.896875,275.303125,836.5,265.896875,275.303125,945.3,265.896875,275.303125,1057.2,265.896875,275.303125,1159.2,265.896875,275.303125,1262.2,265.896875,275.303125,1372.1,265.896875,275.303125,1475.5,361.896875,171.303125,1586.4,383.896875,44.303125,1699.1,391.896875,41.303125,1801.7,417.896875,52.303125,1913.6,433.896875,55.303125,2020.9,457.896875,55.303125,2121.3,467.896875,53.303125,2228.8,470.896875,53.303125,2331.8,470.896875,53.303125,2440.8,467.896875,53.303125,2546.7,429.896875,55.303125,2654.9,357.896875,70.303125,2757.6,357.896875,70.303125,2863.9,357.896875,70.303125,2974.4,357.896875,70.303125,3074.6,357.896875,70.303125,3176.2,357.896875,70.303125,3277,357.896875,70.303125,3381.9,357.896875,70.303125,3485,357.896875,70.303125,3585.6,357.896875,70.303125,3689.1,357.896875,70.303125,3790.3,347.896875,84.303125,3900.8,304.896875,93.303125,4001.9,193.896875,122.303125,4105.2,179.896875,125.303125,4207.5,179.896875,125.303125,4308.6,179.896875,125.303125,4415.7,179.896875,125.303125,4515.9,179.896875,125.303125,4620.9,179.896875,125.303125,4723.9,179.896875,125.303125,4824.1,179.896875,125.303125,4924.1]","[5235.9,5235.9,2622.3,2007.9,605.7,""smooth"",""right"",""right"",""good_move"",9489.4,4251.9,3643.3,5237.5,608.7,""smooth"",""right"",""right"",""good_move"",12604,3113.5,2632.3,9490.5,481.2,""smooth"",""right"",""right"",""good_move"",16035.7,3431.2,3086.4,12604.6,344.7,""smooth"",""up"",""up"",""good_move"",18955.9,2918.2,2525.4,16037.8,392.8,""smooth"",""up"",""up"",""good_move"",21937.5,2979.7,2634.2,18957.8,345.5,""smooth"",""up"",""up"",""good_move""]","",""
"6710","","<div style=""width:500px;"">
  <p>What determined the result of this run?</p>
  </div>","100","html-slider-response","39","2231833","0.0-10.0-1.0","178","1","2025-07-09 09:12:51","7701e855f2ef39aa3fd6c71abdc6918a","216.120.189.45","Mozilla/5.0 (Windows NT 10.0; Win64; x64) AppleWebKit/537.36 (KHTML, like Gecko) Chrome/137.0.0.0 Safari/537.36","WebKit","Chrome","137.0.0.0","Windows","10.0","https://app.prolific.com/","en-US,en;q=0.9","673594215b1a0b92d5835525","686d226cabeef709c732f8e1","686e314222d1bfaadc1433c1","673594215b1a0b92d5835525","2025-07-09T09:50:16.396Z","","","","","","AttribQ","","","","","","","","","","","","","","","","","","","","","","","","","","","","","","","","","","","","","","50"
"3541","","<div style=""width:500px;"">
  <p>How much control did you have over the ball?</p>
  </div>","100","html-slider-response","40","2235376","0.0-10.0-2.0","178","1","2025-07-09 09:12:51","7701e855f2ef39aa3fd6c71abdc6918a","216.120.189.45","Mozilla/5.0 (Windows NT 10.0; Win64; x64) AppleWebKit/537.36 (KHTML, like Gecko) Chrome/137.0.0.0 Safari/537.36","WebKit","Chrome","137.0.0.0","Windows","10.0","https://app.prolific.com/","en-US,en;q=0.9","673594215b1a0b92d5835525","686d226cabeef709c732f8e1","686e314222d1bfaadc1433c1","673594215b1a0b92d5835525","2025-07-09T09:50:19.938Z","","","","","","ControlQ","","","","","","","","","","","","","","","","","","","","","","","","","","","","","","","","","","","","","","50"
"5679","","<div style=""width:500px;"">
  <p>How would you describe your current emotional state?</p>
  </div>","0","html-slider-response","41","2241057","0.0-10.0-3.0","178","1","2025-07-09 09:12:51","7701e855f2ef39aa3fd6c71abdc6918a","216.120.189.45","Mozilla/5.0 (Windows NT 10.0; Win64; x64) AppleWebKit/537.36 (KHTML, like Gecko) Chrome/137.0.0.0 Safari/537.36","WebKit","Chrome","137.0.0.0","Windows","10.0","https://app.prolific.com/","en-US,en;q=0.9","673594215b1a0b92d5835525","686d226cabeef709c732f8e1","686e314222d1bfaadc1433c1","673594215b1a0b92d5835525","2025-07-09T09:50:25.619Z","","","","","","StressQ","","","","","","","","","","","","","","","","","","","","","","","","","","","","","","","","","","","","","","50"
"3902","","<div style=""width:500px;"">
  <p>What best describes how you currently feel?</p>
  </div>","100","html-slider-response","42","2244960","0.0-10.0-4.0","178","1","2025-07-09 09:12:51","7701e855f2ef39aa3fd6c71abdc6918a","216.120.189.45","Mozilla/5.0 (Windows NT 10.0; Win64; x64) AppleWebKit/537.36 (KHTML, like Gecko) Chrome/137.0.0.0 Safari/537.36","WebKit","Chrome","137.0.0.0","Windows","10.0","https://app.prolific.com/","en-US,en;q=0.9","673594215b1a0b92d5835525","686d226cabeef709c732f8e1","686e314222d1bfaadc1433c1","673594215b1a0b92d5835525","2025-07-09T09:50:29.522Z","","","","","","MotivationQ","","","","","","","","","","","","","","","","","","","","","","","","","","","","","","","","","","","","","","50"
"","","","","ctl-task-cpt","43","2272283","0.0-10.0-0.1","178","1","2025-07-09 09:12:51","7701e855f2ef39aa3fd6c71abdc6918a","216.120.189.45","Mozilla/5.0 (Windows NT 10.0; Win64; x64) AppleWebKit/537.36 (KHTML, like Gecko) Chrome/137.0.0.0 Safari/537.36","WebKit","Chrome","137.0.0.0","Windows","10.0","https://app.prolific.com/","en-US,en;q=0.9","673594215b1a0b92d5835525","686d226cabeef709c732f8e1","686e314222d1bfaadc1433c1","673594215b1a0b92d5835525","2025-07-09T09:50:56.845Z","","","","","","","","","","","","","","","","win-only","2","g1:SE,g2:NW","0.9","2","0","2258604.5","1229.6","6234.9","24303.6","1","4","8","6","2","8","8","12","4","0.09090909090909091","1076.7","3000","530","[""left"",""up""]","{""num_key_presses"":6,""num_perfect"":5,""num_errors"":0,""num_randdir"":1,""num_randdir_good_moves"":1,""num_whilered"":0,""num_whileblue"":0,""num_blue"":0,""num_good_moves"":6}","[259.896875,262.303125,0.6,259.896875,262.303125,104.4,261.896875,260.303125,208.6,291.896875,243.303125,317.1,339.896875,223.303125,418.9,337.896875,207.303125,521.4,213.896875,128.303125,622.7,116.896875,68.303125,726,67.896875,43.303125,826.9,51.896875,35.303125,934.8,48.896875,34.303125,1037.5,48.896875,34.303125,1147.4,48.896875,34.303125,1252.5,59.896875,58.303125,1358.5,151.896875,137.303125,1458.7,270.896875,192.303125,1560.5,433.896875,315.303125,1664.4,488.896875,353.303125,1767.4,488.896875,353.303125,1873.3,488.896875,353.303125,1983.2,488.896875,353.303125,2083.8,488.896875,353.303125,2199.3,488.896875,353.303125,2305.5,488.896875,353.303125,2408.2,488.896875,353.303125,2511.3,488.896875,353.303125,2620.4,488.896875,353.303125,2728.5,488.896875,353.303125,2831.4,488.896875,353.303125,2940.7,488.896875,353.303125,3048.8,488.896875,353.303125,3151,488.896875,353.303125,3254.3,488.896875,353.303125,3360.5,488.896875,353.303125,3469.5,488.896875,353.303125,3573.4,488.896875,353.303125,3673.8,488.896875,353.303125,3784.6,488.896875,353.303125,3887.9,488.896875,353.303125,4000.9,488.896875,353.303125,4103.2,488.896875,353.303125,4204.6,488.896875,353.303125,4306,488.896875,353.303125,4408.8,488.896875,353.303125,4511.2,488.896875,353.303125,4615.1,488.896875,353.303125,4717,488.896875,353.303125,4819.9,488.896875,353.303125,4922.5]","[2536.5,2536.5,1000,0,1536.5,""smooth"",""up"",""up"",""good_move"",5915,3377.2,3015.9,2537.8,361.3,""oops"",""left"",""left"",""good_move"",9483.5,3567.8,3215.1,5915.7,352.7,""smooth"",""up"",""up"",""good_move"",12090.3,2605.9,2229.8,9484.4,376.1,""smooth"",""left"",""left"",""good_move"",15098.9,3007.3,2549,12091.6,458.3,""smooth"",""up"",""up"",""good_move"",17942,2842.1,2355.2,15099.9,486.9,""smooth"",""left"",""left"",""good_move""]","",""
"3867","","<div style=""width:500px;"">
  <p>What determined the result of this run?</p>
  </div>","100","html-slider-response","44","2276153","0.0-10.0-1.1","178","1","2025-07-09 09:12:51","7701e855f2ef39aa3fd6c71abdc6918a","216.120.189.45","Mozilla/5.0 (Windows NT 10.0; Win64; x64) AppleWebKit/537.36 (KHTML, like Gecko) Chrome/137.0.0.0 Safari/537.36","WebKit","Chrome","137.0.0.0","Windows","10.0","https://app.prolific.com/","en-US,en;q=0.9","673594215b1a0b92d5835525","686d226cabeef709c732f8e1","686e314222d1bfaadc1433c1","673594215b1a0b92d5835525","2025-07-09T09:51:00.715Z","","","","","","AttribQ","","","","","","","","","","","","","","","","","","","","","","","","","","","","","","","","","","","","","","50"
"2615","","<div style=""width:500px;"">
  <p>How much control did you have over the ball?</p>
  </div>","99","html-slider-response","45","2278769","0.0-10.0-2.1","178","1","2025-07-09 09:12:51","7701e855f2ef39aa3fd6c71abdc6918a","216.120.189.45","Mozilla/5.0 (Windows NT 10.0; Win64; x64) AppleWebKit/537.36 (KHTML, like Gecko) Chrome/137.0.0.0 Safari/537.36","WebKit","Chrome","137.0.0.0","Windows","10.0","https://app.prolific.com/","en-US,en;q=0.9","673594215b1a0b92d5835525","686d226cabeef709c732f8e1","686e314222d1bfaadc1433c1","673594215b1a0b92d5835525","2025-07-09T09:51:03.331Z","","","","","","ControlQ","","","","","","","","","","","","","","","","","","","","","","","","","","","","","","","","","","","","","","50"
"2551","","<div style=""width:500px;"">
  <p>How would you describe your current emotional state?</p>
  </div>","0","html-slider-response","46","2281321","0.0-10.0-3.1","178","1","2025-07-09 09:12:51","7701e855f2ef39aa3fd6c71abdc6918a","216.120.189.45","Mozilla/5.0 (Windows NT 10.0; Win64; x64) AppleWebKit/537.36 (KHTML, like Gecko) Chrome/137.0.0.0 Safari/537.36","WebKit","Chrome","137.0.0.0","Windows","10.0","https://app.prolific.com/","en-US,en;q=0.9","673594215b1a0b92d5835525","686d226cabeef709c732f8e1","686e314222d1bfaadc1433c1","673594215b1a0b92d5835525","2025-07-09T09:51:05.883Z","","","","","","StressQ","","","","","","","","","","","","","","","","","","","","","","","","","","","","","","","","","","","","","","50"
"4910","","<div style=""width:500px;"">
  <p>What best describes how you currently feel?</p>
  </div>","100","html-slider-response","47","2286232","0.0-10.0-4.1","178","1","2025-07-09 09:12:51","7701e855f2ef39aa3fd6c71abdc6918a","216.120.189.45","Mozilla/5.0 (Windows NT 10.0; Win64; x64) AppleWebKit/537.36 (KHTML, like Gecko) Chrome/137.0.0.0 Safari/537.36","WebKit","Chrome","137.0.0.0","Windows","10.0","https://app.prolific.com/","en-US,en;q=0.9","673594215b1a0b92d5835525","686d226cabeef709c732f8e1","686e314222d1bfaadc1433c1","673594215b1a0b92d5835525","2025-07-09T09:51:10.794Z","","","","","","MotivationQ","","","","","","","","","","","","","","","","","","","","","","","","","","","","","","","","","","","","","","50"
"","","","","ctl-task-cpt","48","2328501","0.0-10.0-0.2","178","1","2025-07-09 09:12:51","7701e855f2ef39aa3fd6c71abdc6918a","216.120.189.45","Mozilla/5.0 (Windows NT 10.0; Win64; x64) AppleWebKit/537.36 (KHTML, like Gecko) Chrome/137.0.0.0 Safari/537.36","WebKit","Chrome","137.0.0.0","Windows","10.0","https://app.prolific.com/","en-US,en;q=0.9","673594215b1a0b92d5835525","686d226cabeef709c732f8e1","686e314222d1bfaadc1433c1","673594215b1a0b92d5835525","2025-07-09T09:51:53.063Z","","","","","","","","","","","","","","","","win-only","3","g1:SW,g2:NE","0.8","3","0","2299876","1400.3","6401.8","39248.4","1","4","4","6","2","4","3","15","12","0.11363636363636363","1344.5","3000","1105","[""up"",""right""]","{""num_key_presses"":7,""num_perfect"":6,""num_errors"":1,""num_randdir"":0,""num_randdir_good_moves"":0,""num_whilered"":0,""num_whileblue"":0,""num_blue"":4,""num_good_moves"":6}","[264.896875,260.303125,0.6,264.896875,260.303125,106.9,264.896875,260.303125,209.4,246.896875,256.303125,313.4,237.896875,256.303125,419.2,237.896875,256.303125,524,248.896875,248.303125,635.4,361.896875,146.303125,737.3,395.896875,103.303125,847.3,403.896875,82.303125,948.4,410.896875,62.303125,1048.7,494.896875,47.303125,1151.3,496.896875,47.303125,1260.9,498.896875,49.303125,1361.8,498.896875,49.303125,1461.9,445.896875,79.303125,1566.6,-1.1031249999999986,271.303125,1677.2,-421.103125,574.303125,1779.6,-421.103125,574.303125,1881.2,-124.103125,468.303125,1981.3,25.896875,364.303125,2090.9,25.896875,364.303125,2209.5,87.896875,338.303125,2309.7,70.896875,296.303125,2412,63.896875,292.303125,2514.6,132.896875,292.303125,2618.5,161.896875,290.303125,2729.5,161.896875,290.303125,2832.7,161.896875,290.303125,2942.5,161.896875,290.303125,3044.8,161.896875,290.303125,3161.7,161.896875,290.303125,3265.6,161.896875,290.303125,3371.6,161.896875,290.303125,3473,161.896875,290.303125,3574.9,161.896875,290.303125,3677.2,161.896875,290.303125,3778.2,161.896875,290.303125,3883.8,161.896875,290.303125,3993.1,161.896875,290.303125,4095.5,161.896875,290.303125,4205.3,161.896875,290.303125,4305.8,161.896875,290.303125,4407.7,161.896875,290.303125,4515.4,161.896875,290.303125,4616.4,161.896875,290.303125,4720.5,161.896875,290.303125,4831.3,161.896875,290.303125,4931.5]","[2308.7,2308.7,2006.8,2017,-1715,""error"",""-"",""-"",""no_move"",13852.6,11541.9,2716.4,10695.2,441,""smooth"",""up"",""up"",""good_move"",17642.6,3788.6,2892.7,13854.1,895.9,""smooth"",""right"",""right"",""good_move"",24185,6540.9,2649.3,21023.6,512.1,""smooth"",""up"",""up"",""good_move"",26892.6,2707.3,2225.2,24185.3,482.1,""smooth"",""right"",""right"",""good_move"",29999.2,3105.6,2707.5,26893.7,398.1,""smooth"",""right"",""right"",""good_move"",32659.7,2659.9,2219.9,29999.8,440.1,""smooth"",""up"",""up"",""good_move""]","",""
"6930","","<div style=""width:500px;"">
  <p>What determined the result of this run?</p>
  </div>","100","html-slider-response","49","2335432","0.0-10.0-1.2","178","1","2025-07-09 09:12:51","7701e855f2ef39aa3fd6c71abdc6918a","216.120.189.45","Mozilla/5.0 (Windows NT 10.0; Win64; x64) AppleWebKit/537.36 (KHTML, like Gecko) Chrome/137.0.0.0 Safari/537.36","WebKit","Chrome","137.0.0.0","Windows","10.0","https://app.prolific.com/","en-US,en;q=0.9","673594215b1a0b92d5835525","686d226cabeef709c732f8e1","686e314222d1bfaadc1433c1","673594215b1a0b92d5835525","2025-07-09T09:51:59.994Z","","","","","","AttribQ","","","","","","","","","","","","","","","","","","","","","","","","","","","","","","","","","","","","","","50"
"2463","","<div style=""width:500px;"">
  <p>How much control did you have over the ball?</p>
  </div>","100","html-slider-response","50","2337897","0.0-10.0-2.2","178","1","2025-07-09 09:12:51","7701e855f2ef39aa3fd6c71abdc6918a","216.120.189.45","Mozilla/5.0 (Windows NT 10.0; Win64; x64) AppleWebKit/537.36 (KHTML, like Gecko) Chrome/137.0.0.0 Safari/537.36","WebKit","Chrome","137.0.0.0","Windows","10.0","https://app.prolific.com/","en-US,en;q=0.9","673594215b1a0b92d5835525","686d226cabeef709c732f8e1","686e314222d1bfaadc1433c1","673594215b1a0b92d5835525","2025-07-09T09:52:02.459Z","","","","","","ControlQ","","","","","","","","","","","","","","","","","","","","","","","","","","","","","","","","","","","","","","50"
"2054","","<div style=""width:500px;"">
  <p>How would you describe your current emotional state?</p>
  </div>","0","html-slider-response","51","2339953","0.0-10.0-3.2","178","1","2025-07-09 09:12:51","7701e855f2ef39aa3fd6c71abdc6918a","216.120.189.45","Mozilla/5.0 (Windows NT 10.0; Win64; x64) AppleWebKit/537.36 (KHTML, like Gecko) Chrome/137.0.0.0 Safari/537.36","WebKit","Chrome","137.0.0.0","Windows","10.0","https://app.prolific.com/","en-US,en;q=0.9","673594215b1a0b92d5835525","686d226cabeef709c732f8e1","686e314222d1bfaadc1433c1","673594215b1a0b92d5835525","2025-07-09T09:52:04.515Z","","","","","","StressQ","","","","","","","","","","","","","","","","","","","","","","","","","","","","","","","","","","","","","","50"
"2398","","<div style=""width:500px;"">
  <p>What best describes how you currently feel?</p>
  </div>","100","html-slider-response","52","2342352","0.0-10.0-4.2","178","1","2025-07-09 09:12:51","7701e855f2ef39aa3fd6c71abdc6918a","216.120.189.45","Mozilla/5.0 (Windows NT 10.0; Win64; x64) AppleWebKit/537.36 (KHTML, like Gecko) Chrome/137.0.0.0 Safari/537.36","WebKit","Chrome","137.0.0.0","Windows","10.0","https://app.prolific.com/","en-US,en;q=0.9","673594215b1a0b92d5835525","686d226cabeef709c732f8e1","686e314222d1bfaadc1433c1","673594215b1a0b92d5835525","2025-07-09T09:52:06.914Z","","","","","","MotivationQ","","","","","","","","","","","","","","","","","","","","","","","","","","","","","","","","","","","","","","50"
"","","","","ctl-task-cpt","53","2367532","0.0-10.0-0.3","178","1","2025-07-09 09:12:51","7701e855f2ef39aa3fd6c71abdc6918a","216.120.189.45","Mozilla/5.0 (Windows NT 10.0; Win64; x64) AppleWebKit/537.36 (KHTML, like Gecko) Chrome/137.0.0.0 Safari/537.36","WebKit","Chrome","137.0.0.0","Windows","10.0","https://app.prolific.com/","en-US,en;q=0.9","673594215b1a0b92d5835525","686d226cabeef709c732f8e1","686e314222d1bfaadc1433c1","673594215b1a0b92d5835525","2025-07-09T09:52:32.094Z","","","","","","","","","","","","","","","","win-only","1","g1:NE,g2:SW","0.7","4","0","2355997","1005.2","6008.2","22164.3","1","4","8","6","2","8","7","22","15","0.16666666666666666","1152","3000","1730","[""down"",""left""]","{""num_key_presses"":6,""num_perfect"":5,""num_errors"":1,""num_randdir"":0,""num_randdir_good_moves"":0,""num_whilered"":0,""num_whileblue"":1,""num_blue"":1,""num_good_moves"":6}","[264.896875,259.303125,0.8,264.896875,259.303125,100.2,267.896875,258.303125,205.9,272.896875,254.303125,319.1,273.896875,234.303125,422.6,287.896875,213.303125,533.5,225.896875,315.303125,637.2,186.896875,433.303125,741.2,99.896875,473.303125,849.3,84.896875,484.303125,953.8,58.896875,480.303125,1055.9,55.896875,479.303125,1169.5,55.896875,479.303125,1270.4,133.896875,449.303125,1383,223.896875,403.303125,1486.7,277.896875,375.303125,1591.1,277.896875,375.303125,1699.2,277.896875,375.303125,1804.3,277.896875,375.303125,1911.9,264.896875,375.303125,2015.9,263.896875,375.303125,2117.4,263.896875,375.303125,2223.4,263.896875,375.303125,2330,263.896875,375.303125,2432.4,263.896875,375.303125,2535.6,263.896875,375.303125,2644,263.896875,375.303125,2744.8,263.896875,375.303125,2855.8,263.896875,375.303125,2956.3,263.896875,375.303125,3058.4,263.896875,375.303125,3162.5,263.896875,375.303125,3266.7,263.896875,375.303125,3370.5,263.896875,375.303125,3472,263.896875,375.303125,3575.8,263.896875,375.303125,3676,263.896875,375.303125,3780.2,263.896875,375.303125,3890.1,263.896875,375.303125,3997.7,263.896875,375.303125,4101.8,263.896875,375.303125,4204.8,263.896875,375.303125,4313.1,263.896875,375.303125,4423.8,263.896875,375.303125,4533.2,263.896875,375.303125,4636.4,263.896875,375.303125,4745.9,263.896875,375.303125,4851.1,263.896875,375.303125,4952.4]","[1447.3,1447.3,1000,0,447.3,""smooth"",""down"",""down"",""good_move"",3805.7,2356.9,1950.7,1448.9,406.2,""smooth"",""down"",""down"",""good_move"",7125.2,3312.8,2879,3812.4,433.8,""smooth"",""left"",""left"",""good_move"",10195.1,3067,2734.1,7128.1,332.9,""smooth"",""left"",""left"",""good_move"",13200.8,3005.3,2673.2,10195.5,332.1,""while_blue"",""down"",""down"",""good_move"",16012.2,2809.4,2363.3,13202.8,446.1,""smooth"",""left"",""left"",""good_move""]","",""
"2321","","<div style=""width:500px;"">
  <p>What determined the result of this run?</p>
  </div>","100","html-slider-response","54","2369857","0.0-10.0-1.3","178","1","2025-07-09 09:12:51","7701e855f2ef39aa3fd6c71abdc6918a","216.120.189.45","Mozilla/5.0 (Windows NT 10.0; Win64; x64) AppleWebKit/537.36 (KHTML, like Gecko) Chrome/137.0.0.0 Safari/537.36","WebKit","Chrome","137.0.0.0","Windows","10.0","https://app.prolific.com/","en-US,en;q=0.9","673594215b1a0b92d5835525","686d226cabeef709c732f8e1","686e314222d1bfaadc1433c1","673594215b1a0b92d5835525","2025-07-09T09:52:34.419Z","","","","","","AttribQ","","","","","","","","","","","","","","","","","","","","","","","","","","","","","","","","","","","","","","50"
"2223","","<div style=""width:500px;"">
  <p>How much control did you have over the ball?</p>
  </div>","100","html-slider-response","55","2372081","0.0-10.0-2.3","178","1","2025-07-09 09:12:51","7701e855f2ef39aa3fd6c71abdc6918a","216.120.189.45","Mozilla/5.0 (Windows NT 10.0; Win64; x64) AppleWebKit/537.36 (KHTML, like Gecko) Chrome/137.0.0.0 Safari/537.36","WebKit","Chrome","137.0.0.0","Windows","10.0","https://app.prolific.com/","en-US,en;q=0.9","673594215b1a0b92d5835525","686d226cabeef709c732f8e1","686e314222d1bfaadc1433c1","673594215b1a0b92d5835525","2025-07-09T09:52:36.643Z","","","","","","ControlQ","","","","","","","","","","","","","","","","","","","","","","","","","","","","","","","","","","","","","","50"
"2198","","<div style=""width:500px;"">
  <p>How would you describe your current emotional state?</p>
  </div>","0","html-slider-response","56","2374281","0.0-10.0-3.3","178","1","2025-07-09 09:12:51","7701e855f2ef39aa3fd6c71abdc6918a","216.120.189.45","Mozilla/5.0 (Windows NT 10.0; Win64; x64) AppleWebKit/537.36 (KHTML, like Gecko) Chrome/137.0.0.0 Safari/537.36","WebKit","Chrome","137.0.0.0","Windows","10.0","https://app.prolific.com/","en-US,en;q=0.9","673594215b1a0b92d5835525","686d226cabeef709c732f8e1","686e314222d1bfaadc1433c1","673594215b1a0b92d5835525","2025-07-09T09:52:38.844Z","","","","","","StressQ","","","","","","","","","","","","","","","","","","","","","","","","","","","","","","","","","","","","","","50"
"2678","","<div style=""width:500px;"">
  <p>What best describes how you currently feel?</p>
  </div>","100","html-slider-response","57","2376961","0.0-10.0-4.3","178","1","2025-07-09 09:12:51","7701e855f2ef39aa3fd6c71abdc6918a","216.120.189.45","Mozilla/5.0 (Windows NT 10.0; Win64; x64) AppleWebKit/537.36 (KHTML, like Gecko) Chrome/137.0.0.0 Safari/537.36","WebKit","Chrome","137.0.0.0","Windows","10.0","https://app.prolific.com/","en-US,en;q=0.9","673594215b1a0b92d5835525","686d226cabeef709c732f8e1","686e314222d1bfaadc1433c1","673594215b1a0b92d5835525","2025-07-09T09:52:41.523Z","","","","","","MotivationQ","","","","","","","","","","","","","","","","","","","","","","","","","","","","","","","","","","","","","","50"
"","","","","ctl-task-cpt","58","2408317","0.0-10.0-0.4","178","1","2025-07-09 09:12:51","7701e855f2ef39aa3fd6c71abdc6918a","216.120.189.45","Mozilla/5.0 (Windows NT 10.0; Win64; x64) AppleWebKit/537.36 (KHTML, like Gecko) Chrome/137.0.0.0 Safari/537.36","WebKit","Chrome","137.0.0.0","Windows","10.0","https://app.prolific.com/","en-US,en;q=0.9","673594215b1a0b92d5835525","686d226cabeef709c732f8e1","686e314222d1bfaadc1433c1","673594215b1a0b92d5835525","2025-07-09T09:53:12.879Z","","","","","","","","","","","","","","","","win-only","0","g1:NW,g2:SE","0.6","5","0","2390604.9","3569.6","8577.6","28326.3","1","4","8","6","2","8","8","30","22","0.22727272727272727","1199.9","3000","1585","[""down"",""right""]","{""num_key_presses"":6,""num_perfect"":3,""num_errors"":0,""num_randdir"":3,""num_randdir_good_moves"":3,""num_whilered"":0,""num_whileblue"":0,""num_blue"":1,""num_good_moves"":6}","[259.896875,258.303125,0.7,259.896875,258.303125,111.3,262.896875,248.303125,237.1,262.896875,213.303125,340,195.896875,186.303125,442.3,223.896875,237.303125,560.1,352.896875,361.303125,660.4,464.896875,458.303125,761,503.896875,479.303125,876.5,522.896875,490.303125,976.6,500.896875,485.303125,1085.6,485.896875,477.303125,1208.5,485.896875,477.303125,1314.7,481.896875,473.303125,1418.6,432.896875,451.303125,1519.2,365.896875,417.303125,1623.3,366.896875,410.303125,1744.4,366.896875,410.303125,1850.5,366.896875,410.303125,1957.1,366.896875,410.303125,2058.7,366.896875,410.303125,2160.7,366.896875,410.303125,2263.4,366.896875,410.303125,2368.3,366.896875,410.303125,2475.6,366.896875,410.303125,2580.2,366.896875,410.303125,2682.9,366.896875,410.303125,2783.7,366.896875,410.303125,2885.9,366.896875,410.303125,2986.6,366.896875,410.303125,3098.2,366.896875,410.303125,3212.1,366.896875,410.303125,3312.7,366.896875,410.303125,3413.6,366.896875,410.303125,3516.9,366.896875,410.303125,3617.8,366.896875,410.303125,3717.9,366.896875,410.303125,3822.9,366.896875,410.303125,3926,366.896875,410.303125,4041.5,366.896875,410.303125,4142.7,366.896875,410.303125,4246.4,366.896875,410.303125,4349.2,366.896875,410.303125,4455.6,366.896875,410.303125,4566.1,366.896875,410.303125,4667.7,366.896875,410.303125,4771.9,366.896875,410.303125,4891.6,366.896875,410.303125,4992.4]","[1535.5,1535.6,1000,0,535.6,""smooth"",""down"",""down"",""good_move"",6803.6,5266,2031.2,4373.4,399,""oops"",""right"",""down"",""good_move"",9989.9,3185.8,2753.8,6804.1,432,""oops"",""right"",""down"",""good_move"",13503,3512.4,3138,9990.6,374.4,""oops"",""right"",""right"",""good_move"",16592.4,3086.8,2698,13505.7,388.8,""smooth"",""right"",""right"",""good_move"",19586.4,2992.7,2635.3,16593.7,357.4,""smooth"",""right"",""right"",""good_move""]","",""
"3220","","<div style=""width:500px;"">
  <p>What determined the result of this run?</p>
  </div>","100","html-slider-response","59","2411538","0.0-10.0-1.4","178","1","2025-07-09 09:12:51","7701e855f2ef39aa3fd6c71abdc6918a","216.120.189.45","Mozilla/5.0 (Windows NT 10.0; Win64; x64) AppleWebKit/537.36 (KHTML, like Gecko) Chrome/137.0.0.0 Safari/537.36","WebKit","Chrome","137.0.0.0","Windows","10.0","https://app.prolific.com/","en-US,en;q=0.9","673594215b1a0b92d5835525","686d226cabeef709c732f8e1","686e314222d1bfaadc1433c1","673594215b1a0b92d5835525","2025-07-09T09:53:16.100Z","","","","","","AttribQ","","","","","","","","","","","","","","","","","","","","","","","","","","","","","","","","","","","","","","50"
"2221","","<div style=""width:500px;"">
  <p>How much control did you have over the ball?</p>
  </div>","100","html-slider-response","60","2413761","0.0-10.0-2.4","178","1","2025-07-09 09:12:51","7701e855f2ef39aa3fd6c71abdc6918a","216.120.189.45","Mozilla/5.0 (Windows NT 10.0; Win64; x64) AppleWebKit/537.36 (KHTML, like Gecko) Chrome/137.0.0.0 Safari/537.36","WebKit","Chrome","137.0.0.0","Windows","10.0","https://app.prolific.com/","en-US,en;q=0.9","673594215b1a0b92d5835525","686d226cabeef709c732f8e1","686e314222d1bfaadc1433c1","673594215b1a0b92d5835525","2025-07-09T09:53:18.323Z","","","","","","ControlQ","","","","","","","","","","","","","","","","","","","","","","","","","","","","","","","","","","","","","","50"
"1991","","<div style=""width:500px;"">
  <p>How would you describe your current emotional state?</p>
  </div>","0","html-slider-response","61","2415754","0.0-10.0-3.4","178","1","2025-07-09 09:12:51","7701e855f2ef39aa3fd6c71abdc6918a","216.120.189.45","Mozilla/5.0 (Windows NT 10.0; Win64; x64) AppleWebKit/537.36 (KHTML, like Gecko) Chrome/137.0.0.0 Safari/537.36","WebKit","Chrome","137.0.0.0","Windows","10.0","https://app.prolific.com/","en-US,en;q=0.9","673594215b1a0b92d5835525","686d226cabeef709c732f8e1","686e314222d1bfaadc1433c1","673594215b1a0b92d5835525","2025-07-09T09:53:20.316Z","","","","","","StressQ","","","","","","","","","","","","","","","","","","","","","","","","","","","","","","","","","","","","","","50"
"2014","","<div style=""width:500px;"">
  <p>What best describes how you currently feel?</p>
  </div>","100","html-slider-response","62","2417770","0.0-10.0-4.4","178","1","2025-07-09 09:12:51","7701e855f2ef39aa3fd6c71abdc6918a","216.120.189.45","Mozilla/5.0 (Windows NT 10.0; Win64; x64) AppleWebKit/537.36 (KHTML, like Gecko) Chrome/137.0.0.0 Safari/537.36","WebKit","Chrome","137.0.0.0","Windows","10.0","https://app.prolific.com/","en-US,en;q=0.9","673594215b1a0b92d5835525","686d226cabeef709c732f8e1","686e314222d1bfaadc1433c1","673594215b1a0b92d5835525","2025-07-09T09:53:22.332Z","","","","","","MotivationQ","","","","","","","","","","","","","","","","","","","","","","","","","","","","","","","","","","","","","","50"
"","","","","ctl-task-cpt","63","2490445","0.0-10.0-0.5","178","1","2025-07-09 09:12:51","7701e855f2ef39aa3fd6c71abdc6918a","216.120.189.45","Mozilla/5.0 (Windows NT 10.0; Win64; x64) AppleWebKit/537.36 (KHTML, like Gecko) Chrome/137.0.0.0 Safari/537.36","WebKit","Chrome","137.0.0.0","Windows","10.0","https://app.prolific.com/","en-US,en;q=0.9","673594215b1a0b92d5835525","686d226cabeef709c732f8e1","686e314222d1bfaadc1433c1","673594215b1a0b92d5835525","2025-07-09T09:54:35.007Z","","","","","","","","","","","","","","","","win-only","1","g1:NE,g2:SW","0.5","6","0","2431412.3","1215.3","6217.2","69655.6","1","4","4","6","2","-4","-6","24","30","0.18181818181818182","1005.9","3000","-1435","[""down"",""left""]","{""num_key_presses"":13,""num_perfect"":5,""num_errors"":2,""num_randdir"":6,""num_randdir_good_moves"":2,""num_whilered"":0,""num_whileblue"":1,""num_blue"":8,""num_good_moves"":7}","[262.896875,261.303125,1.2,262.896875,261.303125,101.8,262.896875,261.303125,207.1,267.896875,261.303125,312.7,292.896875,242.303125,418.4,115.896875,372.303125,518.8,38.896875,522.303125,627,34.896875,530.303125,728.1,29.896875,521.303125,838.9,44.896875,494.303125,945.4,44.896875,493.303125,1054.1,71.896875,485.303125,1156.5,121.896875,476.303125,1261.7,144.896875,476.303125,1361.7,144.896875,476.303125,1470.7,144.896875,476.303125,1571.6,144.896875,476.303125,1673.6,144.896875,476.303125,1776.8,144.896875,476.303125,1878.3,144.896875,476.303125,1983.5,144.896875,476.303125,2101.7,144.896875,476.303125,2206.6,144.896875,476.303125,2316.2,144.896875,476.303125,2418.1,144.896875,476.303125,2525.6,144.896875,476.303125,2629.2,144.896875,476.303125,2733.4,144.896875,476.303125,2840.4,144.896875,476.303125,2944.8,144.896875,476.303125,3058,144.896875,476.303125,3162.9,144.896875,476.303125,3265.9,144.896875,476.303125,3366.5,144.896875,476.303125,3478.1,144.896875,476.303125,3578.2,144.896875,476.303125,3684.9,144.896875,476.303125,3790.7,144.896875,476.303125,3894.2,144.896875,476.303125,4000.4,144.896875,476.303125,4103.6,144.896875,476.303125,4211.6,144.896875,476.303125,4312.6,144.896875,476.303125,4421,144.896875,476.303125,4526.2,144.896875,476.303125,4629.2,144.896875,476.303125,4729.4,144.896875,476.303125,4833.9,144.896875,476.303125,4936.9]","[5015.2,5015.3,2673.8,2003.3,338.2,""smooth"",""down"",""down"",""good_move"",7585.3,2569.1,1960,5016.2,609.1,""smooth"",""down"",""down"",""good_move"",10187.2,2600.6,2231.8,7586.7,368.7,""oops"",""down"",""up"",""bad_move"",13157.5,2969.7,2529.3,10187.8,440.4,""smooth"",""left"",""left"",""good_move"",19547.6,6388.8,2592.9,16526.5,428.2,""oops"",""down"",""right"",""bad_move"",22857.7,3309.1,2663.6,19548.6,645.5,""smooth"",""left"",""left"",""good_move"",25689,2830.3,2386,22858.7,444.3,""smooth"",""left"",""left"",""good_move"",35791.9,10101.8,2594,32721.9,476,""oops"",""left"",""left"",""good_move"",45483.4,9691.4,1821.2,43188.9,473.3,""oops"",""down"",""up"",""bad_move"",50010.9,4527.1,2747.8,45483.8,1779.4,""oops"",""down"",""down"",""good_move"",52530.4,2518.1,1995.5,50012.3,522.6,""while_blue"",""down"",""up"",""bad_move"",55522.4,2990,2360.1,55412.9,-2250.6,""error"",""-"",""-"",""no_move"",59780.2,4256.3,2772.4,56524.6,483.3,""oops"",""down"",""up"",""bad_move""]","",""
"3762","","<div style=""width:500px;"">
  <p>What determined the result of this run?</p>
  </div>","0","html-slider-response","64","2494209","0.0-10.0-1.5","178","1","2025-07-09 09:12:51","7701e855f2ef39aa3fd6c71abdc6918a","216.120.189.45","Mozilla/5.0 (Windows NT 10.0; Win64; x64) AppleWebKit/537.36 (KHTML, like Gecko) Chrome/137.0.0.0 Safari/537.36","WebKit","Chrome","137.0.0.0","Windows","10.0","https://app.prolific.com/","en-US,en;q=0.9","673594215b1a0b92d5835525","686d226cabeef709c732f8e1","686e314222d1bfaadc1433c1","673594215b1a0b92d5835525","2025-07-09T09:54:38.771Z","","","","","","AttribQ","","","","","","","","","","","","","","","","","","","","","","","","","","","","","","","","","","","","","","50"
"3366","","<div style=""width:500px;"">
  <p>How much control did you have over the ball?</p>
  </div>","0","html-slider-response","65","2497577","0.0-10.0-2.5","178","1","2025-07-09 09:12:51","7701e855f2ef39aa3fd6c71abdc6918a","216.120.189.45","Mozilla/5.0 (Windows NT 10.0; Win64; x64) AppleWebKit/537.36 (KHTML, like Gecko) Chrome/137.0.0.0 Safari/537.36","WebKit","Chrome","137.0.0.0","Windows","10.0","https://app.prolific.com/","en-US,en;q=0.9","673594215b1a0b92d5835525","686d226cabeef709c732f8e1","686e314222d1bfaadc1433c1","673594215b1a0b92d5835525","2025-07-09T09:54:42.139Z","","","","","","ControlQ","","","","","","","","","","","","","","","","","","","","","","","","","","","","","","","","","","","","","","50"
"3550","","<div style=""width:500px;"">
  <p>How would you describe your current emotional state?</p>
  </div>","0","html-slider-response","66","2501128","0.0-10.0-3.5","178","1","2025-07-09 09:12:51","7701e855f2ef39aa3fd6c71abdc6918a","216.120.189.45","Mozilla/5.0 (Windows NT 10.0; Win64; x64) AppleWebKit/537.36 (KHTML, like Gecko) Chrome/137.0.0.0 Safari/537.36","WebKit","Chrome","137.0.0.0","Windows","10.0","https://app.prolific.com/","en-US,en;q=0.9","673594215b1a0b92d5835525","686d226cabeef709c732f8e1","686e314222d1bfaadc1433c1","673594215b1a0b92d5835525","2025-07-09T09:54:45.690Z","","","","","","StressQ","","","","","","","","","","","","","","","","","","","","","","","","","","","","","","","","","","","","","","50"
"2351","","<div style=""width:500px;"">
  <p>What best describes how you currently feel?</p>
  </div>","100","html-slider-response","67","2503481","0.0-10.0-4.5","178","1","2025-07-09 09:12:51","7701e855f2ef39aa3fd6c71abdc6918a","216.120.189.45","Mozilla/5.0 (Windows NT 10.0; Win64; x64) AppleWebKit/537.36 (KHTML, like Gecko) Chrome/137.0.0.0 Safari/537.36","WebKit","Chrome","137.0.0.0","Windows","10.0","https://app.prolific.com/","en-US,en;q=0.9","673594215b1a0b92d5835525","686d226cabeef709c732f8e1","686e314222d1bfaadc1433c1","673594215b1a0b92d5835525","2025-07-09T09:54:48.043Z","","","","","","MotivationQ","","","","","","","","","","","","","","","","","","","","","","","","","","","","","","","","","","","","","","50"
"","","","","ctl-task-cpt","68","2563074","0.0-10.0-0.6","178","1","2025-07-09 09:12:51","7701e855f2ef39aa3fd6c71abdc6918a","216.120.189.45","Mozilla/5.0 (Windows NT 10.0; Win64; x64) AppleWebKit/537.36 (KHTML, like Gecko) Chrome/137.0.0.0 Safari/537.36","WebKit","Chrome","137.0.0.0","Windows","10.0","https://app.prolific.com/","en-US,en;q=0.9","673594215b1a0b92d5835525","686d226cabeef709c732f8e1","686e314222d1bfaadc1433c1","673594215b1a0b92d5835525","2025-07-09T09:55:47.637Z","","","","","","","","","","","","","","","","win-only","3","g1:SW,g2:NE","0.4","7","0","2517125.3","1212.5","6221.9","56580.7","1","4","4","6","2","-4","-4","20","24","0.15151515151515152","1465.5","3000","-1875","[""up"",""right""]","{""num_key_presses"":11,""num_perfect"":5,""num_errors"":0,""num_randdir"":6,""num_randdir_good_moves"":3,""num_whilered"":0,""num_whileblue"":0,""num_blue"":5,""num_good_moves"":8}","[258.896875,259.303125,1.5,258.896875,259.303125,108.6,258.896875,259.303125,212.8,258.896875,259.303125,327.3,258.896875,259.303125,429.7,254.896875,258.303125,534.4,253.896875,261.303125,638.5,272.896875,233.303125,742.8,357.896875,155.303125,843.2,395.896875,116.303125,948.5,437.896875,88.303125,1058.2,453.896875,74.303125,1158.7,465.896875,59.303125,1259.9,474.896875,50.303125,1362.9,477.896875,47.303125,1474.1,477.896875,47.303125,1577.3,477.896875,47.303125,1685.3,458.896875,67.303125,1791.1,443.896875,91.303125,1894.6,427.896875,137.303125,1995.4,427.896875,141.303125,2097.4,427.896875,143.303125,2207,427.896875,143.303125,2312.9,427.896875,143.303125,2418.1,427.896875,143.303125,2523.2,427.896875,143.303125,2626.6,427.896875,143.303125,2731.5,427.896875,143.303125,2840.1,427.896875,143.303125,2943.7,427.896875,143.303125,3060.3,427.896875,143.303125,3164.2,427.896875,143.303125,3266.1,427.896875,143.303125,3375.4,427.896875,143.303125,3476.5,427.896875,143.303125,3584.7,427.896875,143.303125,3687.4,427.896875,143.303125,3800,427.896875,143.303125,3905,427.896875,143.303125,4006.1,427.896875,143.303125,4116.2,427.896875,143.303125,4217.4,427.896875,143.303125,4323.7,427.896875,143.303125,4429.6,427.896875,143.303125,4532.6,427.896875,143.303125,4638.4,427.896875,143.303125,4739.2,427.896875,143.303125,4844.1,427.896875,143.303125,4944.7]","[7640.4,7640.4,1845,5296.5,499,""smooth"",""up"",""up"",""good_move"",13589.1,5945.8,2486.4,10666.9,435.8,""smooth"",""right"",""right"",""good_move"",16662.2,3072,2625.2,13590.3,446.7,""oops"",""right"",""right"",""good_move"",19338.4,2674.8,2269.4,16663.6,405.4,""oops"",""right"",""left"",""bad_move"",21907.5,2567.8,2073,19339.8,494.7,""oops"",""right"",""left"",""bad_move"",24941.7,3032.1,2171,21909.6,861.1,""smooth"",""right"",""right"",""good_move"",31504.5,6561.6,2719.2,28347.8,437.6,""oops"",""up"",""down"",""bad_move"",35207,3701.2,3051.2,31505.8,650.1,""smooth"",""up"",""up"",""good_move"",38148.2,2937.8,2412.1,35210.4,525.7,""oops"",""right"",""up"",""good_move"",44570.1,6419.5,2213.5,41877.3,479.3,""oops"",""right"",""up"",""good_move"",47592.5,3021.6,2039.5,44570.9,982.1,""smooth"",""right"",""right"",""good_move""]","",""
"4995","","<div style=""width:500px;"">
  <p>What determined the result of this run?</p>
  </div>","0","html-slider-response","69","2568073","0.0-10.0-1.6","178","1","2025-07-09 09:12:51","7701e855f2ef39aa3fd6c71abdc6918a","216.120.189.45","Mozilla/5.0 (Windows NT 10.0; Win64; x64) AppleWebKit/537.36 (KHTML, like Gecko) Chrome/137.0.0.0 Safari/537.36","WebKit","Chrome","137.0.0.0","Windows","10.0","https://app.prolific.com/","en-US,en;q=0.9","673594215b1a0b92d5835525","686d226cabeef709c732f8e1","686e314222d1bfaadc1433c1","673594215b1a0b92d5835525","2025-07-09T09:55:52.635Z","","","","","","AttribQ","","","","","","","","","","","","","","","","","","","","","","","","","","","","","","","","","","","","","","50"
"3550","","<div style=""width:500px;"">
  <p>How much control did you have over the ball?</p>
  </div>","22","html-slider-response","70","2571625","0.0-10.0-2.6","178","1","2025-07-09 09:12:51","7701e855f2ef39aa3fd6c71abdc6918a","216.120.189.45","Mozilla/5.0 (Windows NT 10.0; Win64; x64) AppleWebKit/537.36 (KHTML, like Gecko) Chrome/137.0.0.0 Safari/537.36","WebKit","Chrome","137.0.0.0","Windows","10.0","https://app.prolific.com/","en-US,en;q=0.9","673594215b1a0b92d5835525","686d226cabeef709c732f8e1","686e314222d1bfaadc1433c1","673594215b1a0b92d5835525","2025-07-09T09:55:56.187Z","","","","","","ControlQ","","","","","","","","","","","","","","","","","","","","","","","","","","","","","","","","","","","","","","50"
"3015","","<div style=""width:500px;"">
  <p>How would you describe your current emotional state?</p>
  </div>","0","html-slider-response","71","2574642","0.0-10.0-3.6","178","1","2025-07-09 09:12:51","7701e855f2ef39aa3fd6c71abdc6918a","216.120.189.45","Mozilla/5.0 (Windows NT 10.0; Win64; x64) AppleWebKit/537.36 (KHTML, like Gecko) Chrome/137.0.0.0 Safari/537.36","WebKit","Chrome","137.0.0.0","Windows","10.0","https://app.prolific.com/","en-US,en;q=0.9","673594215b1a0b92d5835525","686d226cabeef709c732f8e1","686e314222d1bfaadc1433c1","673594215b1a0b92d5835525","2025-07-09T09:55:59.204Z","","","","","","StressQ","","","","","","","","","","","","","","","","","","","","","","","","","","","","","","","","","","","","","","50"
"2101","","<div style=""width:500px;"">
  <p>What best describes how you currently feel?</p>
  </div>","100","html-slider-response","72","2576745","0.0-10.0-4.6","178","1","2025-07-09 09:12:51","7701e855f2ef39aa3fd6c71abdc6918a","216.120.189.45","Mozilla/5.0 (Windows NT 10.0; Win64; x64) AppleWebKit/537.36 (KHTML, like Gecko) Chrome/137.0.0.0 Safari/537.36","WebKit","Chrome","137.0.0.0","Windows","10.0","https://app.prolific.com/","en-US,en;q=0.9","673594215b1a0b92d5835525","686d226cabeef709c732f8e1","686e314222d1bfaadc1433c1","673594215b1a0b92d5835525","2025-07-09T09:56:01.308Z","","","","","","MotivationQ","","","","","","","","","","","","","","","","","","","","","","","","","","","","","","","","","","","","","","50"
"","","","","ctl-task-cpt","73","2628590","0.0-10.0-0.7","178","1","2025-07-09 09:12:51","7701e855f2ef39aa3fd6c71abdc6918a","216.120.189.45","Mozilla/5.0 (Windows NT 10.0; Win64; x64) AppleWebKit/537.36 (KHTML, like Gecko) Chrome/137.0.0.0 Safari/537.36","WebKit","Chrome","137.0.0.0","Windows","10.0","https://app.prolific.com/","en-US,en;q=0.9","673594215b1a0b92d5835525","686d226cabeef709c732f8e1","686e314222d1bfaadc1433c1","673594215b1a0b92d5835525","2025-07-09T09:56:53.152Z","","","","","","","","","","","","","","","","win-only","0","g1:NW,g2:SE","0.3","8","0","2590390","1044.7","6049.2","48831.2","1","4","8","6","2","8","8","28","20","0.21212121212121213","940.6","3000","840","[""down"",""right""]","{""num_key_presses"":10,""num_perfect"":3,""num_errors"":0,""num_randdir"":7,""num_randdir_good_moves"":5,""num_whilered"":0,""num_whileblue"":0,""num_blue"":3,""num_good_moves"":8}","[262.896875,264.303125,2.6,262.896875,264.303125,105.2,263.896875,256.303125,211.7,263.896875,244.303125,316.2,247.896875,244.303125,425.7,232.896875,250.303125,544,398.896875,411.303125,646.5,475.896875,457.303125,747.7,512.896875,466.303125,854.6,513.896875,466.303125,961.8,510.896875,465.303125,1064.8,487.896875,458.303125,1172.1,477.896875,458.303125,1280.8,407.896875,448.303125,1383.2,255.896875,419.303125,1490.7,255.896875,419.303125,1595,255.896875,419.303125,1695.7,255.896875,419.303125,1797,255.896875,419.303125,1899.6,255.896875,419.303125,2005.4,255.896875,419.303125,2108.5,255.896875,419.303125,2212.4,255.896875,419.303125,2315.4,255.896875,419.303125,2423.8,255.896875,419.303125,2528.8,255.896875,419.303125,2631.9,255.896875,419.303125,2734.3,255.896875,419.303125,2841.3,255.896875,419.303125,2951,255.896875,419.303125,3057.8,255.896875,419.303125,3161.2,255.896875,419.303125,3264.3,255.896875,419.303125,3366.3,255.896875,419.303125,3470.2,255.896875,419.303125,3570.7,255.896875,419.303125,3680.2,255.896875,419.303125,3782.8,255.896875,419.303125,3888.9,255.896875,419.303125,4002,255.896875,419.303125,4106.3,255.896875,419.303125,4210.3,255.896875,419.303125,4315,255.896875,419.303125,4423.6,255.896875,419.303125,4529.5,255.896875,419.303125,4630.5,255.896875,419.303125,4740.5,255.896875,419.303125,4843.8,255.896875,419.303125,4954.2]","[1839.4,1839.4,1000,0.1,839.4,""oops"",""down"",""down"",""good_move"",4364.4,2523.3,1943.4,1841.1,579.9,""smooth"",""down"",""down"",""good_move"",7850.2,3485,2660.4,4365.2,824.6,""smooth"",""down"",""down"",""good_move"",10861,3009.7,2540.1,7851.4,469.6,""oops"",""right"",""left"",""bad_move"",14679.2,3814.1,3322.8,10865.1,491.3,""oops"",""right"",""right"",""good_move"",18275,3594.9,2473.9,14680.1,1121,""oops"",""right"",""right"",""good_move"",24665.1,6389,2497.3,21149.6,1018.2,""oops"",""right"",""right"",""good_move"",27057.6,2392,1833.9,24665.6,558.1,""oops"",""right"",""left"",""bad_move"",38519.2,11460.7,2687.3,35316.4,515.5,""oops"",""right"",""right"",""good_move"",41917.9,3398.3,2803.3,38519.6,595,""smooth"",""right"",""right"",""good_move""]","",""
"6888","","<div style=""width:500px;"">
  <p>What determined the result of this run?</p>
  </div>","100","html-slider-response","74","2635481","0.0-10.0-1.7","178","1","2025-07-09 09:12:51","7701e855f2ef39aa3fd6c71abdc6918a","216.120.189.45","Mozilla/5.0 (Windows NT 10.0; Win64; x64) AppleWebKit/537.36 (KHTML, like Gecko) Chrome/137.0.0.0 Safari/537.36","WebKit","Chrome","137.0.0.0","Windows","10.0","https://app.prolific.com/","en-US,en;q=0.9","673594215b1a0b92d5835525","686d226cabeef709c732f8e1","686e314222d1bfaadc1433c1","673594215b1a0b92d5835525","2025-07-09T09:57:00.043Z","","","","","","AttribQ","","","","","","","","","","","","","","","","","","","","","","","","","","","","","","","","","","","","","","50"
"3512","","<div style=""width:500px;"">
  <p>How much control did you have over the ball?</p>
  </div>","77","html-slider-response","75","2638995","0.0-10.0-2.7","178","1","2025-07-09 09:12:51","7701e855f2ef39aa3fd6c71abdc6918a","216.120.189.45","Mozilla/5.0 (Windows NT 10.0; Win64; x64) AppleWebKit/537.36 (KHTML, like Gecko) Chrome/137.0.0.0 Safari/537.36","WebKit","Chrome","137.0.0.0","Windows","10.0","https://app.prolific.com/","en-US,en;q=0.9","673594215b1a0b92d5835525","686d226cabeef709c732f8e1","686e314222d1bfaadc1433c1","673594215b1a0b92d5835525","2025-07-09T09:57:03.557Z","","","","","","ControlQ","","","","","","","","","","","","","","","","","","","","","","","","","","","","","","","","","","","","","","50"
"3540","","<div style=""width:500px;"">
  <p>How would you describe your current emotional state?</p>
  </div>","0","html-slider-response","76","2642537","0.0-10.0-3.7","178","1","2025-07-09 09:12:51","7701e855f2ef39aa3fd6c71abdc6918a","216.120.189.45","Mozilla/5.0 (Windows NT 10.0; Win64; x64) AppleWebKit/537.36 (KHTML, like Gecko) Chrome/137.0.0.0 Safari/537.36","WebKit","Chrome","137.0.0.0","Windows","10.0","https://app.prolific.com/","en-US,en;q=0.9","673594215b1a0b92d5835525","686d226cabeef709c732f8e1","686e314222d1bfaadc1433c1","673594215b1a0b92d5835525","2025-07-09T09:57:07.099Z","","","","","","StressQ","","","","","","","","","","","","","","","","","","","","","","","","","","","","","","","","","","","","","","50"
"2029","","<div style=""width:500px;"">
  <p>What best describes how you currently feel?</p>
  </div>","100","html-slider-response","77","2644569","0.0-10.0-4.7","178","1","2025-07-09 09:12:51","7701e855f2ef39aa3fd6c71abdc6918a","216.120.189.45","Mozilla/5.0 (Windows NT 10.0; Win64; x64) AppleWebKit/537.36 (KHTML, like Gecko) Chrome/137.0.0.0 Safari/537.36","WebKit","Chrome","137.0.0.0","Windows","10.0","https://app.prolific.com/","en-US,en;q=0.9","673594215b1a0b92d5835525","686d226cabeef709c732f8e1","686e314222d1bfaadc1433c1","673594215b1a0b92d5835525","2025-07-09T09:57:09.131Z","","","","","","MotivationQ","","","","","","","","","","","","","","","","","","","","","","","","","","","","","","","","","","","","","","50"
"","","","","ctl-task-cpt","78","2708976","0.0-10.0-0.8","178","1","2025-07-09 09:12:51","7701e855f2ef39aa3fd6c71abdc6918a","216.120.189.45","Mozilla/5.0 (Windows NT 10.0; Win64; x64) AppleWebKit/537.36 (KHTML, like Gecko) Chrome/137.0.0.0 Safari/537.36","WebKit","Chrome","137.0.0.0","Windows","10.0","https://app.prolific.com/","en-US,en;q=0.9","673594215b1a0b92d5835525","686d226cabeef709c732f8e1","686e314222d1bfaadc1433c1","673594215b1a0b92d5835525","2025-07-09T09:58:13.538Z","","","","","","","","","","","","","","","","win-only","0","g1:NW,g2:SE","0.2","9","0","2658212.9","997","6006.4","61352.6","1","4","8","6","2","-8","-9","19","28","0.14393939393939395","1225","3000","-515","[""down"",""right""]","{""num_key_presses"":15,""num_perfect"":2,""num_errors"":1,""num_randdir"":12,""num_randdir_good_moves"":6,""num_whilered"":0,""num_whileblue"":1,""num_blue"":1,""num_good_moves"":9}","[263.896875,264.303125,1.2,263.896875,264.303125,103.2,263.896875,262.303125,210.8,265.896875,254.303125,316.2,267.896875,251.303125,416.6,304.896875,295.303125,522.7,367.896875,360.303125,625.4,409.896875,413.303125,729,423.896875,433.303125,830.7,434.896875,443.303125,934.6,440.896875,445.303125,1038.2,453.896875,455.303125,1143.9,458.896875,459.303125,1246.8,459.896875,459.303125,1347.5,459.896875,459.303125,1448.2,457.896875,461.303125,1548.8,450.896875,463.303125,1658.3,450.896875,463.303125,1765.4,450.896875,463.303125,1874.9,450.896875,463.303125,1986.3,450.896875,463.303125,2088,422.896875,461.303125,2196.7,413.896875,461.303125,2300.4,409.896875,461.303125,2402.4,408.896875,461.303125,2516.3,407.896875,461.303125,2618.9,407.896875,461.303125,2726.8,407.896875,461.303125,2832.2,407.896875,461.303125,2946.2,410.896875,462.303125,3058.5,413.896875,462.303125,3162.4,425.896875,466.303125,3264.6,436.896875,470.303125,3375.5,436.896875,470.303125,3475.8,436.896875,470.303125,3580.2,436.896875,470.303125,3687.3,436.896875,470.303125,3787.4,438.896875,470.303125,3888.7,438.896875,470.303125,3994.6,438.896875,470.303125,4096.7,438.896875,470.303125,4201,438.896875,470.303125,4308.3,438.896875,470.303125,4417.9,438.896875,470.303125,4528.5,438.896875,470.303125,4642.6,438.896875,470.303125,4751.9,438.896875,470.303125,4871.4,438.896875,470.303125,4985.6]","[1840.2,1840.2,1000,0,840.2,""smooth"",""down"",""down"",""good_move"",5133.2,3292.4,2578.4,1840.8,714,""smooth"",""right"",""right"",""good_move"",8273.6,3138.2,2621.7,5135.4,516.5,""oops"",""right"",""down"",""good_move"",11053.3,2778.9,2178.2,8274.4,600.7,""oops"",""right"",""left"",""bad_move"",14084.8,3031,2104.8,11053.8,926.2,""oops"",""down"",""up"",""bad_move"",18398.4,4311.9,3826.3,14086.6,485.5,""oops"",""down"",""down"",""good_move"",22254,3855.2,3175.9,18398.8,679.3,""oops"",""right"",""left"",""bad_move"",26467.3,4212.9,3385.6,22254.4,827.3,""oops"",""down"",""down"",""good_move"",29890.2,3422.4,2053.1,26467.8,1369.3,""oops"",""right"",""right"",""good_move"",33315.6,3422.9,2834,29892.7,588.9,""oops"",""right"",""left"",""bad_move"",37038.4,3722.2,1743.6,33316.2,1978.6,""oops"",""right"",""left"",""bad_move"",40821.7,3782.9,3332.1,37038.8,450.8,""while_blue"",""right"",""right"",""good_move"",44465.3,3643.1,2329.4,40822.2,1313.7,""oops"",""right"",""right"",""good_move"",47108.6,2643,2190.8,44465.6,452.2,""oops"",""right"",""right"",""good_move"",49675.9,2567,2189.5,47109,377.4,""oops"",""right"",""left"",""bad_move""]","",""
"3151","","<div style=""width:500px;"">
  <p>What determined the result of this run?</p>
  </div>","23","html-slider-response","79","2712138","0.0-10.0-1.8","178","1","2025-07-09 09:12:51","7701e855f2ef39aa3fd6c71abdc6918a","216.120.189.45","Mozilla/5.0 (Windows NT 10.0; Win64; x64) AppleWebKit/537.36 (KHTML, like Gecko) Chrome/137.0.0.0 Safari/537.36","WebKit","Chrome","137.0.0.0","Windows","10.0","https://app.prolific.com/","en-US,en;q=0.9","673594215b1a0b92d5835525","686d226cabeef709c732f8e1","686e314222d1bfaadc1433c1","673594215b1a0b92d5835525","2025-07-09T09:58:16.700Z","","","","","","AttribQ","","","","","","","","","","","","","","","","","","","","","","","","","","","","","","","","","","","","","","50"
"5618","","<div style=""width:500px;"">
  <p>How much control did you have over the ball?</p>
  </div>","60","html-slider-response","80","2717761","0.0-10.0-2.8","178","1","2025-07-09 09:12:51","7701e855f2ef39aa3fd6c71abdc6918a","216.120.189.45","Mozilla/5.0 (Windows NT 10.0; Win64; x64) AppleWebKit/537.36 (KHTML, like Gecko) Chrome/137.0.0.0 Safari/537.36","WebKit","Chrome","137.0.0.0","Windows","10.0","https://app.prolific.com/","en-US,en;q=0.9","673594215b1a0b92d5835525","686d226cabeef709c732f8e1","686e314222d1bfaadc1433c1","673594215b1a0b92d5835525","2025-07-09T09:58:22.323Z","","","","","","ControlQ","","","","","","","","","","","","","","","","","","","","","","","","","","","","","","","","","","","","","","50"
"2503","","<div style=""width:500px;"">
  <p>How would you describe your current emotional state?</p>
  </div>","0","html-slider-response","81","2720266","0.0-10.0-3.8","178","1","2025-07-09 09:12:51","7701e855f2ef39aa3fd6c71abdc6918a","216.120.189.45","Mozilla/5.0 (Windows NT 10.0; Win64; x64) AppleWebKit/537.36 (KHTML, like Gecko) Chrome/137.0.0.0 Safari/537.36","WebKit","Chrome","137.0.0.0","Windows","10.0","https://app.prolific.com/","en-US,en;q=0.9","673594215b1a0b92d5835525","686d226cabeef709c732f8e1","686e314222d1bfaadc1433c1","673594215b1a0b92d5835525","2025-07-09T09:58:24.828Z","","","","","","StressQ","","","","","","","","","","","","","","","","","","","","","","","","","","","","","","","","","","","","","","50"
"3108","","<div style=""width:500px;"">
  <p>What best describes how you currently feel?</p>
  </div>","69","html-slider-response","82","2723377","0.0-10.0-4.8","178","1","2025-07-09 09:12:51","7701e855f2ef39aa3fd6c71abdc6918a","216.120.189.45","Mozilla/5.0 (Windows NT 10.0; Win64; x64) AppleWebKit/537.36 (KHTML, like Gecko) Chrome/137.0.0.0 Safari/537.36","WebKit","Chrome","137.0.0.0","Windows","10.0","https://app.prolific.com/","en-US,en;q=0.9","673594215b1a0b92d5835525","686d226cabeef709c732f8e1","686e314222d1bfaadc1433c1","673594215b1a0b92d5835525","2025-07-09T09:58:27.939Z","","","","","","MotivationQ","","","","","","","","","","","","","","","","","","","","","","","","","","","","","","","","","","","","","","50"
"","","","","ctl-task-cpt","83","2802366","0.0-10.0-0.9","178","1","2025-07-09 09:12:51","7701e855f2ef39aa3fd6c71abdc6918a","216.120.189.45","Mozilla/5.0 (Windows NT 10.0; Win64; x64) AppleWebKit/537.36 (KHTML, like Gecko) Chrome/137.0.0.0 Safari/537.36","WebKit","Chrome","137.0.0.0","Windows","10.0","https://app.prolific.com/","en-US,en;q=0.9","673594215b1a0b92d5835525","686d226cabeef709c732f8e1","686e314222d1bfaadc1433c1","673594215b1a0b92d5835525","2025-07-09T09:59:46.929Z","","","","","","","","","","","","","","","","win-only","1","g1:NE,g2:SW","0.4","10","0","2737019.9","2549.1","7568.3","75959.1","1","4","4","6","1","-1","-1","18","19","0.13636363636363635","1035.9","3000","-1295","[""up"",""right""]","{""num_key_presses"":13,""num_perfect"":5,""num_errors"":0,""num_randdir"":8,""num_randdir_good_moves"":1,""num_whilered"":0,""num_whileblue"":0,""num_blue"":5,""num_good_moves"":6}","[258.896875,261.303125,0.4,258.896875,261.303125,125.4,266.896875,245.303125,234.3,328.896875,168.303125,354.5,441.896875,93.303125,476.4,456.896875,65.303125,605.9,457.896875,59.303125,728.8,464.896875,54.303125,850.6,473.896875,49.303125,975.2,473.896875,49.303125,1087.4,472.896875,50.303125,1189.4,453.896875,68.303125,1289.4,449.896875,107.303125,1405.1,452.896875,110.303125,1529.4,452.896875,110.303125,1636.6,452.896875,110.303125,1749.2,452.896875,110.303125,1855.3,452.896875,110.303125,1964.1,452.896875,110.303125,2076.4,452.896875,110.303125,2182.9,452.896875,110.303125,2284.1,452.896875,110.303125,2389.3,452.896875,110.303125,2493.6,452.896875,110.303125,2603.1,452.896875,110.303125,2705.9,452.896875,110.303125,2808.6,452.896875,110.303125,2920.1,452.896875,110.303125,3026,452.896875,110.303125,3133.8,452.896875,110.303125,3247.5,452.896875,110.303125,3353.9,452.896875,110.303125,3462.2,452.896875,110.303125,3584.2,452.896875,110.303125,3684.2,452.896875,110.303125,3789.6,452.896875,110.303125,3899.4,452.896875,110.303125,4033,452.896875,110.303125,4138.3,452.896875,110.303125,4239.8,452.896875,110.303125,4356.7,452.896875,110.303125,4485.4,452.896875,110.303125,4598.7,452.896875,110.303125,4702.3,452.896875,110.303125,4837.2,452.896875,110.303125,4943.5]","[1775,1775,1000,0,775,""oops"",""up"",""down"",""bad_move"",4931,3155.4,2465.3,1775.6,690.1,""smooth"",""right"",""right"",""good_move"",8166.3,3234.8,2529.1,4931.5,705.7,""oops"",""right"",""right"",""good_move"",15194.7,7028.2,2532,12133.4,529.3,""smooth"",""up"",""up"",""good_move"",30439.9,15244.7,2993.2,26900.5,546.2,""smooth"",""up"",""up"",""good_move"",34225.2,3785,2936.6,30440.2,848.4,""oops"",""up"",""down"",""bad_move"",37114.5,2887.5,2286.9,34227,600.6,""smooth"",""up"",""up"",""good_move"",40208.3,3091.3,2600.9,37117,490.4,""oops"",""up"",""down"",""bad_move"",42905.5,2695,2080.6,40210.6,614.3,""oops"",""up"",""down"",""bad_move"",45399.7,2493.5,1958,42906.3,535.5,""oops"",""up"",""down"",""bad_move"",48318,2917,2385.4,45401,531.6,""smooth"",""up"",""up"",""good_move"",53111.6,4792.5,2807.1,48319.1,1985.4,""oops"",""up"",""down"",""bad_move"",57660.7,4548.8,2005.6,53111.9,2543.2,""oops"",""up"",""down"",""bad_move""]","",""
"3741","","<div style=""width:500px;"">
  <p>What determined the result of this run?</p>
  </div>","28","html-slider-response","84","2806113","0.0-10.0-1.9","178","1","2025-07-09 09:12:51","7701e855f2ef39aa3fd6c71abdc6918a","216.120.189.45","Mozilla/5.0 (Windows NT 10.0; Win64; x64) AppleWebKit/537.36 (KHTML, like Gecko) Chrome/137.0.0.0 Safari/537.36","WebKit","Chrome","137.0.0.0","Windows","10.0","https://app.prolific.com/","en-US,en;q=0.9","673594215b1a0b92d5835525","686d226cabeef709c732f8e1","686e314222d1bfaadc1433c1","673594215b1a0b92d5835525","2025-07-09T09:59:50.675Z","","","","","","AttribQ","","","","","","","","","","","","","","","","","","","","","","","","","","","","","","","","","","","","","","50"
"2751","","<div style=""width:500px;"">
  <p>How much control did you have over the ball?</p>
  </div>","63","html-slider-response","85","2808865","0.0-10.0-2.9","178","1","2025-07-09 09:12:51","7701e855f2ef39aa3fd6c71abdc6918a","216.120.189.45","Mozilla/5.0 (Windows NT 10.0; Win64; x64) AppleWebKit/537.36 (KHTML, like Gecko) Chrome/137.0.0.0 Safari/537.36","WebKit","Chrome","137.0.0.0","Windows","10.0","https://app.prolific.com/","en-US,en;q=0.9","673594215b1a0b92d5835525","686d226cabeef709c732f8e1","686e314222d1bfaadc1433c1","673594215b1a0b92d5835525","2025-07-09T09:59:53.427Z","","","","","","ControlQ","","","","","","","","","","","","","","","","","","","","","","","","","","","","","","","","","","","","","","50"
"5404","","<div style=""width:500px;"">
  <p>How would you describe your current emotional state?</p>
  </div>","0","html-slider-response","86","2814272","0.0-10.0-3.9","178","1","2025-07-09 09:12:51","7701e855f2ef39aa3fd6c71abdc6918a","216.120.189.45","Mozilla/5.0 (Windows NT 10.0; Win64; x64) AppleWebKit/537.36 (KHTML, like Gecko) Chrome/137.0.0.0 Safari/537.36","WebKit","Chrome","137.0.0.0","Windows","10.0","https://app.prolific.com/","en-US,en;q=0.9","673594215b1a0b92d5835525","686d226cabeef709c732f8e1","686e314222d1bfaadc1433c1","673594215b1a0b92d5835525","2025-07-09T09:59:58.834Z","","","","","","StressQ","","","","","","","","","","","","","","","","","","","","","","","","","","","","","","","","","","","","","","50"
"3439","","<div style=""width:500px;"">
  <p>What best describes how you currently feel?</p>
  </div>","74","html-slider-response","87","2817712","0.0-10.0-4.9","178","1","2025-07-09 09:12:51","7701e855f2ef39aa3fd6c71abdc6918a","216.120.189.45","Mozilla/5.0 (Windows NT 10.0; Win64; x64) AppleWebKit/537.36 (KHTML, like Gecko) Chrome/137.0.0.0 Safari/537.36","WebKit","Chrome","137.0.0.0","Windows","10.0","https://app.prolific.com/","en-US,en;q=0.9","673594215b1a0b92d5835525","686d226cabeef709c732f8e1","686e314222d1bfaadc1433c1","673594215b1a0b92d5835525","2025-07-09T10:00:02.274Z","","","","","","MotivationQ","","","","","","","","","","","","","","","","","","","","","","","","","","","","","","","","","","","","","","50"
"","","","","ctl-task-cpt","88","2881995","0.0-10.0-0.10","178","1","2025-07-09 09:12:51","7701e855f2ef39aa3fd6c71abdc6918a","216.120.189.45","Mozilla/5.0 (Windows NT 10.0; Win64; x64) AppleWebKit/537.36 (KHTML, like Gecko) Chrome/137.0.0.0 Safari/537.36","WebKit","Chrome","137.0.0.0","Windows","10.0","https://app.prolific.com/","en-US,en;q=0.9","673594215b1a0b92d5835525","686d226cabeef709c732f8e1","686e314222d1bfaadc1433c1","673594215b1a0b92d5835525","2025-07-09T10:01:06.557Z","","","","","","","","","","","","","","","","win-only","1","g1:NE,g2:SW","0.5","11","0","2831356.7","1886.2","6899.6","61255.1","1","4","8","6","2","8","8","26","18","0.19696969696969696","1104.1","3000","1325","[""down"",""left""]","{""num_key_presses"":12,""num_perfect"":7,""num_errors"":0,""num_randdir"":5,""num_randdir_good_moves"":3,""num_whilered"":0,""num_whileblue"":0,""num_blue"":4,""num_good_moves"":9}","[257.896875,260.303125,0.2,257.896875,261.303125,100.3,256.896875,262.303125,203.2,337.896875,233.303125,324.6,375.896875,200.303125,441.7,73.896875,370.303125,559.9,-75.103125,508.303125,677.7,-44.103125,511.303125,802.2,9.896875000000001,498.303125,914.8,42.896875,483.303125,1016.8,49.896875,478.303125,1141.1,49.896875,478.303125,1246.6,49.896875,477.303125,1354.6,43.896875,477.303125,1473.5,25.896875,487.303125,1594.7,584.896875,471.303125,1710.4,762.896875,417.303125,1829.8,762.896875,417.303125,1932.5,762.896875,417.303125,2040.2,762.896875,417.303125,2153.5,762.896875,417.303125,2256.2,762.896875,417.303125,2374.4,762.896875,417.303125,2488.2,762.896875,417.303125,2620.4,762.896875,417.303125,2720.8,762.896875,417.303125,2824,762.896875,417.303125,2950.5,762.896875,417.303125,3051.7,762.896875,417.303125,3158.9,762.896875,417.303125,3263.9,762.896875,417.303125,3365.5,762.896875,417.303125,3469.7,762.896875,417.303125,3591.2,762.896875,417.303125,3710.8,762.896875,417.303125,3834.9,762.896875,417.303125,3959.4,762.896875,417.303125,4076.8,762.896875,417.303125,4197.8,762.896875,417.303125,4311.4,762.896875,417.303125,4438.4,762.896875,417.303125,4549.8,762.896875,417.303125,4663,762.896875,417.303125,4788.9,762.896875,417.303125,4901]","[1604,1604,1000,0,604,""smooth"",""down"",""down"",""good_move"",8308.5,6702.7,2997.8,4877.8,432.9,""oops"",""left"",""down"",""good_move"",11713.6,3404,2613.5,8309.6,790.5,""oops"",""down"",""left"",""good_move"",19329.5,7613,3021.3,15772.4,535.8,""oops"",""down"",""up"",""bad_move"",23425.2,4093.5,2395.9,19331.7,1697.6,""smooth"",""left"",""left"",""good_move"",27459.5,4033.9,3402.4,23425.6,631.6,""smooth"",""down"",""down"",""good_move"",30467.7,3006.9,2432.6,27460.8,574.3,""smooth"",""down"",""down"",""good_move"",32957,2488.8,1943.1,30468.2,545.7,""oops"",""left"",""right"",""bad_move"",36427.7,3469.6,3098.9,32958.1,370.7,""smooth"",""right"",""right"",""bad_move"",47004.2,10575.8,2409,44223.4,371.8,""oops"",""left"",""left"",""good_move"",50588.6,3583.2,1873.7,47005.4,1709.5,""smooth"",""left"",""left"",""good_move"",54069.6,3479.8,3019.6,50589.8,460.2,""smooth"",""left"",""left"",""good_move""]","",""
"3107","","<div style=""width:500px;"">
  <p>What determined the result of this run?</p>
  </div>","100","html-slider-response","89","2885104","0.0-10.0-1.10","178","1","2025-07-09 09:12:51","7701e855f2ef39aa3fd6c71abdc6918a","216.120.189.45","Mozilla/5.0 (Windows NT 10.0; Win64; x64) AppleWebKit/537.36 (KHTML, like Gecko) Chrome/137.0.0.0 Safari/537.36","WebKit","Chrome","137.0.0.0","Windows","10.0","https://app.prolific.com/","en-US,en;q=0.9","673594215b1a0b92d5835525","686d226cabeef709c732f8e1","686e314222d1bfaadc1433c1","673594215b1a0b92d5835525","2025-07-09T10:01:09.666Z","","","","","","AttribQ","","","","","","","","","","","","","","","","","","","","","","","","","","","","","","","","","","","","","","50"
"1814","","<div style=""width:500px;"">
  <p>How much control did you have over the ball?</p>
  </div>","100","html-slider-response","90","2886920","0.0-10.0-2.10","178","1","2025-07-09 09:12:51","7701e855f2ef39aa3fd6c71abdc6918a","216.120.189.45","Mozilla/5.0 (Windows NT 10.0; Win64; x64) AppleWebKit/537.36 (KHTML, like Gecko) Chrome/137.0.0.0 Safari/537.36","WebKit","Chrome","137.0.0.0","Windows","10.0","https://app.prolific.com/","en-US,en;q=0.9","673594215b1a0b92d5835525","686d226cabeef709c732f8e1","686e314222d1bfaadc1433c1","673594215b1a0b92d5835525","2025-07-09T10:01:11.482Z","","","","","","ControlQ","","","","","","","","","","","","","","","","","","","","","","","","","","","","","","","","","","","","","","50"
"2662","","<div style=""width:500px;"">
  <p>How would you describe your current emotional state?</p>
