"rt","response_timestamp","stimulus","response","trial_type","trial_index","time_elapsed","internal_node_id","run_id","condition","recorded_at","source_code_version","ip","user_agent","device","browser","browser_version","platform","platform_version","referer","accept_language","PROLIFIC_PID","STUDY_ID","SESSION_ID","prolific_id","realtime","view_history","question_order","consent","success","question_id","eventType","responses","item_order","radio_event_ids","radio_event_times","key_event_times","mouse_event_times","straightlining","zigzagging","honeypot","which_type","canvas_config","goals_layout","control_level","trial_number","tutorial_trial_number","trial_start_time","phase1_start_time","phase2_start_time","phase3_start_time","goal_1_value","goal_1_distance","goal_2_value","goal_2_distance","goal_selected","outcome","outcome_total","participant_final_score","participant_initial_score","participant_final_score_prop","goal_choice_rt","allocated_time","allocated_time_remaining","goal_direction","counts","mouse_movements","key_presses","correct","slider_start"
"12206","1752052091051","<p style='font-size:40px;line-height:1.25'><strong>Welcome to the experiment!</strong></p><p style='font-size:1.1em;line-height:1.25'>Thank you for your interest in our experiment! Before you begin, it is important that we obtain your informed consent to participate in the study.</p><p style='font-size:1.1em;line-height:1.25'>On the next screen will be an <strong>information sheet</strong> for you to read. To participate in the study we need you to read this information sheet and the following consent form carefully. If you agree with all the statements, please click the <strong>I agree</strong> button.</p><p style='font-size:1.1em;line-height:1.25'>Press <strong>Next</strong> to read the information sheet.</p>","0","custom-html-button-response","0","12208","0.0-0.0","102","1","2025-07-09 09:07:57","7701e855f2ef39aa3fd6c71abdc6918a","93.39.140.87","Mozilla/5.0 (Windows NT 10.0; Win64; x64) AppleWebKit/537.36 (KHTML, like Gecko) Chrome/138.0.0.0 Safari/537.36","WebKit","Chrome","138.0.0.0","Windows","10.0","https://app.prolific.com/","it-IT,it;q=0.9,en-US;q=0.8,en;q=0.7","5daae19f8a06b60016d1bc32","686d226cabeef709c732f8e1","686e312457acb241e1f8bc25","5daae19f8a06b60016d1bc32","2025-07-09T09:08:11.051Z","","","","","","","","","","","","","","","","","","","","","","","","","","","","","","","","","","","","","","","","","","","",""
"88829","","","","instructions","1","101038","0.0-1.0","102","1","2025-07-09 09:07:57","7701e855f2ef39aa3fd6c71abdc6918a","93.39.140.87","Mozilla/5.0 (Windows NT 10.0; Win64; x64) AppleWebKit/537.36 (KHTML, like Gecko) Chrome/138.0.0.0 Safari/537.36","WebKit","Chrome","138.0.0.0","Windows","10.0","https://app.prolific.com/","it-IT,it;q=0.9,en-US;q=0.8,en;q=0.7","5daae19f8a06b60016d1bc32","686d226cabeef709c732f8e1","686e312457acb241e1f8bc25","5daae19f8a06b60016d1bc32","","[{""page_index"":0,""viewing_time"":83640},{""page_index"":1,""viewing_time"":5189}]","","","","","","","","","","","","","","","","","","","","","","","","","","","","","","","","","","","","","","","","","","",""
"25570","","","{""Q0"":"""",""Q1"":"""",""Q2"":"""",""Q3"":"""",""Q4"":"""",""Q5"":"""",""Q6"":""I agree""}","survey-multi-choice","2","126609","0.0-2.0","102","1","2025-07-09 09:07:57","7701e855f2ef39aa3fd6c71abdc6918a","93.39.140.87","Mozilla/5.0 (Windows NT 10.0; Win64; x64) AppleWebKit/537.36 (KHTML, like Gecko) Chrome/138.0.0.0 Safari/537.36","WebKit","Chrome","138.0.0.0","Windows","10.0","https://app.prolific.com/","it-IT,it;q=0.9,en-US;q=0.8,en;q=0.7","5daae19f8a06b60016d1bc32","686d226cabeef709c732f8e1","686e312457acb241e1f8bc25","5daae19f8a06b60016d1bc32","","","[0,1,2,3,4,5,6]","true","","","","","","","","","","","","","","","","","","","","","","","","","","","","","","","","","","","","","","","","",""
"11287","","","","fullscreen","3","138913","0.0-4.0","102","1","2025-07-09 09:07:57","7701e855f2ef39aa3fd6c71abdc6918a","93.39.140.87","Mozilla/5.0 (Windows NT 10.0; Win64; x64) AppleWebKit/537.36 (KHTML, like Gecko) Chrome/138.0.0.0 Safari/537.36","WebKit","Chrome","138.0.0.0","Windows","10.0","https://app.prolific.com/","it-IT,it;q=0.9,en-US;q=0.8,en;q=0.7","5daae19f8a06b60016d1bc32","686d226cabeef709c732f8e1","686e312457acb241e1f8bc25","5daae19f8a06b60016d1bc32","","","","","true","","","","","","","","","","","","","","","","","","","","","","","","","","","","","","","","","","","","","","","",""
"8460","1752052226217"," <p style='font-size:1.1em;line-height:1.25'>Thank you for completing the consent form and closing all other tabs.</p><p style='font-size:1.1em;line-height:1.25'>We will now invite you to fill in some demographic information and questionnaires, before starting the game.<br>This will take about 5 minutes.<br></p><p style='font-size:1.1em;line-height:1.25'>Press the <strong>Next</strong> button to continue.</p>","0","custom-html-button-response","4","147374","0.0-5.0","102","1","2025-07-09 09:07:57","7701e855f2ef39aa3fd6c71abdc6918a","93.39.140.87","Mozilla/5.0 (Windows NT 10.0; Win64; x64) AppleWebKit/537.36 (KHTML, like Gecko) Chrome/138.0.0.0 Safari/537.36","WebKit","Chrome","138.0.0.0","Windows","10.0","https://app.prolific.com/","it-IT,it;q=0.9,en-US;q=0.8,en;q=0.7","5daae19f8a06b60016d1bc32","686d226cabeef709c732f8e1","686e312457acb241e1f8bc25","5daae19f8a06b60016d1bc32","2025-07-09T09:10:26.217Z","","","","","","","","","","","","","","","","","","","","","","","","","","","","","","","","","","","","","","","","","","","",""
"2857","","","{""age"":""36""}","survey-text","5","150233","0.0-6.0-0.0","102","1","2025-07-09 09:07:57","7701e855f2ef39aa3fd6c71abdc6918a","93.39.140.87","Mozilla/5.0 (Windows NT 10.0; Win64; x64) AppleWebKit/537.36 (KHTML, like Gecko) Chrome/138.0.0.0 Safari/537.36","WebKit","Chrome","138.0.0.0","Windows","10.0","https://app.prolific.com/","it-IT,it;q=0.9,en-US;q=0.8,en;q=0.7","5daae19f8a06b60016d1bc32","686d226cabeef709c732f8e1","686e312457acb241e1f8bc25","5daae19f8a06b60016d1bc32","","","","","","0","demographics","","","","","","","","","","","","","","","","","","","","","","","","","","","","","","","","","","","","","",""
"4384","","","{""gender_identity"":""female/woman""}","survey-multi-choice","6","154617","0.0-6.0-1.0","102","1","2025-07-09 09:07:57","7701e855f2ef39aa3fd6c71abdc6918a","93.39.140.87","Mozilla/5.0 (Windows NT 10.0; Win64; x64) AppleWebKit/537.36 (KHTML, like Gecko) Chrome/138.0.0.0 Safari/537.36","WebKit","Chrome","138.0.0.0","Windows","10.0","https://app.prolific.com/","it-IT,it;q=0.9,en-US;q=0.8,en;q=0.7","5daae19f8a06b60016d1bc32","686d226cabeef709c732f8e1","686e312457acb241e1f8bc25","5daae19f8a06b60016d1bc32","","","[0]","","","1","demographics","","","","","","","","","","","","","","","","","","","","","","","","","","","","","","","","","","","","","",""
"4143","","","{""assigned_sex"":""female""}","survey-multi-choice","7","158761","0.0-6.0-2.0","102","1","2025-07-09 09:07:57","7701e855f2ef39aa3fd6c71abdc6918a","93.39.140.87","Mozilla/5.0 (Windows NT 10.0; Win64; x64) AppleWebKit/537.36 (KHTML, like Gecko) Chrome/138.0.0.0 Safari/537.36","WebKit","Chrome","138.0.0.0","Windows","10.0","https://app.prolific.com/","it-IT,it;q=0.9,en-US;q=0.8,en;q=0.7","5daae19f8a06b60016d1bc32","686d226cabeef709c732f8e1","686e312457acb241e1f8bc25","5daae19f8a06b60016d1bc32","","","[0]","","","2","demographics","","","","","","","","","","","","","","","","","","","","","","","","","","","","","","","","","","","","","",""
"5021","","","{""menstrual_cycle"":""Yes""}","survey-multi-choice","8","163783","0.0-6.0-3.0","102","1","2025-07-09 09:07:57","7701e855f2ef39aa3fd6c71abdc6918a","93.39.140.87","Mozilla/5.0 (Windows NT 10.0; Win64; x64) AppleWebKit/537.36 (KHTML, like Gecko) Chrome/138.0.0.0 Safari/537.36","WebKit","Chrome","138.0.0.0","Windows","10.0","https://app.prolific.com/","it-IT,it;q=0.9,en-US;q=0.8,en;q=0.7","5daae19f8a06b60016d1bc32","686d226cabeef709c732f8e1","686e312457acb241e1f8bc25","5daae19f8a06b60016d1bc32","","","[0]","","","4","demographics","","","","","","","","","","","","","","","","","","","","","","","","","","","","","","","","","","","","","",""
"33284","","","{""education"":""A-level/National Diploma/Highers""}","survey-multi-choice","9","197068","0.0-6.0-4.0","102","1","2025-07-09 09:07:57","7701e855f2ef39aa3fd6c71abdc6918a","93.39.140.87","Mozilla/5.0 (Windows NT 10.0; Win64; x64) AppleWebKit/537.36 (KHTML, like Gecko) Chrome/138.0.0.0 Safari/537.36","WebKit","Chrome","138.0.0.0","Windows","10.0","https://app.prolific.com/","it-IT,it;q=0.9,en-US;q=0.8,en;q=0.7","5daae19f8a06b60016d1bc32","686d226cabeef709c732f8e1","686e312457acb241e1f8bc25","5daae19f8a06b60016d1bc32","","","[0]","","","5","demographics","","","","","","","","","","","","","","","","","","","","","","","","","","","","","","","","","","","","","",""
"8077","","","{""education"":""A-level/National Diploma/Highers""}","survey-multi-choice","10","205145","0.0-6.0-5.0","102","1","2025-07-09 09:07:57","7701e855f2ef39aa3fd6c71abdc6918a","93.39.140.87","Mozilla/5.0 (Windows NT 10.0; Win64; x64) AppleWebKit/537.36 (KHTML, like Gecko) Chrome/138.0.0.0 Safari/537.36","WebKit","Chrome","138.0.0.0","Windows","10.0","https://app.prolific.com/","it-IT,it;q=0.9,en-US;q=0.8,en;q=0.7","5daae19f8a06b60016d1bc32","686d226cabeef709c732f8e1","686e312457acb241e1f8bc25","5daae19f8a06b60016d1bc32","2025-07-09T09:11:23.988Z","","[0]","","","6","demographics","","","","","","","","","","","","","","","","","","","","","","","","","","","","","","","","","","","","","",""
"144686","","","{""mental_health_condition"":""I'm not diagnosed, but I believe I might have Asperger's (plus depression and anxiety)"",""mental_health_treatment"":"""",""psychiatric_medication"":""""}","survey-text","11","349833","0.0-7.0-0.0","102","1","2025-07-09 09:07:57","7701e855f2ef39aa3fd6c71abdc6918a","93.39.140.87","Mozilla/5.0 (Windows NT 10.0; Win64; x64) AppleWebKit/537.36 (KHTML, like Gecko) Chrome/138.0.0.0 Safari/537.36","WebKit","Chrome","138.0.0.0","Windows","10.0","https://app.prolific.com/","it-IT,it;q=0.9,en-US;q=0.8,en;q=0.7","5daae19f8a06b60016d1bc32","686d226cabeef709c732f8e1","686e312457acb241e1f8bc25","5daae19f8a06b60016d1bc32","2025-07-09T09:13:48.676Z","","","","","1","mental_health","","","","","","","","","","","","","","","","","","","","","","","","","","","","","","","","","","","","","",""
"38293","","","{""depression_history"":[""Yes""]}","survey-multi-select","12","388128","0.0-7.0-1.0","102","1","2025-07-09 09:07:57","7701e855f2ef39aa3fd6c71abdc6918a","93.39.140.87","Mozilla/5.0 (Windows NT 10.0; Win64; x64) AppleWebKit/537.36 (KHTML, like Gecko) Chrome/138.0.0.0 Safari/537.36","WebKit","Chrome","138.0.0.0","Windows","10.0","https://app.prolific.com/","it-IT,it;q=0.9,en-US;q=0.8,en;q=0.7","5daae19f8a06b60016d1bc32","686d226cabeef709c732f8e1","686e312457acb241e1f8bc25","5daae19f8a06b60016d1bc32","","","[0]","","","","mental_health","","","","","","","","","","","","","","","","","","","","","","","","","","","","","","","","","","","","","",""
"39458","","","{""depression_episodes"":""more than 5"",""depression_recent"":""Currently experiencing an episode""}","survey-multi-choice","13","427586","0.0-7.0-2.0-0.0","102","1","2025-07-09 09:07:57","7701e855f2ef39aa3fd6c71abdc6918a","93.39.140.87","Mozilla/5.0 (Windows NT 10.0; Win64; x64) AppleWebKit/537.36 (KHTML, like Gecko) Chrome/138.0.0.0 Safari/537.36","WebKit","Chrome","138.0.0.0","Windows","10.0","https://app.prolific.com/","it-IT,it;q=0.9,en-US;q=0.8,en;q=0.7","5daae19f8a06b60016d1bc32","686d226cabeef709c732f8e1","686e312457acb241e1f8bc25","5daae19f8a06b60016d1bc32","2025-07-09T09:15:06.429Z","","[0,1]","","","3","mental_health","","","","","","","","","","","","","","","","","","","","","","","","","","","","","","","","","","","","","",""
"128548.79999923706","","","","survey-template","14","556138","0.0-7.0-3.0","102","1","2025-07-09 09:07:57","7701e855f2ef39aa3fd6c71abdc6918a","93.39.140.87","Mozilla/5.0 (Windows NT 10.0; Win64; x64) AppleWebKit/537.36 (KHTML, like Gecko) Chrome/138.0.0.0 Safari/537.36","WebKit","Chrome","138.0.0.0","Windows","10.0","https://app.prolific.com/","it-IT,it;q=0.9,en-US;q=0.8,en;q=0.7","5daae19f8a06b60016d1bc32","686d226cabeef709c732f8e1","686e312457acb241e1f8bc25","5daae19f8a06b60016d1bc32","2025-07-09T09:17:14.981Z","","","","","","ius","{""Q01"":""4"",""Q02"":""4"",""Q03"":""3"",""Q04"":""2"",""Q05"":""3"",""Q06"":""3"",""Q07"":""4"",""Q08"":""0"",""Q09"":""3"",""Q10"":""4"",""Q11"":""3"",""Q12"":""4"",""Q13"":""2""}","[0,1,2,3,4,5,6,7,8,9,10,11,12]","[""Q01"",""Q02"",""Q03"",""Q04"",""Q05"",""Q06"",""Q03"",""Q03"",""Q04"",""Q07"",""Q08"",""Q09"",""Q10"",""Q11"",""Q12"",""Q13""]","[7676,11257.39999961853,13681.29999923706,19813.89999961853,26604.79999923706,29927.10000038147,43786.79999923706,47022.70000076294,75432.29999923706,98751.10000038147,101634.5,106551.10000038147,109382.5,113343.5,118983.20000076294,124842.60000038147]","[]","[6600.700000762939,7676,11257.39999961853,13681.29999923706,19813.89999961853,26604.79999923706,29927.10000038147,43786.79999923706,47022.70000076294,75432.29999923706,98751.10000038147,101634.5,106551.10000038147,109382.5,113343.5,118983.20000076294,124842.60000038147,128547.79999923706]","0.38461538461538464","0.6666666666666666","0","","","","","","","","","","","","","","","","","","","","","","","","","","","","",""
"3572","1752052638553","<p style='font-size:1.1em;line-height:1.25'>In the following, we will ask you a few questions relating to your experiences over the past month.<br></p><p style='font-size:1.1em;line-height:1.25'>Press the <strong>Next</strong> button to continue.</p>","0","custom-html-button-response","15","559710","0.0-7.0-4.0","102","1","2025-07-09 09:07:57","7701e855f2ef39aa3fd6c71abdc6918a","93.39.140.87","Mozilla/5.0 (Windows NT 10.0; Win64; x64) AppleWebKit/537.36 (KHTML, like Gecko) Chrome/138.0.0.0 Safari/537.36","WebKit","Chrome","138.0.0.0","Windows","10.0","https://app.prolific.com/","it-IT,it;q=0.9,en-US;q=0.8,en;q=0.7","5daae19f8a06b60016d1bc32","686d226cabeef709c732f8e1","686e312457acb241e1f8bc25","5daae19f8a06b60016d1bc32","2025-07-09T09:17:18.554Z","","","","","","","","","","","","","","","","","","","","","","","","","","","","","","","","","","","","","","","","","","","",""
"112953.20000076294","","","","survey-template","16","672665","0.0-7.0-5.0","102","1","2025-07-09 09:07:57","7701e855f2ef39aa3fd6c71abdc6918a","93.39.140.87","Mozilla/5.0 (Windows NT 10.0; Win64; x64) AppleWebKit/537.36 (KHTML, like Gecko) Chrome/138.0.0.0 Safari/537.36","WebKit","Chrome","138.0.0.0","Windows","10.0","https://app.prolific.com/","it-IT,it;q=0.9,en-US;q=0.8,en;q=0.7","5daae19f8a06b60016d1bc32","686d226cabeef709c732f8e1","686e312457acb241e1f8bc25","5daae19f8a06b60016d1bc32","2025-07-09T09:19:11.508Z","","","","","","pss","{""Q01"":""2"",""Q02"":""3"",""Q03"":""3"",""Q04"":""2"",""Q05"":""2"",""Q06"":""4"",""Q07"":""1"",""Q08"":""2"",""Q09"":""1"",""Q10"":""3""}","[0,1,2,3,4,5,6,7,8,9]","[""Q01"",""Q02"",""Q03"",""Q04"",""Q05"",""Q06"",""Q07"",""Q08"",""Q08"",""Q09"",""Q10""]","[19019,24371.39999961853,33523.29999923706,40357.10000038147,51468.60000038147,58963.79999923706,64195.89999961853,71774.39999961853,85324.89999961853,103760.5,111763.89999961853]","[]","[0,19019,24371.39999961853,33523.29999923706,40357.10000038147,51468.60000038147,58963.79999923706,64195.89999961853,71774.39999961853,85324.89999961853,103760.5,110734.20000076294,111763.89999961853,112952.10000038147]","0.4","0.5555555555555556","0","","","","","","","","","","","","","","","","","","","","","","","","","","","","",""
"4514","1752052756023","<p style='font-size:1.1em;line-height:1.25'>Thank you for your answers! Now we will ask you a few more questions relating to your feelings in the last 24 hours.<br></p><p style='font-size:1.1em;line-height:1.25'>Press the <strong>Next</strong> button to continue.</p>","0","custom-html-button-response","17","677180","0.0-7.0-6.0","102","1","2025-07-09 09:07:57","7701e855f2ef39aa3fd6c71abdc6918a","93.39.140.87","Mozilla/5.0 (Windows NT 10.0; Win64; x64) AppleWebKit/537.36 (KHTML, like Gecko) Chrome/138.0.0.0 Safari/537.36","WebKit","Chrome","138.0.0.0","Windows","10.0","https://app.prolific.com/","it-IT,it;q=0.9,en-US;q=0.8,en;q=0.7","5daae19f8a06b60016d1bc32","686d226cabeef709c732f8e1","686e312457acb241e1f8bc25","5daae19f8a06b60016d1bc32","2025-07-09T09:19:16.024Z","","","","","","","","","","","","","","","","","","","","","","","","","","","","","","","","","","","","","","","","","","","",""
"139567.10000038147","","","","survey-template","18","816750","0.0-7.0-7.0","102","1","2025-07-09 09:07:57","7701e855f2ef39aa3fd6c71abdc6918a","93.39.140.87","Mozilla/5.0 (Windows NT 10.0; Win64; x64) AppleWebKit/537.36 (KHTML, like Gecko) Chrome/138.0.0.0 Safari/537.36","WebKit","Chrome","138.0.0.0","Windows","10.0","https://app.prolific.com/","it-IT,it;q=0.9,en-US;q=0.8,en;q=0.7","5daae19f8a06b60016d1bc32","686d226cabeef709c732f8e1","686e312457acb241e1f8bc25","5daae19f8a06b60016d1bc32","2025-07-09T09:21:35.593Z","","","","","","drsp","{""Q01"":""2"",""Q02"":""2"",""Q03"":""4"",""Q04"":""3"",""Q05"":""3"",""Q06"":""2"",""Q07"":""0"",""Q08"":""0"",""Q09"":""4"",""Q10"":""3"",""Q11"":""2"",""Q12"":""0"",""Q13"":""0"",""Q14"":""1"",""Q15"":""2"",""Q16"":""3"",""Q17"":""3"",""Q18"":""1"",""Q19"":""0"",""Q20"":""0"",""Q21"":""0""}","[0,1,2,3,4,5,6,7,8,9,10,11,12,13,14,15,16,17,18,19,20]","[""Q01"",""Q02"",""Q03"",""Q04"",""Q05"",""Q06"",""Q07"",""Q08"",""Q09"",""Q09"",""Q10"",""Q11"",""Q11"",""Q12"",""Q13"",""Q14"",""Q15"",""Q16"",""Q16"",""Q17"",""Q18"",""Q19"",""Q20"",""Q21""]","[19762.20000076294,24175.90000152588,31471.70000076294,35139.40000152588,37694.30000114441,44961.70000076294,47922.90000152588,51130.70000076294,53377,58972.70000076294,62905.5,67473.20000076294,71193.80000114441,73298.30000114441,74554.80000114441,79041.60000038147,87724.60000038147,89872.70000076294,92020.20000076294,95518.10000038147,113740,121344.20000076294,134310.10000038147,138102.20000076294]","[]","[0,19762.20000076294,24175.90000152588,30146.30000114441,31471.70000076294,35139.40000152588,37694.30000114441,44961.70000076294,47922.90000152588,49918.20000076294,51130.70000076294,53377,58972.70000076294,62905.5,67473.20000076294,71193.80000114441,73298.30000114441,74554.80000114441,77928.5,79041.60000038147,87724.60000038147,89872.70000076294,92020.20000076294,94427.5,95518.10000038147,113740,121344.20000076294,132137.10000038147,134310.10000038147,138102.20000076294,139565.8000011444]","0.3333333333333333","0.4","0","","","","","","","","","","","","","","","","","","","","","","","","","","","","",""
"34187.20000076294","","","","survey-template","19","850938","0.0-7.0-8.0","102","1","2025-07-09 09:07:57","7701e855f2ef39aa3fd6c71abdc6918a","93.39.140.87","Mozilla/5.0 (Windows NT 10.0; Win64; x64) AppleWebKit/537.36 (KHTML, like Gecko) Chrome/138.0.0.0 Safari/537.36","WebKit","Chrome","138.0.0.0","Windows","10.0","https://app.prolific.com/","it-IT,it;q=0.9,en-US;q=0.8,en;q=0.7","5daae19f8a06b60016d1bc32","686d226cabeef709c732f8e1","686e312457acb241e1f8bc25","5daae19f8a06b60016d1bc32","2025-07-09T09:22:09.781Z","","","","","","stress","{""Q01"":""2"",""Q02"":""4"",""Q03"":""3""}","[0,1,2]","[""Q02"",""Q01"",""Q03""]","[19355.79999923706,24025.89999961853,33044.5]","[]","[19355.79999923706,24025.89999961853,30235.60000038147,33044.5,34186.60000038147]","0.3333333333333333","0.5","0","","","","","","","","","","","","","","","","","","","","","","","","","","","","",""
"139596","","","","instructions","20","990536","0.0-8.0-0.0","102","1","2025-07-09 09:07:57","7701e855f2ef39aa3fd6c71abdc6918a","93.39.140.87","Mozilla/5.0 (Windows NT 10.0; Win64; x64) AppleWebKit/537.36 (KHTML, like Gecko) Chrome/138.0.0.0 Safari/537.36","WebKit","Chrome","138.0.0.0","Windows","10.0","https://app.prolific.com/","it-IT,it;q=0.9,en-US;q=0.8,en;q=0.7","5daae19f8a06b60016d1bc32","686d226cabeef709c732f8e1","686e312457acb241e1f8bc25","5daae19f8a06b60016d1bc32","","[{""page_index"":0,""viewing_time"":43099},{""page_index"":1,""viewing_time"":45122},{""page_index"":2,""viewing_time"":26007},{""page_index"":3,""viewing_time"":25368}]","","","","","","","","","","","","","","","","","","","","","","","","","","","","","","","","","","","","","","","","","","",""
"","","","","ctl-task-cpt","21","1013158","0.0-8.0-1.0","102","1","2025-07-09 09:07:57","7701e855f2ef39aa3fd6c71abdc6918a","93.39.140.87","Mozilla/5.0 (Windows NT 10.0; Win64; x64) AppleWebKit/537.36 (KHTML, like Gecko) Chrome/138.0.0.0 Safari/537.36","WebKit","Chrome","138.0.0.0","Windows","10.0","https://app.prolific.com/","it-IT,it;q=0.9,en-US;q=0.8,en;q=0.7","5daae19f8a06b60016d1bc32","686d226cabeef709c732f8e1","686e312457acb241e1f8bc25","5daae19f8a06b60016d1bc32","","","","","","","","","","","","","","","","","win-only","3","g1:SW,g2:NE","1","0","1","991777.5","2567.2","6571","19617.1","2","4","4","6","1","2","1","1","0","0.007575757575757576","4003.7","4000","725","[""down"",""left""]","{""num_key_presses"":6,""num_perfect"":4,""num_errors"":1,""num_randdir"":0,""num_randdir_good_moves"":0,""num_whilered"":1,""num_whileblue"":0,""num_blue"":0,""num_good_moves"":4}","[414.57142857142856,416.47767857142856,0.4,414.57142857142856,416.47767857142856,104,414.57142857142856,416.47767857142856,209.1,414.57142857142856,416.47767857142856,313.5,414.57142857142856,416.47767857142856,413.8,414.57142857142856,416.47767857142856,513.8,414.57142857142856,416.47767857142856,613.8,414.57142857142856,416.47767857142856,718.6,414.57142857142856,416.47767857142856,819.2,414.57142857142856,416.47767857142856,923.7,391.57142857142856,442.47767857142856,1028.2,374.57142857142856,468.47767857142856,1128.7,358.57142857142856,484.47767857142856,1228.8,354.57142857142856,489.47767857142856,1334.6,354.57142857142856,489.47767857142856,1439.6,354.57142857142856,489.47767857142856,1543.8,354.57142857142856,489.47767857142856,1648.1,354.57142857142856,489.47767857142856,1748.9,354.57142857142856,489.47767857142856,1849.2,354.57142857142856,489.47767857142856,1953.8,354.57142857142856,489.47767857142856,2053.9,354.57142857142856,489.47767857142856,2158.8,354.57142857142856,489.47767857142856,2259,354.57142857142856,489.47767857142856,2364.1,354.57142857142856,489.47767857142856,2468.5,354.57142857142856,489.47767857142856,2573.1,354.57142857142856,489.47767857142856,2673.6,354.57142857142856,489.47767857142856,2779.3,354.57142857142856,489.47767857142856,2883.3,354.57142857142856,489.47767857142856,2989.1,354.57142857142856,489.47767857142856,3093.9,354.57142857142856,489.47767857142856,3193.9,346.57142857142856,522.4776785714286,3294.1,337.57142857142856,572.4776785714286,3398.8,337.57142857142856,575.4776785714286,3498.9,338.57142857142856,573.4776785714286,3603.4,338.57142857142856,573.4776785714286,3704.2,338.57142857142856,573.4776785714286,3809.3,338.57142857142856,573.4776785714286,3913.3]","[2447.1,2447.1,1000,0,1447.1,""smooth"",""down"",""down"",""good_move"",3117,669.6,3842.4,2447.4,-3172.8,""error"",""-"",""-"",""no_move"",3795.3,678.1,3842.4,2447.4,-2494.5,""while_red"",""-"",""-"",""no_move"",6759.4,3642.2,1588.2,4120.8,1050.4,""smooth"",""left"",""left"",""good_move"",9706.4,2946.7,2526.3,6759.7,420.4,""smooth"",""down"",""down"",""good_move"",12958.9,3252.2,2869.7,9706.7,382.5,""smooth"",""left"",""left"",""good_move""]","",""
"20628","","","","instructions","22","1033786","0.0-8.0-2.0","102","1","2025-07-09 09:07:57","7701e855f2ef39aa3fd6c71abdc6918a","93.39.140.87","Mozilla/5.0 (Windows NT 10.0; Win64; x64) AppleWebKit/537.36 (KHTML, like Gecko) Chrome/138.0.0.0 Safari/537.36","WebKit","Chrome","138.0.0.0","Windows","10.0","https://app.prolific.com/","it-IT,it;q=0.9,en-US;q=0.8,en;q=0.7","5daae19f8a06b60016d1bc32","686d226cabeef709c732f8e1","686e312457acb241e1f8bc25","5daae19f8a06b60016d1bc32","","[{""page_index"":0,""viewing_time"":20628}]","","","","","","","","","","","","","","","","","","","","","","","","","","","","","","","","","","","","","","","","","","",""
"","","","","ctl-task-cpt","23","1091573","0.0-8.0-3.0","102","1","2025-07-09 09:07:57","7701e855f2ef39aa3fd6c71abdc6918a","93.39.140.87","Mozilla/5.0 (Windows NT 10.0; Win64; x64) AppleWebKit/537.36 (KHTML, like Gecko) Chrome/138.0.0.0 Safari/537.36","WebKit","Chrome","138.0.0.0","Windows","10.0","https://app.prolific.com/","it-IT,it;q=0.9,en-US;q=0.8,en;q=0.7","5daae19f8a06b60016d1bc32","686d226cabeef709c732f8e1","686e312457acb241e1f8bc25","5daae19f8a06b60016d1bc32","","","","","","","","","","","","","","","","","win-only","3","g1:SW,g2:NE","0.35","0","3","1035027.4","1517.4","5520.6","54780.8","2","4","8","6","2","-8","-10","0","0","0","4003.2","4000","-3005","[""up"",""right""]","{""num_key_presses"":11,""num_perfect"":4,""num_errors"":2,""num_randdir"":5,""num_randdir_good_moves"":2,""num_whilered"":0,""num_whileblue"":2,""num_blue"":6,""num_good_moves"":7}","[414.57142857142856,416.47767857142856,0.1,414.57142857142856,416.47767857142856,102.7,414.57142857142856,416.47767857142856,203.8,414.57142857142856,416.47767857142856,308.6,414.57142857142856,416.47767857142856,412.9,378.57142857142856,458.47767857142856,518.4,348.57142857142856,488.47767857142856,618.5,347.57142857142856,489.47767857142856,718.8,347.57142857142856,489.47767857142856,823.3,347.57142857142856,489.47767857142856,929.2,347.57142857142856,489.47767857142856,1033.1,347.57142857142856,489.47767857142856,1138.3,347.57142857142856,489.47767857142856,1242.8,347.57142857142856,489.47767857142856,1344.2,347.57142857142856,489.47767857142856,1448.7,347.57142857142856,489.47767857142856,1554.1,347.57142857142856,489.47767857142856,1658.9,347.57142857142856,489.47767857142856,1763.1,347.57142857142856,489.47767857142856,1868.2,347.57142857142856,489.47767857142856,1972.9,347.57142857142856,489.47767857142856,2074,347.57142857142856,489.47767857142856,2178.4,347.57142857142856,489.47767857142856,2284,347.57142857142856,489.47767857142856,2389.2,347.57142857142856,489.47767857142856,2493,347.57142857142856,489.47767857142856,2598.2,347.57142857142856,489.47767857142856,2703,347.57142857142856,489.47767857142856,2804.2,347.57142857142856,489.47767857142856,2908.5,347.57142857142856,489.47767857142856,3012.8,347.57142857142856,489.47767857142856,3118.2,347.57142857142856,489.47767857142856,3218.4,347.57142857142856,489.47767857142856,3318.7,347.57142857142856,489.47767857142856,3422.9,347.57142857142856,489.47767857142856,3528.4,347.57142857142856,489.47767857142856,3628.6,347.57142857142856,489.47767857142856,3728.7,347.57142857142856,489.47767857142856,3834.1,347.57142857142856,489.47767857142856,3939]","[1361.8,1361.8,1000.3,0,361.5,""while_blue"",""up"",""left"",""bad_move"",4897.3,3535.3,2797.7,1362,737.6,""while_blue"",""up"",""up"",""good_move"",7678.5,2780.9,2282.9,4897.6,498,""oops"",""right"",""down"",""bad_move"",10331.4,2652.7,2231.6,7678.7,421.1,""oops"",""right"",""right"",""good_move"",16292.7,5961.1,2533.5,13409.5,349.7,""oops"",""up"",""up"",""good_move"",19266.8,2973.9,2389.5,16292.9,584.4,""smooth"",""right"",""right"",""good_move"",22376.1,3109.3,2734.1,19266.9,375.2,""smooth"",""up"",""up"",""good_move"",25659.7,3283.4,2886.2,22376.3,397.2,""oops"",""right"",""left"",""bad_move"",29145,3485.2,3119.7,25659.9,365.5,""smooth"",""right"",""right"",""good_move"",31654.6,2509.5,2091.9,29145.1,417.6,""smooth"",""right"",""right"",""good_move"",34799.3,3144.5,2746,31654.8,398.5,""oops"",""up"",""left"",""bad_move""]","",""
"53964","","","","instructions","24","1145537","0.0-8.0-4.0","102","1","2025-07-09 09:07:57","7701e855f2ef39aa3fd6c71abdc6918a","93.39.140.87","Mozilla/5.0 (Windows NT 10.0; Win64; x64) AppleWebKit/537.36 (KHTML, like Gecko) Chrome/138.0.0.0 Safari/537.36","WebKit","Chrome","138.0.0.0","Windows","10.0","https://app.prolific.com/","it-IT,it;q=0.9,en-US;q=0.8,en;q=0.7","5daae19f8a06b60016d1bc32","686d226cabeef709c732f8e1","686e312457acb241e1f8bc25","5daae19f8a06b60016d1bc32","","[{""page_index"":0,""viewing_time"":13436},{""page_index"":1,""viewing_time"":40528}]","","","","","","","","","","","","","","","","","","","","","","","","","","","","","","","","","","","","","","","","","","",""
"9540","","","{""green_ball"":[""Ball sometimes shakes and moves in a random direction""]}","survey-multi-select","25","1155079","0.0-8.0-5.0-0.0","102","1","2025-07-09 09:07:57","7701e855f2ef39aa3fd6c71abdc6918a","93.39.140.87","Mozilla/5.0 (Windows NT 10.0; Win64; x64) AppleWebKit/537.36 (KHTML, like Gecko) Chrome/138.0.0.0 Safari/537.36","WebKit","Chrome","138.0.0.0","Windows","10.0","https://app.prolific.com/","it-IT,it;q=0.9,en-US;q=0.8,en;q=0.7","5daae19f8a06b60016d1bc32","686d226cabeef709c732f8e1","686e312457acb241e1f8bc25","5daae19f8a06b60016d1bc32","","","[0]","","","","quiz","","","","","","","","","","","","","","","","","","","","","","","","","","","","","","","","","","","","","true",""
"1983","","<p align='center'><b>CORRECT!</b> Indeed, the green ball may sometimes shake and move in a random direction.</p>","0","html-button-response","26","1157063","0.0-8.0-5.0-1.0","102","1","2025-07-09 09:07:57","7701e855f2ef39aa3fd6c71abdc6918a","93.39.140.87","Mozilla/5.0 (Windows NT 10.0; Win64; x64) AppleWebKit/537.36 (KHTML, like Gecko) Chrome/138.0.0.0 Safari/537.36","WebKit","Chrome","138.0.0.0","Windows","10.0","https://app.prolific.com/","it-IT,it;q=0.9,en-US;q=0.8,en;q=0.7","5daae19f8a06b60016d1bc32","686d226cabeef709c732f8e1","686e312457acb241e1f8bc25","5daae19f8a06b60016d1bc32","","","","","","","","","","","","","","","","","","","","","","","","","","","","","","","","","","","","","","","","","","","","",""
"5958","","","{""yellow_ball"":[""Ball doesn‘t move and I get -1 penalty point""]}","survey-multi-select","27","1163022","0.0-8.0-6.0-0.0","102","1","2025-07-09 09:07:57","7701e855f2ef39aa3fd6c71abdc6918a","93.39.140.87","Mozilla/5.0 (Windows NT 10.0; Win64; x64) AppleWebKit/537.36 (KHTML, like Gecko) Chrome/138.0.0.0 Safari/537.36","WebKit","Chrome","138.0.0.0","Windows","10.0","https://app.prolific.com/","it-IT,it;q=0.9,en-US;q=0.8,en;q=0.7","5daae19f8a06b60016d1bc32","686d226cabeef709c732f8e1","686e312457acb241e1f8bc25","5daae19f8a06b60016d1bc32","","","[0]","","","","quiz","","","","","","","","","","","","","","","","","","","","","","","","","","","","","","","","","","","","","true",""
"1793","","<p align='center'><b>CORRECT!</b> Indeed, the yellow ball never moves and you receive a penalty.</p>","0","html-button-response","28","1164816","0.0-8.0-6.0-1.0","102","1","2025-07-09 09:07:57","7701e855f2ef39aa3fd6c71abdc6918a","93.39.140.87","Mozilla/5.0 (Windows NT 10.0; Win64; x64) AppleWebKit/537.36 (KHTML, like Gecko) Chrome/138.0.0.0 Safari/537.36","WebKit","Chrome","138.0.0.0","Windows","10.0","https://app.prolific.com/","it-IT,it;q=0.9,en-US;q=0.8,en;q=0.7","5daae19f8a06b60016d1bc32","686d226cabeef709c732f8e1","686e312457acb241e1f8bc25","5daae19f8a06b60016d1bc32","","","","","","","","","","","","","","","","","","","","","","","","","","","","","","","","","","","","","","","","","","","","",""
"10174","","","{""blue_ball"":[""Ball always shakes and moves in a random direction""]}","survey-multi-select","29","1174991","0.0-8.0-7.0-0.0","102","1","2025-07-09 09:07:57","7701e855f2ef39aa3fd6c71abdc6918a","93.39.140.87","Mozilla/5.0 (Windows NT 10.0; Win64; x64) AppleWebKit/537.36 (KHTML, like Gecko) Chrome/138.0.0.0 Safari/537.36","WebKit","Chrome","138.0.0.0","Windows","10.0","https://app.prolific.com/","it-IT,it;q=0.9,en-US;q=0.8,en;q=0.7","5daae19f8a06b60016d1bc32","686d226cabeef709c732f8e1","686e312457acb241e1f8bc25","5daae19f8a06b60016d1bc32","","","[0]","","","","quiz","","","","","","","","","","","","","","","","","","","","","","","","","","","","","","","","","","","","","true",""
"3200","","<p align='center'><b>CORRECT!</b> Indeed, the blue ball always shakes and moves in a random direction. Also there is a penalty of -1 point.</p>","0","html-button-response","30","1178191","0.0-8.0-7.0-1.0","102","1","2025-07-09 09:07:57","7701e855f2ef39aa3fd6c71abdc6918a","93.39.140.87","Mozilla/5.0 (Windows NT 10.0; Win64; x64) AppleWebKit/537.36 (KHTML, like Gecko) Chrome/138.0.0.0 Safari/537.36","WebKit","Chrome","138.0.0.0","Windows","10.0","https://app.prolific.com/","it-IT,it;q=0.9,en-US;q=0.8,en;q=0.7","5daae19f8a06b60016d1bc32","686d226cabeef709c732f8e1","686e312457acb241e1f8bc25","5daae19f8a06b60016d1bc32","","","","","","","","","","","","","","","","","","","","","","","","","","","","","","","","","","","","","","","","","","","","",""
"4978","","","{""bonus"":[""When I reach 50% of points""]}","survey-multi-select","31","1183171","0.0-8.0-8.0-0.0","102","1","2025-07-09 09:07:57","7701e855f2ef39aa3fd6c71abdc6918a","93.39.140.87","Mozilla/5.0 (Windows NT 10.0; Win64; x64) AppleWebKit/537.36 (KHTML, like Gecko) Chrome/138.0.0.0 Safari/537.36","WebKit","Chrome","138.0.0.0","Windows","10.0","https://app.prolific.com/","it-IT,it;q=0.9,en-US;q=0.8,en;q=0.7","5daae19f8a06b60016d1bc32","686d226cabeef709c732f8e1","686e312457acb241e1f8bc25","5daae19f8a06b60016d1bc32","","","[0]","","","","quiz","","","","","","","","","","","","","","","","","","","","","","","","","","","","","","","","","","","","","true",""
"1789","","<p align='center'><b>CORRECT!</b> Indeed, you receive 2 pounds extra when you reach 50% of points.</p>","0","html-button-response","32","1184960","0.0-8.0-8.0-1.0","102","1","2025-07-09 09:07:57","7701e855f2ef39aa3fd6c71abdc6918a","93.39.140.87","Mozilla/5.0 (Windows NT 10.0; Win64; x64) AppleWebKit/537.36 (KHTML, like Gecko) Chrome/138.0.0.0 Safari/537.36","WebKit","Chrome","138.0.0.0","Windows","10.0","https://app.prolific.com/","it-IT,it;q=0.9,en-US;q=0.8,en;q=0.7","5daae19f8a06b60016d1bc32","686d226cabeef709c732f8e1","686e312457acb241e1f8bc25","5daae19f8a06b60016d1bc32","","","","","","","","","","","","","","","","","","","","","","","","","","","","","","","","","","","","","","","","","","","","",""
"2650","","","","instructions","33","1187611","0.0-8.0-9.0","102","1","2025-07-09 09:07:57","7701e855f2ef39aa3fd6c71abdc6918a","93.39.140.87","Mozilla/5.0 (Windows NT 10.0; Win64; x64) AppleWebKit/537.36 (KHTML, like Gecko) Chrome/138.0.0.0 Safari/537.36","WebKit","Chrome","138.0.0.0","Windows","10.0","https://app.prolific.com/","it-IT,it;q=0.9,en-US;q=0.8,en;q=0.7","5daae19f8a06b60016d1bc32","686d226cabeef709c732f8e1","686e312457acb241e1f8bc25","5daae19f8a06b60016d1bc32","","[{""page_index"":0,""viewing_time"":2650}]","","","","","","","","","","","","","","","","","","","","","","","","","","","","","","","","","","","","","","","","","","",""
"39552","","<p>Before you start with this game please answer the following three questions yourself. </p>
  <p>Through this game, we measure several aspects of your cognitive performance, such as reaction times, multi-tasking capabilities </p>
  <p>and the ability to assess the situation you are in.</p>
  <p></p>
  <p><b>How good do you usually are in such tasks?</b></p>","57","html-slider-response","34","1227164","0.0-9.0-0.0","102","1","2025-07-09 09:07:57","7701e855f2ef39aa3fd6c71abdc6918a","93.39.140.87","Mozilla/5.0 (Windows NT 10.0; Win64; x64) AppleWebKit/537.36 (KHTML, like Gecko) Chrome/138.0.0.0 Safari/537.36","WebKit","Chrome","138.0.0.0","Windows","10.0","https://app.prolific.com/","it-IT,it;q=0.9,en-US;q=0.8,en;q=0.7","5daae19f8a06b60016d1bc32","686d226cabeef709c732f8e1","686e312457acb241e1f8bc25","5daae19f8a06b60016d1bc32","2025-07-09T09:28:26.007Z","","","","","","PreSkillQ","","","","","","","","","","","","","","","","","","","","","","","","","","","","","","","","","","","","","","50"
"5794","","<div style=""width:500px;"">
  <p>How well do you think you will perform in this task compared to other participants?</p>
  </div>","50","html-slider-response","35","1232959","0.0-9.0-1.0","102","1","2025-07-09 09:07:57","7701e855f2ef39aa3fd6c71abdc6918a","93.39.140.87","Mozilla/5.0 (Windows NT 10.0; Win64; x64) AppleWebKit/537.36 (KHTML, like Gecko) Chrome/138.0.0.0 Safari/537.36","WebKit","Chrome","138.0.0.0","Windows","10.0","https://app.prolific.com/","it-IT,it;q=0.9,en-US;q=0.8,en;q=0.7","5daae19f8a06b60016d1bc32","686d226cabeef709c732f8e1","686e312457acb241e1f8bc25","5daae19f8a06b60016d1bc32","2025-07-09T09:28:31.802Z","","","","","","PrePerfQ","","","","","","","","","","","","","","","","","","","","","","","","","","","","","","","","","","","","","","50"
"11707","","<div style=""width:500px;"">
  <p>What best describes how you currently feel?</p>
  </div>","46","html-slider-response","36","1244667","0.0-9.0-2.0","102","1","2025-07-09 09:07:57","7701e855f2ef39aa3fd6c71abdc6918a","93.39.140.87","Mozilla/5.0 (Windows NT 10.0; Win64; x64) AppleWebKit/537.36 (KHTML, like Gecko) Chrome/138.0.0.0 Safari/537.36","WebKit","Chrome","138.0.0.0","Windows","10.0","https://app.prolific.com/","it-IT,it;q=0.9,en-US;q=0.8,en;q=0.7","5daae19f8a06b60016d1bc32","686d226cabeef709c732f8e1","686e312457acb241e1f8bc25","5daae19f8a06b60016d1bc32","2025-07-09T09:28:43.510Z","","","","","","PreMotivationQ","","","","","","","","","","","","","","","","","","","","","","","","","","","","","","","","","","","","","","50"
"","","","","ctl-task-cpt","37","1287945","0.0-10.0-0.0","102","1","2025-07-09 09:07:57","7701e855f2ef39aa3fd6c71abdc6918a","93.39.140.87","Mozilla/5.0 (Windows NT 10.0; Win64; x64) AppleWebKit/537.36 (KHTML, like Gecko) Chrome/138.0.0.0 Safari/537.36","WebKit","Chrome","138.0.0.0","Windows","10.0","https://app.prolific.com/","it-IT,it;q=0.9,en-US;q=0.8,en;q=0.7","5daae19f8a06b60016d1bc32","686d226cabeef709c732f8e1","686e312457acb241e1f8bc25","5daae19f8a06b60016d1bc32","2025-07-09T09:29:26.788Z","","","","","","","","","","","","","","","","win-only","1","g1:NE,g2:SW","1","1","0","1245908.9","12464.6","17465.6","40260.5","1","4","8","6","2","8","7","7","0","0.05303030303030303","5001","3000","365","[""down"",""left""]","{""num_key_presses"":7,""num_perfect"":6,""num_errors"":1,""num_randdir"":0,""num_randdir_good_moves"":0,""num_whilered"":0,""num_whileblue"":0,""num_blue"":1,""num_good_moves"":6}","[411.57142857142856,417.47767857142856,0.1,411.57142857142856,417.47767857142856,100.6,411.57142857142856,417.47767857142856,200.7,411.57142857142856,417.47767857142856,300.7,411.57142857142856,417.47767857142856,401.7,411.57142857142856,417.47767857142856,502,436.57142857142856,388.47767857142856,605.8,475.57142857142856,354.47767857142856,711,480.57142857142856,352.47767857142856,811.1,480.57142857142856,352.47767857142856,915.6,480.57142857142856,352.47767857142856,1016,480.57142857142856,352.47767857142856,1122.1,480.57142857142856,352.47767857142856,1222.1,480.57142857142856,352.47767857142856,1325.8,480.57142857142856,352.47767857142856,1431.1,480.57142857142856,352.47767857142856,1531.2,480.57142857142856,352.47767857142856,1635.5,480.57142857142856,352.47767857142856,1735.7,480.57142857142856,352.47767857142856,1836.2,480.57142857142856,352.47767857142856,1941.3,480.57142857142856,352.47767857142856,2041.5,480.57142857142856,352.47767857142856,2145.9,480.57142857142856,352.47767857142856,2246.1,480.57142857142856,352.47767857142856,2346.1,480.57142857142856,352.47767857142856,2446.1,480.57142857142856,352.47767857142856,2551.2,480.57142857142856,352.47767857142856,2655.6,480.57142857142856,352.47767857142856,2756.1,480.57142857142856,352.47767857142856,2856.4,480.57142857142856,352.47767857142856,2961.4,480.57142857142856,352.47767857142856,3066.5,480.57142857142856,352.47767857142856,3166.6,480.57142857142856,352.47767857142856,3266.9,480.57142857142856,352.47767857142856,3370.8,480.57142857142856,352.47767857142856,3471.3,480.57142857142856,352.47767857142856,3576.5,480.57142857142856,352.47767857142856,3680.9,480.57142857142856,352.47767857142856,3785.5,480.57142857142856,352.47767857142856,3886.2,480.57142857142856,352.47767857142856,3986.5,480.57142857142856,352.47767857142856,4091.1,480.57142857142856,352.47767857142856,4191.2,480.57142857142856,352.47767857142856,4296.2,480.57142857142856,352.47767857142856,4396.6,480.57142857142856,352.47767857142856,4501.3,480.57142857142856,352.47767857142856,4605.6,480.57142857142856,352.47767857142856,4706,480.57142857142856,352.47767857142856,4812.2,480.57142857142856,352.47767857142856,4916.1]","[300.3,300.3,1000,0,-699.7,""error"",""-"",""-"",""no_move"",4222.9,3922.4,2509.1,1305.4,408.4,""smooth"",""down"",""down"",""good_move"",7596.6,3373.3,2834.7,4223.3,538.6,""smooth"",""left"",""left"",""good_move"",14482.7,6885.9,3571.8,10550.4,360.5,""smooth"",""left"",""left"",""good_move"",16674.6,2191.8,1657.5,14482.8,534.3,""smooth"",""down"",""down"",""good_move"",19154.9,2480.1,2031.1,16674.8,449,""smooth"",""left"",""left"",""good_move"",22694.9,3539.8,3163.3,19155.1,376.5,""smooth"",""down"",""down"",""good_move""]","",""
"9444","","<div style=""width:500px;"">
  <p>What determined the result of this run?</p>
  </div>","100","html-slider-response","38","1297390","0.0-10.0-1.0","102","1","2025-07-09 09:07:57","7701e855f2ef39aa3fd6c71abdc6918a","93.39.140.87","Mozilla/5.0 (Windows NT 10.0; Win64; x64) AppleWebKit/537.36 (KHTML, like Gecko) Chrome/138.0.0.0 Safari/537.36","WebKit","Chrome","138.0.0.0","Windows","10.0","https://app.prolific.com/","it-IT,it;q=0.9,en-US;q=0.8,en;q=0.7","5daae19f8a06b60016d1bc32","686d226cabeef709c732f8e1","686e312457acb241e1f8bc25","5daae19f8a06b60016d1bc32","2025-07-09T09:29:36.233Z","","","","","","AttribQ","","","","","","","","","","","","","","","","","","","","","","","","","","","","","","","","","","","","","","50"
"7033","","<div style=""width:500px;"">
  <p>How much control did you have over the ball?</p>
  </div>","100","html-slider-response","39","1304423","0.0-10.0-2.0","102","1","2025-07-09 09:07:57","7701e855f2ef39aa3fd6c71abdc6918a","93.39.140.87","Mozilla/5.0 (Windows NT 10.0; Win64; x64) AppleWebKit/537.36 (KHTML, like Gecko) Chrome/138.0.0.0 Safari/537.36","WebKit","Chrome","138.0.0.0","Windows","10.0","https://app.prolific.com/","it-IT,it;q=0.9,en-US;q=0.8,en;q=0.7","5daae19f8a06b60016d1bc32","686d226cabeef709c732f8e1","686e312457acb241e1f8bc25","5daae19f8a06b60016d1bc32","2025-07-09T09:29:43.266Z","","","","","","ControlQ","","","","","","","","","","","","","","","","","","","","","","","","","","","","","","","","","","","","","","50"
"7970","","<div style=""width:500px;"">
  <p>How would you describe your current emotional state?</p>
  </div>","45","html-slider-response","40","1312394","0.0-10.0-3.0","102","1","2025-07-09 09:07:57","7701e855f2ef39aa3fd6c71abdc6918a","93.39.140.87","Mozilla/5.0 (Windows NT 10.0; Win64; x64) AppleWebKit/537.36 (KHTML, like Gecko) Chrome/138.0.0.0 Safari/537.36","WebKit","Chrome","138.0.0.0","Windows","10.0","https://app.prolific.com/","it-IT,it;q=0.9,en-US;q=0.8,en;q=0.7","5daae19f8a06b60016d1bc32","686d226cabeef709c732f8e1","686e312457acb241e1f8bc25","5daae19f8a06b60016d1bc32","2025-07-09T09:29:51.237Z","","","","","","StressQ","","","","","","","","","","","","","","","","","","","","","","","","","","","","","","","","","","","","","","50"
"7851","","<div style=""width:500px;"">
  <p>What best describes how you currently feel?</p>
  </div>","59","html-slider-response","41","1320246","0.0-10.0-4.0","102","1","2025-07-09 09:07:57","7701e855f2ef39aa3fd6c71abdc6918a","93.39.140.87","Mozilla/5.0 (Windows NT 10.0; Win64; x64) AppleWebKit/537.36 (KHTML, like Gecko) Chrome/138.0.0.0 Safari/537.36","WebKit","Chrome","138.0.0.0","Windows","10.0","https://app.prolific.com/","it-IT,it;q=0.9,en-US;q=0.8,en;q=0.7","5daae19f8a06b60016d1bc32","686d226cabeef709c732f8e1","686e312457acb241e1f8bc25","5daae19f8a06b60016d1bc32","2025-07-09T09:29:59.089Z","","","","","","MotivationQ","","","","","","","","","","","","","","","","","","","","","","","","","","","","","","","","","","","","","","50"
"","","","","ctl-task-cpt","42","1360269","0.0-10.0-0.1","102","1","2025-07-09 09:07:57","7701e855f2ef39aa3fd6c71abdc6918a","93.39.140.87","Mozilla/5.0 (Windows NT 10.0; Win64; x64) AppleWebKit/537.36 (KHTML, like Gecko) Chrome/138.0.0.0 Safari/537.36","WebKit","Chrome","138.0.0.0","Windows","10.0","https://app.prolific.com/","it-IT,it;q=0.9,en-US;q=0.8,en;q=0.7","5daae19f8a06b60016d1bc32","686d226cabeef709c732f8e1","686e312457acb241e1f8bc25","5daae19f8a06b60016d1bc32","2025-07-09T09:30:39.112Z","","","","","","","","","","","","","","","","win-only","1","g1:NE,g2:SW","0.9","2","0","1321487.8","1396.8","6400.6","37005.6","1","4","4","6","2","-4","-4","3","7","0.022727272727272728","5003.8","3000","-3015","[""down"",""left""]","{""num_key_presses"":5,""num_perfect"":5,""num_errors"":0,""num_randdir"":0,""num_randdir_good_moves"":0,""num_whilered"":0,""num_whileblue"":0,""num_blue"":4,""num_good_moves"":5}","[417.57142857142856,416.47767857142856,0.2,417.57142857142856,416.47767857142856,104.1,417.57142857142856,416.47767857142856,208.3,417.57142857142856,416.47767857142856,310,417.57142857142856,416.47767857142856,414.3,417.57142857142856,416.47767857142856,518.8,417.57142857142856,416.47767857142856,618.9,417.57142857142856,416.47767857142856,719,417.57142857142856,416.47767857142856,824.1,417.57142857142856,416.47767857142856,924.3,417.57142857142856,416.47767857142856,1028.7,417.57142857142856,416.47767857142856,1129.2,417.57142857142856,416.47767857142856,1233.6,465.57142857142856,377.47767857142856,1338.6,483.57142857142856,361.47767857142856,1439.5,484.57142857142856,361.47767857142856,1544.1,484.57142857142856,361.47767857142856,1644.2,484.57142857142856,361.47767857142856,1749,484.57142857142856,361.47767857142856,1849,484.57142857142856,361.47767857142856,1949,484.57142857142856,361.47767857142856,2049,484.57142857142856,361.47767857142856,2149,484.57142857142856,361.47767857142856,2249.1,484.57142857142856,361.47767857142856,2354.1,484.57142857142856,361.47767857142856,2459.4,484.57142857142856,361.47767857142856,2563.3,484.57142857142856,361.47767857142856,2664.4,484.57142857142856,361.47767857142856,2769,484.57142857142856,361.47767857142856,2869.1,484.57142857142856,361.47767857142856,2969.5,484.57142857142856,361.47767857142856,3073.7,484.57142857142856,361.47767857142856,3173.7,562.5714285714286,401.47767857142856,3274,704.5714285714286,519.4776785714286,3374.2,720.5714285714286,536.4776785714286,3479,720.5714285714286,536.4776785714286,3583.8,720.5714285714286,536.4776785714286,3688.8,720.5714285714286,536.4776785714286,3793.7,720.5714285714286,536.4776785714286,3893.8,720.5714285714286,536.4776785714286,3998.9,720.5714285714286,536.4776785714286,4098.9,720.5714285714286,536.4776785714286,4198.9,720.5714285714286,536.4776785714286,4299,720.5714285714286,536.4776785714286,4403.6,720.5714285714286,536.4776785714286,4509.1,720.5714285714286,536.4776785714286,4609.1,720.5714285714286,536.4776785714286,4709.3,720.5714285714286,536.4776785714286,4813.8,720.5714285714286,536.4776785714286,4919.1]","[1694.8,1694.8,1000,0,694.8,""smooth"",""down"",""down"",""good_move"",13456.5,11761.5,3295.1,9565.1,596.3,""smooth"",""left"",""left"",""good_move"",15930.2,2473.5,1845.5,13456.7,628,""smooth"",""left"",""left"",""good_move"",18628.5,2698.1,2109.4,15930.4,588.7,""smooth"",""down"",""down"",""good_move"",28518.7,9889.9,2667.1,25339.6,512,""smooth"",""left"",""left"",""good_move""]","",""
"5820","","<div style=""width:500px;"">
  <p>What determined the result of this run?</p>
  </div>","82","html-slider-response","43","1366090","0.0-10.0-1.1","102","1","2025-07-09 09:07:57","7701e855f2ef39aa3fd6c71abdc6918a","93.39.140.87","Mozilla/5.0 (Windows NT 10.0; Win64; x64) AppleWebKit/537.36 (KHTML, like Gecko) Chrome/138.0.0.0 Safari/537.36","WebKit","Chrome","138.0.0.0","Windows","10.0","https://app.prolific.com/","it-IT,it;q=0.9,en-US;q=0.8,en;q=0.7","5daae19f8a06b60016d1bc32","686d226cabeef709c732f8e1","686e312457acb241e1f8bc25","5daae19f8a06b60016d1bc32","2025-07-09T09:30:44.933Z","","","","","","AttribQ","","","","","","","","","","","","","","","","","","","","","","","","","","","","","","","","","","","","","","50"
"3357","","<div style=""width:500px;"">
  <p>How much control did you have over the ball?</p>
  </div>","98","html-slider-response","44","1369448","0.0-10.0-2.1","102","1","2025-07-09 09:07:57","7701e855f2ef39aa3fd6c71abdc6918a","93.39.140.87","Mozilla/5.0 (Windows NT 10.0; Win64; x64) AppleWebKit/537.36 (KHTML, like Gecko) Chrome/138.0.0.0 Safari/537.36","WebKit","Chrome","138.0.0.0","Windows","10.0","https://app.prolific.com/","it-IT,it;q=0.9,en-US;q=0.8,en;q=0.7","5daae19f8a06b60016d1bc32","686d226cabeef709c732f8e1","686e312457acb241e1f8bc25","5daae19f8a06b60016d1bc32","2025-07-09T09:30:48.291Z","","","","","","ControlQ","","","","","","","","","","","","","","","","","","","","","","","","","","","","","","","","","","","","","","50"
"4456","","<div style=""width:500px;"">
  <p>How would you describe your current emotional state?</p>
  </div>","50","html-slider-response","45","1373904","0.0-10.0-3.1","102","1","2025-07-09 09:07:57","7701e855f2ef39aa3fd6c71abdc6918a","93.39.140.87","Mozilla/5.0 (Windows NT 10.0; Win64; x64) AppleWebKit/537.36 (KHTML, like Gecko) Chrome/138.0.0.0 Safari/537.36","WebKit","Chrome","138.0.0.0","Windows","10.0","https://app.prolific.com/","it-IT,it;q=0.9,en-US;q=0.8,en;q=0.7","5daae19f8a06b60016d1bc32","686d226cabeef709c732f8e1","686e312457acb241e1f8bc25","5daae19f8a06b60016d1bc32","2025-07-09T09:30:52.747Z","","","","","","StressQ","","","","","","","","","","","","","","","","","","","","","","","","","","","","","","","","","","","","","","50"
"4069","","<div style=""width:500px;"">
  <p>What best describes how you currently feel?</p>
  </div>","58","html-slider-response","46","1377974","0.0-10.0-4.1","102","1","2025-07-09 09:07:57","7701e855f2ef39aa3fd6c71abdc6918a","93.39.140.87","Mozilla/5.0 (Windows NT 10.0; Win64; x64) AppleWebKit/537.36 (KHTML, like Gecko) Chrome/138.0.0.0 Safari/537.36","WebKit","Chrome","138.0.0.0","Windows","10.0","https://app.prolific.com/","it-IT,it;q=0.9,en-US;q=0.8,en;q=0.7","5daae19f8a06b60016d1bc32","686d226cabeef709c732f8e1","686e312457acb241e1f8bc25","5daae19f8a06b60016d1bc32","2025-07-09T09:30:56.817Z","","","","","","MotivationQ","","","","","","","","","","","","","","","","","","","","","","","","","","","","","","","","","","","","","","50"
"","","","","ctl-task-cpt","47","1427151","0.0-10.0-0.2","102","1","2025-07-09 09:07:57","7701e855f2ef39aa3fd6c71abdc6918a","93.39.140.87","Mozilla/5.0 (Windows NT 10.0; Win64; x64) AppleWebKit/537.36 (KHTML, like Gecko) Chrome/138.0.0.0 Safari/537.36","WebKit","Chrome","138.0.0.0","Windows","10.0","https://app.prolific.com/","it-IT,it;q=0.9,en-US;q=0.8,en;q=0.7","5daae19f8a06b60016d1bc32","686d226cabeef709c732f8e1","686e312457acb241e1f8bc25","5daae19f8a06b60016d1bc32","2025-07-09T09:31:45.994Z","","","","","","","","","","","","","","","","win-only","2","g1:SE,g2:NW","0.8","3","0","1379215.4","1655","6656.2","46160.7","1","4","8","6","2","-8","-8","0","3","0","1470.6","3000","-3015","[""left"",""up""]","{""num_key_presses"":6,""num_perfect"":5,""num_errors"":0,""num_randdir"":1,""num_randdir_good_moves"":0,""num_whilered"":0,""num_whileblue"":0,""num_blue"":6,""num_good_moves"":5}","[415.57142857142856,422.47767857142856,0.2,415.57142857142856,422.47767857142856,100.3,415.57142857142856,422.47767857142856,201,415.57142857142856,422.47767857142856,306.7,415.57142857142856,422.47767857142856,410.4,412.57142857142856,424.47767857142856,511.2,360.57142857142856,474.47767857142856,615.5,356.57142857142856,481.47767857142856,716.6,356.57142857142856,481.47767857142856,820.8,235.57142857142856,326.47767857142856,926,104.57142857142857,137.47767857142856,1026,91.57142857142857,109.47767857142857,1130.6,90.57142857142857,104.47767857142857,1231.5,88.57142857142857,95.47767857142857,1335.8,88.57142857142857,95.47767857142857,1435.8,88.57142857142857,95.47767857142857,1535.8,88.57142857142857,95.47767857142857,1641.5,88.57142857142857,95.47767857142857,1745.8,88.57142857142857,95.47767857142857,1846.5,88.57142857142857,95.47767857142857,1950.8,79.57142857142857,100.47767857142857,2050.9,-69.42857142857143,227.47767857142856,2150.9,-104.42857142857143,265.47767857142856,2256,-108.42857142857143,272.47767857142856,2356,-108.42857142857143,272.47767857142856,2461.7,-108.42857142857143,272.47767857142856,2566,-108.42857142857143,272.47767857142856,2671.5,-108.42857142857143,272.47767857142856,2775.7,-108.42857142857143,272.47767857142856,2880.6,-108.42857142857143,272.47767857142856,2986.7,-108.42857142857143,272.47767857142856,3091,-108.42857142857143,272.47767857142856,3191.4,-108.42857142857143,272.47767857142856,3295.5,-108.42857142857143,272.47767857142856,3400.7,-108.42857142857143,272.47767857142856,3500.8,-108.42857142857143,272.47767857142856,3600.9,-108.42857142857143,272.47767857142856,3705.9,-108.42857142857143,272.47767857142856,3811.1,-108.42857142857143,272.47767857142856,3915.6,-108.42857142857143,272.47767857142856,4015.7,-108.42857142857143,272.47767857142856,4116.1,-108.42857142857143,272.47767857142856,4221.2,-108.42857142857143,272.47767857142856,4325.6,-108.42857142857143,272.47767857142856,4425.6,-108.42857142857143,272.47767857142856,4530.2,-108.42857142857143,272.47767857142856,4630.2,-108.42857142857143,272.47767857142856,4730.7,-108.42857142857143,272.47767857142856,4836,-108.42857142857143,272.47767857142856,4937]","[5195.5,5195.5,2742.6,2009.1,443.8,""smooth"",""left"",""left"",""good_move"",8577.3,3381.5,2828.6,5195.8,552.9,""smooth"",""left"",""left"",""good_move"",14137,5559.5,2051.2,11724.9,360.9,""smooth"",""up"",""up"",""good_move"",16943,2805.9,2345.4,14137.1,460.5,""smooth"",""up"",""up"",""good_move"",23393,6449.8,2707.1,20270.2,415.7,""oops"",""left"",""right"",""bad_move"",26041.7,2648.6,1997.3,23393.1,651.3,""smooth"",""left"",""left"",""good_move""]","",""
"5494","","<div style=""width:500px;"">
  <p>What determined the result of this run?</p>
  </div>","26","html-slider-response","48","1432645","0.0-10.0-1.2","102","1","2025-07-09 09:07:57","7701e855f2ef39aa3fd6c71abdc6918a","93.39.140.87","Mozilla/5.0 (Windows NT 10.0; Win64; x64) AppleWebKit/537.36 (KHTML, like Gecko) Chrome/138.0.0.0 Safari/537.36","WebKit","Chrome","138.0.0.0","Windows","10.0","https://app.prolific.com/","it-IT,it;q=0.9,en-US;q=0.8,en;q=0.7","5daae19f8a06b60016d1bc32","686d226cabeef709c732f8e1","686e312457acb241e1f8bc25","5daae19f8a06b60016d1bc32","2025-07-09T09:31:51.488Z","","","","","","AttribQ","","","","","","","","","","","","","","","","","","","","","","","","","","","","","","","","","","","","","","50"
"4959","","<div style=""width:500px;"">
  <p>How much control did you have over the ball?</p>
  </div>","58","html-slider-response","49","1437605","0.0-10.0-2.2","102","1","2025-07-09 09:07:57","7701e855f2ef39aa3fd6c71abdc6918a","93.39.140.87","Mozilla/5.0 (Windows NT 10.0; Win64; x64) AppleWebKit/537.36 (KHTML, like Gecko) Chrome/138.0.0.0 Safari/537.36","WebKit","Chrome","138.0.0.0","Windows","10.0","https://app.prolific.com/","it-IT,it;q=0.9,en-US;q=0.8,en;q=0.7","5daae19f8a06b60016d1bc32","686d226cabeef709c732f8e1","686e312457acb241e1f8bc25","5daae19f8a06b60016d1bc32","2025-07-09T09:31:56.448Z","","","","","","ControlQ","","","","","","","","","","","","","","","","","","","","","","","","","","","","","","","","","","","","","","50"
"5211","","<div style=""width:500px;"">
  <p>How would you describe your current emotional state?</p>
  </div>","71","html-slider-response","50","1442817","0.0-10.0-3.2","102","1","2025-07-09 09:07:57","7701e855f2ef39aa3fd6c71abdc6918a","93.39.140.87","Mozilla/5.0 (Windows NT 10.0; Win64; x64) AppleWebKit/537.36 (KHTML, like Gecko) Chrome/138.0.0.0 Safari/537.36","WebKit","Chrome","138.0.0.0","Windows","10.0","https://app.prolific.com/","it-IT,it;q=0.9,en-US;q=0.8,en;q=0.7","5daae19f8a06b60016d1bc32","686d226cabeef709c732f8e1","686e312457acb241e1f8bc25","5daae19f8a06b60016d1bc32","2025-07-09T09:32:01.660Z","","","","","","StressQ","","","","","","","","","","","","","","","","","","","","","","","","","","","","","","","","","","","","","","50"
"3888","","<div style=""width:500px;"">
  <p>What best describes how you currently feel?</p>
  </div>","50","html-slider-response","51","1446706","0.0-10.0-4.2","102","1","2025-07-09 09:07:57","7701e855f2ef39aa3fd6c71abdc6918a","93.39.140.87","Mozilla/5.0 (Windows NT 10.0; Win64; x64) AppleWebKit/537.36 (KHTML, like Gecko) Chrome/138.0.0.0 Safari/537.36","WebKit","Chrome","138.0.0.0","Windows","10.0","https://app.prolific.com/","it-IT,it;q=0.9,en-US;q=0.8,en;q=0.7","5daae19f8a06b60016d1bc32","686d226cabeef709c732f8e1","686e312457acb241e1f8bc25","5daae19f8a06b60016d1bc32","2025-07-09T09:32:05.549Z","","","","","","MotivationQ","","","","","","","","","","","","","","","","","","","","","","","","","","","","","","","","","","","","","","50"
"","","","","ctl-task-cpt","52","1473354","0.0-10.0-0.3","102","1","2025-07-09 09:07:57","7701e855f2ef39aa3fd6c71abdc6918a","93.39.140.87","Mozilla/5.0 (Windows NT 10.0; Win64; x64) AppleWebKit/537.36 (KHTML, like Gecko) Chrome/138.0.0.0 Safari/537.36","WebKit","Chrome","138.0.0.0","Windows","10.0","https://app.prolific.com/","it-IT,it;q=0.9,en-US;q=0.8,en;q=0.7","5daae19f8a06b60016d1bc32","686d226cabeef709c732f8e1","686e312457acb241e1f8bc25","5daae19f8a06b60016d1bc32","2025-07-09T09:32:32.197Z","","","","","","","","","","","","","","","","win-only","3","g1:SW,g2:NE","0.7","4","0","1447947.7","1294.8","6295.4","23631.1","1","4","4","6","1","1","1","1","0","0.007575757575757576","2157.9","3000","1065","[""down"",""left""]","{""num_key_presses"":4,""num_perfect"":4,""num_errors"":0,""num_randdir"":0,""num_randdir_good_moves"":0,""num_whilered"":0,""num_whileblue"":0,""num_blue"":2,""num_good_moves"":4}","[417.57142857142856,424.47767857142856,0.2,417.57142857142856,424.47767857142856,100.3,417.57142857142856,424.47767857142856,201.3,417.57142857142856,424.47767857142856,306.5,417.57142857142856,424.47767857142856,411.3,417.57142857142856,424.47767857142856,516.1,417.57142857142856,424.47767857142856,620.7,417.57142857142856,424.47767857142856,726.1,417.57142857142856,424.47767857142856,830.4,697.5714285714286,131.47767857142856,935.8,750.5714285714286,83.47767857142857,1035.8,750.5714285714286,83.47767857142857,1140.9,750.5714285714286,83.47767857142857,1246.1,758.5714285714286,84.47767857142857,1351,762.5714285714286,93.47767857142857,1457.3,468.57142857142856,401.47767857142856,1561.5,279.57142857142856,611.4776785714286,1665.6,279.57142857142856,611.4776785714286,1766.2,199.57142857142856,670.4776785714286,1870.6,102.57142857142857,756.4776785714286,1971,100.57142857142857,759.4776785714286,2071,100.57142857142857,759.4776785714286,2175.7,100.57142857142857,759.4776785714286,2281.3,100.57142857142857,759.4776785714286,2385.5,89.57142857142857,759.4776785714286,2485.9,-94.42857142857143,745.4776785714286,2586.2,-117.42857142857143,740.4776785714286,2687.1,-117.42857142857143,740.4776785714286,2791,-117.42857142857143,740.4776785714286,2895.9,-117.42857142857143,740.4776785714286,2996,-117.42857142857143,740.4776785714286,3096.1,-117.42857142857143,740.4776785714286,3201.4,-117.42857142857143,740.4776785714286,3305.9,-117.42857142857143,740.4776785714286,3406.9,-117.42857142857143,740.4776785714286,3510.5,-117.42857142857143,740.4776785714286,3610.9,-117.42857142857143,740.4776785714286,3715.5,-117.42857142857143,740.4776785714286,3816.2,-117.42857142857143,740.4776785714286,3920.4,-117.42857142857143,740.4776785714286,4021.2,-117.42857142857143,740.4776785714286,4125.3,-117.42857142857143,740.4776785714286,4225.6,-117.42857142857143,740.4776785714286,4325.8,-117.42857142857143,740.4776785714286,4430.4,-117.42857142857143,740.4776785714286,4531.5,-117.42857142857143,740.4776785714286,4635.3,-117.42857142857143,740.4776785714286,4735.5,-117.42857142857143,740.4776785714286,4835.6,-117.42857142857143,740.4776785714286,4936]","[1518.9,1518.9,1000,0,518.9,""smooth"",""down"",""down"",""good_move"",7932.3,6413.1,2921.4,4545.4,465.5,""smooth"",""left"",""left"",""good_move"",13771.3,5838.7,2424.4,10816.5,530.4,""smooth"",""left"",""left"",""good_move"",17248.9,3477.5,3037.7,13771.5,439.8,""smooth"",""down"",""down"",""good_move""]","",""
"4901","","<div style=""width:500px;"">
  <p>What determined the result of this run?</p>
  </div>","100","html-slider-response","53","1478256","0.0-10.0-1.3","102","1","2025-07-09 09:07:57","7701e855f2ef39aa3fd6c71abdc6918a","93.39.140.87","Mozilla/5.0 (Windows NT 10.0; Win64; x64) AppleWebKit/537.36 (KHTML, like Gecko) Chrome/138.0.0.0 Safari/537.36","WebKit","Chrome","138.0.0.0","Windows","10.0","https://app.prolific.com/","it-IT,it;q=0.9,en-US;q=0.8,en;q=0.7","5daae19f8a06b60016d1bc32","686d226cabeef709c732f8e1","686e312457acb241e1f8bc25","5daae19f8a06b60016d1bc32","2025-07-09T09:32:37.099Z","","","","","","AttribQ","","","","","","","","","","","","","","","","","","","","","","","","","","","","","","","","","","","","","","50"
"2718","","<div style=""width:500px;"">
  <p>How much control did you have over the ball?</p>
  </div>","100","html-slider-response","54","1480975","0.0-10.0-2.3","102","1","2025-07-09 09:07:57","7701e855f2ef39aa3fd6c71abdc6918a","93.39.140.87","Mozilla/5.0 (Windows NT 10.0; Win64; x64) AppleWebKit/537.36 (KHTML, like Gecko) Chrome/138.0.0.0 Safari/537.36","WebKit","Chrome","138.0.0.0","Windows","10.0","https://app.prolific.com/","it-IT,it;q=0.9,en-US;q=0.8,en;q=0.7","5daae19f8a06b60016d1bc32","686d226cabeef709c732f8e1","686e312457acb241e1f8bc25","5daae19f8a06b60016d1bc32","2025-07-09T09:32:39.818Z","","","","","","ControlQ","","","","","","","","","","","","","","","","","","","","","","","","","","","","","","","","","","","","","","50"
"4222","","<div style=""width:500px;"">
  <p>How would you describe your current emotional state?</p>
  </div>","67","html-slider-response","55","1485198","0.0-10.0-3.3","102","1","2025-07-09 09:07:57","7701e855f2ef39aa3fd6c71abdc6918a","93.39.140.87","Mozilla/5.0 (Windows NT 10.0; Win64; x64) AppleWebKit/537.36 (KHTML, like Gecko) Chrome/138.0.0.0 Safari/537.36","WebKit","Chrome","138.0.0.0","Windows","10.0","https://app.prolific.com/","it-IT,it;q=0.9,en-US;q=0.8,en;q=0.7","5daae19f8a06b60016d1bc32","686d226cabeef709c732f8e1","686e312457acb241e1f8bc25","5daae19f8a06b60016d1bc32","2025-07-09T09:32:44.041Z","","","","","","StressQ","","","","","","","","","","","","","","","","","","","","","","","","","","","","","","","","","","","","","","50"
"3639","","<div style=""width:500px;"">
  <p>What best describes how you currently feel?</p>
  </div>","50","html-slider-response","56","1488838","0.0-10.0-4.3","102","1","2025-07-09 09:07:57","7701e855f2ef39aa3fd6c71abdc6918a","93.39.140.87","Mozilla/5.0 (Windows NT 10.0; Win64; x64) AppleWebKit/537.36 (KHTML, like Gecko) Chrome/138.0.0.0 Safari/537.36","WebKit","Chrome","138.0.0.0","Windows","10.0","https://app.prolific.com/","it-IT,it;q=0.9,en-US;q=0.8,en;q=0.7","5daae19f8a06b60016d1bc32","686d226cabeef709c732f8e1","686e312457acb241e1f8bc25","5daae19f8a06b60016d1bc32","2025-07-09T09:32:47.681Z","","","","","","MotivationQ","","","","","","","","","","","","","","","","","","","","","","","","","","","","","","","","","","","","","","50"
"","","","","ctl-task-cpt","57","1512656","0.0-10.0-0.4","102","1","2025-07-09 09:07:57","7701e855f2ef39aa3fd6c71abdc6918a","93.39.140.87","Mozilla/5.0 (Windows NT 10.0; Win64; x64) AppleWebKit/537.36 (KHTML, like Gecko) Chrome/138.0.0.0 Safari/537.36","WebKit","Chrome","138.0.0.0","Windows","10.0","https://app.prolific.com/","it-IT,it;q=0.9,en-US;q=0.8,en;q=0.7","5daae19f8a06b60016d1bc32","686d226cabeef709c732f8e1","686e312457acb241e1f8bc25","5daae19f8a06b60016d1bc32","2025-07-09T09:33:11.499Z","","","","","","","","","","","","","","","","win-only","2","g1:SE,g2:NW","0.6","5","0","1490079","2015","7016","20801.1","1","4","4","6","1","1","1","2","1","0.015151515151515152","3888.5","3000","875","[""down"",""right""]","{""num_key_presses"":4,""num_perfect"":4,""num_errors"":0,""num_randdir"":0,""num_randdir_good_moves"":0,""num_whilered"":0,""num_whileblue"":0,""num_blue"":1,""num_good_moves"":4}","[420.57142857142856,426.47767857142856,0.1,420.57142857142856,426.47767857142856,101,420.57142857142856,426.47767857142856,205.2,420.57142857142856,426.47767857142856,305.7,420.57142857142856,426.47767857142856,410.7,420.57142857142856,426.47767857142856,515.9,420.57142857142856,426.47767857142856,620.5,420.57142857142856,426.47767857142856,725.3,420.57142857142856,426.47767857142856,825.5,465.57142857142856,462.47767857142856,925.5,465.57142857142856,458.47767857142856,1025.6,426.57142857142856,419.47767857142856,1126,516.5714285714286,503.47767857142856,1230.6,592.5714285714286,578.4776785714286,1331,593.5714285714286,579.4776785714286,1435.4,655.5714285714286,648.4776785714286,1535.9,667.5714285714286,665.4776785714286,1640.9,667.5714285714286,665.4776785714286,1745.6,715.5714285714286,721.4776785714286,1845.5,732.5714285714286,737.4776785714286,1945.8,716.5714285714286,719.4776785714286,2046.2,732.5714285714286,735.4776785714286,2151,739.5714285714286,740.4776785714286,2256,739.5714285714286,740.4776785714286,2360.5,739.5714285714286,740.4776785714286,2461.1,739.5714285714286,740.4776785714286,2561.3,739.5714285714286,740.4776785714286,2665.7,739.5714285714286,740.4776785714286,2765.9,739.5714285714286,740.4776785714286,2870.6,739.5714285714286,740.4776785714286,2970.8,739.5714285714286,740.4776785714286,3075.4,739.5714285714286,740.4776785714286,3175.6,739.5714285714286,740.4776785714286,3276,739.5714285714286,740.4776785714286,3380.6,739.5714285714286,740.4776785714286,3485.6,739.5714285714286,740.4776785714286,3590.4,739.5714285714286,740.4776785714286,3691.5,739.5714285714286,740.4776785714286,3795.4,739.5714285714286,740.4776785714286,3900.3,739.5714285714286,740.4776785714286,4000.5,739.5714285714286,740.4776785714286,4100.9,739.5714285714286,740.4776785714286,4205.5,739.5714285714286,740.4776785714286,4306.1,739.5714285714286,740.4776785714286,4410.8,1044.5714285714287,523.4776785714286,4515.4,1062.5714285714287,509.47767857142856,4615.7,1062.5714285714287,509.47767857142856,4716.1,1062.5714285714287,509.47767857142856,4816.1,1062.5714285714287,509.47767857142856,4920.2]","[1519.7,1519.7,1000,0,519.7,""smooth"",""down"",""down"",""good_move"",4812.4,3292.5,2644.1,1519.9,648.4,""smooth"",""right"",""right"",""good_move"",7809.4,2996.7,2513.6,4812.7,483.1,""smooth"",""down"",""down"",""good_move"",13697.3,5887.8,2093.8,11104.7,498.8,""smooth"",""right"",""right"",""good_move""]","",""
"3867","","<div style=""width:500px;"">
  <p>What determined the result of this run?</p>
  </div>","100","html-slider-response","58","1516525","0.0-10.0-1.4","102","1","2025-07-09 09:07:57","7701e855f2ef39aa3fd6c71abdc6918a","93.39.140.87","Mozilla/5.0 (Windows NT 10.0; Win64; x64) AppleWebKit/537.36 (KHTML, like Gecko) Chrome/138.0.0.0 Safari/537.36","WebKit","Chrome","138.0.0.0","Windows","10.0","https://app.prolific.com/","it-IT,it;q=0.9,en-US;q=0.8,en;q=0.7","5daae19f8a06b60016d1bc32","686d226cabeef709c732f8e1","686e312457acb241e1f8bc25","5daae19f8a06b60016d1bc32","2025-07-09T09:33:15.368Z","","","","","","AttribQ","","","","","","","","","","","","","","","","","","","","","","","","","","","","","","","","","","","","","","50"
"2580","","<div style=""width:500px;"">
  <p>How much control did you have over the ball?</p>
  </div>","100","html-slider-response","59","1519106","0.0-10.0-2.4","102","1","2025-07-09 09:07:57","7701e855f2ef39aa3fd6c71abdc6918a","93.39.140.87","Mozilla/5.0 (Windows NT 10.0; Win64; x64) AppleWebKit/537.36 (KHTML, like Gecko) Chrome/138.0.0.0 Safari/537.36","WebKit","Chrome","138.0.0.0","Windows","10.0","https://app.prolific.com/","it-IT,it;q=0.9,en-US;q=0.8,en;q=0.7","5daae19f8a06b60016d1bc32","686d226cabeef709c732f8e1","686e312457acb241e1f8bc25","5daae19f8a06b60016d1bc32","2025-07-09T09:33:17.949Z","","","","","","ControlQ","","","","","","","","","","","","","","","","","","","","","","","","","","","","","","","","","","","","","","50"
"3429","","<div style=""width:500px;"">
  <p>How would you describe your current emotional state?</p>
  </div>","68","html-slider-response","60","1522536","0.0-10.0-3.4","102","1","2025-07-09 09:07:57","7701e855f2ef39aa3fd6c71abdc6918a","93.39.140.87","Mozilla/5.0 (Windows NT 10.0; Win64; x64) AppleWebKit/537.36 (KHTML, like Gecko) Chrome/138.0.0.0 Safari/537.36","WebKit","Chrome","138.0.0.0","Windows","10.0","https://app.prolific.com/","it-IT,it;q=0.9,en-US;q=0.8,en;q=0.7","5daae19f8a06b60016d1bc32","686d226cabeef709c732f8e1","686e312457acb241e1f8bc25","5daae19f8a06b60016d1bc32","2025-07-09T09:33:21.379Z","","","","","","StressQ","","","","","","","","","","","","","","","","","","","","","","","","","","","","","","","","","","","","","","50"
"3421","","<div style=""width:500px;"">
  <p>What best describes how you currently feel?</p>
  </div>","50","html-slider-response","61","1525958","0.0-10.0-4.4","102","1","2025-07-09 09:07:57","7701e855f2ef39aa3fd6c71abdc6918a","93.39.140.87","Mozilla/5.0 (Windows NT 10.0; Win64; x64) AppleWebKit/537.36 (KHTML, like Gecko) Chrome/138.0.0.0 Safari/537.36","WebKit","Chrome","138.0.0.0","Windows","10.0","https://app.prolific.com/","it-IT,it;q=0.9,en-US;q=0.8,en;q=0.7","5daae19f8a06b60016d1bc32","686d226cabeef709c732f8e1","686e312457acb241e1f8bc25","5daae19f8a06b60016d1bc32","2025-07-09T09:33:24.801Z","","","","","","MotivationQ","","","","","","","","","","","","","","","","","","","","","","","","","","","","","","","","","","","","","","50"
"","","","","ctl-task-cpt","62","1557101","0.0-10.0-0.5","102","1","2025-07-09 09:07:57","7701e855f2ef39aa3fd6c71abdc6918a","93.39.140.87","Mozilla/5.0 (Windows NT 10.0; Win64; x64) AppleWebKit/537.36 (KHTML, like Gecko) Chrome/138.0.0.0 Safari/537.36","WebKit","Chrome","138.0.0.0","Windows","10.0","https://app.prolific.com/","it-IT,it;q=0.9,en-US;q=0.8,en;q=0.7","5daae19f8a06b60016d1bc32","686d226cabeef709c732f8e1","686e312457acb241e1f8bc25","5daae19f8a06b60016d1bc32","2025-07-09T09:33:55.944Z","","","","","","","","","","","","","","","","win-only","0","g1:NW,g2:SE","0.5","6","0","1527199.3","1322.1","6326.3","28125.3","1","4","8","6","2","-8","-8","0","2","0","1211.4","3000","-3015","[""down"",""right""]","{""num_key_presses"":6,""num_perfect"":3,""num_errors"":0,""num_randdir"":3,""num_randdir_good_moves"":0,""num_whilered"":0,""num_whileblue"":0,""num_blue"":1,""num_good_moves"":3}","[415.57142857142856,419.47767857142856,0.2,415.57142857142856,419.47767857142856,103.2,415.57142857142856,419.47767857142856,204.2,415.57142857142856,419.47767857142856,308.3,415.57142857142856,419.47767857142856,413.2,415.57142857142856,419.47767857142856,518.4,415.57142857142856,419.47767857142856,623.2,415.57142857142856,419.47767857142856,723.9,438.57142857142856,439.47767857142856,824,776.5714285714286,749.4776785714286,928.9,812.5714285714286,781.4776785714286,1029.1,812.5714285714286,781.4776785714286,1133.9,812.5714285714286,781.4776785714286,1238.1,812.5714285714286,781.4776785714286,1338.4,812.5714285714286,781.4776785714286,1438.5,812.5714285714286,781.4776785714286,1543.5,857.5714285714286,734.4776785714286,1643.5,1035.5714285714287,584.4776785714286,1743.5,1035.5714285714287,584.4776785714286,1849.2,1035.5714285714287,584.4776785714286,1953.9,1035.5714285714287,584.4776785714286,2059.1,1035.5714285714287,584.4776785714286,2164.3,1035.5714285714287,584.4776785714286,2269,1035.5714285714287,584.4776785714286,2373.6,1035.5714285714287,584.4776785714286,2478.9,1035.5714285714287,584.4776785714286,2583,1035.5714285714287,584.4776785714286,2683.3,1035.5714285714287,584.4776785714286,2789,1035.5714285714287,584.4776785714286,2893.8,1035.5714285714287,584.4776785714286,2998.1,1035.5714285714287,584.4776785714286,3098.2,1035.5714285714287,584.4776785714286,3198.2,1035.5714285714287,584.4776785714286,3298.8,1035.5714285714287,584.4776785714286,3403.4,1035.5714285714287,584.4776785714286,3503.7,1035.5714285714287,584.4776785714286,3608.9,1035.5714285714287,584.4776785714286,3714.1,1035.5714285714287,584.4776785714286,3818.4,1035.5714285714287,584.4776785714286,3924.1,1035.5714285714287,584.4776785714286,4024.4,1035.5714285714287,584.4776785714286,4128.2,1035.5714285714287,584.4776785714286,4229.1,1035.5714285714287,584.4776785714286,4333.6,1035.5714285714287,584.4776785714286,4438.1,1035.5714285714287,584.4776785714286,4538.2,1035.5714285714287,584.4776785714286,4639,1035.5714285714287,584.4776785714286,4743.6,1035.5714285714287,584.4776785714286,4849,1035.5714285714287,584.4776785714286,4953]","[1458.6,1458.7,1000,0,458.7,""smooth"",""down"",""down"",""good_move"",4573.5,3114.7,2629.2,1458.8,485.5,""oops"",""right"",""left"",""bad_move"",7827.9,3254.2,2492.2,4573.7,762,""smooth"",""right"",""right"",""good_move"",10060.4,2232.3,1787.2,7828.1,445.1,""smooth"",""right"",""right"",""good_move"",13527.7,3467.2,3060.9,10060.5,406.3,""oops"",""right"",""up"",""bad_move"",16224.7,2696.8,2279,13527.9,417.8,""oops"",""right"",""up"",""bad_move""]","",""
"3558","","<div style=""width:500px;"">
  <p>What determined the result of this run?</p>
  </div>","0","html-slider-response","63","1560660","0.0-10.0-1.5","102","1","2025-07-09 09:07:57","7701e855f2ef39aa3fd6c71abdc6918a","93.39.140.87","Mozilla/5.0 (Windows NT 10.0; Win64; x64) AppleWebKit/537.36 (KHTML, like Gecko) Chrome/138.0.0.0 Safari/537.36","WebKit","Chrome","138.0.0.0","Windows","10.0","https://app.prolific.com/","it-IT,it;q=0.9,en-US;q=0.8,en;q=0.7","5daae19f8a06b60016d1bc32","686d226cabeef709c732f8e1","686e312457acb241e1f8bc25","5daae19f8a06b60016d1bc32","2025-07-09T09:33:59.503Z","","","","","","AttribQ","","","","","","","","","","","","","","","","","","","","","","","","","","","","","","","","","","","","","","50"
"5386","","<div style=""width:500px;"">
  <p>How much control did you have over the ball?</p>
  </div>","15","html-slider-response","64","1566046","0.0-10.0-2.5","102","1","2025-07-09 09:07:57","7701e855f2ef39aa3fd6c71abdc6918a","93.39.140.87","Mozilla/5.0 (Windows NT 10.0; Win64; x64) AppleWebKit/537.36 (KHTML, like Gecko) Chrome/138.0.0.0 Safari/537.36","WebKit","Chrome","138.0.0.0","Windows","10.0","https://app.prolific.com/","it-IT,it;q=0.9,en-US;q=0.8,en;q=0.7","5daae19f8a06b60016d1bc32","686d226cabeef709c732f8e1","686e312457acb241e1f8bc25","5daae19f8a06b60016d1bc32","2025-07-09T09:34:04.889Z","","","","","","ControlQ","","","","","","","","","","","","","","","","","","","","","","","","","","","","","","","","","","","","","","50"
"3644","","<div style=""width:500px;"">
  <p>How would you describe your current emotional state?</p>
  </div>","100","html-slider-response","65","1569691","0.0-10.0-3.5","102","1","2025-07-09 09:07:57","7701e855f2ef39aa3fd6c71abdc6918a","93.39.140.87","Mozilla/5.0 (Windows NT 10.0; Win64; x64) AppleWebKit/537.36 (KHTML, like Gecko) Chrome/138.0.0.0 Safari/537.36","WebKit","Chrome","138.0.0.0","Windows","10.0","https://app.prolific.com/","it-IT,it;q=0.9,en-US;q=0.8,en;q=0.7","5daae19f8a06b60016d1bc32","686d226cabeef709c732f8e1","686e312457acb241e1f8bc25","5daae19f8a06b60016d1bc32","2025-07-09T09:34:08.534Z","","","","","","StressQ","","","","","","","","","","","","","","","","","","","","","","","","","","","","","","","","","","","","","","50"
"5192","","<div style=""width:500px;"">
  <p>What best describes how you currently feel?</p>
  </div>","38","html-slider-response","66","1574884","0.0-10.0-4.5","102","1","2025-07-09 09:07:57","7701e855f2ef39aa3fd6c71abdc6918a","93.39.140.87","Mozilla/5.0 (Windows NT 10.0; Win64; x64) AppleWebKit/537.36 (KHTML, like Gecko) Chrome/138.0.0.0 Safari/537.36","WebKit","Chrome","138.0.0.0","Windows","10.0","https://app.prolific.com/","it-IT,it;q=0.9,en-US;q=0.8,en;q=0.7","5daae19f8a06b60016d1bc32","686d226cabeef709c732f8e1","686e312457acb241e1f8bc25","5daae19f8a06b60016d1bc32","2025-07-09T09:34:13.727Z","","","","","","MotivationQ","","","","","","","","","","","","","","","","","","","","","","","","","","","","","","","","","","","","","","50"
"","","","","ctl-task-cpt","67","1600226","0.0-10.0-0.6","102","1","2025-07-09 09:07:57","7701e855f2ef39aa3fd6c71abdc6918a","93.39.140.87","Mozilla/5.0 (Windows NT 10.0; Win64; x64) AppleWebKit/537.36 (KHTML, like Gecko) Chrome/138.0.0.0 Safari/537.36","WebKit","Chrome","138.0.0.0","Windows","10.0","https://app.prolific.com/","it-IT,it;q=0.9,en-US;q=0.8,en;q=0.7","5daae19f8a06b60016d1bc32","686d226cabeef709c732f8e1","686e312457acb241e1f8bc25","5daae19f8a06b60016d1bc32","2025-07-09T09:34:39.069Z","","","","","","","","","","","","","","","","win-only","2","g1:SE,g2:NW","0.4","7","0","1576125.1","1268.8","6270.5","22325.4","1","4","8","6","2","-8","-8","0","0","0","5001.7","3000","-3010","[""left"",""up""]","{""num_key_presses"":5,""num_perfect"":3,""num_errors"":0,""num_randdir"":2,""num_randdir_good_moves"":1,""num_whilered"":0,""num_whileblue"":0,""num_blue"":0,""num_good_moves"":4}","[416.57142857142856,415.47767857142856,0.1,416.57142857142856,415.47767857142856,101.9,416.57142857142856,415.47767857142856,206.9,416.57142857142856,415.47767857142856,311.7,416.57142857142856,415.47767857142856,417.5,416.57142857142856,415.47767857142856,521.5,416.57142857142856,415.47767857142856,621.5,416.57142857142856,415.47767857142856,721.5,416.57142857142856,415.47767857142856,821.7,416.57142857142856,415.47767857142856,921.9,416.57142857142856,415.47767857142856,1022.2,416.57142857142856,415.47767857142856,1126.7,416.57142857142856,415.47767857142856,1226.7,416.57142857142856,415.47767857142856,1327.5,416.57142857142856,415.47767857142856,1432.3,651.5714285714286,596.4776785714286,1536.9,690.5714285714286,631.4776785714286,1642.2,483.57142857142856,477.47767857142856,1746.5,295.57142857142856,339.47767857142856,1847.6,295.57142857142856,339.47767857142856,1952,259.57142857142856,281.47767857142856,2052,155.57142857142856,123.47767857142857,2156.8,123.57142857142857,83.47767857142857,2257.6,122.57142857142857,83.47767857142857,2361.4,122.57142857142857,83.47767857142857,2462.2,122.57142857142857,83.47767857142857,2566.8,122.57142857142857,83.47767857142857,2667.4,122.57142857142857,83.47767857142857,2772.2,122.57142857142857,83.47767857142857,2877.3,240.57142857142856,262.47767857142856,2981.6,435.57142857142856,555.4776785714286,3082,435.57142857142856,555.4776785714286,3186.6,435.57142857142856,555.4776785714286,3286.9,114.57142857142857,625.4776785714286,3392.4,93.57142857142857,634.4776785714286,3496.8,93.57142857142857,634.4776785714286,3602.1,-160.42857142857144,538.4776785714286,3706.4,-166.42857142857144,535.4776785714286,3808,-166.42857142857144,535.4776785714286,3912.4,-166.42857142857144,535.4776785714286,4017.7,-166.42857142857144,535.4776785714286,4118.1,-166.42857142857144,535.4776785714286,4221.7,-166.42857142857144,535.4776785714286,4326.7,-166.42857142857144,535.4776785714286,4428.1,-166.42857142857144,535.4776785714286,4531.7,-166.42857142857144,535.4776785714286,4631.9,-166.42857142857144,535.4776785714286,4732,-166.42857142857144,535.4776785714286,4832.3,-166.42857142857144,535.4776785714286,4937.9]","[1412.5,1412.5,1000,0,412.5,""smooth"",""left"",""left"",""good_move"",4295.2,2882.5,2414.6,1412.7,467.9,""smooth"",""up"",""up"",""good_move"",7346.1,3050.6,2598.6,4295.5,452,""oops"",""left"",""left"",""good_move"",10128.8,2782.4,2078.7,7346.4,703.7,""oops"",""up"",""right"",""bad_move"",13410.2,3281.1,2803.5,10129.1,477.6,""smooth"",""left"",""left"",""good_move""]","",""
"5352","","<div style=""width:500px;"">
  <p>What determined the result of this run?</p>
  </div>","8","html-slider-response","68","1605579","0.0-10.0-1.6","102","1","2025-07-09 09:07:57","7701e855f2ef39aa3fd6c71abdc6918a","93.39.140.87","Mozilla/5.0 (Windows NT 10.0; Win64; x64) AppleWebKit/537.36 (KHTML, like Gecko) Chrome/138.0.0.0 Safari/537.36","WebKit","Chrome","138.0.0.0","Windows","10.0","https://app.prolific.com/","it-IT,it;q=0.9,en-US;q=0.8,en;q=0.7","5daae19f8a06b60016d1bc32","686d226cabeef709c732f8e1","686e312457acb241e1f8bc25","5daae19f8a06b60016d1bc32","2025-07-09T09:34:44.422Z","","","","","","AttribQ","","","","","","","","","","","","","","","","","","","","","","","","","","","","","","","","","","","","","","50"
"5560","","<div style=""width:500px;"">
  <p>How much control did you have over the ball?</p>
  </div>","47","html-slider-response","69","1611140","0.0-10.0-2.6","102","1","2025-07-09 09:07:57","7701e855f2ef39aa3fd6c71abdc6918a","93.39.140.87","Mozilla/5.0 (Windows NT 10.0; Win64; x64) AppleWebKit/537.36 (KHTML, like Gecko) Chrome/138.0.0.0 Safari/537.36","WebKit","Chrome","138.0.0.0","Windows","10.0","https://app.prolific.com/","it-IT,it;q=0.9,en-US;q=0.8,en;q=0.7","5daae19f8a06b60016d1bc32","686d226cabeef709c732f8e1","686e312457acb241e1f8bc25","5daae19f8a06b60016d1bc32","2025-07-09T09:34:49.983Z","","","","","","ControlQ","","","","","","","","","","","","","","","","","","","","","","","","","","","","","","","","","","","","","","50"
"4180","","<div style=""width:500px;"">
  <p>How would you describe your current emotional state?</p>
  </div>","100","html-slider-response","70","1615321","0.0-10.0-3.6","102","1","2025-07-09 09:07:57","7701e855f2ef39aa3fd6c71abdc6918a","93.39.140.87","Mozilla/5.0 (Windows NT 10.0; Win64; x64) AppleWebKit/537.36 (KHTML, like Gecko) Chrome/138.0.0.0 Safari/537.36","WebKit","Chrome","138.0.0.0","Windows","10.0","https://app.prolific.com/","it-IT,it;q=0.9,en-US;q=0.8,en;q=0.7","5daae19f8a06b60016d1bc32","686d226cabeef709c732f8e1","686e312457acb241e1f8bc25","5daae19f8a06b60016d1bc32","2025-07-09T09:34:54.164Z","","","","","","StressQ","","","","","","","","","","","","","","","","","","","","","","","","","","","","","","","","","","","","","","50"
"2886","","<div style=""width:500px;"">
  <p>What best describes how you currently feel?</p>
  </div>","35","html-slider-response","71","1618208","0.0-10.0-4.6","102","1","2025-07-09 09:07:57","7701e855f2ef39aa3fd6c71abdc6918a","93.39.140.87","Mozilla/5.0 (Windows NT 10.0; Win64; x64) AppleWebKit/537.36 (KHTML, like Gecko) Chrome/138.0.0.0 Safari/537.36","WebKit","Chrome","138.0.0.0","Windows","10.0","https://app.prolific.com/","it-IT,it;q=0.9,en-US;q=0.8,en;q=0.7","5daae19f8a06b60016d1bc32","686d226cabeef709c732f8e1","686e312457acb241e1f8bc25","5daae19f8a06b60016d1bc32","2025-07-09T09:34:57.051Z","","","","","","MotivationQ","","","","","","","","","","","","","","","","","","","","","","","","","","","","","","","","","","","","","","50"
"","","","","ctl-task-cpt","72","1642825","0.0-10.0-0.7","102","1","2025-07-09 09:07:57","7701e855f2ef39aa3fd6c71abdc6918a","93.39.140.87","Mozilla/5.0 (Windows NT 10.0; Win64; x64) AppleWebKit/537.36 (KHTML, like Gecko) Chrome/138.0.0.0 Safari/537.36","WebKit","Chrome","138.0.0.0","Windows","10.0","https://app.prolific.com/","it-IT,it;q=0.9,en-US;q=0.8,en;q=0.7","5daae19f8a06b60016d1bc32","686d226cabeef709c732f8e1","686e312457acb241e1f8bc25","5daae19f8a06b60016d1bc32","2025-07-09T09:35:21.668Z","","","","","","","","","","","","","","","","win-only","1","g1:NE,g2:SW","0.3","8","0","1619449.1","1161.8","6165.9","21600.2","1","4","4","6","1","1","1","1","0","0.007575757575757576","2044.8","3000","375","[""up"",""right""]","{""num_key_presses"":6,""num_perfect"":3,""num_errors"":0,""num_randdir"":3,""num_randdir_good_moves"":2,""num_whilered"":0,""num_whileblue"":0,""num_blue"":0,""num_good_moves"":5}","[417.57142857142856,417.47767857142856,0.2,417.57142857142856,417.47767857142856,104.2,417.57142857142856,417.47767857142856,209.4,417.57142857142856,417.47767857142856,313.5,417.57142857142856,417.47767857142856,413.5,417.57142857142856,417.47767857142856,514.2,417.57142857142856,417.47767857142856,615.1,417.57142857142856,417.47767857142856,718.8,417.57142857142856,417.47767857142856,818.9,417.57142857142856,417.47767857142856,923.6,417.57142857142856,417.47767857142856,1023.6,417.57142857142856,417.47767857142856,1124.1,417.57142857142856,417.47767857142856,1229.1,417.57142857142856,417.47767857142856,1333.4,417.57142857142856,417.47767857142856,1434.2,422.57142857142856,404.47767857142856,1534.7,699.5714285714286,106.47767857142857,1639.5,756.5714285714286,56.47767857142857,1743.8,759.5714285714286,53.47767857142857,1843.8,760.5714285714286,53.47767857142857,1944.1,760.5714285714286,53.47767857142857,2044.5,760.5714285714286,53.47767857142857,2148.8,760.5714285714286,53.47767857142857,2248.8,760.5714285714286,53.47767857142857,2354,857.5714285714286,115.47767857142857,2458.7,1023.5714285714286,316.47767857142856,2559.3,1023.5714285714286,316.47767857142856,2663.9,1023.5714285714286,316.47767857142856,2768.9,1023.5714285714286,316.47767857142856,2874.1,1023.5714285714286,316.47767857142856,2978.7,1023.5714285714286,316.47767857142856,3084.5,1023.5714285714286,316.47767857142856,3188.9,1023.5714285714286,316.47767857142856,3293.8,1023.5714285714286,316.47767857142856,3393.8,1023.5714285714286,316.47767857142856,3494.2,1023.5714285714286,316.47767857142856,3599,1023.5714285714286,316.47767857142856,3703.9,1023.5714285714286,316.47767857142856,3804.3,1023.5714285714286,316.47767857142856,3909.3,1023.5714285714286,316.47767857142856,4013.9,1023.5714285714286,316.47767857142856,4114,1023.5714285714286,316.47767857142856,4218.9,1023.5714285714286,316.47767857142856,4324.3,1023.5714285714286,316.47767857142856,4428.6,1023.5714285714286,316.47767857142856,4528.6,1023.5714285714286,316.47767857142856,4634.2,1023.5714285714286,316.47767857142856,4738.6,1023.5714285714286,316.47767857142856,4839.2,1023.5714285714286,316.47767857142856,4944.3]","[1459.2,1459.2,1000,0,459.2,""oops"",""right"",""left"",""bad_move"",4799.1,3339.6,2934.3,1459.5,405.3,""smooth"",""right"",""right"",""good_move"",7323.1,2523.7,2085.4,4799.4,438.3,""smooth"",""right"",""right"",""good_move"",9672,2348.7,1892.7,7323.3,456,""smooth"",""up"",""up"",""good_move"",12775.3,3103,2565.3,9672.3,537.7,""oops"",""right"",""right"",""good_move"",15346.5,2570.9,2199.8,12775.6,371.1,""oops"",""up"",""up"",""good_move""]","",""
"3693","","<div style=""width:500px;"">
  <p>What determined the result of this run?</p>
  </div>","58","html-slider-response","73","1646519","0.0-10.0-1.7","102","1","2025-07-09 09:07:57","7701e855f2ef39aa3fd6c71abdc6918a","93.39.140.87","Mozilla/5.0 (Windows NT 10.0; Win64; x64) AppleWebKit/537.36 (KHTML, like Gecko) Chrome/138.0.0.0 Safari/537.36","WebKit","Chrome","138.0.0.0","Windows","10.0","https://app.prolific.com/","it-IT,it;q=0.9,en-US;q=0.8,en;q=0.7","5daae19f8a06b60016d1bc32","686d226cabeef709c732f8e1","686e312457acb241e1f8bc25","5daae19f8a06b60016d1bc32","2025-07-09T09:35:25.362Z","","","","","","AttribQ","","","","","","","","","","","","","","","","","","","","","","","","","","","","","","","","","","","","","","50"
"2699","","<div style=""width:500px;"">
  <p>How much control did you have over the ball?</p>
  </div>","60","html-slider-response","74","1649219","0.0-10.0-2.7","102","1","2025-07-09 09:07:57","7701e855f2ef39aa3fd6c71abdc6918a","93.39.140.87","Mozilla/5.0 (Windows NT 10.0; Win64; x64) AppleWebKit/537.36 (KHTML, like Gecko) Chrome/138.0.0.0 Safari/537.36","WebKit","Chrome","138.0.0.0","Windows","10.0","https://app.prolific.com/","it-IT,it;q=0.9,en-US;q=0.8,en;q=0.7","5daae19f8a06b60016d1bc32","686d226cabeef709c732f8e1","686e312457acb241e1f8bc25","5daae19f8a06b60016d1bc32","2025-07-09T09:35:28.062Z","","","","","","ControlQ","","","","","","","","","","","","","","","","","","","","","","","","","","","","","","","","","","","","","","50"
"3630","","<div style=""width:500px;"">
  <p>How would you describe your current emotional state?</p>
  </div>","99","html-slider-response","75","1652849","0.0-10.0-3.7","102","1","2025-07-09 09:07:57","7701e855f2ef39aa3fd6c71abdc6918a","93.39.140.87","Mozilla/5.0 (Windows NT 10.0; Win64; x64) AppleWebKit/537.36 (KHTML, like Gecko) Chrome/138.0.0.0 Safari/537.36","WebKit","Chrome","138.0.0.0","Windows","10.0","https://app.prolific.com/","it-IT,it;q=0.9,en-US;q=0.8,en;q=0.7","5daae19f8a06b60016d1bc32","686d226cabeef709c732f8e1","686e312457acb241e1f8bc25","5daae19f8a06b60016d1bc32","2025-07-09T09:35:31.692Z","","","","","","StressQ","","","","","","","","","","","","","","","","","","","","","","","","","","","","","","","","","","","","","","50"
"3705","","<div style=""width:500px;"">
  <p>What best describes how you currently feel?</p>
  </div>","37","html-slider-response","76","1656555","0.0-10.0-4.7","102","1","2025-07-09 09:07:57","7701e855f2ef39aa3fd6c71abdc6918a","93.39.140.87","Mozilla/5.0 (Windows NT 10.0; Win64; x64) AppleWebKit/537.36 (KHTML, like Gecko) Chrome/138.0.0.0 Safari/537.36","WebKit","Chrome","138.0.0.0","Windows","10.0","https://app.prolific.com/","it-IT,it;q=0.9,en-US;q=0.8,en;q=0.7","5daae19f8a06b60016d1bc32","686d226cabeef709c732f8e1","686e312457acb241e1f8bc25","5daae19f8a06b60016d1bc32","2025-07-09T09:35:35.398Z","","","","","","MotivationQ","","","","","","","","","","","","","","","","","","","","","","","","","","","","","","","","","","","","","","50"
"","","","","ctl-task-cpt","77","1675653","0.0-10.0-0.8","102","1","2025-07-09 09:07:57","7701e855f2ef39aa3fd6c71abdc6918a","93.39.140.87","Mozilla/5.0 (Windows NT 10.0; Win64; x64) AppleWebKit/537.36 (KHTML, like Gecko) Chrome/138.0.0.0 Safari/537.36","WebKit","Chrome","138.0.0.0","Windows","10.0","https://app.prolific.com/","it-IT,it;q=0.9,en-US;q=0.8,en;q=0.7","5daae19f8a06b60016d1bc32","686d226cabeef709c732f8e1","686e312457acb241e1f8bc25","5daae19f8a06b60016d1bc32","2025-07-09T09:35:54.496Z","","","","","","","","","","","","","","","","win-only","0","g1:NW,g2:SE","0.2","9","0","1657796.2","1212","6216","16080.8","1","4","8","6","1","1","1","2","1","0.015151515151515152","2792.1","3000","1235","[""left"",""up""]","{""num_key_presses"":4,""num_perfect"":2,""num_errors"":0,""num_randdir"":2,""num_randdir_good_moves"":2,""num_whilered"":0,""num_whileblue"":0,""num_blue"":0,""num_good_moves"":4}","[415.57142857142856,421.47767857142856,0.2,415.57142857142856,421.47767857142856,103.8,415.57142857142856,421.47767857142856,204.1,415.57142857142856,421.47767857142856,308.2,415.57142857142856,421.47767857142856,409.7,415.57142857142856,421.47767857142856,513.2,415.57142857142856,421.47767857142856,613.2,415.57142857142856,421.47767857142856,714.1,415.57142857142856,421.47767857142856,818.6,415.57142857142856,421.47767857142856,918.6,415.57142857142856,421.47767857142856,1023.2,415.57142857142856,421.47767857142856,1123.9,415.57142857142856,421.47767857142856,1225,415.57142857142856,421.47767857142856,1328.1,415.57142857142856,421.47767857142856,1428.3,415.57142857142856,421.47767857142856,1528.8,415.57142857142856,421.47767857142856,1633.8,415.57142857142856,421.47767857142856,1738.8,415.57142857142856,421.47767857142856,1843.8,415.57142857142856,421.47767857142856,1944.1,415.57142857142856,421.47767857142856,2048.2,415.57142857142856,421.47767857142856,2148.7,260.57142857142856,304.47767857142856,2253.5,139.57142857142856,189.47767857142856,2358.9,121.57142857142857,142.47767857142856,2463.2,108.57142857142857,116.47767857142857,2568.3,107.57142857142857,111.47767857142857,2668.7,107.57142857142857,111.47767857142857,2768.8,107.57142857142857,111.47767857142857,2873.1,107.57142857142857,111.47767857142857,2973.1,107.57142857142857,111.47767857142857,3073.5,-118.42857142857143,243.47767857142856,3178.3,-164.42857142857144,297.47767857142856,3279.1,-164.42857142857144,297.47767857142856,3379.1,-164.42857142857144,297.47767857142856,3485.1,-164.42857142857144,297.47767857142856,3589,-164.42857142857144,297.47767857142856,3689.1,-164.42857142857144,297.47767857142856,3794.2,-164.42857142857144,297.47767857142856,3899,-164.42857142857144,297.47767857142856,4004.5,-164.42857142857144,297.47767857142856,4108.8,-164.42857142857144,297.47767857142856,4213.3,-164.42857142857144,297.47767857142856,4313.3,-164.42857142857144,297.47767857142856,4414,-164.42857142857144,297.47767857142856,4518.8,-164.42857142857144,297.47767857142856,4623.9,-164.42857142857144,297.47767857142856,4728.9,-164.42857142857144,297.47767857142856,4829.1,-164.42857142857144,297.47767857142856,4933.9]","[1389.4,1389.4,1000,0,389.4,""smooth"",""left"",""left"",""good_move"",4131.2,2741.5,2305.7,1389.7,435.8,""smooth"",""up"",""up"",""good_move"",7338.2,3206.7,2709,4131.5,497.7,""oops"",""up"",""up"",""good_move"",9779,2440.7,1964.3,7338.4,476.3,""oops"",""left"",""left"",""good_move""]","",""
"3844","","<div style=""width:500px;"">
  <p>What determined the result of this run?</p>
  </div>","76","html-slider-response","78","1679498","0.0-10.0-1.8","102","1","2025-07-09 09:07:57","7701e855f2ef39aa3fd6c71abdc6918a","93.39.140.87","Mozilla/5.0 (Windows NT 10.0; Win64; x64) AppleWebKit/537.36 (KHTML, like Gecko) Chrome/138.0.0.0 Safari/537.36","WebKit","Chrome","138.0.0.0","Windows","10.0","https://app.prolific.com/","it-IT,it;q=0.9,en-US;q=0.8,en;q=0.7","5daae19f8a06b60016d1bc32","686d226cabeef709c732f8e1","686e312457acb241e1f8bc25","5daae19f8a06b60016d1bc32","2025-07-09T09:35:58.341Z","","","","","","AttribQ","","","","","","","","","","","","","","","","","","","","","","","","","","","","","","","","","","","","","","50"
"3532","","<div style=""width:500px;"">
  <p>How much control did you have over the ball?</p>
  </div>","66","html-slider-response","79","1683030","0.0-10.0-2.8","102","1","2025-07-09 09:07:57","7701e855f2ef39aa3fd6c71abdc6918a","93.39.140.87","Mozilla/5.0 (Windows NT 10.0; Win64; x64) AppleWebKit/537.36 (KHTML, like Gecko) Chrome/138.0.0.0 Safari/537.36","WebKit","Chrome","138.0.0.0","Windows","10.0","https://app.prolific.com/","it-IT,it;q=0.9,en-US;q=0.8,en;q=0.7","5daae19f8a06b60016d1bc32","686d226cabeef709c732f8e1","686e312457acb241e1f8bc25","5daae19f8a06b60016d1bc32","2025-07-09T09:36:01.873Z","","","","","","ControlQ","","","","","","","","","","","","","","","","","","","","","","","","","","","","","","","","","","","","","","50"
"3737","","<div style=""width:500px;"">
  <p>How would you describe your current emotional state?</p>
  </div>","87","html-slider-response","80","1686767","0.0-10.0-3.8","102","1","2025-07-09 09:07:57","7701e855f2ef39aa3fd6c71abdc6918a","93.39.140.87","Mozilla/5.0 (Windows NT 10.0; Win64; x64) AppleWebKit/537.36 (KHTML, like Gecko) Chrome/138.0.0.0 Safari/537.36","WebKit","Chrome","138.0.0.0","Windows","10.0","https://app.prolific.com/","it-IT,it;q=0.9,en-US;q=0.8,en;q=0.7","5daae19f8a06b60016d1bc32","686d226cabeef709c732f8e1","686e312457acb241e1f8bc25","5daae19f8a06b60016d1bc32","2025-07-09T09:36:05.611Z","","","","","","StressQ","","","","","","","","","","","","","","","","","","","","","","","","","","","","","","","","","","","","","","50"
"3569","","<div style=""width:500px;"">
  <p>What best describes how you currently feel?</p>
  </div>","38","html-slider-response","81","1690337","0.0-10.0-4.8","102","1","2025-07-09 09:07:57","7701e855f2ef39aa3fd6c71abdc6918a","93.39.140.87","Mozilla/5.0 (Windows NT 10.0; Win64; x64) AppleWebKit/537.36 (KHTML, like Gecko) Chrome/138.0.0.0 Safari/537.36","WebKit","Chrome","138.0.0.0","Windows","10.0","https://app.prolific.com/","it-IT,it;q=0.9,en-US;q=0.8,en;q=0.7","5daae19f8a06b60016d1bc32","686d226cabeef709c732f8e1","686e312457acb241e1f8bc25","5daae19f8a06b60016d1bc32","2025-07-09T09:36:09.180Z","","","","","","MotivationQ","","","","","","","","","","","","","","","","","","","","","","","","","","","","","","","","","","","","","","50"
"","","","","ctl-task-cpt","82","1712905","0.0-10.0-0.9","102","1","2025-07-09 09:07:57","7701e855f2ef39aa3fd6c71abdc6918a","93.39.140.87","Mozilla/5.0 (Windows NT 10.0; Win64; x64) AppleWebKit/537.36 (KHTML, like Gecko) Chrome/138.0.0.0 Safari/537.36","WebKit","Chrome","138.0.0.0","Windows","10.0","https://app.prolific.com/","it-IT,it;q=0.9,en-US;q=0.8,en;q=0.7","5daae19f8a06b60016d1bc32","686d226cabeef709c732f8e1","686e312457acb241e1f8bc25","5daae19f8a06b60016d1bc32","2025-07-09T09:36:31.748Z","","","","","","","","","","","","","","","","win-only","1","g1:NE,g2:SW","0.4","10","0","1691578.3","1214.3","6215.4","19550.3","1","4","4","6","1","1","1","3","2","0.022727272727272728","2666.1","3000","1270","[""up"",""right""]","{""num_key_presses"":4,""num_perfect"":0,""num_errors"":0,""num_randdir"":4,""num_randdir_good_moves"":4,""num_whilered"":0,""num_whileblue"":0,""num_blue"":1,""num_good_moves"":4}","[417.57142857142856,420.47767857142856,0,417.57142857142856,420.47767857142856,100.8,417.57142857142856,420.47767857142856,200.8,417.57142857142856,420.47767857142856,301.4,417.57142857142856,420.47767857142856,406.4,417.57142857142856,420.47767857142856,510.8,417.57142857142856,420.47767857142856,611.3,417.57142857142856,420.47767857142856,716.5,417.57142857142856,420.47767857142856,821.1,417.57142857142856,420.47767857142856,921.8,417.57142857142856,420.47767857142856,1022.9,417.57142857142856,420.47767857142856,1126.8,417.57142857142856,420.47767857142856,1226.8,417.57142857142856,420.47767857142856,1331.5,417.57142857142856,420.47767857142856,1432,417.57142857142856,420.47767857142856,1535.9,417.57142857142856,420.47767857142856,1636.1,417.57142857142856,420.47767857142856,1736.1,417.57142857142856,420.47767857142856,1841.6,417.57142857142856,420.47767857142856,1946.2,504.57142857142856,327.47767857142856,2046.9,776.5714285714286,123.47767857142857,2151.3,776.5714285714286,123.47767857142857,2251.6,776.5714285714286,123.47767857142857,2356.5,785.5714285714286,84.47767857142857,2456.6,790.5714285714286,74.47767857142857,2561.3,790.5714285714286,74.47767857142857,2667.7,790.5714285714286,74.47767857142857,2771.3,790.5714285714286,74.47767857142857,2875.8,790.5714285714286,74.47767857142857,2976,808.5714285714286,88.47767857142857,3076.2,988.5714285714286,316.47767857142856,3176.4,1001.5714285714286,351.47767857142856,3280.9,1001.5714285714286,351.47767857142856,3381.1,1001.5714285714286,351.47767857142856,3486.2,1001.5714285714286,351.47767857142856,3590.9,1001.5714285714286,351.47767857142856,3696.8,1001.5714285714286,351.47767857142856,3800.9,1001.5714285714286,351.47767857142856,3900.9,1001.5714285714286,351.47767857142856,4006,1001.5714285714286,351.47767857142856,4106.1,1001.5714285714286,351.47767857142856,4207.6,1001.5714285714286,351.47767857142856,4310.8,1001.5714285714286,351.47767857142856,4411.3,1001.5714285714286,351.47767857142856,4511.3,1001.5714285714286,351.47767857142856,4611.5,1001.5714285714286,351.47767857142856,4711.7,1001.5714285714286,351.47767857142856,4812.1,1001.5714285714286,351.47767857142856,4916.7]","[1421.1,1421.1,1000,0,421.1,""oops"",""up"",""up"",""good_move"",4202.5,2781.1,2368.8,1421.4,412.3,""oops"",""right"",""right"",""good_move"",7464.8,3262,2770.4,4202.8,491.6,""oops"",""up"",""right"",""good_move"",13250.4,5785.5,2104.8,10714.8,430.8,""oops"",""up"",""up"",""good_move""]","",""
"4904","","<div style=""width:500px;"">
  <p>What determined the result of this run?</p>
  </div>","63","html-slider-response","83","1717810","0.0-10.0-1.9","102","1","2025-07-09 09:07:57","7701e855f2ef39aa3fd6c71abdc6918a","93.39.140.87","Mozilla/5.0 (Windows NT 10.0; Win64; x64) AppleWebKit/537.36 (KHTML, like Gecko) Chrome/138.0.0.0 Safari/537.36","WebKit","Chrome","138.0.0.0","Windows","10.0","https://app.prolific.com/","it-IT,it;q=0.9,en-US;q=0.8,en;q=0.7","5daae19f8a06b60016d1bc32","686d226cabeef709c732f8e1","686e312457acb241e1f8bc25","5daae19f8a06b60016d1bc32","2025-07-09T09:36:36.653Z","","","","","","AttribQ","","","","","","","","","","","","","","","","","","","","","","","","","","","","","","","","","","","","","","50"
"2793","","<div style=""width:500px;"">
  <p>How much control did you have over the ball?</p>
