"rt","response_timestamp","stimulus","response","trial_type","trial_index","time_elapsed","internal_node_id","run_id","condition","recorded_at","source_code_version","ip","user_agent","device","browser","browser_version","platform","platform_version","referer","accept_language","PROLIFIC_PID","STUDY_ID","SESSION_ID","prolific_id","realtime","view_history","question_order","consent","success","question_id","eventType","responses","item_order","radio_event_ids","radio_event_times","key_event_times","mouse_event_times","straightlining","zigzagging","honeypot","which_type","canvas_config","goals_layout","control_level","trial_number","tutorial_trial_number","trial_start_time","phase1_start_time","phase2_start_time","phase3_start_time","goal_1_value","goal_1_distance","goal_2_value","goal_2_distance","goal_selected","outcome","outcome_total","participant_final_score","participant_initial_score","participant_final_score_prop","goal_choice_rt","allocated_time","allocated_time_remaining","goal_direction","counts","mouse_movements","key_presses","correct","slider_start"
"30952","1752062123626","<p style='font-size:40px;line-height:1.25'><strong>Welcome to the experiment!</strong></p><p style='font-size:1.1em;line-height:1.25'>Thank you for your interest in our experiment! Before you begin, it is important that we obtain your informed consent to participate in the study.</p><p style='font-size:1.1em;line-height:1.25'>On the next screen will be an <strong>information sheet</strong> for you to read. To participate in the study we need you to read this information sheet and the following consent form carefully. If you agree with all the statements, please click the <strong>I agree</strong> button.</p><p style='font-size:1.1em;line-height:1.25'>Press <strong>Next</strong> to read the information sheet.</p>","0","custom-html-button-response","0","30957","0.0-0.0","289","1","2025-07-09 11:54:51","7701e855f2ef39aa3fd6c71abdc6918a","41.113.200.7","Mozilla/5.0 (Windows NT 10.0; Win64; x64) AppleWebKit/537.36 (KHTML, like Gecko) Chrome/138.0.0.0 Safari/537.36 Edg/138.0.0.0","WebKit","Edge","138.0.0.0","Windows","10.0","https://app.prolific.com/","en-GB,en;q=0.9,en-US;q=0.8","6734fa51e57b0c1fa6b0924c","686d226cabeef709c732f8e1","686e58055a9a337078964b5e","6734fa51e57b0c1fa6b0924c","2025-07-09T11:55:23.630Z","","","","","","","","","","","","","","","","","","","","","","","","","","","","","","","","","","","","","","","","","","","",""
"9691","","","","instructions","1","40654","0.0-1.0","289","1","2025-07-09 11:54:51","7701e855f2ef39aa3fd6c71abdc6918a","41.113.200.7","Mozilla/5.0 (Windows NT 10.0; Win64; x64) AppleWebKit/537.36 (KHTML, like Gecko) Chrome/138.0.0.0 Safari/537.36 Edg/138.0.0.0","WebKit","Edge","138.0.0.0","Windows","10.0","https://app.prolific.com/","en-GB,en;q=0.9,en-US;q=0.8","6734fa51e57b0c1fa6b0924c","686d226cabeef709c732f8e1","686e58055a9a337078964b5e","6734fa51e57b0c1fa6b0924c","","[{""page_index"":0,""viewing_time"":5090},{""page_index"":1,""viewing_time"":4600}]","","","","","","","","","","","","","","","","","","","","","","","","","","","","","","","","","","","","","","","","","","",""
"10598","","","{""Q0"":"""",""Q1"":"""",""Q2"":"""",""Q3"":"""",""Q4"":"""",""Q5"":"""",""Q6"":""I agree""}","survey-multi-choice","2","51266","0.0-2.0","289","1","2025-07-09 11:54:51","7701e855f2ef39aa3fd6c71abdc6918a","41.113.200.7","Mozilla/5.0 (Windows NT 10.0; Win64; x64) AppleWebKit/537.36 (KHTML, like Gecko) Chrome/138.0.0.0 Safari/537.36 Edg/138.0.0.0","WebKit","Edge","138.0.0.0","Windows","10.0","https://app.prolific.com/","en-GB,en;q=0.9,en-US;q=0.8","6734fa51e57b0c1fa6b0924c","686d226cabeef709c732f8e1","686e58055a9a337078964b5e","6734fa51e57b0c1fa6b0924c","","","[0,1,2,3,4,5,6]","true","","","","","","","","","","","","","","","","","","","","","","","","","","","","","","","","","","","","","","","","",""
"10572","","","","fullscreen","3","62859","0.0-4.0","289","1","2025-07-09 11:54:51","7701e855f2ef39aa3fd6c71abdc6918a","41.113.200.7","Mozilla/5.0 (Windows NT 10.0; Win64; x64) AppleWebKit/537.36 (KHTML, like Gecko) Chrome/138.0.0.0 Safari/537.36 Edg/138.0.0.0","WebKit","Edge","138.0.0.0","Windows","10.0","https://app.prolific.com/","en-GB,en;q=0.9,en-US;q=0.8","6734fa51e57b0c1fa6b0924c","686d226cabeef709c732f8e1","686e58055a9a337078964b5e","6734fa51e57b0c1fa6b0924c","","","","","true","","","","","","","","","","","","","","","","","","","","","","","","","","","","","","","","","","","","","","","",""
"7610","1752062163142"," <p style='font-size:1.1em;line-height:1.25'>Thank you for completing the consent form and closing all other tabs.</p><p style='font-size:1.1em;line-height:1.25'>We will now invite you to fill in some demographic information and questionnaires, before starting the game.<br>This will take about 5 minutes.<br></p><p style='font-size:1.1em;line-height:1.25'>Press the <strong>Next</strong> button to continue.</p>","0","custom-html-button-response","4","70471","0.0-5.0","289","1","2025-07-09 11:54:51","7701e855f2ef39aa3fd6c71abdc6918a","41.113.200.7","Mozilla/5.0 (Windows NT 10.0; Win64; x64) AppleWebKit/537.36 (KHTML, like Gecko) Chrome/138.0.0.0 Safari/537.36 Edg/138.0.0.0","WebKit","Edge","138.0.0.0","Windows","10.0","https://app.prolific.com/","en-GB,en;q=0.9,en-US;q=0.8","6734fa51e57b0c1fa6b0924c","686d226cabeef709c732f8e1","686e58055a9a337078964b5e","6734fa51e57b0c1fa6b0924c","2025-07-09T11:56:03.143Z","","","","","","","","","","","","","","","","","","","","","","","","","","","","","","","","","","","","","","","","","","","",""
"3928","","","{""age"":""23""}","survey-text","5","74409","0.0-6.0-0.0","289","1","2025-07-09 11:54:51","7701e855f2ef39aa3fd6c71abdc6918a","41.113.200.7","Mozilla/5.0 (Windows NT 10.0; Win64; x64) AppleWebKit/537.36 (KHTML, like Gecko) Chrome/138.0.0.0 Safari/537.36 Edg/138.0.0.0","WebKit","Edge","138.0.0.0","Windows","10.0","https://app.prolific.com/","en-GB,en;q=0.9,en-US;q=0.8","6734fa51e57b0c1fa6b0924c","686d226cabeef709c732f8e1","686e58055a9a337078964b5e","6734fa51e57b0c1fa6b0924c","","","","","","0","demographics","","","","","","","","","","","","","","","","","","","","","","","","","","","","","","","","","","","","","",""
"4383","","","{""gender_identity"":""female/woman""}","survey-multi-choice","6","78794","0.0-6.0-1.0","289","1","2025-07-09 11:54:51","7701e855f2ef39aa3fd6c71abdc6918a","41.113.200.7","Mozilla/5.0 (Windows NT 10.0; Win64; x64) AppleWebKit/537.36 (KHTML, like Gecko) Chrome/138.0.0.0 Safari/537.36 Edg/138.0.0.0","WebKit","Edge","138.0.0.0","Windows","10.0","https://app.prolific.com/","en-GB,en;q=0.9,en-US;q=0.8","6734fa51e57b0c1fa6b0924c","686d226cabeef709c732f8e1","686e58055a9a337078964b5e","6734fa51e57b0c1fa6b0924c","","","[0]","","","1","demographics","","","","","","","","","","","","","","","","","","","","","","","","","","","","","","","","","","","","","",""
"6100","","","{""assigned_sex"":""female""}","survey-multi-choice","7","84897","0.0-6.0-2.0","289","1","2025-07-09 11:54:51","7701e855f2ef39aa3fd6c71abdc6918a","41.113.200.7","Mozilla/5.0 (Windows NT 10.0; Win64; x64) AppleWebKit/537.36 (KHTML, like Gecko) Chrome/138.0.0.0 Safari/537.36 Edg/138.0.0.0","WebKit","Edge","138.0.0.0","Windows","10.0","https://app.prolific.com/","en-GB,en;q=0.9,en-US;q=0.8","6734fa51e57b0c1fa6b0924c","686d226cabeef709c732f8e1","686e58055a9a337078964b5e","6734fa51e57b0c1fa6b0924c","","","[0]","","","2","demographics","","","","","","","","","","","","","","","","","","","","","","","","","","","","","","","","","","","","","",""
"6668","","","{""menstrual_cycle"":""Yes""}","survey-multi-choice","8","91568","0.0-6.0-3.0","289","1","2025-07-09 11:54:51","7701e855f2ef39aa3fd6c71abdc6918a","41.113.200.7","Mozilla/5.0 (Windows NT 10.0; Win64; x64) AppleWebKit/537.36 (KHTML, like Gecko) Chrome/138.0.0.0 Safari/537.36 Edg/138.0.0.0","WebKit","Edge","138.0.0.0","Windows","10.0","https://app.prolific.com/","en-GB,en;q=0.9,en-US;q=0.8","6734fa51e57b0c1fa6b0924c","686d226cabeef709c732f8e1","686e58055a9a337078964b5e","6734fa51e57b0c1fa6b0924c","","","[0]","","","4","demographics","","","","","","","","","","","","","","","","","","","","","","","","","","","","","","","","","","","","","",""
"8050","","","{""education"":""A-level/National Diploma/Highers""}","survey-multi-choice","9","99623","0.0-6.0-4.0","289","1","2025-07-09 11:54:51","7701e855f2ef39aa3fd6c71abdc6918a","41.113.200.7","Mozilla/5.0 (Windows NT 10.0; Win64; x64) AppleWebKit/537.36 (KHTML, like Gecko) Chrome/138.0.0.0 Safari/537.36 Edg/138.0.0.0","WebKit","Edge","138.0.0.0","Windows","10.0","https://app.prolific.com/","en-GB,en;q=0.9,en-US;q=0.8","6734fa51e57b0c1fa6b0924c","686d226cabeef709c732f8e1","686e58055a9a337078964b5e","6734fa51e57b0c1fa6b0924c","","","[0]","","","5","demographics","","","","","","","","","","","","","","","","","","","","","","","","","","","","","","","","","","","","","",""
"8308","","","{""education"":""A-level/National Diploma/Highers""}","survey-multi-choice","10","107932","0.0-6.0-5.0","289","1","2025-07-09 11:54:51","7701e855f2ef39aa3fd6c71abdc6918a","41.113.200.7","Mozilla/5.0 (Windows NT 10.0; Win64; x64) AppleWebKit/537.36 (KHTML, like Gecko) Chrome/138.0.0.0 Safari/537.36 Edg/138.0.0.0","WebKit","Edge","138.0.0.0","Windows","10.0","https://app.prolific.com/","en-GB,en;q=0.9,en-US;q=0.8","6734fa51e57b0c1fa6b0924c","686d226cabeef709c732f8e1","686e58055a9a337078964b5e","6734fa51e57b0c1fa6b0924c","2025-07-09T11:56:40.604Z","","[0]","","","6","demographics","","","","","","","","","","","","","","","","","","","","","","","","","","","","","","","","","","","","","",""
"17645","","","{""mental_health_condition"":""no"",""mental_health_treatment"":""no"",""psychiatric_medication"":""no""}","survey-text","11","125581","0.0-7.0-0.0","289","1","2025-07-09 11:54:51","7701e855f2ef39aa3fd6c71abdc6918a","41.113.200.7","Mozilla/5.0 (Windows NT 10.0; Win64; x64) AppleWebKit/537.36 (KHTML, like Gecko) Chrome/138.0.0.0 Safari/537.36 Edg/138.0.0.0","WebKit","Edge","138.0.0.0","Windows","10.0","https://app.prolific.com/","en-GB,en;q=0.9,en-US;q=0.8","6734fa51e57b0c1fa6b0924c","686d226cabeef709c732f8e1","686e58055a9a337078964b5e","6734fa51e57b0c1fa6b0924c","2025-07-09T11:56:58.253Z","","","","","1","mental_health","","","","","","","","","","","","","","","","","","","","","","","","","","","","","","","","","","","","","",""
"11150","","","{""depression_history"":[""No""]}","survey-multi-select","12","136736","0.0-7.0-1.0","289","1","2025-07-09 11:54:51","7701e855f2ef39aa3fd6c71abdc6918a","41.113.200.7","Mozilla/5.0 (Windows NT 10.0; Win64; x64) AppleWebKit/537.36 (KHTML, like Gecko) Chrome/138.0.0.0 Safari/537.36 Edg/138.0.0.0","WebKit","Edge","138.0.0.0","Windows","10.0","https://app.prolific.com/","en-GB,en;q=0.9,en-US;q=0.8","6734fa51e57b0c1fa6b0924c","686d226cabeef709c732f8e1","686e58055a9a337078964b5e","6734fa51e57b0c1fa6b0924c","","","[0]","","","","mental_health","","","","","","","","","","","","","","","","","","","","","","","","","","","","","","","","","","","","","",""
"83715.30000001192","","","","survey-template","13","220455","0.0-7.0-3.0","289","1","2025-07-09 11:54:51","7701e855f2ef39aa3fd6c71abdc6918a","41.113.200.7","Mozilla/5.0 (Windows NT 10.0; Win64; x64) AppleWebKit/537.36 (KHTML, like Gecko) Chrome/138.0.0.0 Safari/537.36 Edg/138.0.0.0","WebKit","Edge","138.0.0.0","Windows","10.0","https://app.prolific.com/","en-GB,en;q=0.9,en-US;q=0.8","6734fa51e57b0c1fa6b0924c","686d226cabeef709c732f8e1","686e58055a9a337078964b5e","6734fa51e57b0c1fa6b0924c","2025-07-09T11:58:33.127Z","","","","","","ius","{""Q01"":""1"",""Q02"":""3"",""Q03"":""2"",""Q04"":""3"",""Q05"":""2"",""Q06"":""2"",""Q07"":""3"",""Q08"":""0"",""Q09"":""1"",""Q10"":""4"",""Q11"":""2"",""Q12"":""2"",""Q13"":""2""}","[0,1,2,3,4,5,6,7,8,9,10,11,12]","[""Q01"",""Q03"",""Q02"",""Q04"",""Q05"",""Q06"",""Q07"",""Q08"",""Q09"",""Q10"",""Q11"",""Q12"",""Q13""]","[5659.700000017881,11796.40000000596,20431.40000000596,29069,35627.30000001192,41433.70000001788,45208.90000000596,53044.60000002384,64151.70000001788,66985.30000001192,70707.30000001192,79063.30000001192,82011.30000001192]","[]","[5659.700000017881,11796.40000000596,13348.300000011921,20431.40000000596,29069,34455.70000001788,35627.30000001192,41433.70000001788,45208.90000000596,53044.60000002384,62119.5,64151.70000001788,66985.30000001192,70707.30000001192,75439.5,77951.60000002384,79063.30000001192,82011.30000001192,83712.60000002384]","0.46153846153846156","0.4166666666666667","0","","","","","","","","","","","","","","","","","","","","","","","","","","","","",""
"4965","1752062318093","<p style='font-size:1.1em;line-height:1.25'>In the following, we will ask you a few questions relating to your experiences over the past month.<br></p><p style='font-size:1.1em;line-height:1.25'>Press the <strong>Next</strong> button to continue.</p>","0","custom-html-button-response","14","225422","0.0-7.0-4.0","289","1","2025-07-09 11:54:51","7701e855f2ef39aa3fd6c71abdc6918a","41.113.200.7","Mozilla/5.0 (Windows NT 10.0; Win64; x64) AppleWebKit/537.36 (KHTML, like Gecko) Chrome/138.0.0.0 Safari/537.36 Edg/138.0.0.0","WebKit","Edge","138.0.0.0","Windows","10.0","https://app.prolific.com/","en-GB,en;q=0.9,en-US;q=0.8","6734fa51e57b0c1fa6b0924c","686d226cabeef709c732f8e1","686e58055a9a337078964b5e","6734fa51e57b0c1fa6b0924c","2025-07-09T11:58:38.094Z","","","","","","","","","","","","","","","","","","","","","","","","","","","","","","","","","","","","","","","","","","","",""
"71341.79999998212","","","","survey-template","15","296775","0.0-7.0-5.0","289","1","2025-07-09 11:54:51","7701e855f2ef39aa3fd6c71abdc6918a","41.113.200.7","Mozilla/5.0 (Windows NT 10.0; Win64; x64) AppleWebKit/537.36 (KHTML, like Gecko) Chrome/138.0.0.0 Safari/537.36 Edg/138.0.0.0","WebKit","Edge","138.0.0.0","Windows","10.0","https://app.prolific.com/","en-GB,en;q=0.9,en-US;q=0.8","6734fa51e57b0c1fa6b0924c","686d226cabeef709c732f8e1","686e58055a9a337078964b5e","6734fa51e57b0c1fa6b0924c","2025-07-09T11:59:49.447Z","","","","","","pss","{""Q01"":""2"",""Q02"":""3"",""Q03"":""4"",""Q04"":""2"",""Q05"":""1"",""Q06"":""2"",""Q07"":""2"",""Q08"":""1"",""Q09"":""2"",""Q10"":""4""}","[0,1,2,3,4,5,6,7,8,9]","[""Q01"",""Q02"",""Q03"",""Q04"",""Q05"",""Q06"",""Q07"",""Q08"",""Q09"",""Q10""]","[7087.5,10736.299999982119,16352.199999988079,22003.40000000596,28479.19999998808,37702.19999998808,50168.19999998808,58323.19999998808,65560.29999998212,69684.19999998808]","[]","[0.09999999403953552,7087.5,10736.299999982119,14882.40000000596,16352.199999988079,22003.40000000596,28479.19999998808,35269.40000000596,37702.19999998808,50168.19999998808,50375.5,55434.29999998212,57416.5,58323.19999998808,65560.29999998212,68736.29999998212,69684.19999998808,71338.29999998212]","0.5","0.6666666666666666","0","","","","","","","","","","","","","","","","","","","","","","","","","","","","",""
"2364","1752062391824","<p style='font-size:1.1em;line-height:1.25'>Thank you for your answers! Now we will ask you a few more questions relating to your feelings in the last 24 hours.<br></p><p style='font-size:1.1em;line-height:1.25'>Press the <strong>Next</strong> button to continue.</p>","0","custom-html-button-response","16","299153","0.0-7.0-6.0","289","1","2025-07-09 11:54:51","7701e855f2ef39aa3fd6c71abdc6918a","41.113.200.7","Mozilla/5.0 (Windows NT 10.0; Win64; x64) AppleWebKit/537.36 (KHTML, like Gecko) Chrome/138.0.0.0 Safari/537.36 Edg/138.0.0.0","WebKit","Edge","138.0.0.0","Windows","10.0","https://app.prolific.com/","en-GB,en;q=0.9,en-US;q=0.8","6734fa51e57b0c1fa6b0924c","686d226cabeef709c732f8e1","686e58055a9a337078964b5e","6734fa51e57b0c1fa6b0924c","2025-07-09T11:59:51.825Z","","","","","","","","","","","","","","","","","","","","","","","","","","","","","","","","","","","","","","","","","","","",""
"92146.70000001788","","","","survey-template","17","391324","0.0-7.0-7.0","289","1","2025-07-09 11:54:51","7701e855f2ef39aa3fd6c71abdc6918a","41.113.200.7","Mozilla/5.0 (Windows NT 10.0; Win64; x64) AppleWebKit/537.36 (KHTML, like Gecko) Chrome/138.0.0.0 Safari/537.36 Edg/138.0.0.0","WebKit","Edge","138.0.0.0","Windows","10.0","https://app.prolific.com/","en-GB,en;q=0.9,en-US;q=0.8","6734fa51e57b0c1fa6b0924c","686d226cabeef709c732f8e1","686e58055a9a337078964b5e","6734fa51e57b0c1fa6b0924c","2025-07-09T12:01:23.996Z","","","","","","drsp","{""Q01"":""1"",""Q02"":""3"",""Q03"":""1"",""Q04"":""5"",""Q05"":""4"",""Q06"":""4"",""Q07"":""4"",""Q08"":""3"",""Q09"":""2"",""Q10"":""2"",""Q11"":""3"",""Q12"":""5"",""Q13"":""5"",""Q14"":""3"",""Q15"":""3"",""Q16"":""3"",""Q17"":""2"",""Q18"":""0"",""Q19"":""3"",""Q20"":""3"",""Q21"":""3""}","[0,1,2,3,4,5,6,7,8,9,10,11,12,13,14,15,16,17,18,19,20]","[""Q01"",""Q02"",""Q03"",""Q04"",""Q05"",""Q06"",""Q07"",""Q08"",""Q09"",""Q09"",""Q10"",""Q11"",""Q12"",""Q13"",""Q15"",""Q14"",""Q16"",""Q17"",""Q18"",""Q19"",""Q20"",""Q21""]","[7936.300000011921,9761.200000017881,14779.200000017881,18101.5,20881.40000000596,23595,29773.100000023842,31411.80000001192,34444.60000002384,35235.30000001192,36890.10000002384,40184.5,43548,46353,57740.10000002384,59469.70000001788,65574.60000002384,70622.60000002384,76085.70000001788,85185.80000001192,87973.90000000596,90418.40000000596]","[]","[0.10000002384185791,6721.700000017881,7936.300000011921,9761.200000017881,13299.40000000596,14779.200000017881,18101.5,20881.40000000596,23595,25278.100000023842,27632.30000001192,28708.5,29773.100000023842,31411.80000001192,34444.60000002384,35235.30000001192,36890.10000002384,40184.5,43548,46353,51348.40000000596,57306.60000002384,57740.10000002384,59469.70000001788,65574.60000002384,68398.70000001788,70622.60000002384,76085.70000001788,83090.70000001788,85185.80000001192,87973.90000000596,90418.40000000596,92142.90000000596]","0.42857142857142855","0.25","0","","","","","","","","","","","","","","","","","","","","","","","","","","","","",""
"17050.19999998808","","","","survey-template","18","408376","0.0-7.0-8.0","289","1","2025-07-09 11:54:51","7701e855f2ef39aa3fd6c71abdc6918a","41.113.200.7","Mozilla/5.0 (Windows NT 10.0; Win64; x64) AppleWebKit/537.36 (KHTML, like Gecko) Chrome/138.0.0.0 Safari/537.36 Edg/138.0.0.0","WebKit","Edge","138.0.0.0","Windows","10.0","https://app.prolific.com/","en-GB,en;q=0.9,en-US;q=0.8","6734fa51e57b0c1fa6b0924c","686d226cabeef709c732f8e1","686e58055a9a337078964b5e","6734fa51e57b0c1fa6b0924c","2025-07-09T12:01:41.048Z","","","","","","stress","{""Q01"":""4"",""Q02"":""2"",""Q03"":""1""}","[0,1,2]","[""Q01"",""Q02"",""Q03""]","[7343.799999982119,10073.799999982119,15690.299999982119]","[]","[7343.799999982119,10073.799999982119,15690.299999982119,17049.399999976158]","0.3333333333333333","0.5","0","","","","","","","","","","","","","","","","","","","","","","","","","","","","",""
"100014","","","","instructions","19","508392","0.0-8.0-0.0","289","1","2025-07-09 11:54:51","7701e855f2ef39aa3fd6c71abdc6918a","41.113.200.7","Mozilla/5.0 (Windows NT 10.0; Win64; x64) AppleWebKit/537.36 (KHTML, like Gecko) Chrome/138.0.0.0 Safari/537.36 Edg/138.0.0.0","WebKit","Edge","138.0.0.0","Windows","10.0","https://app.prolific.com/","en-GB,en;q=0.9,en-US;q=0.8","6734fa51e57b0c1fa6b0924c","686d226cabeef709c732f8e1","686e58055a9a337078964b5e","6734fa51e57b0c1fa6b0924c","","[{""page_index"":0,""viewing_time"":16061},{""page_index"":1,""viewing_time"":15019},{""page_index"":2,""viewing_time"":18643},{""page_index"":3,""viewing_time"":5431},{""page_index"":2,""viewing_time"":664},{""page_index"":1,""viewing_time"":650},{""page_index"":0,""viewing_time"":18458},{""page_index"":1,""viewing_time"":7375},{""page_index"":2,""viewing_time"":2209},{""page_index"":3,""viewing_time"":15506}]","","","","","","","","","","","","","","","","","","","","","","","","","","","","","","","","","","","","","","","","","","",""
"","","","","ctl-task-cpt","20","526760","0.0-8.0-1.0","289","1","2025-07-09 11:54:51","7701e855f2ef39aa3fd6c71abdc6918a","41.113.200.7","Mozilla/5.0 (Windows NT 10.0; Win64; x64) AppleWebKit/537.36 (KHTML, like Gecko) Chrome/138.0.0.0 Safari/537.36 Edg/138.0.0.0","WebKit","Edge","138.0.0.0","Windows","10.0","https://app.prolific.com/","en-GB,en;q=0.9,en-US;q=0.8","6734fa51e57b0c1fa6b0924c","686d226cabeef709c732f8e1","686e58055a9a337078964b5e","6734fa51e57b0c1fa6b0924c","","","","","","","","","","","","","","","","","win-only","3","g1:SW,g2:NE","1","0","1","512362.1","5712.7","9717.4","15301.6","2","4","4","6","1","-2","-2","0","0","0","4004.7","4000","-2565","[""down"",""left""]","{""num_key_presses"":0,""num_perfect"":0,""num_errors"":0,""num_randdir"":0,""num_randdir_good_moves"":0,""num_whilered"":0,""num_whileblue"":0,""num_blue"":0,""num_good_moves"":0}","[406.5714133126395,421.57142761775424,3.2,406.5714133126395,421.57142761775424,104.5,406.5714133126395,421.57142761775424,209.5,406.5714133126395,421.57142761775424,314.2,406.5714133126395,421.57142761775424,414.6,406.5714133126395,421.57142761775424,516.1,406.5714133126395,421.57142761775424,620.4,406.5714133126395,421.57142761775424,726.4,406.5714133126395,421.57142761775424,830.2,406.5714133126395,421.57142761775424,930.3,406.5714133126395,421.57142761775424,1030.8,406.5714133126395,421.57142761775424,1134,406.5714133126395,421.57142761775424,1237,406.5714133126395,421.57142761775424,1349.4,406.5714133126395,421.57142761775424,1449.7,406.5714133126395,421.57142761775424,1549.8,406.5714133126395,421.57142761775424,1653.9,406.5714133126395,421.57142761775424,1754.8,406.5714133126395,421.57142761775424,1858.3,406.5714133126395,421.57142761775424,1959.8,406.5714133126395,421.57142761775424,2064.5,406.5714133126395,421.57142761775424,2164.7,406.5714133126395,421.57142761775424,2271,406.5714133126395,421.57142761775424,2371.1,406.5714133126395,421.57142761775424,2471.5,406.5714133126395,421.57142761775424,2574.9,406.5714133126395,421.57142761775424,2679.2,406.5714133126395,421.57142761775424,2779.3,406.5714133126395,421.57142761775424,2879.3,401.5714133126395,425.32142761775424,2984,327.8214133126395,456.57142761775424,3085.3,321.5714133126395,456.57142761775424,3193.5,319.0714133126395,471.57142761775424,3294.4,319.0714133126395,471.57142761775424,3394.9,319.0714133126395,471.57142761775424,3494.9,319.0714133126395,471.57142761775424,3599.4,319.0714133126395,471.57142761775424,3699.7,319.0714133126395,471.57142761775424,3803.9,319.0714133126395,471.57142761775424,3904.2]","[]","",""
"1781","","","","instructions","21","528542","0.0-8.0-2.0","289","1","2025-07-09 11:54:51","7701e855f2ef39aa3fd6c71abdc6918a","41.113.200.7","Mozilla/5.0 (Windows NT 10.0; Win64; x64) AppleWebKit/537.36 (KHTML, like Gecko) Chrome/138.0.0.0 Safari/537.36 Edg/138.0.0.0","WebKit","Edge","138.0.0.0","Windows","10.0","https://app.prolific.com/","en-GB,en;q=0.9,en-US;q=0.8","6734fa51e57b0c1fa6b0924c","686d226cabeef709c732f8e1","686e58055a9a337078964b5e","6734fa51e57b0c1fa6b0924c","","[{""page_index"":0,""viewing_time"":1780}]","","","","","","","","","","","","","","","","","","","","","","","","","","","","","","","","","","","","","","","","","","",""
"","","","","ctl-task-cpt","22","547220","0.0-8.0-3.0","289","1","2025-07-09 11:54:51","7701e855f2ef39aa3fd6c71abdc6918a","41.113.200.7","Mozilla/5.0 (Windows NT 10.0; Win64; x64) AppleWebKit/537.36 (KHTML, like Gecko) Chrome/138.0.0.0 Safari/537.36 Edg/138.0.0.0","WebKit","Edge","138.0.0.0","Windows","10.0","https://app.prolific.com/","en-GB,en;q=0.9,en-US;q=0.8","6734fa51e57b0c1fa6b0924c","686d226cabeef709c732f8e1","686e58055a9a337078964b5e","6734fa51e57b0c1fa6b0924c","","","","","","","","","","","","","","","","","win-only","3","g1:SW,g2:NE","0.35","0","3","532456.5","2015.1","6016.2","15657.4","2","4","8","6","2","-8","-8","0","0","0","4001","4000","-2300","[""up"",""right""]","{""num_key_presses"":0,""num_perfect"":0,""num_errors"":0,""num_randdir"":0,""num_randdir_good_moves"":0,""num_whilered"":0,""num_whileblue"":0,""num_blue"":1,""num_good_moves"":0}","[412.8214133126395,419.07142761775424,0.4,412.8214133126395,419.07142761775424,102,412.8214133126395,419.07142761775424,205.6,412.8214133126395,419.07142761775424,306,412.8214133126395,419.07142761775424,411.3,412.8214133126395,419.07142761775424,515.9,412.8214133126395,419.07142761775424,616.1,324.0714133126395,477.82142761775424,723.6,285.3214133126395,514.0714276177542,831.3,279.0714133126395,517.8214276177542,937.3,279.0714133126395,517.8214276177542,1037.3,326.5714133126395,506.57142761775424,1138.3,334.0714133126395,501.57142761775424,1241.3,336.5714133126395,497.82142761775424,1342.4,341.5714133126395,486.57142761775424,1446.2,342.8214133126395,482.82142761775424,1547.2,342.8214133126395,481.57142761775424,1650.7,342.8214133126395,481.57142761775424,1751.1,342.8214133126395,481.57142761775424,1852.3,342.8214133126395,481.57142761775424,1956.8,342.8214133126395,481.57142761775424,2057.8,342.8214133126395,481.57142761775424,2161,342.8214133126395,481.57142761775424,2266.2,342.8214133126395,481.57142761775424,2366.4,342.8214133126395,481.57142761775424,2471.9,342.8214133126395,481.57142761775424,2576.5,342.8214133126395,481.57142761775424,2681.8,342.8214133126395,481.57142761775424,2788.9,342.8214133126395,481.57142761775424,2890.2,342.8214133126395,481.57142761775424,2997,342.8214133126395,481.57142761775424,3107.2,342.8214133126395,481.57142761775424,3210.7,342.8214133126395,481.57142761775424,3313.8,342.8214133126395,481.57142761775424,3417,342.8214133126395,481.57142761775424,3520.5,342.8214133126395,481.57142761775424,3620.8,342.8214133126395,481.57142761775424,3721,342.8214133126395,481.57142761775424,3824.9,342.8214133126395,481.57142761775424,3925.9]","[]","",""
"56588","","","","instructions","23","603809","0.0-8.0-4.0","289","1","2025-07-09 11:54:51","7701e855f2ef39aa3fd6c71abdc6918a","41.113.200.7","Mozilla/5.0 (Windows NT 10.0; Win64; x64) AppleWebKit/537.36 (KHTML, like Gecko) Chrome/138.0.0.0 Safari/537.36 Edg/138.0.0.0","WebKit","Edge","138.0.0.0","Windows","10.0","https://app.prolific.com/","en-GB,en;q=0.9,en-US;q=0.8","6734fa51e57b0c1fa6b0924c","686d226cabeef709c732f8e1","686e58055a9a337078964b5e","6734fa51e57b0c1fa6b0924c","","[{""page_index"":0,""viewing_time"":18373},{""page_index"":1,""viewing_time"":38207}]","","","","","","","","","","","","","","","","","","","","","","","","","","","","","","","","","","","","","","","","","","",""
"9882","","","{""green_ball"":[""Ball doesn‘t move and I get -1 penalty point""]}","survey-multi-select","24","613713","0.0-8.0-5.0-0.0","289","1","2025-07-09 11:54:51","7701e855f2ef39aa3fd6c71abdc6918a","41.113.200.7","Mozilla/5.0 (Windows NT 10.0; Win64; x64) AppleWebKit/537.36 (KHTML, like Gecko) Chrome/138.0.0.0 Safari/537.36 Edg/138.0.0.0","WebKit","Edge","138.0.0.0","Windows","10.0","https://app.prolific.com/","en-GB,en;q=0.9,en-US;q=0.8","6734fa51e57b0c1fa6b0924c","686d226cabeef709c732f8e1","686e58055a9a337078964b5e","6734fa51e57b0c1fa6b0924c","","","[0]","","","","quiz","","","","","","","","","","","","","","","","","","","","","","","","","","","","","","","","","","","","","false",""
"7142","","<p align='center'><b>INCORRECT.</b> Usually the green ball moves in the indicated direction, but sometimes it shakes and moves randomly. </p>","0","html-button-response","25","620864","0.0-8.0-5.0-1.0","289","1","2025-07-09 11:54:51","7701e855f2ef39aa3fd6c71abdc6918a","41.113.200.7","Mozilla/5.0 (Windows NT 10.0; Win64; x64) AppleWebKit/537.36 (KHTML, like Gecko) Chrome/138.0.0.0 Safari/537.36 Edg/138.0.0.0","WebKit","Edge","138.0.0.0","Windows","10.0","https://app.prolific.com/","en-GB,en;q=0.9,en-US;q=0.8","6734fa51e57b0c1fa6b0924c","686d226cabeef709c732f8e1","686e58055a9a337078964b5e","6734fa51e57b0c1fa6b0924c","","","","","","","","","","","","","","","","","","","","","","","","","","","","","","","","","","","","","","","","","","","","",""
"9371","","","{""green_ball"":[""Ball always moves in the direction I press""]}","survey-multi-select","26","630240","0.0-8.0-5.1-0.1","289","1","2025-07-09 11:54:51","7701e855f2ef39aa3fd6c71abdc6918a","41.113.200.7","Mozilla/5.0 (Windows NT 10.0; Win64; x64) AppleWebKit/537.36 (KHTML, like Gecko) Chrome/138.0.0.0 Safari/537.36 Edg/138.0.0.0","WebKit","Edge","138.0.0.0","Windows","10.0","https://app.prolific.com/","en-GB,en;q=0.9,en-US;q=0.8","6734fa51e57b0c1fa6b0924c","686d226cabeef709c732f8e1","686e58055a9a337078964b5e","6734fa51e57b0c1fa6b0924c","","","[0]","","","","quiz","","","","","","","","","","","","","","","","","","","","","","","","","","","","","","","","","","","","","false",""
"4595","","<p align='center'><b>INCORRECT.</b> Usually the green ball moves in the indicated direction, but sometimes it shakes and moves randomly. </p>","0","html-button-response","27","634839","0.0-8.0-5.1-1.1","289","1","2025-07-09 11:54:51","7701e855f2ef39aa3fd6c71abdc6918a","41.113.200.7","Mozilla/5.0 (Windows NT 10.0; Win64; x64) AppleWebKit/537.36 (KHTML, like Gecko) Chrome/138.0.0.0 Safari/537.36 Edg/138.0.0.0","WebKit","Edge","138.0.0.0","Windows","10.0","https://app.prolific.com/","en-GB,en;q=0.9,en-US;q=0.8","6734fa51e57b0c1fa6b0924c","686d226cabeef709c732f8e1","686e58055a9a337078964b5e","6734fa51e57b0c1fa6b0924c","","","","","","","","","","","","","","","","","","","","","","","","","","","","","","","","","","","","","","","","","","","","",""
"15410","","","{""green_ball"":[""Ball sometimes shakes and moves in a random direction""]}","survey-multi-select","28","650256","0.0-8.0-5.2-0.2","289","1","2025-07-09 11:54:51","7701e855f2ef39aa3fd6c71abdc6918a","41.113.200.7","Mozilla/5.0 (Windows NT 10.0; Win64; x64) AppleWebKit/537.36 (KHTML, like Gecko) Chrome/138.0.0.0 Safari/537.36 Edg/138.0.0.0","WebKit","Edge","138.0.0.0","Windows","10.0","https://app.prolific.com/","en-GB,en;q=0.9,en-US;q=0.8","6734fa51e57b0c1fa6b0924c","686d226cabeef709c732f8e1","686e58055a9a337078964b5e","6734fa51e57b0c1fa6b0924c","","","[0]","","","","quiz","","","","","","","","","","","","","","","","","","","","","","","","","","","","","","","","","","","","","true",""
"3543","","<p align='center'><b>CORRECT!</b> Indeed, the green ball may sometimes shake and move in a random direction.</p>","0","html-button-response","29","653802","0.0-8.0-5.2-1.2","289","1","2025-07-09 11:54:51","7701e855f2ef39aa3fd6c71abdc6918a","41.113.200.7","Mozilla/5.0 (Windows NT 10.0; Win64; x64) AppleWebKit/537.36 (KHTML, like Gecko) Chrome/138.0.0.0 Safari/537.36 Edg/138.0.0.0","WebKit","Edge","138.0.0.0","Windows","10.0","https://app.prolific.com/","en-GB,en;q=0.9,en-US;q=0.8","6734fa51e57b0c1fa6b0924c","686d226cabeef709c732f8e1","686e58055a9a337078964b5e","6734fa51e57b0c1fa6b0924c","","","","","","","","","","","","","","","","","","","","","","","","","","","","","","","","","","","","","","","","","","","","",""
"11152","","","{""yellow_ball"":[""Ball doesn‘t move and I get -1 penalty point""]}","survey-multi-select","30","664964","0.0-8.0-6.0-0.0","289","1","2025-07-09 11:54:51","7701e855f2ef39aa3fd6c71abdc6918a","41.113.200.7","Mozilla/5.0 (Windows NT 10.0; Win64; x64) AppleWebKit/537.36 (KHTML, like Gecko) Chrome/138.0.0.0 Safari/537.36 Edg/138.0.0.0","WebKit","Edge","138.0.0.0","Windows","10.0","https://app.prolific.com/","en-GB,en;q=0.9,en-US;q=0.8","6734fa51e57b0c1fa6b0924c","686d226cabeef709c732f8e1","686e58055a9a337078964b5e","6734fa51e57b0c1fa6b0924c","","","[0]","","","","quiz","","","","","","","","","","","","","","","","","","","","","","","","","","","","","","","","","","","","","true",""
"2599","","<p align='center'><b>CORRECT!</b> Indeed, the yellow ball never moves and you receive a penalty.</p>","0","html-button-response","31","667565","0.0-8.0-6.0-1.0","289","1","2025-07-09 11:54:51","7701e855f2ef39aa3fd6c71abdc6918a","41.113.200.7","Mozilla/5.0 (Windows NT 10.0; Win64; x64) AppleWebKit/537.36 (KHTML, like Gecko) Chrome/138.0.0.0 Safari/537.36 Edg/138.0.0.0","WebKit","Edge","138.0.0.0","Windows","10.0","https://app.prolific.com/","en-GB,en;q=0.9,en-US;q=0.8","6734fa51e57b0c1fa6b0924c","686d226cabeef709c732f8e1","686e58055a9a337078964b5e","6734fa51e57b0c1fa6b0924c","","","","","","","","","","","","","","","","","","","","","","","","","","","","","","","","","","","","","","","","","","","","",""
"7215","","","{""blue_ball"":[""Ball always shakes and moves in a random direction""]}","survey-multi-select","32","674784","0.0-8.0-7.0-0.0","289","1","2025-07-09 11:54:51","7701e855f2ef39aa3fd6c71abdc6918a","41.113.200.7","Mozilla/5.0 (Windows NT 10.0; Win64; x64) AppleWebKit/537.36 (KHTML, like Gecko) Chrome/138.0.0.0 Safari/537.36 Edg/138.0.0.0","WebKit","Edge","138.0.0.0","Windows","10.0","https://app.prolific.com/","en-GB,en;q=0.9,en-US;q=0.8","6734fa51e57b0c1fa6b0924c","686d226cabeef709c732f8e1","686e58055a9a337078964b5e","6734fa51e57b0c1fa6b0924c","","","[0]","","","","quiz","","","","","","","","","","","","","","","","","","","","","","","","","","","","","","","","","","","","","true",""
"3281","","<p align='center'><b>CORRECT!</b> Indeed, the blue ball always shakes and moves in a random direction. Also there is a penalty of -1 point.</p>","0","html-button-response","33","678069","0.0-8.0-7.0-1.0","289","1","2025-07-09 11:54:51","7701e855f2ef39aa3fd6c71abdc6918a","41.113.200.7","Mozilla/5.0 (Windows NT 10.0; Win64; x64) AppleWebKit/537.36 (KHTML, like Gecko) Chrome/138.0.0.0 Safari/537.36 Edg/138.0.0.0","WebKit","Edge","138.0.0.0","Windows","10.0","https://app.prolific.com/","en-GB,en;q=0.9,en-US;q=0.8","6734fa51e57b0c1fa6b0924c","686d226cabeef709c732f8e1","686e58055a9a337078964b5e","6734fa51e57b0c1fa6b0924c","","","","","","","","","","","","","","","","","","","","","","","","","","","","","","","","","","","","","","","","","","","","",""
"7545","","","{""bonus"":[""When I reach 50% of points""]}","survey-multi-select","34","685618","0.0-8.0-8.0-0.0","289","1","2025-07-09 11:54:51","7701e855f2ef39aa3fd6c71abdc6918a","41.113.200.7","Mozilla/5.0 (Windows NT 10.0; Win64; x64) AppleWebKit/537.36 (KHTML, like Gecko) Chrome/138.0.0.0 Safari/537.36 Edg/138.0.0.0","WebKit","Edge","138.0.0.0","Windows","10.0","https://app.prolific.com/","en-GB,en;q=0.9,en-US;q=0.8","6734fa51e57b0c1fa6b0924c","686d226cabeef709c732f8e1","686e58055a9a337078964b5e","6734fa51e57b0c1fa6b0924c","","","[0]","","","","quiz","","","","","","","","","","","","","","","","","","","","","","","","","","","","","","","","","","","","","true",""
"2637","","<p align='center'><b>CORRECT!</b> Indeed, you receive 2 pounds extra when you reach 50% of points.</p>","0","html-button-response","35","688258","0.0-8.0-8.0-1.0","289","1","2025-07-09 11:54:51","7701e855f2ef39aa3fd6c71abdc6918a","41.113.200.7","Mozilla/5.0 (Windows NT 10.0; Win64; x64) AppleWebKit/537.36 (KHTML, like Gecko) Chrome/138.0.0.0 Safari/537.36 Edg/138.0.0.0","WebKit","Edge","138.0.0.0","Windows","10.0","https://app.prolific.com/","en-GB,en;q=0.9,en-US;q=0.8","6734fa51e57b0c1fa6b0924c","686d226cabeef709c732f8e1","686e58055a9a337078964b5e","6734fa51e57b0c1fa6b0924c","","","","","","","","","","","","","","","","","","","","","","","","","","","","","","","","","","","","","","","","","","","","",""
"4431","","","","instructions","36","692696","0.0-8.0-9.0","289","1","2025-07-09 11:54:51","7701e855f2ef39aa3fd6c71abdc6918a","41.113.200.7","Mozilla/5.0 (Windows NT 10.0; Win64; x64) AppleWebKit/537.36 (KHTML, like Gecko) Chrome/138.0.0.0 Safari/537.36 Edg/138.0.0.0","WebKit","Edge","138.0.0.0","Windows","10.0","https://app.prolific.com/","en-GB,en;q=0.9,en-US;q=0.8","6734fa51e57b0c1fa6b0924c","686d226cabeef709c732f8e1","686e58055a9a337078964b5e","6734fa51e57b0c1fa6b0924c","","[{""page_index"":0,""viewing_time"":4430}]","","","","","","","","","","","","","","","","","","","","","","","","","","","","","","","","","","","","","","","","","","",""
"13142","","<p>Before you start with this game please answer the following three questions yourself. </p>
  <p>Through this game, we measure several aspects of your cognitive performance, such as reaction times, multi-tasking capabilities </p>
  <p>and the ability to assess the situation you are in.</p>
  <p></p>
  <p><b>How good do you usually are in such tasks?</b></p>","64","html-slider-response","37","705859","0.0-9.0-0.0","289","1","2025-07-09 11:54:51","7701e855f2ef39aa3fd6c71abdc6918a","41.113.200.7","Mozilla/5.0 (Windows NT 10.0; Win64; x64) AppleWebKit/537.36 (KHTML, like Gecko) Chrome/138.0.0.0 Safari/537.36 Edg/138.0.0.0","WebKit","Edge","138.0.0.0","Windows","10.0","https://app.prolific.com/","en-GB,en;q=0.9,en-US;q=0.8","6734fa51e57b0c1fa6b0924c","686d226cabeef709c732f8e1","686e58055a9a337078964b5e","6734fa51e57b0c1fa6b0924c","2025-07-09T12:06:38.531Z","","","","","","PreSkillQ","","","","","","","","","","","","","","","","","","","","","","","","","","","","","","","","","","","","","","50"
"6724","","<div style=""width:500px;"">
  <p>How well do you think you will perform in this task compared to other participants?</p>
  </div>","46","html-slider-response","38","712585","0.0-9.0-1.0","289","1","2025-07-09 11:54:51","7701e855f2ef39aa3fd6c71abdc6918a","41.113.200.7","Mozilla/5.0 (Windows NT 10.0; Win64; x64) AppleWebKit/537.36 (KHTML, like Gecko) Chrome/138.0.0.0 Safari/537.36 Edg/138.0.0.0","WebKit","Edge","138.0.0.0","Windows","10.0","https://app.prolific.com/","en-GB,en;q=0.9,en-US;q=0.8","6734fa51e57b0c1fa6b0924c","686d226cabeef709c732f8e1","686e58055a9a337078964b5e","6734fa51e57b0c1fa6b0924c","2025-07-09T12:06:45.257Z","","","","","","PrePerfQ","","","","","","","","","","","","","","","","","","","","","","","","","","","","","","","","","","","","","","50"
"6441","","<div style=""width:500px;"">
  <p>What best describes how you currently feel?</p>
  </div>","71","html-slider-response","39","719029","0.0-9.0-2.0","289","1","2025-07-09 11:54:51","7701e855f2ef39aa3fd6c71abdc6918a","41.113.200.7","Mozilla/5.0 (Windows NT 10.0; Win64; x64) AppleWebKit/537.36 (KHTML, like Gecko) Chrome/138.0.0.0 Safari/537.36 Edg/138.0.0.0","WebKit","Edge","138.0.0.0","Windows","10.0","https://app.prolific.com/","en-GB,en;q=0.9,en-US;q=0.8","6734fa51e57b0c1fa6b0924c","686d226cabeef709c732f8e1","686e58055a9a337078964b5e","6734fa51e57b0c1fa6b0924c","2025-07-09T12:06:51.701Z","","","","","","PreMotivationQ","","","","","","","","","","","","","","","","","","","","","","","","","","","","","","","","","","","","","","50"
"","","","","ctl-task-cpt","40","748880","0.0-10.0-0.0","289","1","2025-07-09 11:54:51","7701e855f2ef39aa3fd6c71abdc6918a","41.113.200.7","Mozilla/5.0 (Windows NT 10.0; Win64; x64) AppleWebKit/537.36 (KHTML, like Gecko) Chrome/138.0.0.0 Safari/537.36 Edg/138.0.0.0","WebKit","Edge","138.0.0.0","Windows","10.0","https://app.prolific.com/","en-GB,en;q=0.9,en-US;q=0.8","6734fa51e57b0c1fa6b0924c","686d226cabeef709c732f8e1","686e58055a9a337078964b5e","6734fa51e57b0c1fa6b0924c","2025-07-09T12:07:21.552Z","","","","","","","","","","","","","","","","win-only","1","g1:NE,g2:SW","1","1","0","722956.2","7053.9","12060.4","26816.5","1","4","8","6","1","1","-1","0","0","0","5006.5","3000","590","[""up"",""right""]","{""num_key_presses"":7,""num_perfect"":4,""num_errors"":2,""num_randdir"":0,""num_randdir_good_moves"":0,""num_whilered"":1,""num_whileblue"":0,""num_blue"":0,""num_good_moves"":4}","[409.0714133126395,424.07142761775424,0.3,409.0714133126395,424.07142761775424,104.4,409.0714133126395,424.07142761775424,207.4,409.0714133126395,424.07142761775424,320.7,409.0714133126395,424.07142761775424,424.8,409.0714133126395,424.07142761775424,526.9,409.0714133126395,424.07142761775424,627.6,409.0714133126395,424.07142761775424,732.1,409.0714133126395,424.07142761775424,832.1,409.0714133126395,424.07142761775424,933.8,409.0714133126395,424.07142761775424,1037.4,409.0714133126395,424.07142761775424,1138.4,409.0714133126395,424.07142761775424,1253.2,409.0714133126395,424.07142761775424,1357.4,409.0714133126395,424.07142761775424,1460,481.5714133126395,391.57142761775424,1562.2,499.0714133126395,372.82142761775424,1665.3,499.0714133126395,371.57142761775424,1768,497.8214133126395,371.57142761775424,1872.1,497.8214133126395,371.57142761775424,1974.4,497.8214133126395,371.57142761775424,2080,497.8214133126395,371.57142761775424,2181.5,497.8214133126395,371.57142761775424,2282.4,497.8214133126395,371.57142761775424,2400.3,497.8214133126395,371.57142761775424,2501.1,497.8214133126395,371.57142761775424,2602,497.8214133126395,371.57142761775424,2702.3,497.8214133126395,371.57142761775424,2804.2,497.8214133126395,371.57142761775424,2907.2,497.8214133126395,371.57142761775424,3008,497.8214133126395,371.57142761775424,3122.5,497.8214133126395,371.57142761775424,3222.8,497.8214133126395,371.57142761775424,3323.6,497.8214133126395,371.57142761775424,3429,497.8214133126395,371.57142761775424,3534,497.8214133126395,371.57142761775424,3634.6,497.8214133126395,371.57142761775424,3738.4,497.8214133126395,371.57142761775424,3841.6,497.8214133126395,371.57142761775424,3948.1,497.8214133126395,371.57142761775424,4051.4,497.8214133126395,371.57142761775424,4152.3,497.8214133126395,371.57142761775424,4257.5,497.8214133126395,371.57142761775424,4361.2,497.8214133126395,371.57142761775424,4462.2,497.8214133126395,371.57142761775424,4563,497.8214133126395,371.57142761775424,4667.6,497.8214133126395,371.57142761775424,4772.6,497.8214133126395,371.57142761775424,4875.1,497.8214133126395,371.57142761775424,4977.1]","[428.2,428.3,1000,0,-571.7,""error"",""-"",""-"",""no_move"",4375.9,3947.1,2161.8,1430.9,783.2,""smooth"",""up"",""up"",""good_move"",4708.8,332.3,3121,4376.6,-2788.7,""error"",""-"",""-"",""no_move"",4894.4,185.2,3121,4376.6,-2603.2,""while_red"",""-"",""-"",""no_move"",8539.9,3830.7,1794,5710.3,1035.6,""smooth"",""up"",""up"",""good_move"",11609.7,3069.3,2176.9,8540.4,892.4,""smooth"",""right"",""right"",""good_move"",14636,3025.6,2452.4,11610.4,573.2,""smooth"",""right"",""right"",""good_move""]","",""
"7461","","<div style=""width:500px;"">
  <p>What determined the result of this run?</p>
  </div>","53","html-slider-response","41","756350","0.0-10.0-1.0","289","1","2025-07-09 11:54:51","7701e855f2ef39aa3fd6c71abdc6918a","41.113.200.7","Mozilla/5.0 (Windows NT 10.0; Win64; x64) AppleWebKit/537.36 (KHTML, like Gecko) Chrome/138.0.0.0 Safari/537.36 Edg/138.0.0.0","WebKit","Edge","138.0.0.0","Windows","10.0","https://app.prolific.com/","en-GB,en;q=0.9,en-US;q=0.8","6734fa51e57b0c1fa6b0924c","686d226cabeef709c732f8e1","686e58055a9a337078964b5e","6734fa51e57b0c1fa6b0924c","2025-07-09T12:07:29.022Z","","","","","","AttribQ","","","","","","","","","","","","","","","","","","","","","","","","","","","","","","","","","","","","","","50"
"8779","","<div style=""width:500px;"">
  <p>How much control did you have over the ball?</p>
  </div>","57","html-slider-response","42","765131","0.0-10.0-2.0","289","1","2025-07-09 11:54:51","7701e855f2ef39aa3fd6c71abdc6918a","41.113.200.7","Mozilla/5.0 (Windows NT 10.0; Win64; x64) AppleWebKit/537.36 (KHTML, like Gecko) Chrome/138.0.0.0 Safari/537.36 Edg/138.0.0.0","WebKit","Edge","138.0.0.0","Windows","10.0","https://app.prolific.com/","en-GB,en;q=0.9,en-US;q=0.8","6734fa51e57b0c1fa6b0924c","686d226cabeef709c732f8e1","686e58055a9a337078964b5e","6734fa51e57b0c1fa6b0924c","2025-07-09T12:07:37.804Z","","","","","","ControlQ","","","","","","","","","","","","","","","","","","","","","","","","","","","","","","","","","","","","","","50"
"10903","","<div style=""width:500px;"">
  <p>How would you describe your current emotional state?</p>
  </div>","31","html-slider-response","43","776038","0.0-10.0-3.0","289","1","2025-07-09 11:54:51","7701e855f2ef39aa3fd6c71abdc6918a","41.113.200.7","Mozilla/5.0 (Windows NT 10.0; Win64; x64) AppleWebKit/537.36 (KHTML, like Gecko) Chrome/138.0.0.0 Safari/537.36 Edg/138.0.0.0","WebKit","Edge","138.0.0.0","Windows","10.0","https://app.prolific.com/","en-GB,en;q=0.9,en-US;q=0.8","6734fa51e57b0c1fa6b0924c","686d226cabeef709c732f8e1","686e58055a9a337078964b5e","6734fa51e57b0c1fa6b0924c","2025-07-09T12:07:48.710Z","","","","","","StressQ","","","","","","","","","","","","","","","","","","","","","","","","","","","","","","","","","","","","","","50"
"5653","","<div style=""width:500px;"">
  <p>What best describes how you currently feel?</p>
  </div>","66","html-slider-response","44","781693","0.0-10.0-4.0","289","1","2025-07-09 11:54:51","7701e855f2ef39aa3fd6c71abdc6918a","41.113.200.7","Mozilla/5.0 (Windows NT 10.0; Win64; x64) AppleWebKit/537.36 (KHTML, like Gecko) Chrome/138.0.0.0 Safari/537.36 Edg/138.0.0.0","WebKit","Edge","138.0.0.0","Windows","10.0","https://app.prolific.com/","en-GB,en;q=0.9,en-US;q=0.8","6734fa51e57b0c1fa6b0924c","686d226cabeef709c732f8e1","686e58055a9a337078964b5e","6734fa51e57b0c1fa6b0924c","2025-07-09T12:07:54.365Z","","","","","","MotivationQ","","","","","","","","","","","","","","","","","","","","","","","","","","","","","","","","","","","","","","50"
"","","","","ctl-task-cpt","45","807636","0.0-10.0-0.1","289","1","2025-07-09 11:54:51","7701e855f2ef39aa3fd6c71abdc6918a","41.113.200.7","Mozilla/5.0 (Windows NT 10.0; Win64; x64) AppleWebKit/537.36 (KHTML, like Gecko) Chrome/138.0.0.0 Safari/537.36 Edg/138.0.0.0","WebKit","Edge","138.0.0.0","Windows","10.0","https://app.prolific.com/","en-GB,en;q=0.9,en-US;q=0.8","6734fa51e57b0c1fa6b0924c","686d226cabeef709c732f8e1","686e58055a9a337078964b5e","6734fa51e57b0c1fa6b0924c","2025-07-09T12:08:20.309Z","","","","","","","","","","","","","","","","win-only","3","g1:SW,g2:NE","0.9","2","0","785611.5","5464.9","10465.3","22918.3","1","4","4","6","1","1","1","1","0","0.007575757575757576","5000.4","3000","1315","[""down"",""left""]","{""num_key_presses"":4,""num_perfect"":4,""num_errors"":0,""num_randdir"":0,""num_randdir_good_moves"":0,""num_whilered"":0,""num_whileblue"":0,""num_blue"":0,""num_good_moves"":4}","[409.0714133126395,424.07142761775424,0.4,409.0714133126395,424.07142761775424,102.6,409.0714133126395,424.07142761775424,206.4,409.0714133126395,424.07142761775424,306.7,409.0714133126395,424.07142761775424,418.4,409.0714133126395,424.07142761775424,523.8,409.0714133126395,424.07142761775424,626.3,409.0714133126395,424.07142761775424,729.7,409.0714133126395,424.07142761775424,832.6,409.0714133126395,424.07142761775424,932.6,409.0714133126395,424.07142761775424,1036.6,409.0714133126395,424.07142761775424,1153.6,409.0714133126395,424.07142761775424,1269.6,409.0714133126395,424.07142761775424,1371.2,409.0714133126395,424.07142761775424,1481.2,407.8214133126395,424.07142761775424,1584.2,391.5714133126395,441.57142761775424,1699.6,374.0714133126395,466.57142761775424,1815.4,367.8214133126395,482.82142761775424,1932,367.8214133126395,482.82142761775424,2034.1,367.8214133126395,482.82142761775424,2136.5,367.8214133126395,482.82142761775424,2249.5,367.8214133126395,482.82142761775424,2365.3,367.8214133126395,482.82142761775424,2466,367.8214133126395,482.82142761775424,2581.8,367.8214133126395,482.82142761775424,2683.5,367.8214133126395,482.82142761775424,2787.5,367.8214133126395,482.82142761775424,2892.1,367.8214133126395,482.82142761775424,2992.2,367.8214133126395,482.82142761775424,3096.5,367.8214133126395,482.82142761775424,3197.2,367.8214133126395,482.82142761775424,3299.7,367.8214133126395,482.82142761775424,3408.4,367.8214133126395,482.82142761775424,3508.5,367.8214133126395,482.82142761775424,3620.2,367.8214133126395,482.82142761775424,3722.9,367.8214133126395,482.82142761775424,3828.3,367.8214133126395,482.82142761775424,3951.2,367.8214133126395,482.82142761775424,4058.9,367.8214133126395,482.82142761775424,4165.2,367.8214133126395,482.82142761775424,4266.5,367.8214133126395,482.82142761775424,4374.1,367.8214133126395,482.82142761775424,4475.3,367.8214133126395,482.82142761775424,4577.5,367.8214133126395,482.82142761775424,4683.1,367.8214133126395,482.82142761775424,4784.1,367.8214133126395,482.82142761775424,4893.7]","[1939,1939,1000,0,939,""smooth"",""down"",""down"",""good_move"",5120.5,3180.8,2526.2,1939.8,654.5,""smooth"",""down"",""down"",""good_move"",8817.6,3696.8,3073.5,5120.8,623.3,""smooth"",""left"",""left"",""good_move"",12309.9,3491.7,2904.6,8818.2,587.1,""smooth"",""left"",""left"",""good_move""]","",""
"6136","","<div style=""width:500px;"">
  <p>What determined the result of this run?</p>
  </div>","86","html-slider-response","46","813775","0.0-10.0-1.1","289","1","2025-07-09 11:54:51","7701e855f2ef39aa3fd6c71abdc6918a","41.113.200.7","Mozilla/5.0 (Windows NT 10.0; Win64; x64) AppleWebKit/537.36 (KHTML, like Gecko) Chrome/138.0.0.0 Safari/537.36 Edg/138.0.0.0","WebKit","Edge","138.0.0.0","Windows","10.0","https://app.prolific.com/","en-GB,en;q=0.9,en-US;q=0.8","6734fa51e57b0c1fa6b0924c","686d226cabeef709c732f8e1","686e58055a9a337078964b5e","6734fa51e57b0c1fa6b0924c","2025-07-09T12:08:26.447Z","","","","","","AttribQ","","","","","","","","","","","","","","","","","","","","","","","","","","","","","","","","","","","","","","50"
"4811","","<div style=""width:500px;"">
  <p>How much control did you have over the ball?</p>
  </div>","88","html-slider-response","47","818587","0.0-10.0-2.1","289","1","2025-07-09 11:54:51","7701e855f2ef39aa3fd6c71abdc6918a","41.113.200.7","Mozilla/5.0 (Windows NT 10.0; Win64; x64) AppleWebKit/537.36 (KHTML, like Gecko) Chrome/138.0.0.0 Safari/537.36 Edg/138.0.0.0","WebKit","Edge","138.0.0.0","Windows","10.0","https://app.prolific.com/","en-GB,en;q=0.9,en-US;q=0.8","6734fa51e57b0c1fa6b0924c","686d226cabeef709c732f8e1","686e58055a9a337078964b5e","6734fa51e57b0c1fa6b0924c","2025-07-09T12:08:31.260Z","","","","","","ControlQ","","","","","","","","","","","","","","","","","","","","","","","","","","","","","","","","","","","","","","50"
"7136","","<div style=""width:500px;"">
  <p>How would you describe your current emotional state?</p>
  </div>","20","html-slider-response","48","825725","0.0-10.0-3.1","289","1","2025-07-09 11:54:51","7701e855f2ef39aa3fd6c71abdc6918a","41.113.200.7","Mozilla/5.0 (Windows NT 10.0; Win64; x64) AppleWebKit/537.36 (KHTML, like Gecko) Chrome/138.0.0.0 Safari/537.36 Edg/138.0.0.0","WebKit","Edge","138.0.0.0","Windows","10.0","https://app.prolific.com/","en-GB,en;q=0.9,en-US;q=0.8","6734fa51e57b0c1fa6b0924c","686d226cabeef709c732f8e1","686e58055a9a337078964b5e","6734fa51e57b0c1fa6b0924c","2025-07-09T12:08:38.397Z","","","","","","StressQ","","","","","","","","","","","","","","","","","","","","","","","","","","","","","","","","","","","","","","50"
"10758","","<div style=""width:500px;"">
  <p>What best describes how you currently feel?</p>
  </div>","79","html-slider-response","49","836484","0.0-10.0-4.1","289","1","2025-07-09 11:54:51","7701e855f2ef39aa3fd6c71abdc6918a","41.113.200.7","Mozilla/5.0 (Windows NT 10.0; Win64; x64) AppleWebKit/537.36 (KHTML, like Gecko) Chrome/138.0.0.0 Safari/537.36 Edg/138.0.0.0","WebKit","Edge","138.0.0.0","Windows","10.0","https://app.prolific.com/","en-GB,en;q=0.9,en-US;q=0.8","6734fa51e57b0c1fa6b0924c","686d226cabeef709c732f8e1","686e58055a9a337078964b5e","6734fa51e57b0c1fa6b0924c","2025-07-09T12:08:49.157Z","","","","","","MotivationQ","","","","","","","","","","","","","","","","","","","","","","","","","","","","","","","","","","","","","","50"
"","","","","ctl-task-cpt","50","877677","0.0-10.0-0.2","289","1","2025-07-09 11:54:51","7701e855f2ef39aa3fd6c71abdc6918a","41.113.200.7","Mozilla/5.0 (Windows NT 10.0; Win64; x64) AppleWebKit/537.36 (KHTML, like Gecko) Chrome/138.0.0.0 Safari/537.36 Edg/138.0.0.0","WebKit","Edge","138.0.0.0","Windows","10.0","https://app.prolific.com/","en-GB,en;q=0.9,en-US;q=0.8","6734fa51e57b0c1fa6b0924c","686d226cabeef709c732f8e1","686e58055a9a337078964b5e","6734fa51e57b0c1fa6b0924c","2025-07-09T12:09:30.349Z","","","","","","","","","","","","","","","","win-only","2","g1:SE,g2:NW","0.8","3","0","840399.4","2867.4","7868.4","38172.7","1","4","4","6","2","4","4","5","1","0.03787878787878788","5001","3000","530","[""left"",""up""]","{""num_key_presses"":8,""num_perfect"":6,""num_errors"":0,""num_randdir"":2,""num_randdir_good_moves"":1,""num_whilered"":0,""num_whileblue"":0,""num_blue"":2,""num_good_moves"":7}","[416.5714133126395,421.57142761775424,0.6,416.5714133126395,421.57142761775424,107,416.5714133126395,421.57142761775424,209.2,416.5714133126395,421.57142761775424,310.3,416.5714133126395,421.57142761775424,420.9,416.5714133126395,421.57142761775424,523.2,416.5714133126395,421.57142761775424,643.9,416.5714133126395,421.57142761775424,744.2,416.5714133126395,421.57142761775424,853.6,416.5714133126395,421.57142761775424,958.7,416.5714133126395,421.57142761775424,1059.5,416.5714133126395,421.57142761775424,1163,416.5714133126395,421.57142761775424,1270.4,416.5714133126395,421.57142761775424,1388.5,416.5714133126395,421.57142761775424,1491.1,416.5714133126395,421.57142761775424,1610.2,416.5714133126395,421.57142761775424,1714,416.5714133126395,421.57142761775424,1816.2,416.5714133126395,421.57142761775424,1928,416.5714133126395,421.57142761775424,2038.7,416.5714133126395,421.57142761775424,2149.8,416.5714133126395,421.57142761775424,2256.1,416.5714133126395,421.57142761775424,2370.4,416.5714133126395,421.57142761775424,2474.2,416.5714133126395,421.57142761775424,2577.1,416.5714133126395,421.57142761775424,2690.6,416.5714133126395,421.57142761775424,2805.8,416.5714133126395,421.57142761775424,2925,416.5714133126395,421.57142761775424,3039.9,416.5714133126395,421.57142761775424,3142.5,416.5714133126395,421.57142761775424,3261.7,416.5714133126395,421.57142761775424,3371.2,416.5714133126395,421.57142761775424,3484,416.5714133126395,421.57142761775424,3590.2,416.5714133126395,421.57142761775424,3691.8,416.5714133126395,421.57142761775424,3805.7,416.5714133126395,421.57142761775424,3908.3,416.5714133126395,421.57142761775424,4009.4,416.5714133126395,421.57142761775424,4109.4,416.5714133126395,421.57142761775424,4215.7,416.5714133126395,421.57142761775424,4328.6,416.5714133126395,421.57142761775424,4435.4,416.5714133126395,421.57142761775424,4559,416.5714133126395,421.57142761775424,4664.2,416.5714133126395,421.57142761775424,4769.4,416.5714133126395,421.57142761775424,4872.3,416.5714133126395,421.57142761775424,4973.2]","[1289.7,1289.7,1000,0,289.7,""oops"",""up"",""down"",""bad_move"",8855.6,7565.1,2674.8,5682.9,497.9,""oops"",""left"",""left"",""good_move"",15050.1,6193.9,2614.9,11962.6,472.6,""smooth"",""left"",""left"",""good_move"",18457.9,3407.6,2105,15050.3,1302.6,""smooth"",""left"",""left"",""good_move"",20456.3,1998.2,1246.2,18458.1,752,""smooth"",""up"",""up"",""good_move"",23614.6,3157.7,2594.1,20456.9,563.6,""smooth"",""up"",""up"",""good_move"",27224.8,3610,3088.7,23614.9,521.3,""smooth"",""up"",""up"",""good_move"",30126.5,2901.4,2472.3,27225.1,429.1,""smooth"",""up"",""up"",""good_move""]","",""
"3948","","<div style=""width:500px;"">
  <p>What determined the result of this run?</p>
  </div>","91","html-slider-response","51","881626","0.0-10.0-1.2","289","1","2025-07-09 11:54:51","7701e855f2ef39aa3fd6c71abdc6918a","41.113.200.7","Mozilla/5.0 (Windows NT 10.0; Win64; x64) AppleWebKit/537.36 (KHTML, like Gecko) Chrome/138.0.0.0 Safari/537.36 Edg/138.0.0.0","WebKit","Edge","138.0.0.0","Windows","10.0","https://app.prolific.com/","en-GB,en;q=0.9,en-US;q=0.8","6734fa51e57b0c1fa6b0924c","686d226cabeef709c732f8e1","686e58055a9a337078964b5e","6734fa51e57b0c1fa6b0924c","2025-07-09T12:09:34.298Z","","","","","","AttribQ","","","","","","","","","","","","","","","","","","","","","","","","","","","","","","","","","","","","","","50"
"4226","","<div style=""width:500px;"">
  <p>How much control did you have over the ball?</p>
  </div>","82","html-slider-response","52","885854","0.0-10.0-2.2","289","1","2025-07-09 11:54:51","7701e855f2ef39aa3fd6c71abdc6918a","41.113.200.7","Mozilla/5.0 (Windows NT 10.0; Win64; x64) AppleWebKit/537.36 (KHTML, like Gecko) Chrome/138.0.0.0 Safari/537.36 Edg/138.0.0.0","WebKit","Edge","138.0.0.0","Windows","10.0","https://app.prolific.com/","en-GB,en;q=0.9,en-US;q=0.8","6734fa51e57b0c1fa6b0924c","686d226cabeef709c732f8e1","686e58055a9a337078964b5e","6734fa51e57b0c1fa6b0924c","2025-07-09T12:09:38.526Z","","","","","","ControlQ","","","","","","","","","","","","","","","","","","","","","","","","","","","","","","","","","","","","","","50"
"5938","","<div style=""width:500px;"">
  <p>How would you describe your current emotional state?</p>
  </div>","5","html-slider-response","53","891794","0.0-10.0-3.2","289","1","2025-07-09 11:54:51","7701e855f2ef39aa3fd6c71abdc6918a","41.113.200.7","Mozilla/5.0 (Windows NT 10.0; Win64; x64) AppleWebKit/537.36 (KHTML, like Gecko) Chrome/138.0.0.0 Safari/537.36 Edg/138.0.0.0","WebKit","Edge","138.0.0.0","Windows","10.0","https://app.prolific.com/","en-GB,en;q=0.9,en-US;q=0.8","6734fa51e57b0c1fa6b0924c","686d226cabeef709c732f8e1","686e58055a9a337078964b5e","6734fa51e57b0c1fa6b0924c","2025-07-09T12:09:44.466Z","","","","","","StressQ","","","","","","","","","","","","","","","","","","","","","","","","","","","","","","","","","","","","","","50"
"3473","","<div style=""width:500px;"">
  <p>What best describes how you currently feel?</p>
  </div>","77","html-slider-response","54","895269","0.0-10.0-4.2","289","1","2025-07-09 11:54:51","7701e855f2ef39aa3fd6c71abdc6918a","41.113.200.7","Mozilla/5.0 (Windows NT 10.0; Win64; x64) AppleWebKit/537.36 (KHTML, like Gecko) Chrome/138.0.0.0 Safari/537.36 Edg/138.0.0.0","WebKit","Edge","138.0.0.0","Windows","10.0","https://app.prolific.com/","en-GB,en;q=0.9,en-US;q=0.8","6734fa51e57b0c1fa6b0924c","686d226cabeef709c732f8e1","686e58055a9a337078964b5e","6734fa51e57b0c1fa6b0924c","2025-07-09T12:09:47.941Z","","","","","","MotivationQ","","","","","","","","","","","","","","","","","","","","","","","","","","","","","","","","","","","","","","50"
"","","","","ctl-task-cpt","55","934427","0.0-10.0-0.3","289","1","2025-07-09 11:54:51","7701e855f2ef39aa3fd6c71abdc6918a","41.113.200.7","Mozilla/5.0 (Windows NT 10.0; Win64; x64) AppleWebKit/537.36 (KHTML, like Gecko) Chrome/138.0.0.0 Safari/537.36 Edg/138.0.0.0","WebKit","Edge","138.0.0.0","Windows","10.0","https://app.prolific.com/","en-GB,en;q=0.9,en-US;q=0.8","6734fa51e57b0c1fa6b0924c","686d226cabeef709c732f8e1","686e58055a9a337078964b5e","6734fa51e57b0c1fa6b0924c","2025-07-09T12:10:27.100Z","","","","","","","","","","","","","","","","win-only","3","g1:SW,g2:NE","0.7","4","0","899188.8","1797.1","6802.8","36143.8","1","4","8","6","2","8","8","13","5","0.09848484848484848","5005.7","3000","105","[""up"",""right""]","{""num_key_presses"":10,""num_perfect"":7,""num_errors"":0,""num_randdir"":3,""num_randdir_good_moves"":1,""num_whilered"":0,""num_whileblue"":0,""num_blue"":0,""num_good_moves"":8}","[414.0714133126395,426.57142761775424,0.2,414.0714133126395,426.57142761775424,104,414.0714133126395,426.57142761775424,210.7,414.0714133126395,426.57142761775424,329.4,414.0714133126395,426.57142761775424,432.6,414.0714133126395,426.57142761775424,539.7,414.0714133126395,426.57142761775424,674.7,414.0714133126395,426.57142761775424,774.8,414.0714133126395,426.57142761775424,876.9,414.0714133126395,426.57142761775424,979.3,414.0714133126395,426.57142761775424,1080.2,414.0714133126395,426.57142761775424,1204,414.0714133126395,426.57142761775424,1306.4,414.0714133126395,426.57142761775424,1426,414.0714133126395,426.57142761775424,1527.7,414.0714133126395,426.57142761775424,1638.9,414.0714133126395,426.57142761775424,1751.8,414.0714133126395,426.57142761775424,1855.9,414.0714133126395,426.57142761775424,1956.5,414.0714133126395,426.57142761775424,2058.7,414.0714133126395,426.57142761775424,2159.5,414.0714133126395,426.57142761775424,2280.9,414.0714133126395,426.57142761775424,2383.3,414.0714133126395,426.57142761775424,2504.2,414.0714133126395,426.57142761775424,2609.8,414.0714133126395,426.57142761775424,2716.5,414.0714133126395,426.57142761775424,2829.6,414.0714133126395,426.57142761775424,2952.7,414.0714133126395,426.57142761775424,3054.1,414.0714133126395,426.57142761775424,3161.1,414.0714133126395,426.57142761775424,3263.7,414.0714133126395,426.57142761775424,3366.3,414.0714133126395,426.57142761775424,3479.7,414.0714133126395,426.57142761775424,3602.4,414.0714133126395,426.57142761775424,3703.6,414.0714133126395,426.57142761775424,3811.3,414.0714133126395,426.57142761775424,3921.4,414.0714133126395,426.57142761775424,4051,414.0714133126395,426.57142761775424,4154.9,414.0714133126395,426.57142761775424,4260.2,414.0714133126395,426.57142761775424,4362,414.0714133126395,426.57142761775424,4463.3,414.0714133126395,426.57142761775424,4580.9,414.0714133126395,426.57142761775424,4703.1,414.0714133126395,426.57142761775424,4805.7,414.0714133126395,426.57142761775424,4937.4]","[1586.4,1586.4,1000,0,586.5,""smooth"",""up"",""up"",""good_move"",3791,2203.5,1385,1587.7,818.4,""oops"",""up"",""left"",""bad_move"",7719.7,3928.1,3470.6,3791.6,457.5,""oops"",""up"",""left"",""bad_move"",12174.7,4454,2741.8,7720.7,1712.2,""smooth"",""up"",""up"",""good_move"",15303.7,3128.7,2607.5,12175,521.2,""smooth"",""up"",""up"",""good_move"",17639.4,2335.6,1910.7,15303.8,424.9,""smooth"",""right"",""right"",""good_move"",20520.1,2880.3,2430.8,17639.8,449.5,""smooth"",""right"",""right"",""good_move"",23731.9,3211.4,2842.1,20520.5,369.3,""oops"",""right"",""right"",""good_move"",26821.8,3089.7,2726.3,23732.1,363.4,""smooth"",""right"",""right"",""good_move"",29176.9,2354.7,2001,26822.4,353.5,""smooth"",""right"",""right"",""good_move""]","",""
"3606","","<div style=""width:500px;"">
  <p>What determined the result of this run?</p>
  </div>","76","html-slider-response","56","938036","0.0-10.0-1.3","289","1","2025-07-09 11:54:51","7701e855f2ef39aa3fd6c71abdc6918a","41.113.200.7","Mozilla/5.0 (Windows NT 10.0; Win64; x64) AppleWebKit/537.36 (KHTML, like Gecko) Chrome/138.0.0.0 Safari/537.36 Edg/138.0.0.0","WebKit","Edge","138.0.0.0","Windows","10.0","https://app.prolific.com/","en-GB,en;q=0.9,en-US;q=0.8","6734fa51e57b0c1fa6b0924c","686d226cabeef709c732f8e1","686e58055a9a337078964b5e","6734fa51e57b0c1fa6b0924c","2025-07-09T12:10:30.708Z","","","","","","AttribQ","","","","","","","","","","","","","","","","","","","","","","","","","","","","","","","","","","","","","","50"
"5958","","<div style=""width:500px;"">
  <p>How much control did you have over the ball?</p>
  </div>","76","html-slider-response","57","943995","0.0-10.0-2.3","289","1","2025-07-09 11:54:51","7701e855f2ef39aa3fd6c71abdc6918a","41.113.200.7","Mozilla/5.0 (Windows NT 10.0; Win64; x64) AppleWebKit/537.36 (KHTML, like Gecko) Chrome/138.0.0.0 Safari/537.36 Edg/138.0.0.0","WebKit","Edge","138.0.0.0","Windows","10.0","https://app.prolific.com/","en-GB,en;q=0.9,en-US;q=0.8","6734fa51e57b0c1fa6b0924c","686d226cabeef709c732f8e1","686e58055a9a337078964b5e","6734fa51e57b0c1fa6b0924c","2025-07-09T12:10:36.667Z","","","","","","ControlQ","","","","","","","","","","","","","","","","","","","","","","","","","","","","","","","","","","","","","","50"
"6987","","<div style=""width:500px;"">
  <p>How would you describe your current emotional state?</p>
  </div>","48","html-slider-response","58","950984","0.0-10.0-3.3","289","1","2025-07-09 11:54:51","7701e855f2ef39aa3fd6c71abdc6918a","41.113.200.7","Mozilla/5.0 (Windows NT 10.0; Win64; x64) AppleWebKit/537.36 (KHTML, like Gecko) Chrome/138.0.0.0 Safari/537.36 Edg/138.0.0.0","WebKit","Edge","138.0.0.0","Windows","10.0","https://app.prolific.com/","en-GB,en;q=0.9,en-US;q=0.8","6734fa51e57b0c1fa6b0924c","686d226cabeef709c732f8e1","686e58055a9a337078964b5e","6734fa51e57b0c1fa6b0924c","2025-07-09T12:10:43.657Z","","","","","","StressQ","","","","","","","","","","","","","","","","","","","","","","","","","","","","","","","","","","","","","","50"
"5507","","<div style=""width:500px;"">
  <p>What best describes how you currently feel?</p>
  </div>","81","html-slider-response","59","956493","0.0-10.0-4.3","289","1","2025-07-09 11:54:51","7701e855f2ef39aa3fd6c71abdc6918a","41.113.200.7","Mozilla/5.0 (Windows NT 10.0; Win64; x64) AppleWebKit/537.36 (KHTML, like Gecko) Chrome/138.0.0.0 Safari/537.36 Edg/138.0.0.0","WebKit","Edge","138.0.0.0","Windows","10.0","https://app.prolific.com/","en-GB,en;q=0.9,en-US;q=0.8","6734fa51e57b0c1fa6b0924c","686d226cabeef709c732f8e1","686e58055a9a337078964b5e","6734fa51e57b0c1fa6b0924c","2025-07-09T12:10:49.165Z","","","","","","MotivationQ","","","","","","","","","","","","","","","","","","","","","","","","","","","","","","","","","","","","","","50"
"","","","","ctl-task-cpt","60","983971","0.0-10.0-0.4","289","1","2025-07-09 11:54:51","7701e855f2ef39aa3fd6c71abdc6918a","41.113.200.7","Mozilla/5.0 (Windows NT 10.0; Win64; x64) AppleWebKit/537.36 (KHTML, like Gecko) Chrome/138.0.0.0 Safari/537.36 Edg/138.0.0.0","WebKit","Edge","138.0.0.0","Windows","10.0","https://app.prolific.com/","en-GB,en;q=0.9,en-US;q=0.8","6734fa51e57b0c1fa6b0924c","686d226cabeef709c732f8e1","686e58055a9a337078964b5e","6734fa51e57b0c1fa6b0924c","2025-07-09T12:11:16.643Z","","","","","","","","","","","","","","","","win-only","3","g1:SW,g2:NE","0.6","5","0","960408.2","1729.2","6731.3","24427.1","1","4","4","6","1","1","0","13","13","0.09848484848484848","5002.1","3000","2160","[""down"",""left""]","{""num_key_presses"":4,""num_perfect"":3,""num_errors"":1,""num_randdir"":0,""num_randdir_good_moves"":0,""num_whilered"":0,""num_whileblue"":1,""num_blue"":3,""num_good_moves"":4}","[415.3214133126395,424.07142761775424,0.1,415.3214133126395,424.07142761775424,104.8,415.3214133126395,424.07142761775424,211.3,415.3214133126395,424.07142761775424,315.4,415.3214133126395,424.07142761775424,423.6,415.3214133126395,424.07142761775424,526.2,415.3214133126395,424.07142761775424,629.3,415.3214133126395,424.07142761775424,735.7,415.3214133126395,424.07142761775424,851.6,415.3214133126395,424.07142761775424,956.8,415.3214133126395,424.07142761775424,1076.8,415.3214133126395,424.07142761775424,1181.5,415.3214133126395,424.07142761775424,1285.2,415.3214133126395,424.07142761775424,1390.7,415.3214133126395,424.07142761775424,1505.9,415.3214133126395,424.07142761775424,1606.6,415.3214133126395,424.07142761775424,1708,415.3214133126395,424.07142761775424,1811.9,415.3214133126395,424.07142761775424,1913.3,415.3214133126395,424.07142761775424,2013.4,415.3214133126395,424.07142761775424,2125.5,415.3214133126395,424.07142761775424,2226.9,415.3214133126395,424.07142761775424,2336.1,415.3214133126395,424.07142761775424,2446,415.3214133126395,424.07142761775424,2549,415.3214133126395,424.07142761775424,2649.2,415.3214133126395,424.07142761775424,2751,415.3214133126395,424.07142761775424,2851.8,415.3214133126395,424.07142761775424,2952.5,415.3214133126395,424.07142761775424,3059.3,415.3214133126395,424.07142761775424,3163.1,415.3214133126395,424.07142761775424,3264.3,415.3214133126395,424.07142761775424,3368.3,415.3214133126395,424.07142761775424,3468.7,415.3214133126395,424.07142761775424,3570.6,415.3214133126395,424.07142761775424,3670.7,415.3214133126395,424.07142761775424,3773.6,415.3214133126395,424.07142761775424,3874.8,415.3214133126395,424.07142761775424,3979.8,415.3214133126395,424.07142761775424,4095.4,415.3214133126395,424.07142761775424,4196,415.3214133126395,424.07142761775424,4316.1,415.3214133126395,424.07142761775424,4416.8,415.3214133126395,424.07142761775424,4518.3,415.3214133126395,424.07142761775424,4619.9,415.3214133126395,424.07142761775424,4724.3,415.3214133126395,424.07142761775424,4829.5,415.3214133126395,424.07142761775424,4934.1]","[1557.8,1557.8,1000,0,557.8,""smooth"",""down"",""down"",""good_move"",4577.2,3017.9,2495.7,1559.3,522.2,""smooth"",""down"",""down"",""good_move"",11000.1,6422.5,2517.1,8106.3,376.7,""smooth"",""left"",""left"",""good_move"",17564.7,6564.3,2521.6,14665.7,377.4,""while_blue"",""left"",""left"",""good_move""]","",""
"10248","","<div style=""width:500px;"">
  <p>What determined the result of this run?</p>
  </div>","56","html-slider-response","61","994221","0.0-10.0-1.4","289","1","2025-07-09 11:54:51","7701e855f2ef39aa3fd6c71abdc6918a","41.113.200.7","Mozilla/5.0 (Windows NT 10.0; Win64; x64) AppleWebKit/537.36 (KHTML, like Gecko) Chrome/138.0.0.0 Safari/537.36 Edg/138.0.0.0","WebKit","Edge","138.0.0.0","Windows","10.0","https://app.prolific.com/","en-GB,en;q=0.9,en-US;q=0.8","6734fa51e57b0c1fa6b0924c","686d226cabeef709c732f8e1","686e58055a9a337078964b5e","6734fa51e57b0c1fa6b0924c","2025-07-09T12:11:26.894Z","","","","","","AttribQ","","","","","","","","","","","","","","","","","","","","","","","","","","","","","","","","","","","","","","50"
"3460","","<div style=""width:500px;"">
  <p>How much control did you have over the ball?</p>
  </div>","31","html-slider-response","62","997683","0.0-10.0-2.4","289","1","2025-07-09 11:54:51","7701e855f2ef39aa3fd6c71abdc6918a","41.113.200.7","Mozilla/5.0 (Windows NT 10.0; Win64; x64) AppleWebKit/537.36 (KHTML, like Gecko) Chrome/138.0.0.0 Safari/537.36 Edg/138.0.0.0","WebKit","Edge","138.0.0.0","Windows","10.0","https://app.prolific.com/","en-GB,en;q=0.9,en-US;q=0.8","6734fa51e57b0c1fa6b0924c","686d226cabeef709c732f8e1","686e58055a9a337078964b5e","6734fa51e57b0c1fa6b0924c","2025-07-09T12:11:30.356Z","","","","","","ControlQ","","","","","","","","","","","","","","","","","","","","","","","","","","","","","","","","","","","","","","50"
"4687","","<div style=""width:500px;"">
  <p>How would you describe your current emotional state?</p>
  </div>","68","html-slider-response","63","1002373","0.0-10.0-3.4","289","1","2025-07-09 11:54:51","7701e855f2ef39aa3fd6c71abdc6918a","41.113.200.7","Mozilla/5.0 (Windows NT 10.0; Win64; x64) AppleWebKit/537.36 (KHTML, like Gecko) Chrome/138.0.0.0 Safari/537.36 Edg/138.0.0.0","WebKit","Edge","138.0.0.0","Windows","10.0","https://app.prolific.com/","en-GB,en;q=0.9,en-US;q=0.8","6734fa51e57b0c1fa6b0924c","686d226cabeef709c732f8e1","686e58055a9a337078964b5e","6734fa51e57b0c1fa6b0924c","2025-07-09T12:11:35.045Z","","","","","","StressQ","","","","","","","","","","","","","","","","","","","","","","","","","","","","","","","","","","","","","","50"
"4633","","<div style=""width:500px;"">
  <p>What best describes how you currently feel?</p>
  </div>","61","html-slider-response","64","1007008","0.0-10.0-4.4","289","1","2025-07-09 11:54:51","7701e855f2ef39aa3fd6c71abdc6918a","41.113.200.7","Mozilla/5.0 (Windows NT 10.0; Win64; x64) AppleWebKit/537.36 (KHTML, like Gecko) Chrome/138.0.0.0 Safari/537.36 Edg/138.0.0.0","WebKit","Edge","138.0.0.0","Windows","10.0","https://app.prolific.com/","en-GB,en;q=0.9,en-US;q=0.8","6734fa51e57b0c1fa6b0924c","686d226cabeef709c732f8e1","686e58055a9a337078964b5e","6734fa51e57b0c1fa6b0924c","2025-07-09T12:11:39.681Z","","","","","","MotivationQ","","","","","","","","","","","","","","","","","","","","","","","","","","","","","","","","","","","","","","50"
"","","","","ctl-task-cpt","65","1043210","0.0-10.0-0.5","289","1","2025-07-09 11:54:51","7701e855f2ef39aa3fd6c71abdc6918a","41.113.200.7","Mozilla/5.0 (Windows NT 10.0; Win64; x64) AppleWebKit/537.36 (KHTML, like Gecko) Chrome/138.0.0.0 Safari/537.36 Edg/138.0.0.0","WebKit","Edge","138.0.0.0","Windows","10.0","https://app.prolific.com/","en-GB,en;q=0.9,en-US;q=0.8","6734fa51e57b0c1fa6b0924c","686d226cabeef709c732f8e1","686e58055a9a337078964b5e","6734fa51e57b0c1fa6b0924c","2025-07-09T12:12:15.882Z","","","","","","","","","","","","","","","","win-only","0","g1:NW,g2:SE","0.5","6","0","1010923.6","2808.7","7813","33184.6","1","4","8","6","2","8","8","21","13","0.1590909090909091","5004.3","3000","1045","[""down"",""right""]","{""num_key_presses"":8,""num_perfect"":5,""num_errors"":0,""num_randdir"":3,""num_randdir_good_moves"":2,""num_whilered"":0,""num_whileblue"":0,""num_blue"":1,""num_good_moves"":7}","[412.8214133126395,417.82142761775424,0.5,412.8214133126395,417.82142761775424,100.9,412.8214133126395,417.82142761775424,200.9,412.8214133126395,417.82142761775424,302.4,412.8214133126395,417.82142761775424,409.7,412.8214133126395,417.82142761775424,518.6,412.8214133126395,417.82142761775424,623.4,412.8214133126395,417.82142761775424,728.9,412.8214133126395,417.82142761775424,830.7,412.8214133126395,417.82142761775424,934.6,412.8214133126395,417.82142761775424,1040.7,412.8214133126395,417.82142761775424,1143.7,412.8214133126395,417.82142761775424,1247.7,412.8214133126395,417.82142761775424,1350.5,412.8214133126395,417.82142761775424,1456.3,412.8214133126395,417.82142761775424,1572.3,412.8214133126395,417.82142761775424,1672.6,412.8214133126395,417.82142761775424,1782.5,412.8214133126395,417.82142761775424,1888.8,412.8214133126395,417.82142761775424,1997.5,412.8214133126395,417.82142761775424,2098.6,412.8214133126395,417.82142761775424,2204.3,412.8214133126395,417.82142761775424,2322.1,412.8214133126395,417.82142761775424,2424.4,412.8214133126395,417.82142761775424,2534.4,412.8214133126395,417.82142761775424,2652.3,412.8214133126395,417.82142761775424,2756.2,412.8214133126395,417.82142761775424,2856.3,412.8214133126395,417.82142761775424,2958.5,412.8214133126395,417.82142761775424,3065,412.8214133126395,417.82142761775424,3166.2,412.8214133126395,417.82142761775424,3268.7,412.8214133126395,417.82142761775424,3372.3,412.8214133126395,417.82142761775424,3475.2,412.8214133126395,417.82142761775424,3576.4,412.8214133126395,417.82142761775424,3679,412.8214133126395,417.82142761775424,3785.9,412.8214133126395,417.82142761775424,3887.1,412.8214133126395,417.82142761775424,3991.1,412.8214133126395,417.82142761775424,4101.4,412.8214133126395,417.82142761775424,4203,412.8214133126395,417.82142761775424,4304.4,412.8214133126395,417.82142761775424,4410.3,412.8214133126395,417.82142761775424,4518.6,412.8214133126395,417.82142761775424,4621.8,412.8214133126395,417.82142761775424,4726.8,412.8214133126395,417.82142761775424,4833.1,412.8214133126395,417.82142761775424,4947]","[4719.9,4719.9,2241,2001.6,477.3,""smooth"",""down"",""down"",""good_move"",7492.1,2771.7,2283.6,4720.4,488.1,""oops"",""down"",""right"",""good_move"",10800.1,3307.6,2729.2,7492.5,578.4,""oops"",""down"",""down"",""good_move"",13374.3,2573.9,2129,10800.4,444.9,""smooth"",""down"",""down"",""good_move"",16861.7,3487,3059.6,13374.7,427.4,""oops"",""right"",""left"",""bad_move"",19260.2,2398.1,1919.4,16862.1,478.7,""smooth"",""right"",""right"",""good_move"",21894.6,2634.3,2179.2,19260.4,455.1,""smooth"",""right"",""right"",""good_move"",25126.7,3231.8,2457.8,21895,773.9,""smooth"",""right"",""right"",""good_move""]","",""
"4271","","<div style=""width:500px;"">
  <p>What determined the result of this run?</p>
  </div>","65","html-slider-response","66","1047484","0.0-10.0-1.5","289","1","2025-07-09 11:54:51","7701e855f2ef39aa3fd6c71abdc6918a","41.113.200.7","Mozilla/5.0 (Windows NT 10.0; Win64; x64) AppleWebKit/537.36 (KHTML, like Gecko) Chrome/138.0.0.0 Safari/537.36 Edg/138.0.0.0","WebKit","Edge","138.0.0.0","Windows","10.0","https://app.prolific.com/","en-GB,en;q=0.9,en-US;q=0.8","6734fa51e57b0c1fa6b0924c","686d226cabeef709c732f8e1","686e58055a9a337078964b5e","6734fa51e57b0c1fa6b0924c","2025-07-09T12:12:20.157Z","","","","","","AttribQ","","","","","","","","","","","","","","","","","","","","","","","","","","","","","","","","","","","","","","50"
"4831","","<div style=""width:500px;"">
  <p>How much control did you have over the ball?</p>
  </div>","67","html-slider-response","67","1052317","0.0-10.0-2.5","289","1","2025-07-09 11:54:51","7701e855f2ef39aa3fd6c71abdc6918a","41.113.200.7","Mozilla/5.0 (Windows NT 10.0; Win64; x64) AppleWebKit/537.36 (KHTML, like Gecko) Chrome/138.0.0.0 Safari/537.36 Edg/138.0.0.0","WebKit","Edge","138.0.0.0","Windows","10.0","https://app.prolific.com/","en-GB,en;q=0.9,en-US;q=0.8","6734fa51e57b0c1fa6b0924c","686d226cabeef709c732f8e1","686e58055a9a337078964b5e","6734fa51e57b0c1fa6b0924c","2025-07-09T12:12:24.989Z","","","","","","ControlQ","","","","","","","","","","","","","","","","","","","","","","","","","","","","","","","","","","","","","","50"
"4003","","<div style=""width:500px;"">
  <p>How would you describe your current emotional state?</p>
  </div>","69","html-slider-response","68","1056322","0.0-10.0-3.5","289","1","2025-07-09 11:54:51","7701e855f2ef39aa3fd6c71abdc6918a","41.113.200.7","Mozilla/5.0 (Windows NT 10.0; Win64; x64) AppleWebKit/537.36 (KHTML, like Gecko) Chrome/138.0.0.0 Safari/537.36 Edg/138.0.0.0","WebKit","Edge","138.0.0.0","Windows","10.0","https://app.prolific.com/","en-GB,en;q=0.9,en-US;q=0.8","6734fa51e57b0c1fa6b0924c","686d226cabeef709c732f8e1","686e58055a9a337078964b5e","6734fa51e57b0c1fa6b0924c","2025-07-09T12:12:28.994Z","","","","","","StressQ","","","","","","","","","","","","","","","","","","","","","","","","","","","","","","","","","","","","","","50"
"3753","","<div style=""width:500px;"">
  <p>What best describes how you currently feel?</p>
  </div>","70","html-slider-response","69","1060077","0.0-10.0-4.5","289","1","2025-07-09 11:54:51","7701e855f2ef39aa3fd6c71abdc6918a","41.113.200.7","Mozilla/5.0 (Windows NT 10.0; Win64; x64) AppleWebKit/537.36 (KHTML, like Gecko) Chrome/138.0.0.0 Safari/537.36 Edg/138.0.0.0","WebKit","Edge","138.0.0.0","Windows","10.0","https://app.prolific.com/","en-GB,en;q=0.9,en-US;q=0.8","6734fa51e57b0c1fa6b0924c","686d226cabeef709c732f8e1","686e58055a9a337078964b5e","6734fa51e57b0c1fa6b0924c","2025-07-09T12:12:32.749Z","","","","","","MotivationQ","","","","","","","","","","","","","","","","","","","","","","","","","","","","","","","","","","","","","","50"
"","","","","ctl-task-cpt","70","1110484","0.0-10.0-0.6","289","1","2025-07-09 11:54:51","7701e855f2ef39aa3fd6c71abdc6918a","41.113.200.7","Mozilla/5.0 (Windows NT 10.0; Win64; x64) AppleWebKit/537.36 (KHTML, like Gecko) Chrome/138.0.0.0 Safari/537.36 Edg/138.0.0.0","WebKit","Edge","138.0.0.0","Windows","10.0","https://app.prolific.com/","en-GB,en;q=0.9,en-US;q=0.8","6734fa51e57b0c1fa6b0924c","686d226cabeef709c732f8e1","686e58055a9a337078964b5e","6734fa51e57b0c1fa6b0924c","2025-07-09T12:13:23.156Z","","","","","","","","","","","","","","","","win-only","0","g1:NW,g2:SE","0.4","7","0","1063993.2","1537.1","6545.3","47380.4","1","4","8","6","1","-1","-1","20","21","0.15151515151515152","5008.2","3000","-1165","[""left"",""up""]","{""num_key_presses"":10,""num_perfect"":4,""num_errors"":0,""num_randdir"":6,""num_randdir_good_moves"":2,""num_whilered"":0,""num_whileblue"":0,""num_blue"":2,""num_good_moves"":6}","[415.3214133126395,415.32142761775424,0.1,415.3214133126395,415.32142761775424,100.5,415.3214133126395,415.32142761775424,205.4,415.3214133126395,415.32142761775424,313.3,415.3214133126395,415.32142761775424,417.8,415.3214133126395,415.32142761775424,522.2,415.3214133126395,415.32142761775424,627.8,415.3214133126395,415.32142761775424,729.7,415.3214133126395,415.32142761775424,836.6,415.3214133126395,415.32142761775424,939.4,415.3214133126395,415.32142761775424,1041.5,415.3214133126395,415.32142761775424,1150.6,415.3214133126395,415.32142761775424,1256.1,415.3214133126395,415.32142761775424,1365.4,415.3214133126395,415.32142761775424,1468.4,415.3214133126395,415.32142761775424,1573.9,415.3214133126395,415.32142761775424,1678.6,415.3214133126395,415.32142761775424,1782.8,415.3214133126395,415.32142761775424,1891.4,415.3214133126395,415.32142761775424,1998.7,415.3214133126395,415.32142761775424,2098.8,415.3214133126395,415.32142761775424,2205.8,415.3214133126395,415.32142761775424,2307.3,415.3214133126395,415.32142761775424,2408.6,415.3214133126395,415.32142761775424,2511.8,415.3214133126395,415.32142761775424,2614.2,415.3214133126395,415.32142761775424,2717,415.3214133126395,415.32142761775424,2823.1,415.3214133126395,415.32142761775424,2923.1,415.3214133126395,415.32142761775424,3026.2,415.3214133126395,415.32142761775424,3128.8,415.3214133126395,415.32142761775424,3235.7,415.3214133126395,415.32142761775424,3339.9,415.3214133126395,415.32142761775424,3442,415.3214133126395,415.32142761775424,3543.7,415.3214133126395,415.32142761775424,3647,415.3214133126395,415.32142761775424,3750.3,415.3214133126395,415.32142761775424,3852.7,415.3214133126395,415.32142761775424,3959.5,415.3214133126395,415.32142761775424,4069.5,415.3214133126395,415.32142761775424,4172.9,415.3214133126395,415.32142761775424,4278.4,415.3214133126395,415.32142761775424,4378.5,415.3214133126395,415.32142761775424,4489,415.3214133126395,415.32142761775424,4592.7,415.3214133126395,415.32142761775424,4701.5,415.3214133126395,415.32142761775424,4811,415.3214133126395,415.32142761775424,4915.6]","[2557.1,2557.1,1000,0,1557.1,""smooth"",""left"",""left"",""good_move"",9902.1,7344.6,3312.3,6152.6,437.2,""oops"",""left"",""right"",""bad_move"",12546.1,2643.5,1920.4,9902.6,723.1,""smooth"",""left"",""left"",""good_move"",15368.1,2819.2,2337.2,12548.9,482,""smooth"",""left"",""left"",""good_move"",18652.4,3283.9,2670.5,15368.5,613.4,""oops"",""up"",""right"",""bad_move"",21456,2803.4,2214.3,18652.6,589.1,""smooth"",""up"",""up"",""good_move"",24710.9,3254.3,2790,21456.7,464.3,""oops"",""up"",""down"",""bad_move"",27845.9,3133.8,2699.3,24712.1,434.6,""oops"",""up"",""right"",""bad_move"",34902.2,7056,3150.6,31319.5,432.1,""oops"",""left"",""left"",""good_move"",38007.4,3104.8,2723.1,34902.7,381.7,""oops"",""left"",""up"",""good_move""]","",""
"5474","","<div style=""width:500px;"">
  <p>What determined the result of this run?</p>
  </div>","50","html-slider-response","71","1115961","0.0-10.0-1.6","289","1","2025-07-09 11:54:51","7701e855f2ef39aa3fd6c71abdc6918a","41.113.200.7","Mozilla/5.0 (Windows NT 10.0; Win64; x64) AppleWebKit/537.36 (KHTML, like Gecko) Chrome/138.0.0.0 Safari/537.36 Edg/138.0.0.0","WebKit","Edge","138.0.0.0","Windows","10.0","https://app.prolific.com/","en-GB,en;q=0.9,en-US;q=0.8","6734fa51e57b0c1fa6b0924c","686d226cabeef709c732f8e1","686e58055a9a337078964b5e","6734fa51e57b0c1fa6b0924c","2025-07-09T12:13:28.634Z","","","","","","AttribQ","","","","","","","","","","","","","","","","","","","","","","","","","","","","","","","","","","","","","","50"
"2631","","<div style=""width:500px;"">
  <p>How much control did you have over the ball?</p>
  </div>","50","html-slider-response","72","1118595","0.0-10.0-2.6","289","1","2025-07-09 11:54:51","7701e855f2ef39aa3fd6c71abdc6918a","41.113.200.7","Mozilla/5.0 (Windows NT 10.0; Win64; x64) AppleWebKit/537.36 (KHTML, like Gecko) Chrome/138.0.0.0 Safari/537.36 Edg/138.0.0.0","WebKit","Edge","138.0.0.0","Windows","10.0","https://app.prolific.com/","en-GB,en;q=0.9,en-US;q=0.8","6734fa51e57b0c1fa6b0924c","686d226cabeef709c732f8e1","686e58055a9a337078964b5e","6734fa51e57b0c1fa6b0924c","2025-07-09T12:13:31.267Z","","","","","","ControlQ","","","","","","","","","","","","","","","","","","","","","","","","","","","","","","","","","","","","","","50"
"2809","","<div style=""width:500px;"">
  <p>How would you describe your current emotional state?</p>
  </div>","51","html-slider-response","73","1121405","0.0-10.0-3.6","289","1","2025-07-09 11:54:51","7701e855f2ef39aa3fd6c71abdc6918a","41.113.200.7","Mozilla/5.0 (Windows NT 10.0; Win64; x64) AppleWebKit/537.36 (KHTML, like Gecko) Chrome/138.0.0.0 Safari/537.36 Edg/138.0.0.0","WebKit","Edge","138.0.0.0","Windows","10.0","https://app.prolific.com/","en-GB,en;q=0.9,en-US;q=0.8","6734fa51e57b0c1fa6b0924c","686d226cabeef709c732f8e1","686e58055a9a337078964b5e","6734fa51e57b0c1fa6b0924c","2025-07-09T12:13:34.077Z","","","","","","StressQ","","","","","","","","","","","","","","","","","","","","","","","","","","","","","","","","","","","","","","50"
"2392","","<div style=""width:500px;"">
  <p>What best describes how you currently feel?</p>
  </div>","51","html-slider-response","74","1123799","0.0-10.0-4.6","289","1","2025-07-09 11:54:51","7701e855f2ef39aa3fd6c71abdc6918a","41.113.200.7","Mozilla/5.0 (Windows NT 10.0; Win64; x64) AppleWebKit/537.36 (KHTML, like Gecko) Chrome/138.0.0.0 Safari/537.36 Edg/138.0.0.0","WebKit","Edge","138.0.0.0","Windows","10.0","https://app.prolific.com/","en-GB,en;q=0.9,en-US;q=0.8","6734fa51e57b0c1fa6b0924c","686d226cabeef709c732f8e1","686e58055a9a337078964b5e","6734fa51e57b0c1fa6b0924c","2025-07-09T12:13:36.471Z","","","","","","MotivationQ","","","","","","","","","","","","","","","","","","","","","","","","","","","","","","","","","","","","","","50"
"","","","","ctl-task-cpt","75","1163989","0.0-10.0-0.7","289","1","2025-07-09 11:54:51","7701e855f2ef39aa3fd6c71abdc6918a","41.113.200.7","Mozilla/5.0 (Windows NT 10.0; Win64; x64) AppleWebKit/537.36 (KHTML, like Gecko) Chrome/138.0.0.0 Safari/537.36 Edg/138.0.0.0","WebKit","Edge","138.0.0.0","Windows","10.0","https://app.prolific.com/","en-GB,en;q=0.9,en-US;q=0.8","6734fa51e57b0c1fa6b0924c","686d226cabeef709c732f8e1","686e58055a9a337078964b5e","6734fa51e57b0c1fa6b0924c","2025-07-09T12:14:16.661Z","","","","","","","","","","","","","","","","win-only","2","g1:SE,g2:NW","0.3","8","0","1127715.1","2311.5","7312.7","37161.3","1","4","4","6","2","-4","-4","16","20","0.12121212121212122","5001.2","3000","-1275","[""left"",""up""]","{""num_key_presses"":9,""num_perfect"":3,""num_errors"":0,""num_randdir"":6,""num_randdir_good_moves"":4,""num_whilered"":0,""num_whileblue"":0,""num_blue"":0,""num_good_moves"":7}","[406.5714133126395,415.32142761775424,0.4,406.5714133126395,415.32142761775424,101.5,406.5714133126395,415.32142761775424,208.5,406.5714133126395,415.32142761775424,313.4,406.5714133126395,415.32142761775424,420.6,406.5714133126395,415.32142761775424,527.3,406.5714133126395,415.32142761775424,635.6,406.5714133126395,415.32142761775424,744.9,406.5714133126395,415.32142761775424,855.3,406.5714133126395,415.32142761775424,960.9,406.5714133126395,415.32142761775424,1081.8,406.5714133126395,415.32142761775424,1184.4,406.5714133126395,415.32142761775424,1284.5,406.5714133126395,415.32142761775424,1391.1,406.5714133126395,415.32142761775424,1500.6,406.5714133126395,415.32142761775424,1610.3,406.5714133126395,415.32142761775424,1716.9,406.5714133126395,415.32142761775424,1822.2,406.5714133126395,415.32142761775424,1939.9,406.5714133126395,415.32142761775424,2040.3,406.5714133126395,415.32142761775424,2143.9,406.5714133126395,415.32142761775424,2248.1,406.5714133126395,415.32142761775424,2354.3,406.5714133126395,415.32142761775424,2456.3,406.5714133126395,415.32142761775424,2561.9,406.5714133126395,415.32142761775424,2668.2,406.5714133126395,415.32142761775424,2778.8,406.5714133126395,415.32142761775424,2894.9,406.5714133126395,415.32142761775424,2999,406.5714133126395,415.32142761775424,3101.6,406.5714133126395,415.32142761775424,3203.9,406.5714133126395,415.32142761775424,3309.1,406.5714133126395,415.32142761775424,3413.7,406.5714133126395,415.32142761775424,3517.1,406.5714133126395,415.32142761775424,3619.9,406.5714133126395,415.32142761775424,3721.7,406.5714133126395,415.32142761775424,3828.2,406.5714133126395,415.32142761775424,3929,406.5714133126395,415.32142761775424,4038.5,406.5714133126395,415.32142761775424,4142.9,406.5714133126395,415.32142761775424,4247.6,406.5714133126395,415.32142761775424,4349.4,406.5714133126395,415.32142761775424,4450.1,406.5714133126395,415.32142761775424,4564.5,406.5714133126395,415.32142761775424,4681.4,406.5714133126395,415.32142761775424,4782.7,406.5714133126395,415.32142761775424,4892.4]","[1528.6,1528.6,1000,0,528.6,""oops"",""up"",""up"",""good_move"",4655.3,3125.7,2315.1,1529.6,810.6,""smooth"",""up"",""up"",""good_move"",7835.8,3180.3,2585.6,4655.5,594.7,""oops"",""up"",""left"",""good_move"",11408.8,3572.4,2719.4,7836.4,853,""oops"",""up"",""left"",""good_move"",14601.8,3192.7,2316.3,11409.1,876.4,""oops"",""up"",""left"",""good_move"",17824.6,3222.6,2596.1,14602,626.5,""oops"",""up"",""right"",""bad_move"",21259.1,3434,2919.3,17825.1,514.7,""smooth"",""left"",""left"",""good_move"",24342.5,3083.1,1862.6,21259.4,1220.5,""oops"",""up"",""right"",""bad_move"",26653.2,2310.6,1907.7,24342.6,402.9,""smooth"",""left"",""left"",""good_move""]","",""
"2520","","<div style=""width:500px;"">
  <p>What determined the result of this run?</p>
  </div>","50","html-slider-response","76","1166510","0.0-10.0-1.7","289","1","2025-07-09 11:54:51","7701e855f2ef39aa3fd6c71abdc6918a","41.113.200.7","Mozilla/5.0 (Windows NT 10.0; Win64; x64) AppleWebKit/537.36 (KHTML, like Gecko) Chrome/138.0.0.0 Safari/537.36 Edg/138.0.0.0","WebKit","Edge","138.0.0.0","Windows","10.0","https://app.prolific.com/","en-GB,en;q=0.9,en-US;q=0.8","6734fa51e57b0c1fa6b0924c","686d226cabeef709c732f8e1","686e58055a9a337078964b5e","6734fa51e57b0c1fa6b0924c","2025-07-09T12:14:19.182Z","","","","","","AttribQ","","","","","","","","","","","","","","","","","","","","","","","","","","","","","","","","","","","","","","50"
"2771","","<div style=""width:500px;"">
  <p>How much control did you have over the ball?</p>
  </div>","52","html-slider-response","77","1169282","0.0-10.0-2.7","289","1","2025-07-09 11:54:51","7701e855f2ef39aa3fd6c71abdc6918a","41.113.200.7","Mozilla/5.0 (Windows NT 10.0; Win64; x64) AppleWebKit/537.36 (KHTML, like Gecko) Chrome/138.0.0.0 Safari/537.36 Edg/138.0.0.0","WebKit","Edge","138.0.0.0","Windows","10.0","https://app.prolific.com/","en-GB,en;q=0.9,en-US;q=0.8","6734fa51e57b0c1fa6b0924c","686d226cabeef709c732f8e1","686e58055a9a337078964b5e","6734fa51e57b0c1fa6b0924c","2025-07-09T12:14:21.955Z","","","","","","ControlQ","","","","","","","","","","","","","","","","","","","","","","","","","","","","","","","","","","","","","","50"
"2124","","<div style=""width:500px;"">
  <p>How would you describe your current emotional state?</p>
  </div>","52","html-slider-response","78","1171410","0.0-10.0-3.7","289","1","2025-07-09 11:54:51","7701e855f2ef39aa3fd6c71abdc6918a","41.113.200.7","Mozilla/5.0 (Windows NT 10.0; Win64; x64) AppleWebKit/537.36 (KHTML, like Gecko) Chrome/138.0.0.0 Safari/537.36 Edg/138.0.0.0","WebKit","Edge","138.0.0.0","Windows","10.0","https://app.prolific.com/","en-GB,en;q=0.9,en-US;q=0.8","6734fa51e57b0c1fa6b0924c","686d226cabeef709c732f8e1","686e58055a9a337078964b5e","6734fa51e57b0c1fa6b0924c","2025-07-09T12:14:24.082Z","","","","","","StressQ","","","","","","","","","","","","","","","","","","","","","","","","","","","","","","","","","","","","","","50"
"2610","","<div style=""width:500px;"">
  <p>What best describes how you currently feel?</p>
  </div>","51","html-slider-response","79","1174022","0.0-10.0-4.7","289","1","2025-07-09 11:54:51","7701e855f2ef39aa3fd6c71abdc6918a","41.113.200.7","Mozilla/5.0 (Windows NT 10.0; Win64; x64) AppleWebKit/537.36 (KHTML, like Gecko) Chrome/138.0.0.0 Safari/537.36 Edg/138.0.0.0","WebKit","Edge","138.0.0.0","Windows","10.0","https://app.prolific.com/","en-GB,en;q=0.9,en-US;q=0.8","6734fa51e57b0c1fa6b0924c","686d226cabeef709c732f8e1","686e58055a9a337078964b5e","6734fa51e57b0c1fa6b0924c","2025-07-09T12:14:26.694Z","","","","","","MotivationQ","","","","","","","","","","","","","","","","","","","","","","","","","","","","","","","","","","","","","","50"
"","","","","ctl-task-cpt","80","1221791","0.0-10.0-0.8","289","1","2025-07-09 11:54:51","7701e855f2ef39aa3fd6c71abdc6918a","41.113.200.7","Mozilla/5.0 (Windows NT 10.0; Win64; x64) AppleWebKit/537.36 (KHTML, like Gecko) Chrome/138.0.0.0 Safari/537.36 Edg/138.0.0.0","WebKit","Edge","138.0.0.0","Windows","10.0","https://app.prolific.com/","en-GB,en;q=0.9,en-US;q=0.8","6734fa51e57b0c1fa6b0924c","686d226cabeef709c732f8e1","686e58055a9a337078964b5e","6734fa51e57b0c1fa6b0924c","2025-07-09T12:15:14.463Z","","","","","","","","","","","","","","","","win-only","2","g1:SE,g2:NW","0.2","9","0","1177937.7","1510.8","6514.1","44735.4","1","4","8","6","1","-1","-2","14","16","0.10606060606060606","5003.3","3000","-1055","[""down"",""right""]","{""num_key_presses"":10,""num_perfect"":2,""num_errors"":1,""num_randdir"":7,""num_randdir_good_moves"":4,""num_whilered"":0,""num_whileblue"":0,""num_blue"":2,""num_good_moves"":5}","[411.5714133126395,421.57142761775424,0.2,411.5714133126395,421.57142761775424,106.7,411.5714133126395,421.57142761775424,212.5,411.5714133126395,421.57142761775424,318.3,411.5714133126395,421.57142761775424,419.5,411.5714133126395,421.57142761775424,525.4,411.5714133126395,421.57142761775424,635.4,411.5714133126395,421.57142761775424,759,411.5714133126395,421.57142761775424,861.8,411.5714133126395,376.57142761775424,972.9,411.5714133126395,374.07142761775424,1076.6,411.5714133126395,374.07142761775424,1178,426.5714133126395,384.07142761775424,1290,452.8214133126395,415.32142761775424,1395.5,466.5714133126395,436.57142761775424,1499.8,466.5714133126395,436.57142761775424,1603.8,466.5714133126395,436.57142761775424,1714.5,466.5714133126395,436.57142761775424,1834.9,466.5714133126395,436.57142761775424,1935.7,466.5714133126395,436.57142761775424,2069.3,466.5714133126395,436.57142761775424,2174.4,466.5714133126395,436.57142761775424,2281.9,466.5714133126395,436.57142761775424,2382,466.5714133126395,436.57142761775424,2491,466.5714133126395,436.57142761775424,2599.6,466.5714133126395,436.57142761775424,2705.7,466.5714133126395,436.57142761775424,2811.9,466.5714133126395,436.57142761775424,2916.2,466.5714133126395,436.57142761775424,3022.5,466.5714133126395,436.57142761775424,3124.9,466.5714133126395,436.57142761775424,3231.7,466.5714133126395,436.57142761775424,3337.9,466.5714133126395,436.57142761775424,3446.9,466.5714133126395,436.57142761775424,3559.3,466.5714133126395,436.57142761775424,3664.9,466.5714133126395,436.57142761775424,3766.3,466.5714133126395,436.57142761775424,3871,466.5714133126395,436.57142761775424,3978.5,466.5714133126395,436.57142761775424,4084,466.5714133126395,436.57142761775424,4189.1,466.5714133126395,436.57142761775424,4304.1,466.5714133126395,436.57142761775424,4414.6,466.5714133126395,436.57142761775424,4523.8,466.5714133126395,436.57142761775424,4628.9,466.5714133126395,436.57142761775424,4732.3,466.5714133126395,436.57142761775424,4836.6,466.5714133126395,436.57142761775424,4936.7]","[3233,3233,1000,0,2233,""oops"",""down"",""down"",""good_move"",10280.4,7047,2760.2,6991.5,528.7,""smooth"",""right"",""right"",""good_move"",13725.2,3444.4,2215.6,10280.9,1228.8,""oops"",""right"",""up"",""bad_move"",16917.1,3191.4,2058.4,16800.7,-1942,""error"",""-"",""-"",""no_move"",21062.7,4145.1,2477.4,17922.6,662.7,""oops"",""down"",""down"",""good_move"",23770.6,2707.4,2148.5,21063.2,558.9,""oops"",""down"",""right"",""good_move"",26787.3,3016,2560.3,23771.4,455.6,""smooth"",""left"",""left"",""bad_move"",29911.2,3123.5,2578.3,26787.7,545.2,""oops"",""right"",""down"",""good_move"",32912,3000.5,2564,29911.5,436.5,""oops"",""right"",""up"",""bad_move"",35931.4,3018.7,2636.3,32912.7,382.4,""oops"",""right"",""up"",""bad_move""]","",""
"4441","","<div style=""width:500px;"">
  <p>What determined the result of this run?</p>
  </div>","50","html-slider-response","81","1226235","0.0-10.0-1.8","289","1","2025-07-09 11:54:51","7701e855f2ef39aa3fd6c71abdc6918a","41.113.200.7","Mozilla/5.0 (Windows NT 10.0; Win64; x64) AppleWebKit/537.36 (KHTML, like Gecko) Chrome/138.0.0.0 Safari/537.36 Edg/138.0.0.0","WebKit","Edge","138.0.0.0","Windows","10.0","https://app.prolific.com/","en-GB,en;q=0.9,en-US;q=0.8","6734fa51e57b0c1fa6b0924c","686d226cabeef709c732f8e1","686e58055a9a337078964b5e","6734fa51e57b0c1fa6b0924c","2025-07-09T12:15:18.907Z","","","","","","AttribQ","","","","","","","","","","","","","","","","","","","","","","","","","","","","","","","","","","","","","","50"
"2680","","<div style=""width:500px;"">
  <p>How much control did you have over the ball?</p>
  </div>","51","html-slider-response","82","1228916","0.0-10.0-2.8","289","1","2025-07-09 11:54:51","7701e855f2ef39aa3fd6c71abdc6918a","41.113.200.7","Mozilla/5.0 (Windows NT 10.0; Win64; x64) AppleWebKit/537.36 (KHTML, like Gecko) Chrome/138.0.0.0 Safari/537.36 Edg/138.0.0.0","WebKit","Edge","138.0.0.0","Windows","10.0","https://app.prolific.com/","en-GB,en;q=0.9,en-US;q=0.8","6734fa51e57b0c1fa6b0924c","686d226cabeef709c732f8e1","686e58055a9a337078964b5e","6734fa51e57b0c1fa6b0924c","2025-07-09T12:15:21.589Z","","","","","","ControlQ","","","","","","","","","","","","","","","","","","","","","","","","","","","","","","","","","","","","","","50"
"3031","","<div style=""width:500px;"">
  <p>How would you describe your current emotional state?</p>
  </div>","50","html-slider-response","83","1231950","0.0-10.0-3.8","289","1","2025-07-09 11:54:51","7701e855f2ef39aa3fd6c71abdc6918a","41.113.200.7","Mozilla/5.0 (Windows NT 10.0; Win64; x64) AppleWebKit/537.36 (KHTML, like Gecko) Chrome/138.0.0.0 Safari/537.36 Edg/138.0.0.0","WebKit","Edge","138.0.0.0","Windows","10.0","https://app.prolific.com/","en-GB,en;q=0.9,en-US;q=0.8","6734fa51e57b0c1fa6b0924c","686d226cabeef709c732f8e1","686e58055a9a337078964b5e","6734fa51e57b0c1fa6b0924c","2025-07-09T12:15:24.622Z","","","","","","StressQ","","","","","","","","","","","","","","","","","","","","","","","","","","","","","","","","","","","","","","50"
"3476","","<div style=""width:500px;"">
  <p>What best describes how you currently feel?</p>
  </div>","50","html-slider-response","84","1235428","0.0-10.0-4.8","289","1","2025-07-09 11:54:51","7701e855f2ef39aa3fd6c71abdc6918a","41.113.200.7","Mozilla/5.0 (Windows NT 10.0; Win64; x64) AppleWebKit/537.36 (KHTML, like Gecko) Chrome/138.0.0.0 Safari/537.36 Edg/138.0.0.0","WebKit","Edge","138.0.0.0","Windows","10.0","https://app.prolific.com/","en-GB,en;q=0.9,en-US;q=0.8","6734fa51e57b0c1fa6b0924c","686d226cabeef709c732f8e1","686e58055a9a337078964b5e","6734fa51e57b0c1fa6b0924c","2025-07-09T12:15:28.100Z","","","","","","MotivationQ","","","","","","","","","","","","","","","","","","","","","","","","","","","","","","","","","","","","","","50"
