"rt","response_timestamp","stimulus","response","trial_type","trial_index","time_elapsed","internal_node_id","run_id","condition","recorded_at","source_code_version","ip","user_agent","device","browser","browser_version","platform","platform_version","referer","accept_language","PROLIFIC_PID","STUDY_ID","SESSION_ID","prolific_id","realtime","view_history","question_order","consent","success","question_id","eventType","responses","item_order","radio_event_ids","radio_event_times","key_event_times","mouse_event_times","straightlining","zigzagging","honeypot","which_type","canvas_config","goals_layout","control_level","trial_number","tutorial_trial_number","trial_start_time","phase1_start_time","phase2_start_time","phase3_start_time","goal_1_value","goal_1_distance","goal_2_value","goal_2_distance","goal_selected","outcome","outcome_total","participant_final_score","participant_initial_score","participant_final_score_prop","goal_choice_rt","allocated_time","allocated_time_remaining","goal_direction","counts","mouse_movements","key_presses","correct","slider_start"
"29718","1752052110758","<p style='font-size:40px;line-height:1.25'><strong>Welcome to the experiment!</strong></p><p style='font-size:1.1em;line-height:1.25'>Thank you for your interest in our experiment! Before you begin, it is important that we obtain your informed consent to participate in the study.</p><p style='font-size:1.1em;line-height:1.25'>On the next screen will be an <strong>information sheet</strong> for you to read. To participate in the study we need you to read this information sheet and the following consent form carefully. If you agree with all the statements, please click the <strong>I agree</strong> button.</p><p style='font-size:1.1em;line-height:1.25'>Press <strong>Next</strong> to read the information sheet.</p>","0","custom-html-button-response","0","29720","0.0-0.0","96","1","2025-07-09 09:07:52","7701e855f2ef39aa3fd6c71abdc6918a","89.46.183.214","Mozilla/5.0 (Windows NT 10.0; Win64; x64) AppleWebKit/537.36 (KHTML, like Gecko) Chrome/137.0.0.0 Safari/537.36","WebKit","Chrome","137.0.0.0","Windows","10.0","https://app.prolific.com/","en-US,en;q=0.9","67e469d0bbb689eacffa0ee0","686d226cabeef709c732f8e1","686e312a744cc6a8c4b80ce9","67e469d0bbb689eacffa0ee0","2025-07-09T09:08:30.760Z","","","","","","","","","","","","","","","","","","","","","","","","","","","","","","","","","","","","","","","","","","","",""
"117919","","","","instructions","1","147641","0.0-1.0","96","1","2025-07-09 09:07:52","7701e855f2ef39aa3fd6c71abdc6918a","89.46.183.214","Mozilla/5.0 (Windows NT 10.0; Win64; x64) AppleWebKit/537.36 (KHTML, like Gecko) Chrome/137.0.0.0 Safari/537.36","WebKit","Chrome","137.0.0.0","Windows","10.0","https://app.prolific.com/","en-US,en;q=0.9","67e469d0bbb689eacffa0ee0","686d226cabeef709c732f8e1","686e312a744cc6a8c4b80ce9","67e469d0bbb689eacffa0ee0","","[{""page_index"":0,""viewing_time"":79350},{""page_index"":1,""viewing_time"":38568}]","","","","","","","","","","","","","","","","","","","","","","","","","","","","","","","","","","","","","","","","","","",""
"99104","","","{""Q0"":"""",""Q1"":"""",""Q2"":"""",""Q3"":"""",""Q4"":"""",""Q5"":"""",""Q6"":""I agree""}","survey-multi-choice","2","246748","0.0-2.0","96","1","2025-07-09 09:07:52","7701e855f2ef39aa3fd6c71abdc6918a","89.46.183.214","Mozilla/5.0 (Windows NT 10.0; Win64; x64) AppleWebKit/537.36 (KHTML, like Gecko) Chrome/137.0.0.0 Safari/537.36","WebKit","Chrome","137.0.0.0","Windows","10.0","https://app.prolific.com/","en-US,en;q=0.9","67e469d0bbb689eacffa0ee0","686d226cabeef709c732f8e1","686e312a744cc6a8c4b80ce9","67e469d0bbb689eacffa0ee0","","","[0,1,2,3,4,5,6]","true","","","","","","","","","","","","","","","","","","","","","","","","","","","","","","","","","","","","","","","","",""
"11693","","","","fullscreen","3","259454","0.0-4.0","96","1","2025-07-09 09:07:52","7701e855f2ef39aa3fd6c71abdc6918a","89.46.183.214","Mozilla/5.0 (Windows NT 10.0; Win64; x64) AppleWebKit/537.36 (KHTML, like Gecko) Chrome/137.0.0.0 Safari/537.36","WebKit","Chrome","137.0.0.0","Windows","10.0","https://app.prolific.com/","en-US,en;q=0.9","67e469d0bbb689eacffa0ee0","686d226cabeef709c732f8e1","686e312a744cc6a8c4b80ce9","67e469d0bbb689eacffa0ee0","","","","","true","","","","","","","","","","","","","","","","","","","","","","","","","","","","","","","","","","","","","","","",""
"19761","1752052360256"," <p style='font-size:1.1em;line-height:1.25'>Thank you for completing the consent form and closing all other tabs.</p><p style='font-size:1.1em;line-height:1.25'>We will now invite you to fill in some demographic information and questionnaires, before starting the game.<br>This will take about 5 minutes.<br></p><p style='font-size:1.1em;line-height:1.25'>Press the <strong>Next</strong> button to continue.</p>","0","custom-html-button-response","4","279218","0.0-5.0","96","1","2025-07-09 09:07:52","7701e855f2ef39aa3fd6c71abdc6918a","89.46.183.214","Mozilla/5.0 (Windows NT 10.0; Win64; x64) AppleWebKit/537.36 (KHTML, like Gecko) Chrome/137.0.0.0 Safari/537.36","WebKit","Chrome","137.0.0.0","Windows","10.0","https://app.prolific.com/","en-US,en;q=0.9","67e469d0bbb689eacffa0ee0","686d226cabeef709c732f8e1","686e312a744cc6a8c4b80ce9","67e469d0bbb689eacffa0ee0","2025-07-09T09:12:40.257Z","","","","","","","","","","","","","","","","","","","","","","","","","","","","","","","","","","","","","","","","","","","",""
"5022","","","{""age"":""34""}","survey-text","5","284243","0.0-6.0-0.0","96","1","2025-07-09 09:07:52","7701e855f2ef39aa3fd6c71abdc6918a","89.46.183.214","Mozilla/5.0 (Windows NT 10.0; Win64; x64) AppleWebKit/537.36 (KHTML, like Gecko) Chrome/137.0.0.0 Safari/537.36","WebKit","Chrome","137.0.0.0","Windows","10.0","https://app.prolific.com/","en-US,en;q=0.9","67e469d0bbb689eacffa0ee0","686d226cabeef709c732f8e1","686e312a744cc6a8c4b80ce9","67e469d0bbb689eacffa0ee0","","","","","","0","demographics","","","","","","","","","","","","","","","","","","","","","","","","","","","","","","","","","","","","","",""
"3337","","","{""gender_identity"":""female/woman""}","survey-multi-choice","6","287582","0.0-6.0-1.0","96","1","2025-07-09 09:07:52","7701e855f2ef39aa3fd6c71abdc6918a","89.46.183.214","Mozilla/5.0 (Windows NT 10.0; Win64; x64) AppleWebKit/537.36 (KHTML, like Gecko) Chrome/137.0.0.0 Safari/537.36","WebKit","Chrome","137.0.0.0","Windows","10.0","https://app.prolific.com/","en-US,en;q=0.9","67e469d0bbb689eacffa0ee0","686d226cabeef709c732f8e1","686e312a744cc6a8c4b80ce9","67e469d0bbb689eacffa0ee0","","","[0]","","","1","demographics","","","","","","","","","","","","","","","","","","","","","","","","","","","","","","","","","","","","","",""
"6817","","","{""assigned_sex"":""male""}","survey-multi-choice","7","294400","0.0-6.0-2.0","96","1","2025-07-09 09:07:52","7701e855f2ef39aa3fd6c71abdc6918a","89.46.183.214","Mozilla/5.0 (Windows NT 10.0; Win64; x64) AppleWebKit/537.36 (KHTML, like Gecko) Chrome/137.0.0.0 Safari/537.36","WebKit","Chrome","137.0.0.0","Windows","10.0","https://app.prolific.com/","en-US,en;q=0.9","67e469d0bbb689eacffa0ee0","686d226cabeef709c732f8e1","686e312a744cc6a8c4b80ce9","67e469d0bbb689eacffa0ee0","","","[0]","","","2","demographics","","","","","","","","","","","","","","","","","","","","","","","","","","","","","","","","","","","","","",""
"6659","","","{""menstrual_cycle"":""No""}","survey-multi-choice","8","301060","0.0-6.0-3.0","96","1","2025-07-09 09:07:52","7701e855f2ef39aa3fd6c71abdc6918a","89.46.183.214","Mozilla/5.0 (Windows NT 10.0; Win64; x64) AppleWebKit/537.36 (KHTML, like Gecko) Chrome/137.0.0.0 Safari/537.36","WebKit","Chrome","137.0.0.0","Windows","10.0","https://app.prolific.com/","en-US,en;q=0.9","67e469d0bbb689eacffa0ee0","686d226cabeef709c732f8e1","686e312a744cc6a8c4b80ce9","67e469d0bbb689eacffa0ee0","","","[0]","","","4","demographics","","","","","","","","","","","","","","","","","","","","","","","","","","","","","","","","","","","","","",""
"6841","","","{""education"":""Master's Degree (e.g., MSc)""}","survey-multi-choice","9","307902","0.0-6.0-4.0","96","1","2025-07-09 09:07:52","7701e855f2ef39aa3fd6c71abdc6918a","89.46.183.214","Mozilla/5.0 (Windows NT 10.0; Win64; x64) AppleWebKit/537.36 (KHTML, like Gecko) Chrome/137.0.0.0 Safari/537.36","WebKit","Chrome","137.0.0.0","Windows","10.0","https://app.prolific.com/","en-US,en;q=0.9","67e469d0bbb689eacffa0ee0","686d226cabeef709c732f8e1","686e312a744cc6a8c4b80ce9","67e469d0bbb689eacffa0ee0","","","[0]","","","5","demographics","","","","","","","","","","","","","","","","","","","","","","","","","","","","","","","","","","","","","",""
"4893","","","{""education"":""Bachelor's Degree (e.g., BA)""}","survey-multi-choice","10","312797","0.0-6.0-5.0","96","1","2025-07-09 09:07:52","7701e855f2ef39aa3fd6c71abdc6918a","89.46.183.214","Mozilla/5.0 (Windows NT 10.0; Win64; x64) AppleWebKit/537.36 (KHTML, like Gecko) Chrome/137.0.0.0 Safari/537.36","WebKit","Chrome","137.0.0.0","Windows","10.0","https://app.prolific.com/","en-US,en;q=0.9","67e469d0bbb689eacffa0ee0","686d226cabeef709c732f8e1","686e312a744cc6a8c4b80ce9","67e469d0bbb689eacffa0ee0","2025-07-09T09:13:13.836Z","","[0]","","","6","demographics","","","","","","","","","","","","","","","","","","","","","","","","","","","","","","","","","","","","","",""
"139612","","","{""mental_health_condition"":""Autism"",""mental_health_treatment"":""yes, guidance and counselling"",""psychiatric_medication"":""no""}","survey-text","11","452410","0.0-7.0-0.0","96","1","2025-07-09 09:07:52","7701e855f2ef39aa3fd6c71abdc6918a","89.46.183.214","Mozilla/5.0 (Windows NT 10.0; Win64; x64) AppleWebKit/537.36 (KHTML, like Gecko) Chrome/137.0.0.0 Safari/537.36","WebKit","Chrome","137.0.0.0","Windows","10.0","https://app.prolific.com/","en-US,en;q=0.9","67e469d0bbb689eacffa0ee0","686d226cabeef709c732f8e1","686e312a744cc6a8c4b80ce9","67e469d0bbb689eacffa0ee0","2025-07-09T09:15:33.449Z","","","","","1","mental_health","","","","","","","","","","","","","","","","","","","","","","","","","","","","","","","","","","","","","",""
"11963","","","{""depression_history"":[""Yes""]}","survey-multi-select","12","464375","0.0-7.0-1.0","96","1","2025-07-09 09:07:52","7701e855f2ef39aa3fd6c71abdc6918a","89.46.183.214","Mozilla/5.0 (Windows NT 10.0; Win64; x64) AppleWebKit/537.36 (KHTML, like Gecko) Chrome/137.0.0.0 Safari/537.36","WebKit","Chrome","137.0.0.0","Windows","10.0","https://app.prolific.com/","en-US,en;q=0.9","67e469d0bbb689eacffa0ee0","686d226cabeef709c732f8e1","686e312a744cc6a8c4b80ce9","67e469d0bbb689eacffa0ee0","","","[0]","","","","mental_health","","","","","","","","","","","","","","","","","","","","","","","","","","","","","","","","","","","","","",""
"36396","","","{""depression_episodes"":""1-2"",""depression_recent"":""More than 1 year ago""}","survey-multi-choice","13","500773","0.0-7.0-2.0-0.0","96","1","2025-07-09 09:07:52","7701e855f2ef39aa3fd6c71abdc6918a","89.46.183.214","Mozilla/5.0 (Windows NT 10.0; Win64; x64) AppleWebKit/537.36 (KHTML, like Gecko) Chrome/137.0.0.0 Safari/537.36","WebKit","Chrome","137.0.0.0","Windows","10.0","https://app.prolific.com/","en-US,en;q=0.9","67e469d0bbb689eacffa0ee0","686d226cabeef709c732f8e1","686e312a744cc6a8c4b80ce9","67e469d0bbb689eacffa0ee0","2025-07-09T09:16:21.812Z","","[0,1]","","","3","mental_health","","","","","","","","","","","","","","","","","","","","","","","","","","","","","","","","","","","","","",""
"89844.8999999999","","","","survey-template","14","590622","0.0-7.0-3.0","96","1","2025-07-09 09:07:52","7701e855f2ef39aa3fd6c71abdc6918a","89.46.183.214","Mozilla/5.0 (Windows NT 10.0; Win64; x64) AppleWebKit/537.36 (KHTML, like Gecko) Chrome/137.0.0.0 Safari/537.36","WebKit","Chrome","137.0.0.0","Windows","10.0","https://app.prolific.com/","en-US,en;q=0.9","67e469d0bbb689eacffa0ee0","686d226cabeef709c732f8e1","686e312a744cc6a8c4b80ce9","67e469d0bbb689eacffa0ee0","2025-07-09T09:17:51.661Z","","","","","","ius","{""Q01"":""1"",""Q02"":""3"",""Q03"":""1"",""Q04"":""2"",""Q05"":""3"",""Q06"":""1"",""Q07"":""1"",""Q08"":""2"",""Q09"":""2"",""Q10"":""3"",""Q11"":""2"",""Q12"":""3"",""Q13"":""2""}","[0,1,2,3,4,5,6,7,8,9,10,11,12]","[""Q01"",""Q01"",""Q02"",""Q03"",""Q03"",""Q04"",""Q05"",""Q06"",""Q07"",""Q07"",""Q06"",""Q09"",""Q08"",""Q10"",""Q11"",""Q12"",""Q13""]","[14293.700000000186,17290.799999999814,25744.5,27733.600000000093,32103.700000000186,35834.700000000186,45767.799999999814,49924.89999999991,57602.700000000186,58007.299999999814,63124.200000000186,65221,66434.20000000019,76529.8999999999,81724,83500.3999999999,84306.1000000001]","[]","[209,14293.700000000186,17290.799999999814,19552.200000000186,25744.5,27733.600000000093,32103.700000000186,34770.10000000009,35834.700000000186,45767.799999999814,48858.299999999814,49924.89999999991,56478.700000000186,57602.700000000186,58007.299999999814,63124.200000000186,63968.10000000009,64320.10000000009,64807.10000000009,65221,66005,66434.20000000019,76529.8999999999,81724,83500.3999999999,84306.1000000001,89842.3999999999]","0.38461538461538464","0.5833333333333334","0","","","","","","","","","","","","","","","","","","","","","","","","","","","","",""
"15642","1752052687305","<p style='font-size:1.1em;line-height:1.25'>In the following, we will ask you a few questions relating to your experiences over the past month.<br></p><p style='font-size:1.1em;line-height:1.25'>Press the <strong>Next</strong> button to continue.</p>","0","custom-html-button-response","15","606266","0.0-7.0-4.0","96","1","2025-07-09 09:07:52","7701e855f2ef39aa3fd6c71abdc6918a","89.46.183.214","Mozilla/5.0 (Windows NT 10.0; Win64; x64) AppleWebKit/537.36 (KHTML, like Gecko) Chrome/137.0.0.0 Safari/537.36","WebKit","Chrome","137.0.0.0","Windows","10.0","https://app.prolific.com/","en-US,en;q=0.9","67e469d0bbb689eacffa0ee0","686d226cabeef709c732f8e1","686e312a744cc6a8c4b80ce9","67e469d0bbb689eacffa0ee0","2025-07-09T09:18:07.305Z","","","","","","","","","","","","","","","","","","","","","","","","","","","","","","","","","","","","","","","","","","","",""
"78634.80000000028","","","","survey-template","16","684904","0.0-7.0-5.0","96","1","2025-07-09 09:07:52","7701e855f2ef39aa3fd6c71abdc6918a","89.46.183.214","Mozilla/5.0 (Windows NT 10.0; Win64; x64) AppleWebKit/537.36 (KHTML, like Gecko) Chrome/137.0.0.0 Safari/537.36","WebKit","Chrome","137.0.0.0","Windows","10.0","https://app.prolific.com/","en-US,en;q=0.9","67e469d0bbb689eacffa0ee0","686d226cabeef709c732f8e1","686e312a744cc6a8c4b80ce9","67e469d0bbb689eacffa0ee0","2025-07-09T09:19:25.943Z","","","","","","pss","{""Q01"":""3"",""Q02"":""2"",""Q03"":""3"",""Q04"":""1"",""Q05"":""2"",""Q06"":""2"",""Q07"":""1"",""Q08"":""2"",""Q09"":""2"",""Q10"":""2""}","[0,1,2,3,4,5,6,7,8,9]","[""Q01"",""Q02"",""Q03"",""Q04"",""Q05"",""Q06"",""Q07"",""Q08"",""Q09"",""Q09"",""Q10""]","[16016,16391.900000000373,19379.900000000373,21513.30000000028,31572.400000000373,33243.5,43513.80000000028,44436.90000000037,48818.30000000028,49079.700000000186,50773.40000000037]","[]","[0,15482.200000000186,16016,16391.900000000373,17945.30000000028,18818.700000000186,19379.900000000373,19723.200000000186,20441.700000000186,20989.80000000028,21226.400000000373,21513.30000000028,21771.900000000373,22172.30000000028,31001.80000000028,31572.400000000373,32935.30000000028,33243.5,34072.30000000028,35396.700000000186,38930.10000000009,39628.5,40327.80000000028,40738,42411.90000000037,42979.5,43513.80000000028,44436.90000000037,45963,47705.5,48344.10000000009,48818.30000000028,49079.700000000186,49364,50773.40000000037,52586.80000000028,52869.60000000009,53579.30000000028,78632.5]","0.6","0.5555555555555556","0","","","","","","","","","","","","","","","","","","","","","","","","","","","","",""
"12837","1752052778780","<p style='font-size:1.1em;line-height:1.25'>Thank you for your answers! Now we will ask you a few more questions relating to your feelings in the last 24 hours.<br></p><p style='font-size:1.1em;line-height:1.25'>Press the <strong>Next</strong> button to continue.</p>","0","custom-html-button-response","17","697742","0.0-7.0-6.0","96","1","2025-07-09 09:07:52","7701e855f2ef39aa3fd6c71abdc6918a","89.46.183.214","Mozilla/5.0 (Windows NT 10.0; Win64; x64) AppleWebKit/537.36 (KHTML, like Gecko) Chrome/137.0.0.0 Safari/537.36","WebKit","Chrome","137.0.0.0","Windows","10.0","https://app.prolific.com/","en-US,en;q=0.9","67e469d0bbb689eacffa0ee0","686d226cabeef709c732f8e1","686e312a744cc6a8c4b80ce9","67e469d0bbb689eacffa0ee0","2025-07-09T09:19:38.781Z","","","","","","","","","","","","","","","","","","","","","","","","","","","","","","","","","","","","","","","","","","","",""
"142658.7999999998","","","","survey-template","18","840405","0.0-7.0-7.0","96","1","2025-07-09 09:07:52","7701e855f2ef39aa3fd6c71abdc6918a","89.46.183.214","Mozilla/5.0 (Windows NT 10.0; Win64; x64) AppleWebKit/537.36 (KHTML, like Gecko) Chrome/137.0.0.0 Safari/537.36","WebKit","Chrome","137.0.0.0","Windows","10.0","https://app.prolific.com/","en-US,en;q=0.9","67e469d0bbb689eacffa0ee0","686d226cabeef709c732f8e1","686e312a744cc6a8c4b80ce9","67e469d0bbb689eacffa0ee0","2025-07-09T09:22:01.444Z","","","","","","drsp","{""Q01"":""1"",""Q02"":""0"",""Q03"":""3"",""Q04"":""3"",""Q05"":""1"",""Q06"":""3"",""Q07"":""3"",""Q08"":""1"",""Q09"":""3"",""Q10"":""3"",""Q11"":""2"",""Q12"":""3"",""Q13"":""1"",""Q14"":""3"",""Q15"":""2"",""Q16"":""3"",""Q17"":""1"",""Q18"":""1"",""Q19"":""3"",""Q20"":""1"",""Q21"":""3""}","[0,1,2,3,4,5,6,7,8,9,10,11,12,13,14,15,16,17,18,19,20]","[""Q01"",""Q02"",""Q02"",""Q03"",""Q03"",""Q04"",""Q04"",""Q04"",""Q05"",""Q06"",""Q07"",""Q08"",""Q08"",""Q09"",""Q10"",""Q11"",""Q12"",""Q12"",""Q12"",""Q13"",""Q13"",""Q14"",""Q15"",""Q16"",""Q17"",""Q17"",""Q17"",""Q18"",""Q19"",""Q20"",""Q21"",""Q21""]","[4614.399999999907,7552.299999999814,10820.100000000093,11364.799999999814,16308.299999999814,20278.799999999814,26660.899999999907,27356.299999999814,28143.299999999814,37655.69999999972,39017.39999999991,42268,44292.69999999972,46047.799999999814,48322,50408.39999999991,62312,64373.799999999814,65463.69999999972,68770.5,70843,73768.29999999981,77558.8999999999,82153.3999999999,90492.5,91443.29999999981,93872.29999999981,94352.6000000001,98455.29999999981,123902.6000000001,130454.5,131447.6000000001]","[56592.299999999814,57957.19999999972,58283.19999999972]","[0.10000000009313226,4614.399999999907,6449.299999999814,7552.299999999814,10820.100000000093,10914.399999999907,11364.799999999814,16308.299999999814,20278.799999999814,26660.899999999907,27356.299999999814,28143.299999999814,37655.69999999972,39017.39999999991,42268,44292.69999999972,46047.799999999814,47916,48322,50408.39999999991,61708.89999999991,62312,64373.799999999814,65463.69999999972,67620.3999999999,68770.5,70843,73768.29999999981,74359.19999999972,76371.3999999999,77558.8999999999,79745.6000000001,79839,81169.19999999972,82153.3999999999,90492.5,91443.29999999981,92604.29999999981,93872.29999999981,94352.6000000001,98455.29999999981,107662.8999999999,111622.79999999981,123902.6000000001,130454.5,131447.6000000001,142655.2999999998]","0.5238095238095238","0.25","0","","","","","","","","","","","","","","","","","","","","","","","","","","","","",""
"17371.600000000093","","","","survey-template","19","857778","0.0-7.0-8.0","96","1","2025-07-09 09:07:52","7701e855f2ef39aa3fd6c71abdc6918a","89.46.183.214","Mozilla/5.0 (Windows NT 10.0; Win64; x64) AppleWebKit/537.36 (KHTML, like Gecko) Chrome/137.0.0.0 Safari/537.36","WebKit","Chrome","137.0.0.0","Windows","10.0","https://app.prolific.com/","en-US,en;q=0.9","67e469d0bbb689eacffa0ee0","686d226cabeef709c732f8e1","686e312a744cc6a8c4b80ce9","67e469d0bbb689eacffa0ee0","2025-07-09T09:22:18.818Z","","","","","","stress","{""Q01"":""1"",""Q02"":""2"",""Q03"":""3""}","[0,1,2]","[""Q01"",""Q02"",""Q03""]","[3930.1999999997206,8483.799999999814,16647.100000000093]","[]","[3930.1999999997206,8483.799999999814,16647.100000000093,17370.799999999814]","0.6666666666666666","0","0","","","","","","","","","","","","","","","","","","","","","","","","","","","","",""
"502693","","","","instructions","20","1360472","0.0-8.0-0.0","96","1","2025-07-09 09:07:52","7701e855f2ef39aa3fd6c71abdc6918a","89.46.183.214","Mozilla/5.0 (Windows NT 10.0; Win64; x64) AppleWebKit/537.36 (KHTML, like Gecko) Chrome/137.0.0.0 Safari/537.36","WebKit","Chrome","137.0.0.0","Windows","10.0","https://app.prolific.com/","en-US,en;q=0.9","67e469d0bbb689eacffa0ee0","686d226cabeef709c732f8e1","686e312a744cc6a8c4b80ce9","67e469d0bbb689eacffa0ee0","","[{""page_index"":0,""viewing_time"":253511},{""page_index"":1,""viewing_time"":46597},{""page_index"":2,""viewing_time"":63117},{""page_index"":3,""viewing_time"":139469}]","","","","","","","","","","","","","","","","","","","","","","","","","","","","","","","","","","","","","","","","","","",""
"","","","","ctl-task-cpt","21","1390494","0.0-8.0-1.0","96","1","2025-07-09 09:07:52","7701e855f2ef39aa3fd6c71abdc6918a","89.46.183.214","Mozilla/5.0 (Windows NT 10.0; Win64; x64) AppleWebKit/537.36 (KHTML, like Gecko) Chrome/137.0.0.0 Safari/537.36","WebKit","Chrome","137.0.0.0","Windows","10.0","https://app.prolific.com/","en-US,en;q=0.9","67e469d0bbb689eacffa0ee0","686d226cabeef709c732f8e1","686e312a744cc6a8c4b80ce9","67e469d0bbb689eacffa0ee0","","","","","","","","","","","","","","","","","win-only","3","g1:SW,g2:NE","1","0","1","1372453.4","5609.4","9610.4","27013.5","2","4","4","6","1","-2","-3","0","0","0","1711","4000","-3005","[""down"",""left""]","{""num_key_presses"":3,""num_perfect"":1,""num_errors"":1,""num_randdir"":0,""num_randdir_good_moves"":0,""num_whilered"":1,""num_whileblue"":0,""num_blue"":2,""num_good_moves"":1}","[344.64285714285717,344.31733472006664,0.3,344.64285714285717,344.31733472006664,102.1,344.64285714285717,344.31733472006664,207,344.64285714285717,344.31733472006664,307.4,344.64285714285717,344.31733472006664,416.5,344.64285714285717,344.31733472006664,517.2,344.64285714285717,344.31733472006664,617.3,260.89285714285717,385.56733472006664,719.1,257.14285714285717,386.81733472006664,821.7,249.64285714285714,391.81733472006664,921.9,249.64285714285714,393.06733472006664,1021.9,242.14285714285714,425.56733472006664,1126.8,127.14285714285714,556.8173347200666,1234.6,102.14285714285714,596.8173347200666,1338.8,57.142857142857146,649.3173347200666,1442.1,57.142857142857146,649.3173347200666,1542.1,57.142857142857146,649.3173347200666,1651.4,57.142857142857146,649.3173347200666,1756.8,57.142857142857146,649.3173347200666,1857,57.142857142857146,649.3173347200666,1975.1,57.142857142857146,649.3173347200666,2076.5,57.142857142857146,649.3173347200666,2176.9,57.142857142857146,649.3173347200666,2283.4,57.142857142857146,649.3173347200666,2383.7,57.142857142857146,649.3173347200666,2484,57.142857142857146,649.3173347200666,2586.2,57.142857142857146,649.3173347200666,2686.8,57.142857142857146,649.3173347200666,2787.2,57.142857142857146,649.3173347200666,2892,57.142857142857146,649.3173347200666,3000.6,57.142857142857146,649.3173347200666,3101.4,57.142857142857146,649.3173347200666,3206.9,57.142857142857146,649.3173347200666,3316.4,57.142857142857146,649.3173347200666,3417.4,57.142857142857146,649.3173347200666,3522.3,57.142857142857146,649.3173347200666,3627,57.142857142857146,649.3173347200666,3733.4,57.142857142857146,649.3173347200666,3833.4,57.142857142857146,649.3173347200666,3934]","[6682.1,6682.1,3181,2005.9,1495.2,""smooth"",""down"",""down"",""good_move"",7209.3,526.7,3130.4,6682.6,-2603.7,""error"",""-"",""-"",""no_move"",7571.9,362.3,3130.4,6682.6,-2241.1,""while_red"",""-"",""-"",""no_move""]","",""
"47259","","","","instructions","22","1437754","0.0-8.0-2.0","96","1","2025-07-09 09:07:52","7701e855f2ef39aa3fd6c71abdc6918a","89.46.183.214","Mozilla/5.0 (Windows NT 10.0; Win64; x64) AppleWebKit/537.36 (KHTML, like Gecko) Chrome/137.0.0.0 Safari/537.36","WebKit","Chrome","137.0.0.0","Windows","10.0","https://app.prolific.com/","en-US,en;q=0.9","67e469d0bbb689eacffa0ee0","686d226cabeef709c732f8e1","686e312a744cc6a8c4b80ce9","67e469d0bbb689eacffa0ee0","","[{""page_index"":0,""viewing_time"":47259}]","","","","","","","","","","","","","","","","","","","","","","","","","","","","","","","","","","","","","","","","","","",""
"","","","","ctl-task-cpt","23","1472375","0.0-8.0-3.0","96","1","2025-07-09 09:07:52","7701e855f2ef39aa3fd6c71abdc6918a","89.46.183.214","Mozilla/5.0 (Windows NT 10.0; Win64; x64) AppleWebKit/537.36 (KHTML, like Gecko) Chrome/137.0.0.0 Safari/537.36","WebKit","Chrome","137.0.0.0","Windows","10.0","https://app.prolific.com/","en-US,en;q=0.9","67e469d0bbb689eacffa0ee0","686d226cabeef709c732f8e1","686e312a744cc6a8c4b80ce9","67e469d0bbb689eacffa0ee0","","","","","","","","","","","","","","","","","win-only","3","g1:SW,g2:NE","0.35","0","3","1449735.6","4290.8","8291.8","31600.5","2","4","8","6","1","-2","-4","0","0","0","2030.7","4000","-2705","[""down"",""left""]","{""num_key_presses"":7,""num_perfect"":2,""num_errors"":2,""num_randdir"":3,""num_randdir_good_moves"":1,""num_whilered"":0,""num_whileblue"":0,""num_blue"":0,""num_good_moves"":2}","[354.64285714285717,349.31733472006664,0.5,354.64285714285717,349.31733472006664,100.1,354.64285714285717,349.31733472006664,202.1,354.64285714285717,349.31733472006664,304.8,354.64285714285717,349.31733472006664,405.2,354.64285714285717,349.31733472006664,505.4,354.64285714285717,349.31733472006664,606.1,354.64285714285717,349.31733472006664,712.6,354.64285714285717,349.31733472006664,812.7,354.64285714285717,349.31733472006664,917.3,350.89285714285717,350.56733472006664,1020.6,314.64285714285717,366.81733472006664,1126.1,284.64285714285717,391.81733472006664,1230,284.64285714285717,391.81733472006664,1330,284.64285714285717,391.81733472006664,1431.5,167.14285714285714,513.0673347200666,1535.5,129.64285714285714,551.8173347200666,1640.9,82.14285714285714,619.3173347200666,1741.7,74.64285714285714,621.8173347200666,1843.5,74.64285714285714,621.8173347200666,1945,74.64285714285714,621.8173347200666,2045.6,74.64285714285714,621.8173347200666,2145.8,74.64285714285714,621.8173347200666,2247,74.64285714285714,621.8173347200666,2350.1,74.64285714285714,621.8173347200666,2450.9,74.64285714285714,621.8173347200666,2551.1,74.64285714285714,621.8173347200666,2651.2,74.64285714285714,621.8173347200666,2756.7,117.14285714285714,653.0673347200666,2864.1,157.14285714285714,646.8173347200666,2965,244.64285714285714,551.8173347200666,3065.1,263.39285714285717,545.5673347200666,3165.6,279.64285714285717,543.0673347200666,3265.9,279.64285714285717,543.0673347200666,3366.8,279.64285714285717,543.0673347200666,3472.1,279.64285714285717,543.0673347200666,3579.3,279.64285714285717,543.0673347200666,3680,279.64285714285717,543.0673347200666,3782.7,279.64285714285717,543.0673347200666,3886.5,279.64285714285717,543.0673347200666,3996.1]","[1881,1881,1000,0,881,""oops"",""down"",""right"",""bad_move"",2593.4,711.8,2492.7,1881.8,-1781,""error"",""-"",""-"",""no_move"",7259.4,4665.6,2763.3,3594.5,901.6,""smooth"",""right"",""right"",""bad_move"",8213.1,953.3,1607.4,7259.8,-654.1,""error"",""-"",""-"",""no_move"",13583.5,5370.2,3364.9,9213.9,1004.7,""oops"",""up"",""up"",""bad_move"",17241.4,3657.3,2732.8,13584.1,924.5,""oops"",""up"",""left"",""good_move"",20707.6,3465.8,2965.3,17241.9,500.5,""smooth"",""left"",""left"",""good_move""]","",""
"44492","","","","instructions","24","1516869","0.0-8.0-4.0","96","1","2025-07-09 09:07:52","7701e855f2ef39aa3fd6c71abdc6918a","89.46.183.214","Mozilla/5.0 (Windows NT 10.0; Win64; x64) AppleWebKit/537.36 (KHTML, like Gecko) Chrome/137.0.0.0 Safari/537.36","WebKit","Chrome","137.0.0.0","Windows","10.0","https://app.prolific.com/","en-US,en;q=0.9","67e469d0bbb689eacffa0ee0","686d226cabeef709c732f8e1","686e312a744cc6a8c4b80ce9","67e469d0bbb689eacffa0ee0","","[{""page_index"":0,""viewing_time"":16807},{""page_index"":1,""viewing_time"":27685}]","","","","","","","","","","","","","","","","","","","","","","","","","","","","","","","","","","","","","","","","","","",""
"12757","","","{""green_ball"":[""Ball always moves in the direction I press""]}","survey-multi-select","25","1529634","0.0-8.0-5.0-0.0","96","1","2025-07-09 09:07:52","7701e855f2ef39aa3fd6c71abdc6918a","89.46.183.214","Mozilla/5.0 (Windows NT 10.0; Win64; x64) AppleWebKit/537.36 (KHTML, like Gecko) Chrome/137.0.0.0 Safari/537.36","WebKit","Chrome","137.0.0.0","Windows","10.0","https://app.prolific.com/","en-US,en;q=0.9","67e469d0bbb689eacffa0ee0","686d226cabeef709c732f8e1","686e312a744cc6a8c4b80ce9","67e469d0bbb689eacffa0ee0","","","[0]","","","","quiz","","","","","","","","","","","","","","","","","","","","","","","","","","","","","","","","","","","","","false",""
"5973","","<p align='center'><b>INCORRECT.</b> Usually the green ball moves in the indicated direction, but sometimes it shakes and moves randomly. </p>","0","html-button-response","26","1535612","0.0-8.0-5.0-1.0","96","1","2025-07-09 09:07:52","7701e855f2ef39aa3fd6c71abdc6918a","89.46.183.214","Mozilla/5.0 (Windows NT 10.0; Win64; x64) AppleWebKit/537.36 (KHTML, like Gecko) Chrome/137.0.0.0 Safari/537.36","WebKit","Chrome","137.0.0.0","Windows","10.0","https://app.prolific.com/","en-US,en;q=0.9","67e469d0bbb689eacffa0ee0","686d226cabeef709c732f8e1","686e312a744cc6a8c4b80ce9","67e469d0bbb689eacffa0ee0","","","","","","","","","","","","","","","","","","","","","","","","","","","","","","","","","","","","","","","","","","","","",""
"18673","","","{""green_ball"":[""Ball sometimes shakes and moves in a random direction""]}","survey-multi-select","27","1554288","0.0-8.0-5.1-0.1","96","1","2025-07-09 09:07:52","7701e855f2ef39aa3fd6c71abdc6918a","89.46.183.214","Mozilla/5.0 (Windows NT 10.0; Win64; x64) AppleWebKit/537.36 (KHTML, like Gecko) Chrome/137.0.0.0 Safari/537.36","WebKit","Chrome","137.0.0.0","Windows","10.0","https://app.prolific.com/","en-US,en;q=0.9","67e469d0bbb689eacffa0ee0","686d226cabeef709c732f8e1","686e312a744cc6a8c4b80ce9","67e469d0bbb689eacffa0ee0","","","[0]","","","","quiz","","","","","","","","","","","","","","","","","","","","","","","","","","","","","","","","","","","","","true",""
"3724","","<p align='center'><b>CORRECT!</b> Indeed, the green ball may sometimes shake and move in a random direction.</p>","0","html-button-response","28","1558015","0.0-8.0-5.1-1.1","96","1","2025-07-09 09:07:52","7701e855f2ef39aa3fd6c71abdc6918a","89.46.183.214","Mozilla/5.0 (Windows NT 10.0; Win64; x64) AppleWebKit/537.36 (KHTML, like Gecko) Chrome/137.0.0.0 Safari/537.36","WebKit","Chrome","137.0.0.0","Windows","10.0","https://app.prolific.com/","en-US,en;q=0.9","67e469d0bbb689eacffa0ee0","686d226cabeef709c732f8e1","686e312a744cc6a8c4b80ce9","67e469d0bbb689eacffa0ee0","","","","","","","","","","","","","","","","","","","","","","","","","","","","","","","","","","","","","","","","","","","","",""
"18039","","","{""yellow_ball"":[""Ball doesn‘t move and I get -1 penalty point""]}","survey-multi-select","29","1576060","0.0-8.0-6.0-0.0","96","1","2025-07-09 09:07:52","7701e855f2ef39aa3fd6c71abdc6918a","89.46.183.214","Mozilla/5.0 (Windows NT 10.0; Win64; x64) AppleWebKit/537.36 (KHTML, like Gecko) Chrome/137.0.0.0 Safari/537.36","WebKit","Chrome","137.0.0.0","Windows","10.0","https://app.prolific.com/","en-US,en;q=0.9","67e469d0bbb689eacffa0ee0","686d226cabeef709c732f8e1","686e312a744cc6a8c4b80ce9","67e469d0bbb689eacffa0ee0","","","[0]","","","","quiz","","","","","","","","","","","","","","","","","","","","","","","","","","","","","","","","","","","","","true",""
"2358","","<p align='center'><b>CORRECT!</b> Indeed, the yellow ball never moves and you receive a penalty.</p>","0","html-button-response","30","1578421","0.0-8.0-6.0-1.0","96","1","2025-07-09 09:07:52","7701e855f2ef39aa3fd6c71abdc6918a","89.46.183.214","Mozilla/5.0 (Windows NT 10.0; Win64; x64) AppleWebKit/537.36 (KHTML, like Gecko) Chrome/137.0.0.0 Safari/537.36","WebKit","Chrome","137.0.0.0","Windows","10.0","https://app.prolific.com/","en-US,en;q=0.9","67e469d0bbb689eacffa0ee0","686d226cabeef709c732f8e1","686e312a744cc6a8c4b80ce9","67e469d0bbb689eacffa0ee0","","","","","","","","","","","","","","","","","","","","","","","","","","","","","","","","","","","","","","","","","","","","",""
"7365","","","{""blue_ball"":[""Ball doesn‘t move and I get -1 penalty point""]}","survey-multi-select","31","1585791","0.0-8.0-7.0-0.0","96","1","2025-07-09 09:07:52","7701e855f2ef39aa3fd6c71abdc6918a","89.46.183.214","Mozilla/5.0 (Windows NT 10.0; Win64; x64) AppleWebKit/537.36 (KHTML, like Gecko) Chrome/137.0.0.0 Safari/537.36","WebKit","Chrome","137.0.0.0","Windows","10.0","https://app.prolific.com/","en-US,en;q=0.9","67e469d0bbb689eacffa0ee0","686d226cabeef709c732f8e1","686e312a744cc6a8c4b80ce9","67e469d0bbb689eacffa0ee0","","","[0]","","","","quiz","","","","","","","","","","","","","","","","","","","","","","","","","","","","","","","","","","","","","false",""
"2521","","<p align='center'><b>INCORRECT.</b> The blue ball always shakes and moves randomly.</p>","0","html-button-response","32","1588315","0.0-8.0-7.0-1.0","96","1","2025-07-09 09:07:52","7701e855f2ef39aa3fd6c71abdc6918a","89.46.183.214","Mozilla/5.0 (Windows NT 10.0; Win64; x64) AppleWebKit/537.36 (KHTML, like Gecko) Chrome/137.0.0.0 Safari/537.36","WebKit","Chrome","137.0.0.0","Windows","10.0","https://app.prolific.com/","en-US,en;q=0.9","67e469d0bbb689eacffa0ee0","686d226cabeef709c732f8e1","686e312a744cc6a8c4b80ce9","67e469d0bbb689eacffa0ee0","","","","","","","","","","","","","","","","","","","","","","","","","","","","","","","","","","","","","","","","","","","","",""
"6027","","","{""blue_ball"":[""Ball sometimes shakes and moves in a random direction""]}","survey-multi-select","33","1594345","0.0-8.0-7.1-0.1","96","1","2025-07-09 09:07:52","7701e855f2ef39aa3fd6c71abdc6918a","89.46.183.214","Mozilla/5.0 (Windows NT 10.0; Win64; x64) AppleWebKit/537.36 (KHTML, like Gecko) Chrome/137.0.0.0 Safari/537.36","WebKit","Chrome","137.0.0.0","Windows","10.0","https://app.prolific.com/","en-US,en;q=0.9","67e469d0bbb689eacffa0ee0","686d226cabeef709c732f8e1","686e312a744cc6a8c4b80ce9","67e469d0bbb689eacffa0ee0","","","[0]","","","","quiz","","","","","","","","","","","","","","","","","","","","","","","","","","","","","","","","","","","","","false",""
"1890","","<p align='center'><b>INCORRECT.</b> The blue ball always shakes and moves randomly.</p>","0","html-button-response","34","1596238","0.0-8.0-7.1-1.1","96","1","2025-07-09 09:07:52","7701e855f2ef39aa3fd6c71abdc6918a","89.46.183.214","Mozilla/5.0 (Windows NT 10.0; Win64; x64) AppleWebKit/537.36 (KHTML, like Gecko) Chrome/137.0.0.0 Safari/537.36","WebKit","Chrome","137.0.0.0","Windows","10.0","https://app.prolific.com/","en-US,en;q=0.9","67e469d0bbb689eacffa0ee0","686d226cabeef709c732f8e1","686e312a744cc6a8c4b80ce9","67e469d0bbb689eacffa0ee0","","","","","","","","","","","","","","","","","","","","","","","","","","","","","","","","","","","","","","","","","","","","",""
"11652","","","{""blue_ball"":[""Ball always shakes and moves in a random direction""]}","survey-multi-select","35","1607897","0.0-8.0-7.2-0.2","96","1","2025-07-09 09:07:52","7701e855f2ef39aa3fd6c71abdc6918a","89.46.183.214","Mozilla/5.0 (Windows NT 10.0; Win64; x64) AppleWebKit/537.36 (KHTML, like Gecko) Chrome/137.0.0.0 Safari/537.36","WebKit","Chrome","137.0.0.0","Windows","10.0","https://app.prolific.com/","en-US,en;q=0.9","67e469d0bbb689eacffa0ee0","686d226cabeef709c732f8e1","686e312a744cc6a8c4b80ce9","67e469d0bbb689eacffa0ee0","","","[0]","","","","quiz","","","","","","","","","","","","","","","","","","","","","","","","","","","","","","","","","","","","","true",""
"1640","","<p align='center'><b>CORRECT!</b> Indeed, the blue ball always shakes and moves in a random direction. Also there is a penalty of -1 point.</p>","0","html-button-response","36","1609542","0.0-8.0-7.2-1.2","96","1","2025-07-09 09:07:52","7701e855f2ef39aa3fd6c71abdc6918a","89.46.183.214","Mozilla/5.0 (Windows NT 10.0; Win64; x64) AppleWebKit/537.36 (KHTML, like Gecko) Chrome/137.0.0.0 Safari/537.36","WebKit","Chrome","137.0.0.0","Windows","10.0","https://app.prolific.com/","en-US,en;q=0.9","67e469d0bbb689eacffa0ee0","686d226cabeef709c732f8e1","686e312a744cc6a8c4b80ce9","67e469d0bbb689eacffa0ee0","","","","","","","","","","","","","","","","","","","","","","","","","","","","","","","","","","","","","","","","","","","","",""
"7629","","","{""bonus"":[""When I reach 50% of points""]}","survey-multi-select","37","1617176","0.0-8.0-8.0-0.0","96","1","2025-07-09 09:07:52","7701e855f2ef39aa3fd6c71abdc6918a","89.46.183.214","Mozilla/5.0 (Windows NT 10.0; Win64; x64) AppleWebKit/537.36 (KHTML, like Gecko) Chrome/137.0.0.0 Safari/537.36","WebKit","Chrome","137.0.0.0","Windows","10.0","https://app.prolific.com/","en-US,en;q=0.9","67e469d0bbb689eacffa0ee0","686d226cabeef709c732f8e1","686e312a744cc6a8c4b80ce9","67e469d0bbb689eacffa0ee0","","","[0]","","","","quiz","","","","","","","","","","","","","","","","","","","","","","","","","","","","","","","","","","","","","true",""
"3533","","<p align='center'><b>CORRECT!</b> Indeed, you receive 2 pounds extra when you reach 50% of points.</p>","0","html-button-response","38","1620712","0.0-8.0-8.0-1.0","96","1","2025-07-09 09:07:52","7701e855f2ef39aa3fd6c71abdc6918a","89.46.183.214","Mozilla/5.0 (Windows NT 10.0; Win64; x64) AppleWebKit/537.36 (KHTML, like Gecko) Chrome/137.0.0.0 Safari/537.36","WebKit","Chrome","137.0.0.0","Windows","10.0","https://app.prolific.com/","en-US,en;q=0.9","67e469d0bbb689eacffa0ee0","686d226cabeef709c732f8e1","686e312a744cc6a8c4b80ce9","67e469d0bbb689eacffa0ee0","","","","","","","","","","","","","","","","","","","","","","","","","","","","","","","","","","","","","","","","","","","","",""
"8333","","","","instructions","39","1629046","0.0-8.0-9.0","96","1","2025-07-09 09:07:52","7701e855f2ef39aa3fd6c71abdc6918a","89.46.183.214","Mozilla/5.0 (Windows NT 10.0; Win64; x64) AppleWebKit/537.36 (KHTML, like Gecko) Chrome/137.0.0.0 Safari/537.36","WebKit","Chrome","137.0.0.0","Windows","10.0","https://app.prolific.com/","en-US,en;q=0.9","67e469d0bbb689eacffa0ee0","686d226cabeef709c732f8e1","686e312a744cc6a8c4b80ce9","67e469d0bbb689eacffa0ee0","","[{""page_index"":0,""viewing_time"":8332}]","","","","","","","","","","","","","","","","","","","","","","","","","","","","","","","","","","","","","","","","","","",""
"10841","","<p>Before you start with this game please answer the following three questions yourself. </p>
  <p>Through this game, we measure several aspects of your cognitive performance, such as reaction times, multi-tasking capabilities </p>
  <p>and the ability to assess the situation you are in.</p>
  <p></p>
  <p><b>How good do you usually are in such tasks?</b></p>","60","html-slider-response","40","1639890","0.0-9.0-0.0","96","1","2025-07-09 09:07:52","7701e855f2ef39aa3fd6c71abdc6918a","89.46.183.214","Mozilla/5.0 (Windows NT 10.0; Win64; x64) AppleWebKit/537.36 (KHTML, like Gecko) Chrome/137.0.0.0 Safari/537.36","WebKit","Chrome","137.0.0.0","Windows","10.0","https://app.prolific.com/","en-US,en;q=0.9","67e469d0bbb689eacffa0ee0","686d226cabeef709c732f8e1","686e312a744cc6a8c4b80ce9","67e469d0bbb689eacffa0ee0","2025-07-09T09:35:20.929Z","","","","","","PreSkillQ","","","","","","","","","","","","","","","","","","","","","","","","","","","","","","","","","","","","","","50"
"4386","","<div style=""width:500px;"">
  <p>How well do you think you will perform in this task compared to other participants?</p>
  </div>","56","html-slider-response","41","1644279","0.0-9.0-1.0","96","1","2025-07-09 09:07:52","7701e855f2ef39aa3fd6c71abdc6918a","89.46.183.214","Mozilla/5.0 (Windows NT 10.0; Win64; x64) AppleWebKit/537.36 (KHTML, like Gecko) Chrome/137.0.0.0 Safari/537.36","WebKit","Chrome","137.0.0.0","Windows","10.0","https://app.prolific.com/","en-US,en;q=0.9","67e469d0bbb689eacffa0ee0","686d226cabeef709c732f8e1","686e312a744cc6a8c4b80ce9","67e469d0bbb689eacffa0ee0","2025-07-09T09:35:25.318Z","","","","","","PrePerfQ","","","","","","","","","","","","","","","","","","","","","","","","","","","","","","","","","","","","","","50"
"8725","","<div style=""width:500px;"">
  <p>What best describes how you currently feel?</p>
  </div>","68","html-slider-response","42","1653013","0.0-9.0-2.0","96","1","2025-07-09 09:07:52","7701e855f2ef39aa3fd6c71abdc6918a","89.46.183.214","Mozilla/5.0 (Windows NT 10.0; Win64; x64) AppleWebKit/537.36 (KHTML, like Gecko) Chrome/137.0.0.0 Safari/537.36","WebKit","Chrome","137.0.0.0","Windows","10.0","https://app.prolific.com/","en-US,en;q=0.9","67e469d0bbb689eacffa0ee0","686d226cabeef709c732f8e1","686e312a744cc6a8c4b80ce9","67e469d0bbb689eacffa0ee0","2025-07-09T09:35:34.053Z","","","","","","PreMotivationQ","","","","","","","","","","","","","","","","","","","","","","","","","","","","","","","","","","","","","","50"
"","","","","ctl-task-cpt","43","1688232","0.0-10.0-0.0","96","1","2025-07-09 09:07:52","7701e855f2ef39aa3fd6c71abdc6918a","89.46.183.214","Mozilla/5.0 (Windows NT 10.0; Win64; x64) AppleWebKit/537.36 (KHTML, like Gecko) Chrome/137.0.0.0 Safari/537.36","WebKit","Chrome","137.0.0.0","Windows","10.0","https://app.prolific.com/","en-US,en;q=0.9","67e469d0bbb689eacffa0ee0","686d226cabeef709c732f8e1","686e312a744cc6a8c4b80ce9","67e469d0bbb689eacffa0ee0","2025-07-09T09:36:09.271Z","","","","","","","","","","","","","","","","win-only","3","g1:SW,g2:NE","1","1","0","1665000","5508.9","10511.2","32192.6","1","4","4","6","1","1","1","1","0","0.007575757575757576","1725.9","3000","1450","[""down"",""left""]","{""num_key_presses"":4,""num_perfect"":4,""num_errors"":0,""num_randdir"":0,""num_randdir_good_moves"":0,""num_whilered"":0,""num_whileblue"":0,""num_blue"":3,""num_good_moves"":4}","[339.64285714285717,349.31733472006664,1.2,339.64285714285717,349.31733472006664,102.3,339.64285714285717,349.31733472006664,206.7,339.64285714285717,349.31733472006664,308.3,339.64285714285717,349.31733472006664,413.7,338.39285714285717,356.81733472006664,518.6,325.89285714285717,379.31733472006664,626.4,319.64285714285717,384.31733472006664,728.6,307.14285714285717,384.31733472006664,834.2,293.39285714285717,386.81733472006664,936.1,293.39285714285717,386.81733472006664,1039.8,293.39285714285717,386.81733472006664,1142.3,173.39285714285714,528.0673347200666,1248.6,102.14285714285714,590.5673347200666,1354.3,68.39285714285714,611.8173347200666,1460.9,60.892857142857146,618.0673347200666,1562.1,60.892857142857146,618.0673347200666,1663.4,60.892857142857146,618.0673347200666,1772.4,60.892857142857146,618.0673347200666,1874.2,60.892857142857146,618.0673347200666,1978.1,60.892857142857146,618.0673347200666,2085.3,60.892857142857146,618.0673347200666,2186.9,60.892857142857146,618.0673347200666,2288.8,60.892857142857146,618.0673347200666,2392.7,64.64285714285714,624.3173347200666,2492.8,104.64285714285714,665.5673347200666,2593.4,224.64285714285714,661.8173347200666,2693.7,262.14285714285717,651.8173347200666,2793.8,309.64285714285717,594.3173347200666,2899.1,379.64285714285717,534.3173347200666,3002.9,352.14285714285717,523.0673347200666,3106.9,297.14285714285717,449.31733472006664,3207.2,292.14285714285717,415.56733472006664,3309.2,292.14285714285717,415.56733472006664,3413.7,292.14285714285717,415.56733472006664,3525.4,292.14285714285717,415.56733472006664,3633.5,292.14285714285717,415.56733472006664,3737.1,292.14285714285717,415.56733472006664,3837.3,292.14285714285717,415.56733472006664,3937.4,292.14285714285717,415.56733472006664,4043.3,292.14285714285717,415.56733472006664,4143.5,292.14285714285717,415.56733472006664,4243.7,292.14285714285717,415.56733472006664,4351.4,292.14285714285717,415.56733472006664,4477.9,292.14285714285717,415.56733472006664,4590.3,292.14285714285717,415.56733472006664,4691.8,292.14285714285717,415.56733472006664,4793.4,292.14285714285717,415.56733472006664,4898.2]","[1354.1,1354,1000,0.1,354,""smooth"",""down"",""down"",""good_move"",4304.8,2950.1,2369.4,1354.9,580.6,""smooth"",""down"",""down"",""good_move"",11866.2,7560.8,2960.7,8441.2,464.3,""smooth"",""left"",""left"",""good_move"",21568.9,9702.1,2048.2,19054.8,466,""smooth"",""left"",""left"",""good_move""]","",""
"5794","","<div style=""width:500px;"">
  <p>What determined the result of this run?</p>
  </div>","60","html-slider-response","44","1694029","0.0-10.0-1.0","96","1","2025-07-09 09:07:52","7701e855f2ef39aa3fd6c71abdc6918a","89.46.183.214","Mozilla/5.0 (Windows NT 10.0; Win64; x64) AppleWebKit/537.36 (KHTML, like Gecko) Chrome/137.0.0.0 Safari/537.36","WebKit","Chrome","137.0.0.0","Windows","10.0","https://app.prolific.com/","en-US,en;q=0.9","67e469d0bbb689eacffa0ee0","686d226cabeef709c732f8e1","686e312a744cc6a8c4b80ce9","67e469d0bbb689eacffa0ee0","2025-07-09T09:36:15.068Z","","","","","","AttribQ","","","","","","","","","","","","","","","","","","","","","","","","","","","","","","","","","","","","","","50"
"4628","","<div style=""width:500px;"">
  <p>How much control did you have over the ball?</p>
  </div>","67","html-slider-response","45","1698658","0.0-10.0-2.0","96","1","2025-07-09 09:07:52","7701e855f2ef39aa3fd6c71abdc6918a","89.46.183.214","Mozilla/5.0 (Windows NT 10.0; Win64; x64) AppleWebKit/537.36 (KHTML, like Gecko) Chrome/137.0.0.0 Safari/537.36","WebKit","Chrome","137.0.0.0","Windows","10.0","https://app.prolific.com/","en-US,en;q=0.9","67e469d0bbb689eacffa0ee0","686d226cabeef709c732f8e1","686e312a744cc6a8c4b80ce9","67e469d0bbb689eacffa0ee0","2025-07-09T09:36:19.697Z","","","","","","ControlQ","","","","","","","","","","","","","","","","","","","","","","","","","","","","","","","","","","","","","","50"
"4465","","<div style=""width:500px;"">
  <p>How would you describe your current emotional state?</p>
  </div>","35","html-slider-response","46","1703125","0.0-10.0-3.0","96","1","2025-07-09 09:07:52","7701e855f2ef39aa3fd6c71abdc6918a","89.46.183.214","Mozilla/5.0 (Windows NT 10.0; Win64; x64) AppleWebKit/537.36 (KHTML, like Gecko) Chrome/137.0.0.0 Safari/537.36","WebKit","Chrome","137.0.0.0","Windows","10.0","https://app.prolific.com/","en-US,en;q=0.9","67e469d0bbb689eacffa0ee0","686d226cabeef709c732f8e1","686e312a744cc6a8c4b80ce9","67e469d0bbb689eacffa0ee0","2025-07-09T09:36:24.165Z","","","","","","StressQ","","","","","","","","","","","","","","","","","","","","","","","","","","","","","","","","","","","","","","50"
"4894","","<div style=""width:500px;"">
  <p>What best describes how you currently feel?</p>
  </div>","58","html-slider-response","47","1708023","0.0-10.0-4.0","96","1","2025-07-09 09:07:52","7701e855f2ef39aa3fd6c71abdc6918a","89.46.183.214","Mozilla/5.0 (Windows NT 10.0; Win64; x64) AppleWebKit/537.36 (KHTML, like Gecko) Chrome/137.0.0.0 Safari/537.36","WebKit","Chrome","137.0.0.0","Windows","10.0","https://app.prolific.com/","en-US,en;q=0.9","67e469d0bbb689eacffa0ee0","686d226cabeef709c732f8e1","686e312a744cc6a8c4b80ce9","67e469d0bbb689eacffa0ee0","2025-07-09T09:36:29.062Z","","","","","","MotivationQ","","","","","","","","","","","","","","","","","","","","","","","","","","","","","","","","","","","","","","50"
"","","","","ctl-task-cpt","48","1742120","0.0-10.0-0.1","96","1","2025-07-09 09:07:52","7701e855f2ef39aa3fd6c71abdc6918a","89.46.183.214","Mozilla/5.0 (Windows NT 10.0; Win64; x64) AppleWebKit/537.36 (KHTML, like Gecko) Chrome/137.0.0.0 Safari/537.36","WebKit","Chrome","137.0.0.0","Windows","10.0","https://app.prolific.com/","en-US,en;q=0.9","67e469d0bbb689eacffa0ee0","686d226cabeef709c732f8e1","686e312a744cc6a8c4b80ce9","67e469d0bbb689eacffa0ee0","2025-07-09T09:37:03.159Z","","","","","","","","","","","","","","","","win-only","3","g1:SW,g2:NE","0.9","2","0","1720004.5","5073.8","10079","31082","1","4","8","6","2","8","8","9","1","0.06818181818181818","1465.6","3000","925","[""up"",""right""]","{""num_key_presses"":6,""num_perfect"":6,""num_errors"":0,""num_randdir"":0,""num_randdir_good_moves"":0,""num_whilered"":0,""num_whileblue"":0,""num_blue"":1,""num_good_moves"":6}","[342.14285714285717,341.81733472006664,1.1,342.14285714285717,341.81733472006664,100.2,342.14285714285717,341.81733472006664,210,342.14285714285717,341.81733472006664,316.5,342.14285714285717,341.81733472006664,418.7,509.64285714285717,133.0673347200666,526.2,624.6428571428571,100.56733472006661,633.8,569.6428571428571,141.8173347200666,735.6,568.3928571428571,140.5673347200666,838.8,572.1428571428571,130.5673347200666,940,572.1428571428571,130.5673347200666,1059.9,597.1428571428571,86.81733472006661,1162.6,612.1428571428571,74.31733472006661,1265.3,612.1428571428571,74.31733472006661,1366,612.1428571428571,74.31733472006661,1469.6,612.1428571428571,74.31733472006661,1584.1,612.1428571428571,74.31733472006661,1691.4,612.1428571428571,74.31733472006661,1795.5,612.1428571428571,74.31733472006661,1897.8,612.1428571428571,74.31733472006661,1998.2,612.1428571428571,74.31733472006661,2109.3,559.6428571428571,156.8173347200666,2214.8,497.14285714285717,230.5673347200666,2315.9,462.14285714285717,269.31733472006664,2417,457.14285714285717,273.06733472006664,2518.5,457.14285714285717,273.06733472006664,2622.9,389.64285714285717,319.31733472006664,2724.5,354.64285714285717,329.31733472006664,2826.9,344.64285714285717,326.81733472006664,2931.5,314.64285714285717,348.06733472006664,3033.8,299.64285714285717,368.06733472006664,3133.9,294.64285714285717,373.06733472006664,3242.4,294.64285714285717,373.06733472006664,3343.2,294.64285714285717,373.06733472006664,3448.8,294.64285714285717,373.06733472006664,3556.3,294.64285714285717,373.06733472006664,3660.4,294.64285714285717,373.06733472006664,3763.1,294.64285714285717,373.06733472006664,3864.6,294.64285714285717,373.06733472006664,3965.3,294.64285714285717,373.06733472006664,4069.2,294.64285714285717,373.06733472006664,4170.5,294.64285714285717,373.06733472006664,4274.6,294.64285714285717,373.06733472006664,4376.2,294.64285714285717,373.06733472006664,4478.1,294.64285714285717,373.06733472006664,4579,294.64285714285717,373.06733472006664,4683,294.64285714285717,373.06733472006664,4784,294.64285714285717,373.06733472006664,4884.1,294.64285714285717,373.06733472006664,4993.8]","[4570.9,4571,2131.3,2008.3,431.4,""smooth"",""up"",""up"",""good_move"",7655.4,3082.1,2622.7,4573.3,459.4,""smooth"",""right"",""right"",""good_move"",11250.2,3593.8,3129.6,7656.4,464.3,""smooth"",""right"",""right"",""good_move"",15127,3875.1,3210.6,11251.9,664.5,""smooth"",""up"",""up"",""good_move"",18589.7,3461.8,2837.2,15127.9,624.6,""smooth"",""right"",""right"",""good_move"",20860.3,2270.1,1798.3,18590.3,471.8,""smooth"",""up"",""up"",""good_move""]","",""
"7210","","<div style=""width:500px;"">
  <p>What determined the result of this run?</p>
  </div>","69","html-slider-response","49","1749334","0.0-10.0-1.1","96","1","2025-07-09 09:07:52","7701e855f2ef39aa3fd6c71abdc6918a","89.46.183.214","Mozilla/5.0 (Windows NT 10.0; Win64; x64) AppleWebKit/537.36 (KHTML, like Gecko) Chrome/137.0.0.0 Safari/537.36","WebKit","Chrome","137.0.0.0","Windows","10.0","https://app.prolific.com/","en-US,en;q=0.9","67e469d0bbb689eacffa0ee0","686d226cabeef709c732f8e1","686e312a744cc6a8c4b80ce9","67e469d0bbb689eacffa0ee0","2025-07-09T09:37:10.373Z","","","","","","AttribQ","","","","","","","","","","","","","","","","","","","","","","","","","","","","","","","","","","","","","","50"
"3092","","<div style=""width:500px;"">
  <p>How much control did you have over the ball?</p>
  </div>","62","html-slider-response","50","1752428","0.0-10.0-2.1","96","1","2025-07-09 09:07:52","7701e855f2ef39aa3fd6c71abdc6918a","89.46.183.214","Mozilla/5.0 (Windows NT 10.0; Win64; x64) AppleWebKit/537.36 (KHTML, like Gecko) Chrome/137.0.0.0 Safari/537.36","WebKit","Chrome","137.0.0.0","Windows","10.0","https://app.prolific.com/","en-US,en;q=0.9","67e469d0bbb689eacffa0ee0","686d226cabeef709c732f8e1","686e312a744cc6a8c4b80ce9","67e469d0bbb689eacffa0ee0","2025-07-09T09:37:13.467Z","","","","","","ControlQ","","","","","","","","","","","","","","","","","","","","","","","","","","","","","","","","","","","","","","50"
"2756","","<div style=""width:500px;"">
  <p>How would you describe your current emotional state?</p>
  </div>","34","html-slider-response","51","1755186","0.0-10.0-3.1","96","1","2025-07-09 09:07:52","7701e855f2ef39aa3fd6c71abdc6918a","89.46.183.214","Mozilla/5.0 (Windows NT 10.0; Win64; x64) AppleWebKit/537.36 (KHTML, like Gecko) Chrome/137.0.0.0 Safari/537.36","WebKit","Chrome","137.0.0.0","Windows","10.0","https://app.prolific.com/","en-US,en;q=0.9","67e469d0bbb689eacffa0ee0","686d226cabeef709c732f8e1","686e312a744cc6a8c4b80ce9","67e469d0bbb689eacffa0ee0","2025-07-09T09:37:16.225Z","","","","","","StressQ","","","","","","","","","","","","","","","","","","","","","","","","","","","","","","","","","","","","","","50"
"2698","","<div style=""width:500px;"">
  <p>What best describes how you currently feel?</p>
  </div>","67","html-slider-response","52","1757885","0.0-10.0-4.1","96","1","2025-07-09 09:07:52","7701e855f2ef39aa3fd6c71abdc6918a","89.46.183.214","Mozilla/5.0 (Windows NT 10.0; Win64; x64) AppleWebKit/537.36 (KHTML, like Gecko) Chrome/137.0.0.0 Safari/537.36","WebKit","Chrome","137.0.0.0","Windows","10.0","https://app.prolific.com/","en-US,en;q=0.9","67e469d0bbb689eacffa0ee0","686d226cabeef709c732f8e1","686e312a744cc6a8c4b80ce9","67e469d0bbb689eacffa0ee0","2025-07-09T09:37:18.924Z","","","","","","MotivationQ","","","","","","","","","","","","","","","","","","","","","","","","","","","","","","","","","","","","","","50"
"","","","","ctl-task-cpt","53","1797667","0.0-10.0-0.2","96","1","2025-07-09 09:07:52","7701e855f2ef39aa3fd6c71abdc6918a","89.46.183.214","Mozilla/5.0 (Windows NT 10.0; Win64; x64) AppleWebKit/537.36 (KHTML, like Gecko) Chrome/137.0.0.0 Safari/537.36","WebKit","Chrome","137.0.0.0","Windows","10.0","https://app.prolific.com/","en-US,en;q=0.9","67e469d0bbb689eacffa0ee0","686d226cabeef709c732f8e1","686e312a744cc6a8c4b80ce9","67e469d0bbb689eacffa0ee0","2025-07-09T09:37:58.706Z","","","","","","","","","","","","","","","","win-only","1","g1:NE,g2:SW","0.8","3","0","1769865","9217","14221.7","36755.9","1","4","4","6","2","4","4","13","9","0.09848484848484848","1499.3","3000","415","[""down"",""left""]","{""num_key_presses"":8,""num_perfect"":7,""num_errors"":0,""num_randdir"":1,""num_randdir_good_moves"":0,""num_whilered"":0,""num_whileblue"":0,""num_blue"":0,""num_good_moves"":7}","[344.64285714285717,344.31733472006664,0.5,344.64285714285717,344.31733472006664,103.3,344.64285714285717,344.31733472006664,204.1,344.64285714285717,344.31733472006664,306.4,344.64285714285717,344.31733472006664,409.1,344.64285714285717,344.31733472006664,509.3,347.14285714285717,343.06733472006664,609.7,364.64285714285717,331.81733472006664,711.1,179.64285714285714,563.0673347200666,821,79.64285714285714,678.0673347200666,925,67.14285714285714,691.8173347200666,1025.4,62.142857142857146,691.8173347200666,1130.3,62.142857142857146,666.8173347200666,1235.9,65.89285714285714,646.8173347200666,1339.6,65.89285714285714,646.8173347200666,1453.4,65.89285714285714,646.8173347200666,1555.2,65.89285714285714,646.8173347200666,1659,65.89285714285714,646.8173347200666,1769.3,65.89285714285714,646.8173347200666,1887.7,65.89285714285714,646.8173347200666,1991.6,65.89285714285714,646.8173347200666,2095.2,65.89285714285714,646.8173347200666,2195.2,65.89285714285714,646.8173347200666,2299.2,172.14285714285714,594.3173347200666,2403.6,347.14285714285717,519.3173347200666,2506,404.64285714285717,491.81733472006664,2611,424.64285714285717,421.81733472006664,2711.3,439.64285714285717,391.81733472006664,2820.5,439.64285714285717,391.81733472006664,2927.4,439.64285714285717,391.81733472006664,3035.7,439.64285714285717,391.81733472006664,3135.9,439.64285714285717,391.81733472006664,3236.1,439.64285714285717,391.81733472006664,3338.7,439.64285714285717,391.81733472006664,3440.2,439.64285714285717,391.81733472006664,3545.1,439.64285714285717,391.81733472006664,3645.5,439.64285714285717,391.81733472006664,3749.6,439.64285714285717,391.81733472006664,3850.4,439.64285714285717,391.81733472006664,3954.5,439.64285714285717,391.81733472006664,4064,439.64285714285717,391.81733472006664,4174.6,439.64285714285717,391.81733472006664,4287.5,439.64285714285717,391.81733472006664,4389.7,439.64285714285717,391.81733472006664,4498.8,439.64285714285717,391.81733472006664,4603,439.64285714285717,391.81733472006664,4704.5,439.64285714285717,391.81733472006664,4809.6,439.64285714285717,391.81733472006664,4915]","[1430.5,1430.5,1000,0,430.5,""smooth"",""down"",""down"",""good_move"",4483.4,3051.9,2546.1,1431.5,505.8,""oops"",""down"",""up"",""bad_move"",7782.6,3298.1,2386.5,4484.6,911.6,""smooth"",""down"",""down"",""good_move"",11093.4,3309.2,2752.4,7784.3,556.8,""smooth"",""down"",""down"",""good_move"",13828,2734.1,2330.7,11093.9,403.4,""smooth"",""left"",""left"",""good_move"",17035.7,3206.7,2818.3,13829.1,388.3,""smooth"",""left"",""left"",""good_move"",19793.8,2756.4,2338,17037.4,418.6,""smooth"",""down"",""down"",""good_move"",22393.4,2598.1,2135.4,19795.3,462.8,""smooth"",""left"",""left"",""good_move""]","",""
"3458","","<div style=""width:500px;"">
  <p>What determined the result of this run?</p>
  </div>","69","html-slider-response","54","1801129","0.0-10.0-1.2","96","1","2025-07-09 09:07:52","7701e855f2ef39aa3fd6c71abdc6918a","89.46.183.214","Mozilla/5.0 (Windows NT 10.0; Win64; x64) AppleWebKit/537.36 (KHTML, like Gecko) Chrome/137.0.0.0 Safari/537.36","WebKit","Chrome","137.0.0.0","Windows","10.0","https://app.prolific.com/","en-US,en;q=0.9","67e469d0bbb689eacffa0ee0","686d226cabeef709c732f8e1","686e312a744cc6a8c4b80ce9","67e469d0bbb689eacffa0ee0","2025-07-09T09:38:02.168Z","","","","","","AttribQ","","","","","","","","","","","","","","","","","","","","","","","","","","","","","","","","","","","","","","50"
"2270","","<div style=""width:500px;"">
  <p>How much control did you have over the ball?</p>
  </div>","67","html-slider-response","55","1803401","0.0-10.0-2.2","96","1","2025-07-09 09:07:52","7701e855f2ef39aa3fd6c71abdc6918a","89.46.183.214","Mozilla/5.0 (Windows NT 10.0; Win64; x64) AppleWebKit/537.36 (KHTML, like Gecko) Chrome/137.0.0.0 Safari/537.36","WebKit","Chrome","137.0.0.0","Windows","10.0","https://app.prolific.com/","en-US,en;q=0.9","67e469d0bbb689eacffa0ee0","686d226cabeef709c732f8e1","686e312a744cc6a8c4b80ce9","67e469d0bbb689eacffa0ee0","2025-07-09T09:38:04.441Z","","","","","","ControlQ","","","","","","","","","","","","","","","","","","","","","","","","","","","","","","","","","","","","","","50"
"1975","","<div style=""width:500px;"">
  <p>How would you describe your current emotional state?</p>
  </div>","27","html-slider-response","56","1805378","0.0-10.0-3.2","96","1","2025-07-09 09:07:52","7701e855f2ef39aa3fd6c71abdc6918a","89.46.183.214","Mozilla/5.0 (Windows NT 10.0; Win64; x64) AppleWebKit/537.36 (KHTML, like Gecko) Chrome/137.0.0.0 Safari/537.36","WebKit","Chrome","137.0.0.0","Windows","10.0","https://app.prolific.com/","en-US,en;q=0.9","67e469d0bbb689eacffa0ee0","686d226cabeef709c732f8e1","686e312a744cc6a8c4b80ce9","67e469d0bbb689eacffa0ee0","2025-07-09T09:38:06.418Z","","","","","","StressQ","","","","","","","","","","","","","","","","","","","","","","","","","","","","","","","","","","","","","","50"
"1526","","<div style=""width:500px;"">
  <p>What best describes how you currently feel?</p>
  </div>","72","html-slider-response","57","1806906","0.0-10.0-4.2","96","1","2025-07-09 09:07:52","7701e855f2ef39aa3fd6c71abdc6918a","89.46.183.214","Mozilla/5.0 (Windows NT 10.0; Win64; x64) AppleWebKit/537.36 (KHTML, like Gecko) Chrome/137.0.0.0 Safari/537.36","WebKit","Chrome","137.0.0.0","Windows","10.0","https://app.prolific.com/","en-US,en;q=0.9","67e469d0bbb689eacffa0ee0","686d226cabeef709c732f8e1","686e312a744cc6a8c4b80ce9","67e469d0bbb689eacffa0ee0","2025-07-09T09:38:07.945Z","","","","","","MotivationQ","","","","","","","","","","","","","","","","","","","","","","","","","","","","","","","","","","","","","","50"
"","","","","ctl-task-cpt","58","1916191","0.0-10.0-0.3","96","1","2025-07-09 09:07:52","7701e855f2ef39aa3fd6c71abdc6918a","89.46.183.214","Mozilla/5.0 (Windows NT 10.0; Win64; x64) AppleWebKit/537.36 (KHTML, like Gecko) Chrome/137.0.0.0 Safari/537.36","WebKit","Chrome","137.0.0.0","Windows","10.0","https://app.prolific.com/","en-US,en;q=0.9","67e469d0bbb689eacffa0ee0","686d226cabeef709c732f8e1","686e312a744cc6a8c4b80ce9","67e469d0bbb689eacffa0ee0","2025-07-09T09:39:57.230Z","","","","","","","","","","","","","","","","win-only","2","g1:SE,g2:NW","0.7","4","0","1818886.9","65923.7","70925.8","106267.4","1","4","8","6","2","8","8","21","13","0.1590909090909091","1350","3000","370","[""left"",""up""]","{""num_key_presses"":8,""num_perfect"":6,""num_errors"":0,""num_randdir"":2,""num_randdir_good_moves"":1,""num_whilered"":0,""num_whileblue"":0,""num_blue"":4,""num_good_moves"":7}","[337.14285714285717,346.81733472006664,2.5,337.14285714285717,346.81733472006664,106,337.14285714285717,346.81733472006664,207.3,337.14285714285717,346.81733472006664,314.9,337.14285714285717,346.81733472006664,424.3,337.14285714285717,346.81733472006664,529.6,337.14285714285717,346.81733472006664,633.3,337.14285714285717,346.81733472006664,733.7,185.89285714285714,204.3173347200666,836.3,37.142857142857146,78.06733472006661,939.2,24.642857142857146,71.81733472006661,1043.7,24.642857142857146,69.31733472006661,1144.8,24.642857142857146,68.06733472006661,1247.7,24.642857142857146,68.06733472006661,1356.7,24.642857142857146,68.06733472006661,1458.1,24.642857142857146,68.06733472006661,1561.2,24.642857142857146,68.06733472006661,1672.4,24.642857142857146,68.06733472006661,1798.1,24.642857142857146,68.06733472006661,1903.8,219.64285714285714,129.3173347200666,2006.7,314.64285714285717,191.8173347200666,2106.8,382.14285714285717,290.56733472006664,2207,315.89285714285717,359.31733472006664,2315.4,242.14285714285714,379.31733472006664,2427.8,234.64285714285714,381.81733472006664,2528,227.14285714285714,386.81733472006664,2631.6,227.14285714285714,386.81733472006664,2737.2,227.14285714285714,386.81733472006664,2858.9,227.14285714285714,386.81733472006664,2964.7,227.14285714285714,386.81733472006664,3069.6,227.14285714285714,386.81733472006664,3189.4,227.14285714285714,386.81733472006664,3293.4,227.14285714285714,386.81733472006664,3399.6,227.14285714285714,386.81733472006664,3509.5,227.14285714285714,386.81733472006664,3614.5,227.14285714285714,386.81733472006664,3715.6,227.14285714285714,386.81733472006664,3816.3,227.14285714285714,386.81733472006664,3920.8,227.14285714285714,386.81733472006664,4040.1,227.14285714285714,386.81733472006664,4183.4,227.14285714285714,386.81733472006664,4292.4,227.14285714285714,386.81733472006664,4396.5,227.14285714285714,386.81733472006664,4502.5,227.14285714285714,386.81733472006664,4605,227.14285714285714,386.81733472006664,4711.4,227.14285714285714,386.81733472006664,4811.5,227.14285714285714,386.81733472006664,4929.7]","[4956.8,4956.8,2569.3,2015.8,371.7,""smooth"",""left"",""left"",""good_move"",7429.5,2471,1868.2,4958.5,602.8,""smooth"",""left"",""left"",""good_move"",9748,2317.9,1838.3,7430.1,479.6,""oops"",""left"",""right"",""bad_move"",12869.6,3120.3,2469.9,9749.4,650.4,""smooth"",""left"",""left"",""good_move"",24621.7,11750.4,1823.8,22418.3,379.6,""smooth"",""up"",""up"",""good_move"",27721.5,3098.7,2535.1,24622.8,563.6,""oops"",""up"",""left"",""good_move"",31665.4,3943.2,2954.4,27722.2,988.8,""smooth"",""up"",""up"",""good_move"",35205.6,3539.6,3119.5,31666,420.1,""smooth"",""up"",""up"",""good_move""]","",""
"3773","","<div style=""width:500px;"">
  <p>What determined the result of this run?</p>
  </div>","66","html-slider-response","59","1919966","0.0-10.0-1.3","96","1","2025-07-09 09:07:52","7701e855f2ef39aa3fd6c71abdc6918a","89.46.183.214","Mozilla/5.0 (Windows NT 10.0; Win64; x64) AppleWebKit/537.36 (KHTML, like Gecko) Chrome/137.0.0.0 Safari/537.36","WebKit","Chrome","137.0.0.0","Windows","10.0","https://app.prolific.com/","en-US,en;q=0.9","67e469d0bbb689eacffa0ee0","686d226cabeef709c732f8e1","686e312a744cc6a8c4b80ce9","67e469d0bbb689eacffa0ee0","2025-07-09T09:40:01.005Z","","","","","","AttribQ","","","","","","","","","","","","","","","","","","","","","","","","","","","","","","","","","","","","","","50"
"3136","","<div style=""width:500px;"">
  <p>How much control did you have over the ball?</p>
  </div>","69","html-slider-response","60","1923104","0.0-10.0-2.3","96","1","2025-07-09 09:07:52","7701e855f2ef39aa3fd6c71abdc6918a","89.46.183.214","Mozilla/5.0 (Windows NT 10.0; Win64; x64) AppleWebKit/537.36 (KHTML, like Gecko) Chrome/137.0.0.0 Safari/537.36","WebKit","Chrome","137.0.0.0","Windows","10.0","https://app.prolific.com/","en-US,en;q=0.9","67e469d0bbb689eacffa0ee0","686d226cabeef709c732f8e1","686e312a744cc6a8c4b80ce9","67e469d0bbb689eacffa0ee0","2025-07-09T09:40:04.143Z","","","","","","ControlQ","","","","","","","","","","","","","","","","","","","","","","","","","","","","","","","","","","","","","","50"
"2295","","<div style=""width:500px;"">
  <p>How would you describe your current emotional state?</p>
  </div>","32","html-slider-response","61","1925401","0.0-10.0-3.3","96","1","2025-07-09 09:07:52","7701e855f2ef39aa3fd6c71abdc6918a","89.46.183.214","Mozilla/5.0 (Windows NT 10.0; Win64; x64) AppleWebKit/537.36 (KHTML, like Gecko) Chrome/137.0.0.0 Safari/537.36","WebKit","Chrome","137.0.0.0","Windows","10.0","https://app.prolific.com/","en-US,en;q=0.9","67e469d0bbb689eacffa0ee0","686d226cabeef709c732f8e1","686e312a744cc6a8c4b80ce9","67e469d0bbb689eacffa0ee0","2025-07-09T09:40:06.441Z","","","","","","StressQ","","","","","","","","","","","","","","","","","","","","","","","","","","","","","","","","","","","","","","50"
"2117","","<div style=""width:500px;"">
  <p>What best describes how you currently feel?</p>
  </div>","73","html-slider-response","62","1927521","0.0-10.0-4.3","96","1","2025-07-09 09:07:52","7701e855f2ef39aa3fd6c71abdc6918a","89.46.183.214","Mozilla/5.0 (Windows NT 10.0; Win64; x64) AppleWebKit/537.36 (KHTML, like Gecko) Chrome/137.0.0.0 Safari/537.36","WebKit","Chrome","137.0.0.0","Windows","10.0","https://app.prolific.com/","en-US,en;q=0.9","67e469d0bbb689eacffa0ee0","686d226cabeef709c732f8e1","686e312a744cc6a8c4b80ce9","67e469d0bbb689eacffa0ee0","2025-07-09T09:40:08.560Z","","","","","","MotivationQ","","","","","","","","","","","","","","","","","","","","","","","","","","","","","","","","","","","","","","50"
"","","","","ctl-task-cpt","63","1947369","0.0-10.0-0.4","96","1","2025-07-09 09:07:52","7701e855f2ef39aa3fd6c71abdc6918a","89.46.183.214","Mozilla/5.0 (Windows NT 10.0; Win64; x64) AppleWebKit/537.36 (KHTML, like Gecko) Chrome/137.0.0.0 Safari/537.36","WebKit","Chrome","137.0.0.0","Windows","10.0","https://app.prolific.com/","en-US,en;q=0.9","67e469d0bbb689eacffa0ee0","686d226cabeef709c732f8e1","686e312a744cc6a8c4b80ce9","67e469d0bbb689eacffa0ee0","2025-07-09T09:40:28.408Z","","","","","","","","","","","","","","","","win-only","2","g1:SE,g2:NW","0.6","5","0","1939501.8","1994.4","6996.4","16826.9","1","4","4","6","2","-4","-4","17","21","0.12878787878787878","1283.1","3000","-2185","[""left"",""up""]","{""num_key_presses"":2,""num_perfect"":1,""num_errors"":0,""num_randdir"":1,""num_randdir_good_moves"":0,""num_whilered"":0,""num_whileblue"":0,""num_blue"":0,""num_good_moves"":1}","[342.14285714285717,344.31733472006664,0.4,342.14285714285717,344.31733472006664,103.5,342.14285714285717,344.31733472006664,207,342.14285714285717,344.31733472006664,312.5,342.14285714285717,344.31733472006664,413.5,342.14285714285717,344.31733472006664,514,283.39285714285717,306.81733472006664,614.6,149.64285714285714,138.0673347200666,728.4,92.14285714285714,61.81733472006662,838.3,89.64285714285714,59.31733472006662,948.5,72.14285714285714,66.81733472006661,1052.7,59.642857142857146,69.31733472006661,1158.5,59.642857142857146,69.31733472006661,1259.2,59.642857142857146,69.31733472006661,1371.2,59.642857142857146,69.31733472006661,1482.7,59.642857142857146,69.31733472006661,1586.8,59.642857142857146,69.31733472006661,1688.2,59.642857142857146,69.31733472006661,1799.1,59.642857142857146,69.31733472006661,1901.6,59.642857142857146,69.31733472006661,2003.2,59.642857142857146,69.31733472006661,2108.4,59.642857142857146,69.31733472006661,2212.2,59.642857142857146,69.31733472006661,2316.6,59.642857142857146,69.31733472006661,2422.6,59.642857142857146,69.31733472006661,2528,59.642857142857146,69.31733472006661,2634,59.642857142857146,69.31733472006661,2737.2,59.642857142857146,69.31733472006661,2838.9,59.642857142857146,69.31733472006661,2952.8,59.642857142857146,69.31733472006661,3056.4,59.642857142857146,69.31733472006661,3156.7,59.642857142857146,69.31733472006661,3259.1,59.642857142857146,69.31733472006661,3362,59.642857142857146,69.31733472006661,3465,59.642857142857146,69.31733472006661,3568.9,59.642857142857146,69.31733472006661,3673.3,59.642857142857146,69.31733472006661,3777.9,59.642857142857146,69.31733472006661,3879.9,59.642857142857146,69.31733472006661,3986.5,59.642857142857146,69.31733472006661,4087,59.642857142857146,69.31733472006661,4188.4,59.642857142857146,69.31733472006661,4291.2,59.642857142857146,69.31733472006661,4392.1,59.642857142857146,69.31733472006661,4496.2,59.642857142857146,69.31733472006661,4604.2,59.642857142857146,69.31733472006661,4705.3,59.642857142857146,69.31733472006661,4807.1,59.642857142857146,69.31733472006661,4912.6]","[2034.2,2034.3,1000,0,1034.3,""smooth"",""left"",""left"",""good_move"",6947.6,4912.9,2182.5,2034.8,2730.4,""oops"",""up"",""down"",""bad_move""]","",""
"54838","","<div style=""width:500px;"">
  <p>What determined the result of this run?</p>
  </div>","66","html-slider-response","64","2002209","0.0-10.0-1.4","96","1","2025-07-09 09:07:52","7701e855f2ef39aa3fd6c71abdc6918a","89.46.183.214","Mozilla/5.0 (Windows NT 10.0; Win64; x64) AppleWebKit/537.36 (KHTML, like Gecko) Chrome/137.0.0.0 Safari/537.36","WebKit","Chrome","137.0.0.0","Windows","10.0","https://app.prolific.com/","en-US,en;q=0.9","67e469d0bbb689eacffa0ee0","686d226cabeef709c732f8e1","686e312a744cc6a8c4b80ce9","67e469d0bbb689eacffa0ee0","2025-07-09T09:41:23.249Z","","","","","","AttribQ","","","","","","","","","","","","","","","","","","","","","","","","","","","","","","","","","","","","","","50"
"2828","","<div style=""width:500px;"">
  <p>How much control did you have over the ball?</p>
  </div>","63","html-slider-response","65","2005042","0.0-10.0-2.4","96","1","2025-07-09 09:07:52","7701e855f2ef39aa3fd6c71abdc6918a","89.46.183.214","Mozilla/5.0 (Windows NT 10.0; Win64; x64) AppleWebKit/537.36 (KHTML, like Gecko) Chrome/137.0.0.0 Safari/537.36","WebKit","Chrome","137.0.0.0","Windows","10.0","https://app.prolific.com/","en-US,en;q=0.9","67e469d0bbb689eacffa0ee0","686d226cabeef709c732f8e1","686e312a744cc6a8c4b80ce9","67e469d0bbb689eacffa0ee0","2025-07-09T09:41:26.082Z","","","","","","ControlQ","","","","","","","","","","","","","","","","","","","","","","","","","","","","","","","","","","","","","","50"
"4340","","<div style=""width:500px;"">
  <p>How would you describe your current emotional state?</p>
  </div>","24","html-slider-response","66","2009385","0.0-10.0-3.4","96","1","2025-07-09 09:07:52","7701e855f2ef39aa3fd6c71abdc6918a","89.46.183.214","Mozilla/5.0 (Windows NT 10.0; Win64; x64) AppleWebKit/537.36 (KHTML, like Gecko) Chrome/137.0.0.0 Safari/537.36","WebKit","Chrome","137.0.0.0","Windows","10.0","https://app.prolific.com/","en-US,en;q=0.9","67e469d0bbb689eacffa0ee0","686d226cabeef709c732f8e1","686e312a744cc6a8c4b80ce9","67e469d0bbb689eacffa0ee0","2025-07-09T09:41:30.424Z","","","","","","StressQ","","","","","","","","","","","","","","","","","","","","","","","","","","","","","","","","","","","","","","50"
"2758","","<div style=""width:500px;"">
  <p>What best describes how you currently feel?</p>
  </div>","76","html-slider-response","67","2012146","0.0-10.0-4.4","96","1","2025-07-09 09:07:52","7701e855f2ef39aa3fd6c71abdc6918a","89.46.183.214","Mozilla/5.0 (Windows NT 10.0; Win64; x64) AppleWebKit/537.36 (KHTML, like Gecko) Chrome/137.0.0.0 Safari/537.36","WebKit","Chrome","137.0.0.0","Windows","10.0","https://app.prolific.com/","en-US,en;q=0.9","67e469d0bbb689eacffa0ee0","686d226cabeef709c732f8e1","686e312a744cc6a8c4b80ce9","67e469d0bbb689eacffa0ee0","2025-07-09T09:41:33.185Z","","","","","","MotivationQ","","","","","","","","","","","","","","","","","","","","","","","","","","","","","","","","","","","","","","50"
"","","","","ctl-task-cpt","68","2072276","0.0-10.0-0.5","96","1","2025-07-09 09:07:52","7701e855f2ef39aa3fd6c71abdc6918a","89.46.183.214","Mozilla/5.0 (Windows NT 10.0; Win64; x64) AppleWebKit/537.36 (KHTML, like Gecko) Chrome/137.0.0.0 Safari/537.36","WebKit","Chrome","137.0.0.0","Windows","10.0","https://app.prolific.com/","en-US,en;q=0.9","67e469d0bbb689eacffa0ee0","686d226cabeef709c732f8e1","686e312a744cc6a8c4b80ce9","67e469d0bbb689eacffa0ee0","2025-07-09T09:42:33.315Z","","","","","","","","","","","","","","","","win-only","0","g1:NW,g2:SE","0.5","6","0","2024128.2","3118.4","8127.7","57100","1","4","8","6","2","-8","-9","8","17","0.06060606060606061","1214.6","3000","-1330","[""down"",""right""]","{""num_key_presses"":14,""num_perfect"":5,""num_errors"":1,""num_randdir"":6,""num_randdir_good_moves"":2,""num_whilered"":2,""num_whileblue"":0,""num_blue"":3,""num_good_moves"":7}","[355.89285714285717,348.06733472006664,0.6,355.89285714285717,348.06733472006664,100.5,355.89285714285717,348.06733472006664,200.7,355.89285714285717,348.06733472006664,314.7,355.89285714285717,348.06733472006664,420.9,355.89285714285717,348.06733472006664,527.7,558.3928571428571,521.8173347200666,635.2,613.3928571428571,569.3173347200666,741.8,620.8928571428571,584.3173347200666,844.3,622.1428571428571,603.0673347200666,948.1,622.1428571428571,616.8173347200666,1055.4,622.1428571428571,616.8173347200666,1160.2,622.1428571428571,616.8173347200666,1261.3,622.1428571428571,616.8173347200666,1368.3,622.1428571428571,616.8173347200666,1472.1,622.1428571428571,616.8173347200666,1574,622.1428571428571,616.8173347200666,1675.5,622.1428571428571,616.8173347200666,1781.9,622.1428571428571,616.8173347200666,1886.7,622.1428571428571,616.8173347200666,1995.9,622.1428571428571,616.8173347200666,2106.4,622.1428571428571,616.8173347200666,2209.4,622.1428571428571,616.8173347200666,2313,622.1428571428571,616.8173347200666,2416.6,622.1428571428571,616.8173347200666,2526,622.1428571428571,616.8173347200666,2634.7,622.1428571428571,616.8173347200666,2745.9,622.1428571428571,616.8173347200666,2867.8,622.1428571428571,616.8173347200666,2970,622.1428571428571,616.8173347200666,3073.7,622.1428571428571,616.8173347200666,3177.9,622.1428571428571,616.8173347200666,3278.7,622.1428571428571,616.8173347200666,3386,622.1428571428571,616.8173347200666,3489.4,622.1428571428571,616.8173347200666,3591.9,622.1428571428571,616.8173347200666,3701.1,622.1428571428571,616.8173347200666,3807,622.1428571428571,616.8173347200666,3916.5,622.1428571428571,616.8173347200666,4026.8,622.1428571428571,616.8173347200666,4130.2,622.1428571428571,616.8173347200666,4231.8,622.1428571428571,616.8173347200666,4342,622.1428571428571,616.8173347200666,4449.8,622.1428571428571,616.8173347200666,4560.3,622.1428571428571,616.8173347200666,4661,622.1428571428571,616.8173347200666,4770.2,622.1428571428571,616.8173347200666,4877.4,622.1428571428571,616.8173347200666,4991.6]","[1425.3,1425.3,1000,0,425.3,""oops"",""right"",""up"",""bad_move"",4697.8,3270.8,2796.5,1427.1,474.3,""smooth"",""down"",""down"",""good_move"",7927.4,3228.8,2797.9,4698.7,430.8,""oops"",""down"",""right"",""good_move"",11291.6,3363.1,2611.3,7928.6,751.8,""smooth"",""down"",""down"",""good_move"",14896.6,3604.2,3261.6,11292.4,342.6,""oops"",""right"",""right"",""good_move"",21683.1,6785,2981.1,18263.1,438.9,""oops"",""down"",""up"",""bad_move"",25010.8,3327,2505.6,21683.8,821.4,""smooth"",""right"",""right"",""good_move"",35937.8,10926.5,3108.9,32375.7,453.2,""smooth"",""down"",""down"",""good_move"",38786.8,2847.3,2352.5,35939.5,494.8,""smooth"",""down"",""down"",""good_move"",41762.1,2974.6,2535.5,38787.6,439.1,""oops"",""down"",""left"",""bad_move"",44539.1,2775.7,2326.6,41763.5,449,""oops"",""down"",""left"",""bad_move"",45136.5,596.1,2761.9,44540.4,-2165.8,""error"",""-"",""-"",""no_move"",45330.2,193.1,2761.9,44540.4,-1972.1,""while_red"",""-"",""-"",""no_move"",45483.9,346.8,2761.9,44540.4,-1818.4,""while_red"",""-"",""-"",""no_move""]","",""
"9449","","<div style=""width:500px;"">
  <p>What determined the result of this run?</p>
  </div>","54","html-slider-response","69","2081730","0.0-10.0-1.5","96","1","2025-07-09 09:07:52","7701e855f2ef39aa3fd6c71abdc6918a","89.46.183.214","Mozilla/5.0 (Windows NT 10.0; Win64; x64) AppleWebKit/537.36 (KHTML, like Gecko) Chrome/137.0.0.0 Safari/537.36","WebKit","Chrome","137.0.0.0","Windows","10.0","https://app.prolific.com/","en-US,en;q=0.9","67e469d0bbb689eacffa0ee0","686d226cabeef709c732f8e1","686e312a744cc6a8c4b80ce9","67e469d0bbb689eacffa0ee0","2025-07-09T09:42:42.770Z","","","","","","AttribQ","","","","","","","","","","","","","","","","","","","","","","","","","","","","","","","","","","","","","","50"
"5269","","<div style=""width:500px;"">
  <p>How much control did you have over the ball?</p>
  </div>","33","html-slider-response","70","2087003","0.0-10.0-2.5","96","1","2025-07-09 09:07:52","7701e855f2ef39aa3fd6c71abdc6918a","89.46.183.214","Mozilla/5.0 (Windows NT 10.0; Win64; x64) AppleWebKit/537.36 (KHTML, like Gecko) Chrome/137.0.0.0 Safari/537.36","WebKit","Chrome","137.0.0.0","Windows","10.0","https://app.prolific.com/","en-US,en;q=0.9","67e469d0bbb689eacffa0ee0","686d226cabeef709c732f8e1","686e312a744cc6a8c4b80ce9","67e469d0bbb689eacffa0ee0","2025-07-09T09:42:48.042Z","","","","","","ControlQ","","","","","","","","","","","","","","","","","","","","","","","","","","","","","","","","","","","","","","50"
"2878","","<div style=""width:500px;"">
  <p>How would you describe your current emotional state?</p>
  </div>","32","html-slider-response","71","2089884","0.0-10.0-3.5","96","1","2025-07-09 09:07:52","7701e855f2ef39aa3fd6c71abdc6918a","89.46.183.214","Mozilla/5.0 (Windows NT 10.0; Win64; x64) AppleWebKit/537.36 (KHTML, like Gecko) Chrome/137.0.0.0 Safari/537.36","WebKit","Chrome","137.0.0.0","Windows","10.0","https://app.prolific.com/","en-US,en;q=0.9","67e469d0bbb689eacffa0ee0","686d226cabeef709c732f8e1","686e312a744cc6a8c4b80ce9","67e469d0bbb689eacffa0ee0","2025-07-09T09:42:50.923Z","","","","","","StressQ","","","","","","","","","","","","","","","","","","","","","","","","","","","","","","","","","","","","","","50"
"2365","","<div style=""width:500px;"">
  <p>What best describes how you currently feel?</p>
  </div>","75","html-slider-response","72","2092250","0.0-10.0-4.5","96","1","2025-07-09 09:07:52","7701e855f2ef39aa3fd6c71abdc6918a","89.46.183.214","Mozilla/5.0 (Windows NT 10.0; Win64; x64) AppleWebKit/537.36 (KHTML, like Gecko) Chrome/137.0.0.0 Safari/537.36","WebKit","Chrome","137.0.0.0","Windows","10.0","https://app.prolific.com/","en-US,en;q=0.9","67e469d0bbb689eacffa0ee0","686d226cabeef709c732f8e1","686e312a744cc6a8c4b80ce9","67e469d0bbb689eacffa0ee0","2025-07-09T09:42:53.290Z","","","","","","MotivationQ","","","","","","","","","","","","","","","","","","","","","","","","","","","","","","","","","","","","","","50"
"","","","","ctl-task-cpt","73","2129963","0.0-10.0-0.6","96","1","2025-07-09 09:07:52","7701e855f2ef39aa3fd6c71abdc6918a","89.46.183.214","Mozilla/5.0 (Windows NT 10.0; Win64; x64) AppleWebKit/537.36 (KHTML, like Gecko) Chrome/137.0.0.0 Safari/537.36","WebKit","Chrome","137.0.0.0","Windows","10.0","https://app.prolific.com/","en-US,en;q=0.9","67e469d0bbb689eacffa0ee0","686d226cabeef709c732f8e1","686e312a744cc6a8c4b80ce9","67e469d0bbb689eacffa0ee0","2025-07-09T09:43:31.002Z","","","","","","","","","","","","","","","","win-only","2","g1:SE,g2:NW","0.4","7","0","2104231.8","5372.1","10383.3","34674.3","1","4","8","6","1","1","0","8","8","0.06060606060606061","1455.9","3000","2190","[""down"",""right""]","{""num_key_presses"":7,""num_perfect"":4,""num_errors"":1,""num_randdir"":2,""num_randdir_good_moves"":1,""num_whilered"":0,""num_whileblue"":0,""num_blue"":1,""num_good_moves"":5}","[344.64285714285717,339.31733472006664,0.9,344.64285714285717,339.31733472006664,112,344.64285714285717,339.31733472006664,218.5,344.64285714285717,339.31733472006664,329,344.64285714285717,339.31733472006664,434.8,344.64285714285717,371.81733472006664,549,347.14285714285717,381.81733472006664,652,299.64285714285717,320.56733472006664,758.7,409.64285714285717,404.31733472006664,866.8,507.14285714285717,558.0673347200666,968.7,552.1428571428571,616.8173347200666,1083.9,577.1428571428571,624.3173347200666,1198.7,607.1428571428571,621.8173347200666,1303.1,612.1428571428571,625.5673347200666,1404.6,612.1428571428571,625.5673347200666,1510.8,612.1428571428571,625.5673347200666,1614.7,612.1428571428571,625.5673347200666,1723.8,612.1428571428571,625.5673347200666,1826,612.1428571428571,625.5673347200666,1940.3,612.1428571428571,625.5673347200666,2055,474.64285714285717,555.5673347200666,2167.3,415.89285714285717,504.31733472006664,2271.1,422.14285714285717,493.06733472006664,2376.1,452.14285714285717,486.81733472006664,2477.5,454.64285714285717,486.81733472006664,2578.7,438.39285714285717,504.31733472006664,2689.3,433.39285714285717,508.06733472006664,2797.8,472.14285714285717,489.31733472006664,2898.8,513.3928571428571,479.31733472006664,3006.2,550.8928571428571,481.81733472006664,3112.6,557.1428571428571,484.31733472006664,3219.1,529.6428571428571,485.56733472006664,3320.3,472.14285714285717,459.31733472006664,3424.4,463.39285714285717,439.31733472006664,3531.9,463.39285714285717,434.31733472006664,3646.2,467.14285714285717,431.81733472006664,3757.8,467.14285714285717,431.81733472006664,3866.5,467.14285714285717,431.81733472006664,3972.9,467.14285714285717,431.81733472006664,4073.4,467.14285714285717,431.81733472006664,4176.5,467.14285714285717,431.81733472006664,4284.3,467.14285714285717,431.81733472006664,4387.6,467.14285714285717,431.81733472006664,4491.3,467.14285714285717,431.81733472006664,4593.4,467.14285714285717,431.81733472006664,4702,467.14285714285717,431.81733472006664,4805.5,467.14285714285717,431.81733472006664,4911]","[354.2,354.2,1000,0,-645.8,""error"",""-"",""-"",""no_move"",4795.6,4440.9,2874.7,1364.2,556.7,""smooth"",""right"",""right"",""good_move"",8129.3,3331.5,2634.2,4797.8,697.3,""smooth"",""down"",""down"",""good_move"",11386.1,3256.1,2796.8,8130.1,459.3,""smooth"",""right"",""right"",""good_move"",16873.5,5486.4,2128,14302.1,443.4,""oops"",""down"",""up"",""bad_move"",20414.3,3539.5,2287.7,16874.8,1251.8,""oops"",""down"",""down"",""good_move"",23894,3479,2962.2,20415,516.9,""smooth"",""down"",""down"",""good_move""]","",""
"4261","","<div style=""width:500px;"">
  <p>What determined the result of this run?</p>
  </div>","67","html-slider-response","74","2134227","0.0-10.0-1.6","96","1","2025-07-09 09:07:52","7701e855f2ef39aa3fd6c71abdc6918a","89.46.183.214","Mozilla/5.0 (Windows NT 10.0; Win64; x64) AppleWebKit/537.36 (KHTML, like Gecko) Chrome/137.0.0.0 Safari/537.36","WebKit","Chrome","137.0.0.0","Windows","10.0","https://app.prolific.com/","en-US,en;q=0.9","67e469d0bbb689eacffa0ee0","686d226cabeef709c732f8e1","686e312a744cc6a8c4b80ce9","67e469d0bbb689eacffa0ee0","2025-07-09T09:43:35.266Z","","","","","","AttribQ","","","","","","","","","","","","","","","","","","","","","","","","","","","","","","","","","","","","","","50"
"2463","","<div style=""width:500px;"">
  <p>How much control did you have over the ball?</p>
  </div>","71","html-slider-response","75","2136693","0.0-10.0-2.6","96","1","2025-07-09 09:07:52","7701e855f2ef39aa3fd6c71abdc6918a","89.46.183.214","Mozilla/5.0 (Windows NT 10.0; Win64; x64) AppleWebKit/537.36 (KHTML, like Gecko) Chrome/137.0.0.0 Safari/537.36","WebKit","Chrome","137.0.0.0","Windows","10.0","https://app.prolific.com/","en-US,en;q=0.9","67e469d0bbb689eacffa0ee0","686d226cabeef709c732f8e1","686e312a744cc6a8c4b80ce9","67e469d0bbb689eacffa0ee0","2025-07-09T09:43:37.732Z","","","","","","ControlQ","","","","","","","","","","","","","","","","","","","","","","","","","","","","","","","","","","","","","","50"
"2091","","<div style=""width:500px;"">
  <p>How would you describe your current emotional state?</p>
  </div>","26","html-slider-response","76","2138786","0.0-10.0-3.6","96","1","2025-07-09 09:07:52","7701e855f2ef39aa3fd6c71abdc6918a","89.46.183.214","Mozilla/5.0 (Windows NT 10.0; Win64; x64) AppleWebKit/537.36 (KHTML, like Gecko) Chrome/137.0.0.0 Safari/537.36","WebKit","Chrome","137.0.0.0","Windows","10.0","https://app.prolific.com/","en-US,en;q=0.9","67e469d0bbb689eacffa0ee0","686d226cabeef709c732f8e1","686e312a744cc6a8c4b80ce9","67e469d0bbb689eacffa0ee0","2025-07-09T09:43:39.825Z","","","","","","StressQ","","","","","","","","","","","","","","","","","","","","","","","","","","","","","","","","","","","","","","50"
"2095","","<div style=""width:500px;"">
  <p>What best describes how you currently feel?</p>
  </div>","73","html-slider-response","77","2140884","0.0-10.0-4.6","96","1","2025-07-09 09:07:52","7701e855f2ef39aa3fd6c71abdc6918a","89.46.183.214","Mozilla/5.0 (Windows NT 10.0; Win64; x64) AppleWebKit/537.36 (KHTML, like Gecko) Chrome/137.0.0.0 Safari/537.36","WebKit","Chrome","137.0.0.0","Windows","10.0","https://app.prolific.com/","en-US,en;q=0.9","67e469d0bbb689eacffa0ee0","686d226cabeef709c732f8e1","686e312a744cc6a8c4b80ce9","67e469d0bbb689eacffa0ee0","2025-07-09T09:43:41.923Z","","","","","","MotivationQ","","","","","","","","","","","","","","","","","","","","","","","","","","","","","","","","","","","","","","50"
"","","","","ctl-task-cpt","78","2219689","0.0-10.0-0.7","96","1","2025-07-09 09:07:52","7701e855f2ef39aa3fd6c71abdc6918a","89.46.183.214","Mozilla/5.0 (Windows NT 10.0; Win64; x64) AppleWebKit/537.36 (KHTML, like Gecko) Chrome/137.0.0.0 Safari/537.36","WebKit","Chrome","137.0.0.0","Windows","10.0","https://app.prolific.com/","en-US,en;q=0.9","67e469d0bbb689eacffa0ee0","686d226cabeef709c732f8e1","686e312a744cc6a8c4b80ce9","67e469d0bbb689eacffa0ee0","2025-07-09T09:45:00.728Z","","","","","","","","","","","","","","","","win-only","2","g1:SE,g2:NW","0.3","8","0","2152865.3","3565.6","8608.6","75776.4","1","4","4","6","2","4","4","12","8","0.09090909090909091","1095.6","3000","565","[""left"",""up""]","{""num_key_presses"":12,""num_perfect"":4,""num_errors"":0,""num_randdir"":8,""num_randdir_good_moves"":5,""num_whilered"":0,""num_whileblue"":0,""num_blue"":4,""num_good_moves"":9}","[344.64285714285717,344.31733472006664,0.4,344.64285714285717,344.31733472006664,118.5,344.64285714285717,344.31733472006664,232.2,344.64285714285717,344.31733472006664,334.3,344.64285714285717,344.31733472006664,444.9,173.39285714285714,219.3173347200666,557.9,62.142857142857146,99.31733472006661,658.4,37.142857142857146,59.31733472006662,761.7,37.142857142857146,58.06733472006662,879.1,42.142857142857146,54.31733472006662,1000.1,42.142857142857146,54.31733472006662,1110.8,42.142857142857146,54.31733472006662,1222.5,42.142857142857146,54.31733472006662,1323,42.142857142857146,54.31733472006662,1436.3,42.142857142857146,54.31733472006662,1536.5,42.142857142857146,54.31733472006662,1641.5,42.142857142857146,54.31733472006662,1757.7,42.142857142857146,54.31733472006662,1858.4,42.142857142857146,54.31733472006662,1978.1,42.142857142857146,54.31733472006662,2086.8,42.142857142857146,54.31733472006662,2195.8,42.142857142857146,54.31733472006662,2317.7,42.142857142857146,54.31733472006662,2437.6,42.142857142857146,54.31733472006662,2554.6,42.142857142857146,54.31733472006662,2657.6,42.142857142857146,54.31733472006662,2758.7,42.142857142857146,54.31733472006662,2861.9,42.142857142857146,54.31733472006662,2963,42.142857142857146,54.31733472006662,3067.5,42.142857142857146,54.31733472006662,3187.6,42.142857142857146,54.31733472006662,3289.8,42.142857142857146,54.31733472006662,3403.2,42.142857142857146,54.31733472006662,3503.2,42.142857142857146,54.31733472006662,3621.6,42.142857142857146,54.31733472006662,3740,42.142857142857146,54.31733472006662,3840.4,42.142857142857146,54.31733472006662,3942.7,42.142857142857146,54.31733472006662,4062.7,42.142857142857146,54.31733472006662,4168.7,42.142857142857146,54.31733472006662,4270,42.142857142857146,54.31733472006662,4370.6,42.142857142857146,54.31733472006662,4480.5,42.142857142857146,54.31733472006662,4593.7,42.142857142857146,54.31733472006662,4696.1,42.142857142857146,54.31733472006662,4803.8,42.142857142857146,54.31733472006662,4925]","[1472.7,1472.7,1000,0,472.7,""oops"",""left"",""left"",""good_move"",5473.8,4000.4,3240.7,1473.4,759.7,""oops"",""up"",""left"",""good_move"",10355.2,4881,2557.8,5474.2,2323.2,""smooth"",""up"",""up"",""good_move"",23951.3,13595.7,3527,19933.1,491.2,""smooth"",""left"",""left"",""good_move"",29975.9,6024.3,2592.5,23951.6,3431.8,""oops"",""up"",""right"",""bad_move"",35943,5966.6,2541.4,32913.5,488.1,""oops"",""up"",""down"",""bad_move"",40983.2,5039.5,1965.9,35943.8,3073.5,""smooth"",""up"",""up"",""good_move"",51434.5,10450.8,3144,47768,522.5,""oops"",""left"",""up"",""good_move"",57815.8,6381.1,2521.5,51434.7,3859.6,""oops"",""left"",""up"",""good_move"",60583.4,2767.3,2177.5,57816.1,589.8,""oops"",""left"",""right"",""bad_move"",63910.6,3326.1,2304.3,60584.5,1021.8,""oops"",""left"",""left"",""good_move"",67037.7,3126.3,2700.8,63911.5,425.4,""smooth"",""left"",""left"",""good_move""]","",""
"4414","","<div style=""width:500px;"">
  <p>What determined the result of this run?</p>
  </div>","63","html-slider-response","79","2224107","0.0-10.0-1.7","96","1","2025-07-09 09:07:52","7701e855f2ef39aa3fd6c71abdc6918a","89.46.183.214","Mozilla/5.0 (Windows NT 10.0; Win64; x64) AppleWebKit/537.36 (KHTML, like Gecko) Chrome/137.0.0.0 Safari/537.36","WebKit","Chrome","137.0.0.0","Windows","10.0","https://app.prolific.com/","en-US,en;q=0.9","67e469d0bbb689eacffa0ee0","686d226cabeef709c732f8e1","686e312a744cc6a8c4b80ce9","67e469d0bbb689eacffa0ee0","2025-07-09T09:45:05.146Z","","","","","","AttribQ","","","","","","","","","","","","","","","","","","","","","","","","","","","","","","","","","","","","","","50"
"3539","","<div style=""width:500px;"">
  <p>How much control did you have over the ball?</p>
  </div>","58","html-slider-response","80","2227648","0.0-10.0-2.7","96","1","2025-07-09 09:07:52","7701e855f2ef39aa3fd6c71abdc6918a","89.46.183.214","Mozilla/5.0 (Windows NT 10.0; Win64; x64) AppleWebKit/537.36 (KHTML, like Gecko) Chrome/137.0.0.0 Safari/537.36","WebKit","Chrome","137.0.0.0","Windows","10.0","https://app.prolific.com/","en-US,en;q=0.9","67e469d0bbb689eacffa0ee0","686d226cabeef709c732f8e1","686e312a744cc6a8c4b80ce9","67e469d0bbb689eacffa0ee0","2025-07-09T09:45:08.687Z","","","","","","ControlQ","","","","","","","","","","","","","","","","","","","","","","","","","","","","","","","","","","","","","","50"
"1903","","<div style=""width:500px;"">
  <p>How would you describe your current emotional state?</p>
  </div>","23","html-slider-response","81","2229552","0.0-10.0-3.7","96","1","2025-07-09 09:07:52","7701e855f2ef39aa3fd6c71abdc6918a","89.46.183.214","Mozilla/5.0 (Windows NT 10.0; Win64; x64) AppleWebKit/537.36 (KHTML, like Gecko) Chrome/137.0.0.0 Safari/537.36","WebKit","Chrome","137.0.0.0","Windows","10.0","https://app.prolific.com/","en-US,en;q=0.9","67e469d0bbb689eacffa0ee0","686d226cabeef709c732f8e1","686e312a744cc6a8c4b80ce9","67e469d0bbb689eacffa0ee0","2025-07-09T09:45:10.591Z","","","","","","StressQ","","","","","","","","","","","","","","","","","","","","","","","","","","","","","","","","","","","","","","50"
"2393","","<div style=""width:500px;"">
  <p>What best describes how you currently feel?</p>
  </div>","74","html-slider-response","82","2231947","0.0-10.0-4.7","96","1","2025-07-09 09:07:52","7701e855f2ef39aa3fd6c71abdc6918a","89.46.183.214","Mozilla/5.0 (Windows NT 10.0; Win64; x64) AppleWebKit/537.36 (KHTML, like Gecko) Chrome/137.0.0.0 Safari/537.36","WebKit","Chrome","137.0.0.0","Windows","10.0","https://app.prolific.com/","en-US,en;q=0.9","67e469d0bbb689eacffa0ee0","686d226cabeef709c732f8e1","686e312a744cc6a8c4b80ce9","67e469d0bbb689eacffa0ee0","2025-07-09T09:45:12.986Z","","","","","","MotivationQ","","","","","","","","","","","","","","","","","","","","","","","","","","","","","","","","","","","","","","50"
"","","","","ctl-task-cpt","83","2303271","0.0-10.0-0.8","96","1","2025-07-09 09:07:52","7701e855f2ef39aa3fd6c71abdc6918a","89.46.183.214","Mozilla/5.0 (Windows NT 10.0; Win64; x64) AppleWebKit/537.36 (KHTML, like Gecko) Chrome/137.0.0.0 Safari/537.36","WebKit","Chrome","137.0.0.0","Windows","10.0","https://app.prolific.com/","en-US,en;q=0.9","67e469d0bbb689eacffa0ee0","686d226cabeef709c732f8e1","686e312a744cc6a8c4b80ce9","67e469d0bbb689eacffa0ee0","2025-07-09T09:46:24.310Z","","","","","","","","","","","","","","","","win-only","0","g1:NW,g2:SE","0.2","9","0","2243927.9","3251.4","8259.9","68298.3","1","4","8","6","2","-8","-11","1","12","0.007575757575757576","1300","3000","-1520","[""down"",""right""]","{""num_key_presses"":19,""num_perfect"":4,""num_errors"":3,""num_randdir"":11,""num_randdir_good_moves"":6,""num_whilered"":1,""num_whileblue"":1,""num_blue"":3,""num_good_moves"":9}","[347.14285714285717,349.31733472006664,0.4,347.14285714285717,349.31733472006664,102.9,347.14285714285717,349.31733472006664,204.8,347.14285714285717,349.31733472006664,314.2,347.14285714285717,349.31733472006664,416.5,325.89285714285717,354.31733472006664,526.8,309.64285714285717,351.81733472006664,636.4,339.64285714285717,369.31733472006664,763.3,482.14285714285717,509.31733472006664,873.7,597.1428571428571,596.8173347200666,980.3,634.6428571428571,629.3173347200666,1088.7,634.6428571428571,629.3173347200666,1189.2,634.6428571428571,629.3173347200666,1293,634.6428571428571,629.3173347200666,1404.8,634.6428571428571,629.3173347200666,1516,634.6428571428571,629.3173347200666,1618.9,634.6428571428571,629.3173347200666,1723.6,634.6428571428571,629.3173347200666,1824.9,634.6428571428571,629.3173347200666,1932.6,634.6428571428571,629.3173347200666,2032.9,634.6428571428571,629.3173347200666,2137,634.6428571428571,629.3173347200666,2237.9,634.6428571428571,629.3173347200666,2338.5,634.6428571428571,629.3173347200666,2441,634.6428571428571,629.3173347200666,2544,634.6428571428571,629.3173347200666,2647.6,634.6428571428571,629.3173347200666,2752.3,634.6428571428571,629.3173347200666,2855.6,634.6428571428571,629.3173347200666,2956.4,634.6428571428571,629.3173347200666,3061.1,634.6428571428571,629.3173347200666,3166.5,634.6428571428571,629.3173347200666,3267.1,502.14285714285717,618.0673347200666,3369,340.89285714285717,465.56733472006664,3476.4,333.39285714285717,461.81733472006664,3581.1,337.14285714285717,464.31733472006664,3685.1,337.14285714285717,464.31733472006664,3792.4,337.14285714285717,464.31733472006664,3905.7,337.14285714285717,464.31733472006664,4011.7,337.14285714285717,464.31733472006664,4117.2,337.14285714285717,464.31733472006664,4221.1,337.14285714285717,464.31733472006664,4324.4,337.14285714285717,464.31733472006664,4435,337.14285714285717,464.31733472006664,4551.2,337.14285714285717,464.31733472006664,4652.8,337.14285714285717,464.31733472006664,4755.8,337.14285714285717,464.31733472006664,4861.2,337.14285714285717,464.31733472006664,4963.2]","[1464.6,1464.6,1000,0,464.6,""smooth"",""down"",""down"",""good_move"",4183.2,2717.6,2366.1,1465.7,351.4,""oops"",""right"",""up"",""bad_move"",10839.6,6655.5,2292.3,7977.9,569.4,""oops"",""down"",""up"",""bad_move"",14099.5,3259.6,2749.1,10839.9,510.5,""oops"",""right"",""down"",""good_move"",17000.2,2900,2523.9,14100.3,376,""smooth"",""right"",""right"",""good_move"",19941.2,2940.2,2360.9,17001.1,579.2,""oops"",""down"",""down"",""good_move"",22553.9,2612.1,2229.9,19941.8,382.2,""oops"",""right"",""up"",""bad_move"",23162.7,607.6,3015.2,22555.1,-2407.6,""error"",""-"",""-"",""no_move"",23275.7,111.6,3015.2,22555.1,-2294.6,""while_red"",""-"",""-"",""no_move"",27393.7,4229.6,2809.9,24167.2,416.7,""oops"",""down"",""left"",""bad_move"",30586.3,3191.1,2374.3,27395.3,816.7,""oops"",""right"",""down"",""good_move"",32977.2,2389.8,1958.1,30587.4,431.8,""oops"",""right"",""down"",""good_move"",35547.4,2569.5,2189,32977.9,380.5,""oops"",""right"",""down"",""good_move"",39333.2,3785.2,3322.1,35548,463.1,""smooth"",""left"",""left"",""bad_move"",41744.2,2410.4,2074.2,39333.9,336.2,""while_blue"",""right"",""right"",""good_move"",45345.9,3600.6,3185.9,41745.3,414.7,""oops"",""right"",""up"",""bad_move"",52543.8,7197,2887.8,49103,553,""oops"",""up"",""right"",""good_move"",55035.6,2491.3,1918.5,52544.3,572.8,""smooth"",""up"",""up"",""bad_move"",55725.6,689.3,2177.7,55036.3,-1488.4,""error"",""-"",""-"",""no_move""]","",""
"11449","","<div style=""width:500px;"">
  <p>What determined the result of this run?</p>
  </div>","20","html-slider-response","84","2314723","0.0-10.0-1.8","96","1","2025-07-09 09:07:52","7701e855f2ef39aa3fd6c71abdc6918a","89.46.183.214","Mozilla/5.0 (Windows NT 10.0; Win64; x64) AppleWebKit/537.36 (KHTML, like Gecko) Chrome/137.0.0.0 Safari/537.36","WebKit","Chrome","137.0.0.0","Windows","10.0","https://app.prolific.com/","en-US,en;q=0.9","67e469d0bbb689eacffa0ee0","686d226cabeef709c732f8e1","686e312a744cc6a8c4b80ce9","67e469d0bbb689eacffa0ee0","2025-07-09T09:46:35.762Z","","","","","","AttribQ","","","","","","","","","","","","","","","","","","","","","","","","","","","","","","","","","","","","","","50"
"5230","","<div style=""width:500px;"">
  <p>How much control did you have over the ball?</p>
  </div>","21","html-slider-response","85","2319955","0.0-10.0-2.8","96","1","2025-07-09 09:07:52","7701e855f2ef39aa3fd6c71abdc6918a","89.46.183.214","Mozilla/5.0 (Windows NT 10.0; Win64; x64) AppleWebKit/537.36 (KHTML, like Gecko) Chrome/137.0.0.0 Safari/537.36","WebKit","Chrome","137.0.0.0","Windows","10.0","https://app.prolific.com/","en-US,en;q=0.9","67e469d0bbb689eacffa0ee0","686d226cabeef709c732f8e1","686e312a744cc6a8c4b80ce9","67e469d0bbb689eacffa0ee0","2025-07-09T09:46:40.995Z","","","","","","ControlQ","","","","","","","","","","","","","","","","","","","","","","","","","","","","","","","","","","","","","","50"
"2889","","<div style=""width:500px;"">
  <p>How would you describe your current emotional state?</p>
  </div>","30","html-slider-response","86","2322846","0.0-10.0-3.8","96","1","2025-07-09 09:07:52","7701e855f2ef39aa3fd6c71abdc6918a","89.46.183.214","Mozilla/5.0 (Windows NT 10.0; Win64; x64) AppleWebKit/537.36 (KHTML, like Gecko) Chrome/137.0.0.0 Safari/537.36","WebKit","Chrome","137.0.0.0","Windows","10.0","https://app.prolific.com/","en-US,en;q=0.9","67e469d0bbb689eacffa0ee0","686d226cabeef709c732f8e1","686e312a744cc6a8c4b80ce9","67e469d0bbb689eacffa0ee0","2025-07-09T09:46:43.886Z","","","","","","StressQ","","","","","","","","","","","","","","","","","","","","","","","","","","","","","","","","","","","","","","50"
"2082","","<div style=""width:500px;"">
  <p>What best describes how you currently feel?</p>
