"rt","response_timestamp","stimulus","response","trial_type","trial_index","time_elapsed","internal_node_id","run_id","condition","recorded_at","source_code_version","ip","user_agent","device","browser","browser_version","platform","platform_version","referer","accept_language","PROLIFIC_PID","STUDY_ID","SESSION_ID","prolific_id","realtime","view_history","question_order","consent","success","question_id","eventType","responses","item_order","radio_event_ids","radio_event_times","key_event_times","mouse_event_times","straightlining","zigzagging","honeypot","which_type","canvas_config","goals_layout","control_level","trial_number","tutorial_trial_number","trial_start_time","phase1_start_time","phase2_start_time","phase3_start_time","goal_1_value","goal_1_distance","goal_2_value","goal_2_distance","goal_selected","outcome","outcome_total","participant_final_score","participant_initial_score","participant_final_score_prop","goal_choice_rt","allocated_time","allocated_time_remaining","goal_direction","counts","mouse_movements","key_presses","correct","slider_start"
"562308","1752052570265","<p style='font-size:40px;line-height:1.25'><strong>Welcome to the experiment!</strong></p><p style='font-size:1.1em;line-height:1.25'>Thank you for your interest in our experiment! Before you begin, it is important that we obtain your informed consent to participate in the study.</p><p style='font-size:1.1em;line-height:1.25'>On the next screen will be an <strong>information sheet</strong> for you to read. To participate in the study we need you to read this information sheet and the following consent form carefully. If you agree with all the statements, please click the <strong>I agree</strong> button.</p><p style='font-size:1.1em;line-height:1.25'>Press <strong>Next</strong> to read the information sheet.</p>","0","custom-html-button-response","0","562300","0.0-0.0","22","1","2025-07-09 09:06:46","7701e855f2ef39aa3fd6c71abdc6918a","197.245.162.70","Mozilla/5.0 (Windows NT 10.0; Win64; x64) AppleWebKit/537.36 (KHTML, like Gecko) Chrome/138.0.0.0 Safari/537.36","WebKit","Chrome","138.0.0.0","Windows","10.0","https://app.prolific.com/","en-ZA,en-GB;q=0.9,en-US;q=0.8,en;q=0.7","614e1c414dff2e589169f360","686d226cabeef709c732f8e1","686e311f6d1d695e3e5ee87c","614e1c414dff2e589169f360","2025-07-09T09:16:10.268Z","","","","","","","","","","","","","","","","","","","","","","","","","","","","","","","","","","","","","","","","","","","",""
"31327","","","","instructions","1","593630","0.0-1.0","22","1","2025-07-09 09:06:46","7701e855f2ef39aa3fd6c71abdc6918a","197.245.162.70","Mozilla/5.0 (Windows NT 10.0; Win64; x64) AppleWebKit/537.36 (KHTML, like Gecko) Chrome/138.0.0.0 Safari/537.36","WebKit","Chrome","138.0.0.0","Windows","10.0","https://app.prolific.com/","en-ZA,en-GB;q=0.9,en-US;q=0.8,en;q=0.7","614e1c414dff2e589169f360","686d226cabeef709c732f8e1","686e311f6d1d695e3e5ee87c","614e1c414dff2e589169f360","","[{""page_index"":0,""viewing_time"":11382},{""page_index"":1,""viewing_time"":19945}]","","","","","","","","","","","","","","","","","","","","","","","","","","","","","","","","","","","","","","","","","","",""
"28346","","","{""Q0"":"""",""Q1"":"""",""Q2"":"""",""Q3"":"""",""Q4"":"""",""Q5"":"""",""Q6"":""I agree""}","survey-multi-choice","2","621966","0.0-2.0","22","1","2025-07-09 09:06:46","7701e855f2ef39aa3fd6c71abdc6918a","197.245.162.70","Mozilla/5.0 (Windows NT 10.0; Win64; x64) AppleWebKit/537.36 (KHTML, like Gecko) Chrome/138.0.0.0 Safari/537.36","WebKit","Chrome","138.0.0.0","Windows","10.0","https://app.prolific.com/","en-ZA,en-GB;q=0.9,en-US;q=0.8,en;q=0.7","614e1c414dff2e589169f360","686d226cabeef709c732f8e1","686e311f6d1d695e3e5ee87c","614e1c414dff2e589169f360","","","[0,1,2,3,4,5,6]","true","","","","","","","","","","","","","","","","","","","","","","","","","","","","","","","","","","","","","","","","",""
"415026","","","","fullscreen","3","1037935","0.0-4.0","22","1","2025-07-09 09:06:46","7701e855f2ef39aa3fd6c71abdc6918a","197.245.162.70","Mozilla/5.0 (Windows NT 10.0; Win64; x64) AppleWebKit/537.36 (KHTML, like Gecko) Chrome/138.0.0.0 Safari/537.36","WebKit","Chrome","138.0.0.0","Windows","10.0","https://app.prolific.com/","en-ZA,en-GB;q=0.9,en-US;q=0.8,en;q=0.7","614e1c414dff2e589169f360","686d226cabeef709c732f8e1","686e311f6d1d695e3e5ee87c","614e1c414dff2e589169f360","","","","","true","","","","","","","","","","","","","","","","","","","","","","","","","","","","","","","","","","","","","","","",""
"8201","1752053054106"," <p style='font-size:1.1em;line-height:1.25'>Thank you for completing the consent form and closing all other tabs.</p><p style='font-size:1.1em;line-height:1.25'>We will now invite you to fill in some demographic information and questionnaires, before starting the game.<br>This will take about 5 minutes.<br></p><p style='font-size:1.1em;line-height:1.25'>Press the <strong>Next</strong> button to continue.</p>","0","custom-html-button-response","4","1046140","0.0-5.0","22","1","2025-07-09 09:06:46","7701e855f2ef39aa3fd6c71abdc6918a","197.245.162.70","Mozilla/5.0 (Windows NT 10.0; Win64; x64) AppleWebKit/537.36 (KHTML, like Gecko) Chrome/138.0.0.0 Safari/537.36","WebKit","Chrome","138.0.0.0","Windows","10.0","https://app.prolific.com/","en-ZA,en-GB;q=0.9,en-US;q=0.8,en;q=0.7","614e1c414dff2e589169f360","686d226cabeef709c732f8e1","686e311f6d1d695e3e5ee87c","614e1c414dff2e589169f360","2025-07-09T09:24:14.107Z","","","","","","","","","","","","","","","","","","","","","","","","","","","","","","","","","","","","","","","","","","","",""
"4714","","","{""age"":""31""}","survey-text","5","1050859","0.0-6.0-0.0","22","1","2025-07-09 09:06:46","7701e855f2ef39aa3fd6c71abdc6918a","197.245.162.70","Mozilla/5.0 (Windows NT 10.0; Win64; x64) AppleWebKit/537.36 (KHTML, like Gecko) Chrome/138.0.0.0 Safari/537.36","WebKit","Chrome","138.0.0.0","Windows","10.0","https://app.prolific.com/","en-ZA,en-GB;q=0.9,en-US;q=0.8,en;q=0.7","614e1c414dff2e589169f360","686d226cabeef709c732f8e1","686e311f6d1d695e3e5ee87c","614e1c414dff2e589169f360","","","","","","0","demographics","","","","","","","","","","","","","","","","","","","","","","","","","","","","","","","","","","","","","",""
"2699","","","{""gender_identity"":""female/woman""}","survey-multi-choice","6","1053559","0.0-6.0-1.0","22","1","2025-07-09 09:06:46","7701e855f2ef39aa3fd6c71abdc6918a","197.245.162.70","Mozilla/5.0 (Windows NT 10.0; Win64; x64) AppleWebKit/537.36 (KHTML, like Gecko) Chrome/138.0.0.0 Safari/537.36","WebKit","Chrome","138.0.0.0","Windows","10.0","https://app.prolific.com/","en-ZA,en-GB;q=0.9,en-US;q=0.8,en;q=0.7","614e1c414dff2e589169f360","686d226cabeef709c732f8e1","686e311f6d1d695e3e5ee87c","614e1c414dff2e589169f360","","","[0]","","","1","demographics","","","","","","","","","","","","","","","","","","","","","","","","","","","","","","","","","","","","","",""
"3589","","","{""assigned_sex"":""female""}","survey-multi-choice","7","1057149","0.0-6.0-2.0","22","1","2025-07-09 09:06:46","7701e855f2ef39aa3fd6c71abdc6918a","197.245.162.70","Mozilla/5.0 (Windows NT 10.0; Win64; x64) AppleWebKit/537.36 (KHTML, like Gecko) Chrome/138.0.0.0 Safari/537.36","WebKit","Chrome","138.0.0.0","Windows","10.0","https://app.prolific.com/","en-ZA,en-GB;q=0.9,en-US;q=0.8,en;q=0.7","614e1c414dff2e589169f360","686d226cabeef709c732f8e1","686e311f6d1d695e3e5ee87c","614e1c414dff2e589169f360","","","[0]","","","2","demographics","","","","","","","","","","","","","","","","","","","","","","","","","","","","","","","","","","","","","",""
"4715","","","{""menstrual_cycle"":""Yes""}","survey-multi-choice","8","1061865","0.0-6.0-3.0","22","1","2025-07-09 09:06:46","7701e855f2ef39aa3fd6c71abdc6918a","197.245.162.70","Mozilla/5.0 (Windows NT 10.0; Win64; x64) AppleWebKit/537.36 (KHTML, like Gecko) Chrome/138.0.0.0 Safari/537.36","WebKit","Chrome","138.0.0.0","Windows","10.0","https://app.prolific.com/","en-ZA,en-GB;q=0.9,en-US;q=0.8,en;q=0.7","614e1c414dff2e589169f360","686d226cabeef709c732f8e1","686e311f6d1d695e3e5ee87c","614e1c414dff2e589169f360","","","[0]","","","4","demographics","","","","","","","","","","","","","","","","","","","","","","","","","","","","","","","","","","","","","",""
"23160","","","{""education"":""Higher National Diploma""}","survey-multi-choice","9","1085027","0.0-6.0-4.0","22","1","2025-07-09 09:06:46","7701e855f2ef39aa3fd6c71abdc6918a","197.245.162.70","Mozilla/5.0 (Windows NT 10.0; Win64; x64) AppleWebKit/537.36 (KHTML, like Gecko) Chrome/138.0.0.0 Safari/537.36","WebKit","Chrome","138.0.0.0","Windows","10.0","https://app.prolific.com/","en-ZA,en-GB;q=0.9,en-US;q=0.8,en;q=0.7","614e1c414dff2e589169f360","686d226cabeef709c732f8e1","686e311f6d1d695e3e5ee87c","614e1c414dff2e589169f360","","","[0]","","","5","demographics","","","","","","","","","","","","","","","","","","","","","","","","","","","","","","","","","","","","","",""
"7401","","","{""education"":""Vocational Qualifications (e.g. City & Guilds)""}","survey-multi-choice","10","1092420","0.0-6.0-5.0","22","1","2025-07-09 09:06:46","7701e855f2ef39aa3fd6c71abdc6918a","197.245.162.70","Mozilla/5.0 (Windows NT 10.0; Win64; x64) AppleWebKit/537.36 (KHTML, like Gecko) Chrome/138.0.0.0 Safari/537.36","WebKit","Chrome","138.0.0.0","Windows","10.0","https://app.prolific.com/","en-ZA,en-GB;q=0.9,en-US;q=0.8,en;q=0.7","614e1c414dff2e589169f360","686d226cabeef709c732f8e1","686e311f6d1d695e3e5ee87c","614e1c414dff2e589169f360","2025-07-09T09:25:00.387Z","","[0]","","","6","demographics","","","","","","","","","","","","","","","","","","","","","","","","","","","","","","","","","","","","","",""
"17652","","","{""mental_health_condition"":""None"",""mental_health_treatment"":""No"",""psychiatric_medication"":""None""}","survey-text","11","1110075","0.0-7.0-0.0","22","1","2025-07-09 09:06:46","7701e855f2ef39aa3fd6c71abdc6918a","197.245.162.70","Mozilla/5.0 (Windows NT 10.0; Win64; x64) AppleWebKit/537.36 (KHTML, like Gecko) Chrome/138.0.0.0 Safari/537.36","WebKit","Chrome","138.0.0.0","Windows","10.0","https://app.prolific.com/","en-ZA,en-GB;q=0.9,en-US;q=0.8,en;q=0.7","614e1c414dff2e589169f360","686d226cabeef709c732f8e1","686e311f6d1d695e3e5ee87c","614e1c414dff2e589169f360","2025-07-09T09:25:18.042Z","","","","","1","mental_health","","","","","","","","","","","","","","","","","","","","","","","","","","","","","","","","","","","","","",""
"24634","","","{""depression_history"":[""No""]}","survey-multi-select","12","1134715","0.0-7.0-1.0","22","1","2025-07-09 09:06:46","7701e855f2ef39aa3fd6c71abdc6918a","197.245.162.70","Mozilla/5.0 (Windows NT 10.0; Win64; x64) AppleWebKit/537.36 (KHTML, like Gecko) Chrome/138.0.0.0 Safari/537.36","WebKit","Chrome","138.0.0.0","Windows","10.0","https://app.prolific.com/","en-ZA,en-GB;q=0.9,en-US;q=0.8,en;q=0.7","614e1c414dff2e589169f360","686d226cabeef709c732f8e1","686e311f6d1d695e3e5ee87c","614e1c414dff2e589169f360","","","[0]","","","","mental_health","","","","","","","","","","","","","","","","","","","","","","","","","","","","","","","","","","","","","",""
"83870.5","","","","survey-template","13","1218574","0.0-7.0-3.0","22","1","2025-07-09 09:06:46","7701e855f2ef39aa3fd6c71abdc6918a","197.245.162.70","Mozilla/5.0 (Windows NT 10.0; Win64; x64) AppleWebKit/537.36 (KHTML, like Gecko) Chrome/138.0.0.0 Safari/537.36","WebKit","Chrome","138.0.0.0","Windows","10.0","https://app.prolific.com/","en-ZA,en-GB;q=0.9,en-US;q=0.8,en;q=0.7","614e1c414dff2e589169f360","686d226cabeef709c732f8e1","686e311f6d1d695e3e5ee87c","614e1c414dff2e589169f360","2025-07-09T09:27:06.541Z","","","","","","ius","{""Q01"":""4"",""Q02"":""3"",""Q03"":""3"",""Q04"":""3"",""Q05"":""4"",""Q06"":""2"",""Q07"":""3"",""Q08"":""0"",""Q09"":""2"",""Q10"":""3"",""Q11"":""1"",""Q12"":""3"",""Q13"":""3""}","[0,1,2,3,4,5,6,7,8,9,10,11,12]","[""Q01"",""Q02"",""Q03"",""Q04"",""Q05"",""Q06"",""Q07"",""Q08"",""Q09"",""Q10"",""Q11"",""Q12"",""Q13""]","[18175.20000000298,20804,24105.79999999702,33448.70000000298,46376.29999999702,51422.70000000298,57265.29999999702,62365.79999999702,68860.5,71266.39999999106,74558.89999999106,80345.59999999404,82541.79999999702]","[]","[16866.70000000298,18175.20000000298,20804,24105.79999999702,33448.70000000298,46376.29999999702,51422.70000000298,57265.29999999702,62365.79999999702,67528.29999999702,68860.5,71266.39999999106,74558.89999999106,80345.59999999404,82541.79999999702,83866]","0.5384615384615384","0.3333333333333333","0","","","","","","","","","","","","","","","","","","","","","","","","","","","","",""
"1997","1752053228539","<p style='font-size:1.1em;line-height:1.25'>In the following, we will ask you a few questions relating to your experiences over the past month.<br></p><p style='font-size:1.1em;line-height:1.25'>Press the <strong>Next</strong> button to continue.</p>","0","custom-html-button-response","14","1220573","0.0-7.0-4.0","22","1","2025-07-09 09:06:46","7701e855f2ef39aa3fd6c71abdc6918a","197.245.162.70","Mozilla/5.0 (Windows NT 10.0; Win64; x64) AppleWebKit/537.36 (KHTML, like Gecko) Chrome/138.0.0.0 Safari/537.36","WebKit","Chrome","138.0.0.0","Windows","10.0","https://app.prolific.com/","en-ZA,en-GB;q=0.9,en-US;q=0.8,en;q=0.7","614e1c414dff2e589169f360","686d226cabeef709c732f8e1","686e311f6d1d695e3e5ee87c","614e1c414dff2e589169f360","2025-07-09T09:27:08.540Z","","","","","","","","","","","","","","","","","","","","","","","","","","","","","","","","","","","","","","","","","","","",""
"75013.5","","","","survey-template","15","1295582","0.0-7.0-5.0","22","1","2025-07-09 09:06:46","7701e855f2ef39aa3fd6c71abdc6918a","197.245.162.70","Mozilla/5.0 (Windows NT 10.0; Win64; x64) AppleWebKit/537.36 (KHTML, like Gecko) Chrome/138.0.0.0 Safari/537.36","WebKit","Chrome","138.0.0.0","Windows","10.0","https://app.prolific.com/","en-ZA,en-GB;q=0.9,en-US;q=0.8,en;q=0.7","614e1c414dff2e589169f360","686d226cabeef709c732f8e1","686e311f6d1d695e3e5ee87c","614e1c414dff2e589169f360","2025-07-09T09:28:23.549Z","","","","","","pss","{""Q01"":""3"",""Q02"":""2"",""Q03"":""2"",""Q04"":""1"",""Q05"":""1"",""Q06"":""2"",""Q07"":""2"",""Q08"":""3"",""Q09"":""2"",""Q10"":""2""}","[0,1,2,3,4,5,6,7,8,9]","[""Q01"",""Q02"",""Q03"",""Q04"",""Q05"",""Q07"",""Q08"",""Q09"",""Q10"",""Q06"",""Q06""]","[5944.300000011921,12247.10000000894,16900.40000000596,28672.5,35683.40000000596,46494.30000001192,50640.60000000894,56663.60000000894,60255.90000000596,72317.30000001192,73097.20000000298]","[]","[0,5944.300000011921,12247.10000000894,16900.40000000596,28672.5,35683.40000000596,42498.20000000298,46494.30000001192,50640.60000000894,56663.60000000894,60255.90000000596,61128.20000000298,72317.30000001192,73097.20000000298,75009.30000001192]","0.6","0.5555555555555556","0","","","","","","","","","","","","","","","","","","","","","","","","","","","","",""
"1590","1752053305140","<p style='font-size:1.1em;line-height:1.25'>Thank you for your answers! Now we will ask you a few more questions relating to your feelings in the last 24 hours.<br></p><p style='font-size:1.1em;line-height:1.25'>Press the <strong>Next</strong> button to continue.</p>","0","custom-html-button-response","16","1297173","0.0-7.0-6.0","22","1","2025-07-09 09:06:46","7701e855f2ef39aa3fd6c71abdc6918a","197.245.162.70","Mozilla/5.0 (Windows NT 10.0; Win64; x64) AppleWebKit/537.36 (KHTML, like Gecko) Chrome/138.0.0.0 Safari/537.36","WebKit","Chrome","138.0.0.0","Windows","10.0","https://app.prolific.com/","en-ZA,en-GB;q=0.9,en-US;q=0.8,en;q=0.7","614e1c414dff2e589169f360","686d226cabeef709c732f8e1","686e311f6d1d695e3e5ee87c","614e1c414dff2e589169f360","2025-07-09T09:28:25.140Z","","","","","","","","","","","","","","","","","","","","","","","","","","","","","","","","","","","","","","","","","","","",""
"87875.5","","","","survey-template","17","1385046","0.0-7.0-7.0","22","1","2025-07-09 09:06:46","7701e855f2ef39aa3fd6c71abdc6918a","197.245.162.70","Mozilla/5.0 (Windows NT 10.0; Win64; x64) AppleWebKit/537.36 (KHTML, like Gecko) Chrome/138.0.0.0 Safari/537.36","WebKit","Chrome","138.0.0.0","Windows","10.0","https://app.prolific.com/","en-ZA,en-GB;q=0.9,en-US;q=0.8,en;q=0.7","614e1c414dff2e589169f360","686d226cabeef709c732f8e1","686e311f6d1d695e3e5ee87c","614e1c414dff2e589169f360","2025-07-09T09:29:53.014Z","","","","","","drsp","{""Q01"":""1"",""Q02"":""0"",""Q03"":""0"",""Q04"":""2"",""Q05"":""3"",""Q06"":""1"",""Q07"":""1"",""Q08"":""0"",""Q09"":""3"",""Q10"":""2"",""Q11"":""3"",""Q12"":""5"",""Q13"":""4"",""Q14"":""4"",""Q15"":""3"",""Q16"":""4"",""Q17"":""1"",""Q18"":""3"",""Q19"":""3"",""Q20"":""2"",""Q21"":""2""}","[0,1,2,3,4,5,6,7,8,9,10,11,12,13,14,15,16,17,18,19,20]","[""Q01"",""Q02"",""Q03"",""Q04"",""Q05"",""Q06"",""Q07"",""Q08"",""Q09"",""Q10"",""Q11"",""Q12"",""Q13"",""Q14"",""Q15"",""Q16"",""Q17"",""Q18"",""Q19"",""Q20"",""Q21""]","[4324.100000008941,6428.20000000298,7908.300000011921,10684.90000000596,12607,17719,19393.40000000596,24421.5,29287.90000000596,30828.30000001192,34000.90000000596,36811,39007,41731.60000000894,47646.10000000894,48558.10000000894,51048.30000001192,56016.80000001192,64247.70000000298,83571.90000000596,86772.30000001192]","[]","[0,4324.100000008941,6428.20000000298,7908.300000011921,10684.90000000596,12607,16944,17719,19393.40000000596,23374.40000000596,24421.5,29287.90000000596,30828.30000001192,34000.90000000596,36811,39007,41731.60000000894,45601.80000001192,47646.10000000894,48558.10000000894,50006.5,51048.30000001192,56016.80000001192,63760.40000000596,64247.70000000298,83571.90000000596,86772.30000001192,87868.40000000596]","0.2857142857142857","0.45","0","","","","","","","","","","","","","","","","","","","","","","","","","","","","",""
"20297.60000000894","","","","survey-template","18","1405339","0.0-7.0-8.0","22","1","2025-07-09 09:06:46","7701e855f2ef39aa3fd6c71abdc6918a","197.245.162.70","Mozilla/5.0 (Windows NT 10.0; Win64; x64) AppleWebKit/537.36 (KHTML, like Gecko) Chrome/138.0.0.0 Safari/537.36","WebKit","Chrome","138.0.0.0","Windows","10.0","https://app.prolific.com/","en-ZA,en-GB;q=0.9,en-US;q=0.8,en;q=0.7","614e1c414dff2e589169f360","686d226cabeef709c732f8e1","686e311f6d1d695e3e5ee87c","614e1c414dff2e589169f360","2025-07-09T09:30:13.306Z","","","","","","stress","{""Q01"":""3"",""Q02"":""4"",""Q03"":""3""}","[0,1,2]","[""Q01"",""Q02"",""Q03""]","[10354.300000011921,12822.90000000596,19389]","[]","[10354.300000011921,12822.90000000596,18104.20000000298,18937,19389,20296.80000001192]","0.6666666666666666","0","0","","","","","","","","","","","","","","","","","","","","","","","","","","","","",""
"178119","","","","instructions","19","1583442","0.0-8.0-0.0","22","1","2025-07-09 09:06:46","7701e855f2ef39aa3fd6c71abdc6918a","197.245.162.70","Mozilla/5.0 (Windows NT 10.0; Win64; x64) AppleWebKit/537.36 (KHTML, like Gecko) Chrome/138.0.0.0 Safari/537.36","WebKit","Chrome","138.0.0.0","Windows","10.0","https://app.prolific.com/","en-ZA,en-GB;q=0.9,en-US;q=0.8,en;q=0.7","614e1c414dff2e589169f360","686d226cabeef709c732f8e1","686e311f6d1d695e3e5ee87c","614e1c414dff2e589169f360","","[{""page_index"":0,""viewing_time"":40745},{""page_index"":1,""viewing_time"":50675},{""page_index"":2,""viewing_time"":29541},{""page_index"":3,""viewing_time"":57158}]","","","","","","","","","","","","","","","","","","","","","","","","","","","","","","","","","","","","","","","","","","",""
"","","","","ctl-task-cpt","20","1613262","0.0-8.0-1.0","22","1","2025-07-09 09:06:46","7701e855f2ef39aa3fd6c71abdc6918a","197.245.162.70","Mozilla/5.0 (Windows NT 10.0; Win64; x64) AppleWebKit/537.36 (KHTML, like Gecko) Chrome/138.0.0.0 Safari/537.36","WebKit","Chrome","138.0.0.0","Windows","10.0","https://app.prolific.com/","en-ZA,en-GB;q=0.9,en-US;q=0.8,en;q=0.7","614e1c414dff2e589169f360","686d226cabeef709c732f8e1","686e311f6d1d695e3e5ee87c","614e1c414dff2e589169f360","","","","","","","","","","","","","","","","","win-only","3","g1:SW,g2:NE","1","0","1","1586489","4714","8715.9","26793.5","2","4","4","6","1","2","-1","0","0","0","4001.8","4000","1570","[""down"",""left""]","{""num_key_presses"":9,""num_perfect"":4,""num_errors"":3,""num_randdir"":0,""num_randdir_good_moves"":0,""num_whilered"":2,""num_whileblue"":0,""num_blue"":0,""num_good_moves"":4}","[348.14285714285717,351.04910714285717,0.4,348.14285714285717,351.04910714285717,103.2,348.14285714285717,351.04910714285717,207.5,348.14285714285717,351.04910714285717,313.5,348.14285714285717,351.04910714285717,417.4,348.14285714285717,351.04910714285717,519.9,348.14285714285717,351.04910714285717,622.6,348.14285714285717,351.04910714285717,727.6,348.14285714285717,351.04910714285717,828,348.14285714285717,351.04910714285717,931.7,348.14285714285717,351.04910714285717,1033.9,348.14285714285717,351.04910714285717,1134.8,348.14285714285717,351.04910714285717,1236.9,348.14285714285717,351.04910714285717,1337,348.14285714285717,351.04910714285717,1441.7,348.14285714285717,351.04910714285717,1543.6,348.14285714285717,351.04910714285717,1643.8,348.14285714285717,351.04910714285717,1746.7,348.14285714285717,351.04910714285717,1848.1,348.14285714285717,351.04910714285717,1951.7,348.14285714285717,351.04910714285717,2052.2,348.14285714285717,351.04910714285717,2156.9,348.14285714285717,351.04910714285717,2257,348.14285714285717,351.04910714285717,2357.1,348.14285714285717,351.04910714285717,2457.8,348.14285714285717,351.04910714285717,2558.5,348.14285714285717,351.04910714285717,2661.9,348.14285714285717,351.04910714285717,2761.9,348.14285714285717,351.04910714285717,2862.5,348.14285714285717,351.04910714285717,2963.1,348.14285714285717,351.04910714285717,3066.8,348.14285714285717,351.04910714285717,3172.6,348.14285714285717,351.04910714285717,3277.1,348.14285714285717,351.04910714285717,3382.5,348.14285714285717,351.04910714285717,3482.8,348.14285714285717,351.04910714285717,3586.9,348.14285714285717,351.04910714285717,3692.2,348.14285714285717,351.04910714285717,3792.5,348.14285714285717,351.04910714285717,3897.1]","[299,299,1000,0,-701,""error"",""-"",""-"",""no_move"",5288.6,4988.9,2963.8,1300.3,1024.5,""smooth"",""down"",""down"",""good_move"",6136.7,847.6,2245.7,5289.1,-1398.1,""error"",""-"",""-"",""no_move"",6305,168,2245.7,5289.1,-1229.8,""while_red"",""-"",""-"",""no_move"",6484.5,347.5,2245.7,5289.1,-1050.3,""while_red"",""-"",""-"",""no_move"",10011.4,3874.4,2334.6,7141,535.8,""smooth"",""down"",""down"",""good_move"",11001.8,989.6,2869.3,10012.2,-1879.7,""error"",""-"",""-"",""no_move"",15258,4255.9,2790.2,12006.9,460.9,""smooth"",""left"",""left"",""good_move"",17965.4,2706.6,2087.6,15258.9,618.9,""smooth"",""left"",""left"",""good_move""]","",""
"156072","","","","instructions","21","1769320","0.0-8.0-2.0","22","1","2025-07-09 09:06:46","7701e855f2ef39aa3fd6c71abdc6918a","197.245.162.70","Mozilla/5.0 (Windows NT 10.0; Win64; x64) AppleWebKit/537.36 (KHTML, like Gecko) Chrome/138.0.0.0 Safari/537.36","WebKit","Chrome","138.0.0.0","Windows","10.0","https://app.prolific.com/","en-ZA,en-GB;q=0.9,en-US;q=0.8,en;q=0.7","614e1c414dff2e589169f360","686d226cabeef709c732f8e1","686e311f6d1d695e3e5ee87c","614e1c414dff2e589169f360","","[{""page_index"":0,""viewing_time"":156071}]","","","","","","","","","","","","","","","","","","","","","","","","","","","","","","","","","","","","","","","","","","",""
"","","","","ctl-task-cpt","22","1797619","0.0-8.0-3.0","22","1","2025-07-09 09:06:46","7701e855f2ef39aa3fd6c71abdc6918a","197.245.162.70","Mozilla/5.0 (Windows NT 10.0; Win64; x64) AppleWebKit/537.36 (KHTML, like Gecko) Chrome/138.0.0.0 Safari/537.36","WebKit","Chrome","138.0.0.0","Windows","10.0","https://app.prolific.com/","en-ZA,en-GB;q=0.9,en-US;q=0.8,en;q=0.7","614e1c414dff2e589169f360","686d226cabeef709c732f8e1","686e311f6d1d695e3e5ee87c","614e1c414dff2e589169f360","","","","","","","","","","","","","","","","","win-only","3","g1:SW,g2:NE","0.35","0","3","1772380.8","3459.9","7470.3","25276.5","2","4","8","6","1","2","1","1","0","0.007575757575757576","4010.4","4000","1745","[""down"",""left""]","{""num_key_presses"":7,""num_perfect"":3,""num_errors"":1,""num_randdir"":3,""num_randdir_good_moves"":2,""num_whilered"":0,""num_whileblue"":0,""num_blue"":0,""num_good_moves"":5}","[346.14285714285717,336.04910714285717,0.4,346.14285714285717,336.04910714285717,102.1,345.14285714285717,336.04910714285717,207.9,506.14285714285717,398.04910714285717,310.5,614.1428571428571,434.04910714285717,412.9,614.1428571428571,434.04910714285717,523.3,614.1428571428571,434.04910714285717,623.6,614.1428571428571,434.04910714285717,726.9,614.1428571428571,434.04910714285717,830.9,691.1428571428571,473.04910714285717,931.1,875.1428571428571,477.04910714285717,1032,991.1428571428571,445.04910714285717,1139.9,989.1428571428571,439.04910714285717,1240.8,989.1428571428571,439.04910714285717,1340.9,989.1428571428571,439.04910714285717,1445.7,989.1428571428571,439.04910714285717,1551.7,989.1428571428571,439.04910714285717,1657.7,989.1428571428571,439.04910714285717,1760.7,989.1428571428571,439.04910714285717,1861.3,989.1428571428571,439.04910714285717,1966.5,989.1428571428571,439.04910714285717,2074.4,989.1428571428571,439.04910714285717,2176.2,989.1428571428571,439.04910714285717,2280.7,989.1428571428571,439.04910714285717,2381.1,989.1428571428571,439.04910714285717,2482.1,989.1428571428571,439.04910714285717,2591.1,989.1428571428571,439.04910714285717,2696.8,989.1428571428571,439.04910714285717,2800.9,989.1428571428571,439.04910714285717,2900.9,989.1428571428571,439.04910714285717,3001.5,989.1428571428571,439.04910714285717,3109,989.1428571428571,439.04910714285717,3211.3,989.1428571428571,439.04910714285717,3311.6,989.1428571428571,439.04910714285717,3425,989.1428571428571,439.04910714285717,3525.7,989.1428571428571,439.04910714285717,3626,989.1428571428571,439.04910714285717,3732,989.1428571428571,439.04910714285717,3841.6,989.1428571428571,439.04910714285717,3946.3]","[1565,1565.1,1000,0,565.1,""oops"",""down"",""down"",""good_move"",2265.4,699.5,1834.2,1566,-1134.7,""error"",""-"",""-"",""no_move"",5946.1,3680.4,2092.9,3267.6,585.6,""oops"",""down"",""left"",""good_move"",8469.9,2523.2,1949.9,5946.8,573.3,""smooth"",""down"",""down"",""good_move"",11686.8,3216.6,2825.4,8470.2,391.2,""oops"",""left"",""up"",""bad_move"",14554.3,2867,2469.8,11687.3,397.2,""smooth"",""down"",""down"",""good_move"",17695.1,3140.6,2763.1,14554.5,377.5,""smooth"",""left"",""left"",""good_move""]","",""
"81661","","","","instructions","23","1879274","0.0-8.0-4.0","22","1","2025-07-09 09:06:46","7701e855f2ef39aa3fd6c71abdc6918a","197.245.162.70","Mozilla/5.0 (Windows NT 10.0; Win64; x64) AppleWebKit/537.36 (KHTML, like Gecko) Chrome/138.0.0.0 Safari/537.36","WebKit","Chrome","138.0.0.0","Windows","10.0","https://app.prolific.com/","en-ZA,en-GB;q=0.9,en-US;q=0.8,en;q=0.7","614e1c414dff2e589169f360","686d226cabeef709c732f8e1","686e311f6d1d695e3e5ee87c","614e1c414dff2e589169f360","","[{""page_index"":0,""viewing_time"":15621},{""page_index"":1,""viewing_time"":66039}]","","","","","","","","","","","","","","","","","","","","","","","","","","","","","","","","","","","","","","","","","","",""
"38022","","","{""green_ball"":[""Ball sometimes shakes and moves in a random direction""]}","survey-multi-select","24","1917300","0.0-8.0-5.0-0.0","22","1","2025-07-09 09:06:46","7701e855f2ef39aa3fd6c71abdc6918a","197.245.162.70","Mozilla/5.0 (Windows NT 10.0; Win64; x64) AppleWebKit/537.36 (KHTML, like Gecko) Chrome/138.0.0.0 Safari/537.36","WebKit","Chrome","138.0.0.0","Windows","10.0","https://app.prolific.com/","en-ZA,en-GB;q=0.9,en-US;q=0.8,en;q=0.7","614e1c414dff2e589169f360","686d226cabeef709c732f8e1","686e311f6d1d695e3e5ee87c","614e1c414dff2e589169f360","","","[0]","","","","quiz","","","","","","","","","","","","","","","","","","","","","","","","","","","","","","","","","","","","","true",""
"3071","","<p align='center'><b>CORRECT!</b> Indeed, the green ball may sometimes shake and move in a random direction.</p>","0","html-button-response","25","1920375","0.0-8.0-5.0-1.0","22","1","2025-07-09 09:06:46","7701e855f2ef39aa3fd6c71abdc6918a","197.245.162.70","Mozilla/5.0 (Windows NT 10.0; Win64; x64) AppleWebKit/537.36 (KHTML, like Gecko) Chrome/138.0.0.0 Safari/537.36","WebKit","Chrome","138.0.0.0","Windows","10.0","https://app.prolific.com/","en-ZA,en-GB;q=0.9,en-US;q=0.8,en;q=0.7","614e1c414dff2e589169f360","686d226cabeef709c732f8e1","686e311f6d1d695e3e5ee87c","614e1c414dff2e589169f360","","","","","","","","","","","","","","","","","","","","","","","","","","","","","","","","","","","","","","","","","","","","",""
"18083","","","{""yellow_ball"":[""Ball doesn‘t move and I get -1 penalty point""]}","survey-multi-select","26","1938458","0.0-8.0-6.0-0.0","22","1","2025-07-09 09:06:46","7701e855f2ef39aa3fd6c71abdc6918a","197.245.162.70","Mozilla/5.0 (Windows NT 10.0; Win64; x64) AppleWebKit/537.36 (KHTML, like Gecko) Chrome/138.0.0.0 Safari/537.36","WebKit","Chrome","138.0.0.0","Windows","10.0","https://app.prolific.com/","en-ZA,en-GB;q=0.9,en-US;q=0.8,en;q=0.7","614e1c414dff2e589169f360","686d226cabeef709c732f8e1","686e311f6d1d695e3e5ee87c","614e1c414dff2e589169f360","","","[0]","","","","quiz","","","","","","","","","","","","","","","","","","","","","","","","","","","","","","","","","","","","","true",""
"1311","","<p align='center'><b>CORRECT!</b> Indeed, the yellow ball never moves and you receive a penalty.</p>","0","html-button-response","27","1939772","0.0-8.0-6.0-1.0","22","1","2025-07-09 09:06:46","7701e855f2ef39aa3fd6c71abdc6918a","197.245.162.70","Mozilla/5.0 (Windows NT 10.0; Win64; x64) AppleWebKit/537.36 (KHTML, like Gecko) Chrome/138.0.0.0 Safari/537.36","WebKit","Chrome","138.0.0.0","Windows","10.0","https://app.prolific.com/","en-ZA,en-GB;q=0.9,en-US;q=0.8,en;q=0.7","614e1c414dff2e589169f360","686d226cabeef709c732f8e1","686e311f6d1d695e3e5ee87c","614e1c414dff2e589169f360","","","","","","","","","","","","","","","","","","","","","","","","","","","","","","","","","","","","","","","","","","","","",""
"5829","","","{""blue_ball"":[""Ball doesn‘t move and I get -1 penalty point""]}","survey-multi-select","28","1945603","0.0-8.0-7.0-0.0","22","1","2025-07-09 09:06:46","7701e855f2ef39aa3fd6c71abdc6918a","197.245.162.70","Mozilla/5.0 (Windows NT 10.0; Win64; x64) AppleWebKit/537.36 (KHTML, like Gecko) Chrome/138.0.0.0 Safari/537.36","WebKit","Chrome","138.0.0.0","Windows","10.0","https://app.prolific.com/","en-ZA,en-GB;q=0.9,en-US;q=0.8,en;q=0.7","614e1c414dff2e589169f360","686d226cabeef709c732f8e1","686e311f6d1d695e3e5ee87c","614e1c414dff2e589169f360","","","[0]","","","","quiz","","","","","","","","","","","","","","","","","","","","","","","","","","","","","","","","","","","","","false",""
"17856","","<p align='center'><b>INCORRECT.</b> The blue ball always shakes and moves randomly.</p>","0","html-button-response","29","1963460","0.0-8.0-7.0-1.0","22","1","2025-07-09 09:06:46","7701e855f2ef39aa3fd6c71abdc6918a","197.245.162.70","Mozilla/5.0 (Windows NT 10.0; Win64; x64) AppleWebKit/537.36 (KHTML, like Gecko) Chrome/138.0.0.0 Safari/537.36","WebKit","Chrome","138.0.0.0","Windows","10.0","https://app.prolific.com/","en-ZA,en-GB;q=0.9,en-US;q=0.8,en;q=0.7","614e1c414dff2e589169f360","686d226cabeef709c732f8e1","686e311f6d1d695e3e5ee87c","614e1c414dff2e589169f360","","","","","","","","","","","","","","","","","","","","","","","","","","","","","","","","","","","","","","","","","","","","",""
"18876","","","{""blue_ball"":[""Ball sometimes shakes and moves in a random direction""]}","survey-multi-select","30","1982339","0.0-8.0-7.1-0.1","22","1","2025-07-09 09:06:46","7701e855f2ef39aa3fd6c71abdc6918a","197.245.162.70","Mozilla/5.0 (Windows NT 10.0; Win64; x64) AppleWebKit/537.36 (KHTML, like Gecko) Chrome/138.0.0.0 Safari/537.36","WebKit","Chrome","138.0.0.0","Windows","10.0","https://app.prolific.com/","en-ZA,en-GB;q=0.9,en-US;q=0.8,en;q=0.7","614e1c414dff2e589169f360","686d226cabeef709c732f8e1","686e311f6d1d695e3e5ee87c","614e1c414dff2e589169f360","","","[0]","","","","quiz","","","","","","","","","","","","","","","","","","","","","","","","","","","","","","","","","","","","","false",""
"1705","","<p align='center'><b>INCORRECT.</b> The blue ball always shakes and moves randomly.</p>","0","html-button-response","31","1984046","0.0-8.0-7.1-1.1","22","1","2025-07-09 09:06:46","7701e855f2ef39aa3fd6c71abdc6918a","197.245.162.70","Mozilla/5.0 (Windows NT 10.0; Win64; x64) AppleWebKit/537.36 (KHTML, like Gecko) Chrome/138.0.0.0 Safari/537.36","WebKit","Chrome","138.0.0.0","Windows","10.0","https://app.prolific.com/","en-ZA,en-GB;q=0.9,en-US;q=0.8,en;q=0.7","614e1c414dff2e589169f360","686d226cabeef709c732f8e1","686e311f6d1d695e3e5ee87c","614e1c414dff2e589169f360","","","","","","","","","","","","","","","","","","","","","","","","","","","","","","","","","","","","","","","","","","","","",""
"4902","","","{""blue_ball"":[""Ball always shakes and moves in a random direction""]}","survey-multi-select","32","1988951","0.0-8.0-7.2-0.2","22","1","2025-07-09 09:06:46","7701e855f2ef39aa3fd6c71abdc6918a","197.245.162.70","Mozilla/5.0 (Windows NT 10.0; Win64; x64) AppleWebKit/537.36 (KHTML, like Gecko) Chrome/138.0.0.0 Safari/537.36","WebKit","Chrome","138.0.0.0","Windows","10.0","https://app.prolific.com/","en-ZA,en-GB;q=0.9,en-US;q=0.8,en;q=0.7","614e1c414dff2e589169f360","686d226cabeef709c732f8e1","686e311f6d1d695e3e5ee87c","614e1c414dff2e589169f360","","","[0]","","","","quiz","","","","","","","","","","","","","","","","","","","","","","","","","","","","","","","","","","","","","true",""
"1416","","<p align='center'><b>CORRECT!</b> Indeed, the blue ball always shakes and moves in a random direction. Also there is a penalty of -1 point.</p>","0","html-button-response","33","1990368","0.0-8.0-7.2-1.2","22","1","2025-07-09 09:06:46","7701e855f2ef39aa3fd6c71abdc6918a","197.245.162.70","Mozilla/5.0 (Windows NT 10.0; Win64; x64) AppleWebKit/537.36 (KHTML, like Gecko) Chrome/138.0.0.0 Safari/537.36","WebKit","Chrome","138.0.0.0","Windows","10.0","https://app.prolific.com/","en-ZA,en-GB;q=0.9,en-US;q=0.8,en;q=0.7","614e1c414dff2e589169f360","686d226cabeef709c732f8e1","686e311f6d1d695e3e5ee87c","614e1c414dff2e589169f360","","","","","","","","","","","","","","","","","","","","","","","","","","","","","","","","","","","","","","","","","","","","",""
"42807","","","{""bonus"":[""When I reach 50% of points""]}","survey-multi-select","34","2033172","0.0-8.0-8.0-0.0","22","1","2025-07-09 09:06:46","7701e855f2ef39aa3fd6c71abdc6918a","197.245.162.70","Mozilla/5.0 (Windows NT 10.0; Win64; x64) AppleWebKit/537.36 (KHTML, like Gecko) Chrome/138.0.0.0 Safari/537.36","WebKit","Chrome","138.0.0.0","Windows","10.0","https://app.prolific.com/","en-ZA,en-GB;q=0.9,en-US;q=0.8,en;q=0.7","614e1c414dff2e589169f360","686d226cabeef709c732f8e1","686e311f6d1d695e3e5ee87c","614e1c414dff2e589169f360","","","[0]","","","","quiz","","","","","","","","","","","","","","","","","","","","","","","","","","","","","","","","","","","","","true",""
"2327","","<p align='center'><b>CORRECT!</b> Indeed, you receive 2 pounds extra when you reach 50% of points.</p>","0","html-button-response","35","2035502","0.0-8.0-8.0-1.0","22","1","2025-07-09 09:06:46","7701e855f2ef39aa3fd6c71abdc6918a","197.245.162.70","Mozilla/5.0 (Windows NT 10.0; Win64; x64) AppleWebKit/537.36 (KHTML, like Gecko) Chrome/138.0.0.0 Safari/537.36","WebKit","Chrome","138.0.0.0","Windows","10.0","https://app.prolific.com/","en-ZA,en-GB;q=0.9,en-US;q=0.8,en;q=0.7","614e1c414dff2e589169f360","686d226cabeef709c732f8e1","686e311f6d1d695e3e5ee87c","614e1c414dff2e589169f360","","","","","","","","","","","","","","","","","","","","","","","","","","","","","","","","","","","","","","","","","","","","",""
"5995","","","","instructions","36","2041499","0.0-8.0-9.0","22","1","2025-07-09 09:06:46","7701e855f2ef39aa3fd6c71abdc6918a","197.245.162.70","Mozilla/5.0 (Windows NT 10.0; Win64; x64) AppleWebKit/537.36 (KHTML, like Gecko) Chrome/138.0.0.0 Safari/537.36","WebKit","Chrome","138.0.0.0","Windows","10.0","https://app.prolific.com/","en-ZA,en-GB;q=0.9,en-US;q=0.8,en;q=0.7","614e1c414dff2e589169f360","686d226cabeef709c732f8e1","686e311f6d1d695e3e5ee87c","614e1c414dff2e589169f360","","[{""page_index"":0,""viewing_time"":5995}]","","","","","","","","","","","","","","","","","","","","","","","","","","","","","","","","","","","","","","","","","","",""
"18070","","<p>Before you start with this game please answer the following three questions yourself. </p>
  <p>Through this game, we measure several aspects of your cognitive performance, such as reaction times, multi-tasking capabilities </p>
  <p>and the ability to assess the situation you are in.</p>
  <p></p>
  <p><b>How good do you usually are in such tasks?</b></p>","50","html-slider-response","37","2059573","0.0-9.0-0.0","22","1","2025-07-09 09:06:46","7701e855f2ef39aa3fd6c71abdc6918a","197.245.162.70","Mozilla/5.0 (Windows NT 10.0; Win64; x64) AppleWebKit/537.36 (KHTML, like Gecko) Chrome/138.0.0.0 Safari/537.36","WebKit","Chrome","138.0.0.0","Windows","10.0","https://app.prolific.com/","en-ZA,en-GB;q=0.9,en-US;q=0.8,en;q=0.7","614e1c414dff2e589169f360","686d226cabeef709c732f8e1","686e311f6d1d695e3e5ee87c","614e1c414dff2e589169f360","2025-07-09T09:41:07.540Z","","","","","","PreSkillQ","","","","","","","","","","","","","","","","","","","","","","","","","","","","","","","","","","","","","","50"
"5324","","<div style=""width:500px;"">
  <p>How well do you think you will perform in this task compared to other participants?</p>
  </div>","53","html-slider-response","38","2064898","0.0-9.0-1.0","22","1","2025-07-09 09:06:46","7701e855f2ef39aa3fd6c71abdc6918a","197.245.162.70","Mozilla/5.0 (Windows NT 10.0; Win64; x64) AppleWebKit/537.36 (KHTML, like Gecko) Chrome/138.0.0.0 Safari/537.36","WebKit","Chrome","138.0.0.0","Windows","10.0","https://app.prolific.com/","en-ZA,en-GB;q=0.9,en-US;q=0.8,en;q=0.7","614e1c414dff2e589169f360","686d226cabeef709c732f8e1","686e311f6d1d695e3e5ee87c","614e1c414dff2e589169f360","2025-07-09T09:41:12.865Z","","","","","","PrePerfQ","","","","","","","","","","","","","","","","","","","","","","","","","","","","","","","","","","","","","","50"
"6210","","<div style=""width:500px;"">
  <p>What best describes how you currently feel?</p>
  </div>","57","html-slider-response","39","2071109","0.0-9.0-2.0","22","1","2025-07-09 09:06:46","7701e855f2ef39aa3fd6c71abdc6918a","197.245.162.70","Mozilla/5.0 (Windows NT 10.0; Win64; x64) AppleWebKit/537.36 (KHTML, like Gecko) Chrome/138.0.0.0 Safari/537.36","WebKit","Chrome","138.0.0.0","Windows","10.0","https://app.prolific.com/","en-ZA,en-GB;q=0.9,en-US;q=0.8,en;q=0.7","614e1c414dff2e589169f360","686d226cabeef709c732f8e1","686e311f6d1d695e3e5ee87c","614e1c414dff2e589169f360","2025-07-09T09:41:19.076Z","","","","","","PreMotivationQ","","","","","","","","","","","","","","","","","","","","","","","","","","","","","","","","","","","","","","50"
"","","","","ctl-task-cpt","40","2107914","0.0-10.0-0.0","22","1","2025-07-09 09:06:46","7701e855f2ef39aa3fd6c71abdc6918a","197.245.162.70","Mozilla/5.0 (Windows NT 10.0; Win64; x64) AppleWebKit/537.36 (KHTML, like Gecko) Chrome/138.0.0.0 Safari/537.36","WebKit","Chrome","138.0.0.0","Windows","10.0","https://app.prolific.com/","en-ZA,en-GB;q=0.9,en-US;q=0.8,en;q=0.7","614e1c414dff2e589169f360","686d226cabeef709c732f8e1","686e311f6d1d695e3e5ee87c","614e1c414dff2e589169f360","2025-07-09T09:41:55.881Z","","","","","","","","","","","","","","","","win-only","3","g1:SW,g2:NE","1","1","0","2074187.4","6012","11019.8","33801.2","1","4","4","6","2","4","2","2","0","0.015151515151515152","5007.7","3000","360","[""up"",""right""]","{""num_key_presses"":9,""num_perfect"":6,""num_errors"":2,""num_randdir"":0,""num_randdir_good_moves"":0,""num_whilered"":1,""num_whileblue"":0,""num_blue"":1,""num_good_moves"":6}","[353.14285714285717,348.04910714285717,0.3,353.14285714285717,348.04910714285717,100,353.14285714285717,348.04910714285717,203.9,432.14285714285717,376.04910714285717,304.4,549.1428571428571,400.04910714285717,404.7,568.1428571428571,432.04910714285717,508.7,527.1428571428571,515.0491071428571,613.4,542.1428571428571,641.0491071428571,713.5,565.1428571428571,687.0491071428571,814.4,593.1428571428571,718.0491071428571,918.5,605.1428571428571,722.0491071428571,1024.1,605.1428571428571,722.0491071428571,1124.5,645.1428571428571,768.0491071428571,1228.8,667.1428571428571,800.0491071428571,1334.1,667.1428571428571,800.0491071428571,1434.2,668.1428571428571,799.0491071428571,1539.7,668.1428571428571,799.0491071428571,1642,668.1428571428571,799.0491071428571,1744.5,668.1428571428571,799.0491071428571,1848.8,668.1428571428571,799.0491071428571,1949.9,668.1428571428571,799.0491071428571,2050.2,668.1428571428571,799.0491071428571,2153.4,668.1428571428571,799.0491071428571,2253.6,668.1428571428571,799.0491071428571,2355.5,668.1428571428571,799.0491071428571,2458.6,668.1428571428571,799.0491071428571,2559,668.1428571428571,799.0491071428571,2663.9,668.1428571428571,799.0491071428571,2764.4,668.1428571428571,799.0491071428571,2868.8,668.1428571428571,799.0491071428571,2968.9,668.1428571428571,799.0491071428571,3069,668.1428571428571,799.0491071428571,3169.4,668.1428571428571,799.0491071428571,3274,668.1428571428571,799.0491071428571,3378.7,668.1428571428571,799.0491071428571,3479.2,668.1428571428571,799.0491071428571,3580.1,668.1428571428571,799.0491071428571,3683.6,668.1428571428571,799.0491071428571,3783.8,668.1428571428571,799.0491071428571,3888.8,668.1428571428571,799.0491071428571,3990,668.1428571428571,799.0491071428571,4093.6,668.1428571428571,799.0491071428571,4199.3,668.1428571428571,799.0491071428571,4299.5,668.1428571428571,799.0491071428571,4405.2,668.1428571428571,799.0491071428571,4508.8,668.1428571428571,799.0491071428571,4608.8,668.1428571428571,799.0491071428571,4714.5,668.1428571428571,799.0491071428571,4818.6,668.1428571428571,799.0491071428571,4923.7]","[2429.1,2429.1,2428.7,2006.4,-2006,""error"",""-"",""-"",""no_move"",6269.5,3839.6,2340.5,3430.6,498.4,""smooth"",""up"",""up"",""good_move"",6693.4,423.4,2877.3,6270,-2453.9,""error"",""-"",""-"",""no_move"",7006.9,313.3,2877.3,6270,-2140.4,""while_red"",""-"",""-"",""no_move"",10813.4,4119.8,2537.9,7695.9,579.6,""smooth"",""up"",""up"",""good_move"",14142.8,3329.1,2614.4,10813.7,714.7,""smooth"",""up"",""up"",""good_move"",16731.3,2588.2,1967.2,14143.1,621,""smooth"",""right"",""right"",""good_move"",20278.2,3546.2,3058.7,16732,487.5,""smooth"",""right"",""right"",""good_move"",22697.1,2418.7,1995.5,20278.4,423.2,""smooth"",""right"",""right"",""good_move""]","",""
"8193","","<div style=""width:500px;"">
  <p>What determined the result of this run?</p>
  </div>","95","html-slider-response","41","2116109","0.0-10.0-1.0","22","1","2025-07-09 09:06:46","7701e855f2ef39aa3fd6c71abdc6918a","197.245.162.70","Mozilla/5.0 (Windows NT 10.0; Win64; x64) AppleWebKit/537.36 (KHTML, like Gecko) Chrome/138.0.0.0 Safari/537.36","WebKit","Chrome","138.0.0.0","Windows","10.0","https://app.prolific.com/","en-ZA,en-GB;q=0.9,en-US;q=0.8,en;q=0.7","614e1c414dff2e589169f360","686d226cabeef709c732f8e1","686e311f6d1d695e3e5ee87c","614e1c414dff2e589169f360","2025-07-09T09:42:04.076Z","","","","","","AttribQ","","","","","","","","","","","","","","","","","","","","","","","","","","","","","","","","","","","","","","50"
"4057","","<div style=""width:500px;"">
  <p>How much control did you have over the ball?</p>
  </div>","87","html-slider-response","42","2120167","0.0-10.0-2.0","22","1","2025-07-09 09:06:46","7701e855f2ef39aa3fd6c71abdc6918a","197.245.162.70","Mozilla/5.0 (Windows NT 10.0; Win64; x64) AppleWebKit/537.36 (KHTML, like Gecko) Chrome/138.0.0.0 Safari/537.36","WebKit","Chrome","138.0.0.0","Windows","10.0","https://app.prolific.com/","en-ZA,en-GB;q=0.9,en-US;q=0.8,en;q=0.7","614e1c414dff2e589169f360","686d226cabeef709c732f8e1","686e311f6d1d695e3e5ee87c","614e1c414dff2e589169f360","2025-07-09T09:42:08.134Z","","","","","","ControlQ","","","","","","","","","","","","","","","","","","","","","","","","","","","","","","","","","","","","","","50"
"4544","","<div style=""width:500px;"">
  <p>How would you describe your current emotional state?</p>
  </div>","75","html-slider-response","43","2124713","0.0-10.0-3.0","22","1","2025-07-09 09:06:46","7701e855f2ef39aa3fd6c71abdc6918a","197.245.162.70","Mozilla/5.0 (Windows NT 10.0; Win64; x64) AppleWebKit/537.36 (KHTML, like Gecko) Chrome/138.0.0.0 Safari/537.36","WebKit","Chrome","138.0.0.0","Windows","10.0","https://app.prolific.com/","en-ZA,en-GB;q=0.9,en-US;q=0.8,en;q=0.7","614e1c414dff2e589169f360","686d226cabeef709c732f8e1","686e311f6d1d695e3e5ee87c","614e1c414dff2e589169f360","2025-07-09T09:42:12.680Z","","","","","","StressQ","","","","","","","","","","","","","","","","","","","","","","","","","","","","","","","","","","","","","","50"
"5200","","<div style=""width:500px;"">
  <p>What best describes how you currently feel?</p>
  </div>","74","html-slider-response","44","2129914","0.0-10.0-4.0","22","1","2025-07-09 09:06:46","7701e855f2ef39aa3fd6c71abdc6918a","197.245.162.70","Mozilla/5.0 (Windows NT 10.0; Win64; x64) AppleWebKit/537.36 (KHTML, like Gecko) Chrome/138.0.0.0 Safari/537.36","WebKit","Chrome","138.0.0.0","Windows","10.0","https://app.prolific.com/","en-ZA,en-GB;q=0.9,en-US;q=0.8,en;q=0.7","614e1c414dff2e589169f360","686d226cabeef709c732f8e1","686e311f6d1d695e3e5ee87c","614e1c414dff2e589169f360","2025-07-09T09:42:17.882Z","","","","","","MotivationQ","","","","","","","","","","","","","","","","","","","","","","","","","","","","","","","","","","","","","","50"
"","","","","ctl-task-cpt","45","2156481","0.0-10.0-0.1","22","1","2025-07-09 09:06:46","7701e855f2ef39aa3fd6c71abdc6918a","197.245.162.70","Mozilla/5.0 (Windows NT 10.0; Win64; x64) AppleWebKit/537.36 (KHTML, like Gecko) Chrome/138.0.0.0 Safari/537.36","WebKit","Chrome","138.0.0.0","Windows","10.0","https://app.prolific.com/","en-ZA,en-GB;q=0.9,en-US;q=0.8,en;q=0.7","614e1c414dff2e589169f360","686d226cabeef709c732f8e1","686e311f6d1d695e3e5ee87c","614e1c414dff2e589169f360","2025-07-09T09:42:44.448Z","","","","","","","","","","","","","","","","win-only","3","g1:SW,g2:NE","0.9","2","0","2132996.5","2159.1","7163.1","23536","1","4","8","6","2","8","8","10","2","0.07575757575757576","5004","3000","900","[""up"",""right""]","{""num_key_presses"":6,""num_perfect"":6,""num_errors"":0,""num_randdir"":0,""num_randdir_good_moves"":0,""num_whilered"":0,""num_whileblue"":0,""num_blue"":0,""num_good_moves"":6}","[347.14285714285717,343.04910714285717,0.2,347.14285714285717,343.04910714285717,104.4,352.14285714285717,352.04910714285717,206.5,355.14285714285717,407.04910714285717,307.8,373.14285714285717,586.0491071428571,408.7,375.14285714285717,663.0491071428571,511.3,375.14285714285717,664.0491071428571,612.3,375.14285714285717,664.0491071428571,717.1,375.14285714285717,664.0491071428571,822.6,375.14285714285717,664.0491071428571,926.9,375.14285714285717,664.0491071428571,1032.4,375.14285714285717,664.0491071428571,1137.9,375.14285714285717,664.0491071428571,1241.6,375.14285714285717,664.0491071428571,1346.7,375.14285714285717,664.0491071428571,1452.5,375.14285714285717,664.0491071428571,1552.8,375.14285714285717,664.0491071428571,1656.8,375.14285714285717,664.0491071428571,1756.8,375.14285714285717,664.0491071428571,1857.9,375.14285714285717,664.0491071428571,1961.7,375.14285714285717,664.0491071428571,2066.7,375.14285714285717,664.0491071428571,2168,375.14285714285717,664.0491071428571,2273.3,375.14285714285717,664.0491071428571,2377.4,375.14285714285717,664.0491071428571,2482.5,375.14285714285717,664.0491071428571,2588.8,375.14285714285717,664.0491071428571,2688.8,375.14285714285717,664.0491071428571,2791.5,375.14285714285717,664.0491071428571,2892.3,375.14285714285717,664.0491071428571,2996.8,375.14285714285717,664.0491071428571,3096.8,375.14285714285717,664.0491071428571,3201.6,375.14285714285717,664.0491071428571,3307.6,375.14285714285717,664.0491071428571,3411.7,375.14285714285717,664.0491071428571,3512,375.14285714285717,664.0491071428571,3612.1,375.14285714285717,664.0491071428571,3718.1,375.14285714285717,664.0491071428571,3822.5,375.14285714285717,664.0491071428571,3922.7,375.14285714285717,664.0491071428571,4027,375.14285714285717,664.0491071428571,4132.1,375.14285714285717,664.0491071428571,4232.2,375.14285714285717,664.0491071428571,4332.2,375.14285714285717,664.0491071428571,4436.3,375.14285714285717,664.0491071428571,4536.8,375.14285714285717,664.0491071428571,4637.2,375.14285714285717,664.0491071428571,4738.6,375.14285714285717,664.0491071428571,4842.4,375.14285714285717,664.0491071428571,4946.9]","[1406.3,1406.3,1000,0,406.3,""smooth"",""up"",""up"",""good_move"",4365.6,2958.9,2451.9,1406.8,506.9,""smooth"",""up"",""up"",""good_move"",7430.3,3064.5,2599.8,4365.8,464.7,""smooth"",""up"",""up"",""good_move"",10381.4,2950.8,2547.9,7430.7,402.8,""smooth"",""right"",""right"",""good_move"",13364,2982,2580,10382,402,""smooth"",""right"",""right"",""good_move"",16240.4,2875.9,2525.6,13364.6,350.2,""smooth"",""right"",""right"",""good_move""]","",""
"5352","","<div style=""width:500px;"">
  <p>What determined the result of this run?</p>
  </div>","87","html-slider-response","46","2161835","0.0-10.0-1.1","22","1","2025-07-09 09:06:46","7701e855f2ef39aa3fd6c71abdc6918a","197.245.162.70","Mozilla/5.0 (Windows NT 10.0; Win64; x64) AppleWebKit/537.36 (KHTML, like Gecko) Chrome/138.0.0.0 Safari/537.36","WebKit","Chrome","138.0.0.0","Windows","10.0","https://app.prolific.com/","en-ZA,en-GB;q=0.9,en-US;q=0.8,en;q=0.7","614e1c414dff2e589169f360","686d226cabeef709c732f8e1","686e311f6d1d695e3e5ee87c","614e1c414dff2e589169f360","2025-07-09T09:42:49.802Z","","","","","","AttribQ","","","","","","","","","","","","","","","","","","","","","","","","","","","","","","","","","","","","","","50"
"2713","","<div style=""width:500px;"">
  <p>How much control did you have over the ball?</p>
  </div>","95","html-slider-response","47","2164549","0.0-10.0-2.1","22","1","2025-07-09 09:06:46","7701e855f2ef39aa3fd6c71abdc6918a","197.245.162.70","Mozilla/5.0 (Windows NT 10.0; Win64; x64) AppleWebKit/537.36 (KHTML, like Gecko) Chrome/138.0.0.0 Safari/537.36","WebKit","Chrome","138.0.0.0","Windows","10.0","https://app.prolific.com/","en-ZA,en-GB;q=0.9,en-US;q=0.8,en;q=0.7","614e1c414dff2e589169f360","686d226cabeef709c732f8e1","686e311f6d1d695e3e5ee87c","614e1c414dff2e589169f360","2025-07-09T09:42:52.516Z","","","","","","ControlQ","","","","","","","","","","","","","","","","","","","","","","","","","","","","","","","","","","","","","","50"
"5244","","<div style=""width:500px;"">
  <p>How would you describe your current emotional state?</p>
  </div>","13","html-slider-response","48","2169795","0.0-10.0-3.1","22","1","2025-07-09 09:06:46","7701e855f2ef39aa3fd6c71abdc6918a","197.245.162.70","Mozilla/5.0 (Windows NT 10.0; Win64; x64) AppleWebKit/537.36 (KHTML, like Gecko) Chrome/138.0.0.0 Safari/537.36","WebKit","Chrome","138.0.0.0","Windows","10.0","https://app.prolific.com/","en-ZA,en-GB;q=0.9,en-US;q=0.8,en;q=0.7","614e1c414dff2e589169f360","686d226cabeef709c732f8e1","686e311f6d1d695e3e5ee87c","614e1c414dff2e589169f360","2025-07-09T09:42:57.763Z","","","","","","StressQ","","","","","","","","","","","","","","","","","","","","","","","","","","","","","","","","","","","","","","50"
"4391","","<div style=""width:500px;"">
  <p>What best describes how you currently feel?</p>
  </div>","100","html-slider-response","49","2174188","0.0-10.0-4.1","22","1","2025-07-09 09:06:46","7701e855f2ef39aa3fd6c71abdc6918a","197.245.162.70","Mozilla/5.0 (Windows NT 10.0; Win64; x64) AppleWebKit/537.36 (KHTML, like Gecko) Chrome/138.0.0.0 Safari/537.36","WebKit","Chrome","138.0.0.0","Windows","10.0","https://app.prolific.com/","en-ZA,en-GB;q=0.9,en-US;q=0.8,en;q=0.7","614e1c414dff2e589169f360","686d226cabeef709c732f8e1","686e311f6d1d695e3e5ee87c","614e1c414dff2e589169f360","2025-07-09T09:43:02.155Z","","","","","","MotivationQ","","","","","","","","","","","","","","","","","","","","","","","","","","","","","","","","","","","","","","50"
"","","","","ctl-task-cpt","50","2210277","0.0-10.0-0.2","22","1","2025-07-09 09:06:46","7701e855f2ef39aa3fd6c71abdc6918a","197.245.162.70","Mozilla/5.0 (Windows NT 10.0; Win64; x64) AppleWebKit/537.36 (KHTML, like Gecko) Chrome/138.0.0.0 Safari/537.36","WebKit","Chrome","138.0.0.0","Windows","10.0","https://app.prolific.com/","en-ZA,en-GB;q=0.9,en-US;q=0.8,en;q=0.7","614e1c414dff2e589169f360","686d226cabeef709c732f8e1","686e311f6d1d695e3e5ee87c","614e1c414dff2e589169f360","2025-07-09T09:43:38.244Z","","","","","","","","","","","","","","","","win-only","0","g1:NW,g2:SE","0.8","3","0","2177271.6","2916.9","7917.7","33067.9","1","4","4","6","1","-1","-1","9","10","0.06818181818181818","5000.8","3000","-2735","[""left"",""up""]","{""num_key_presses"":7,""num_perfect"":6,""num_errors"":0,""num_randdir"":1,""num_randdir_good_moves"":1,""num_whilered"":0,""num_whileblue"":0,""num_blue"":1,""num_good_moves"":1}","[351.14285714285717,342.04910714285717,0.8,351.14285714285717,342.04910714285717,104.3,362.14285714285717,342.04910714285717,209.5,371.14285714285717,349.04910714285717,309.8,374.14285714285717,364.04910714285717,419.8,423.14285714285717,468.04910714285717,519.9,529.1428571428571,614.0491071428571,624.7,533.1428571428571,625.0491071428571,730.1,533.1428571428571,625.0491071428571,836.6,533.1428571428571,625.0491071428571,938.2,533.1428571428571,625.0491071428571,1038.7,533.1428571428571,625.0491071428571,1140.6,533.1428571428571,625.0491071428571,1243.9,533.1428571428571,625.0491071428571,1344.8,533.1428571428571,625.0491071428571,1453.2,533.1428571428571,625.0491071428571,1553.2,533.1428571428571,625.0491071428571,1654.5,533.1428571428571,625.0491071428571,1759.3,533.1428571428571,625.0491071428571,1859.3,533.1428571428571,625.0491071428571,1969.6,533.1428571428571,625.0491071428571,2069.7,533.1428571428571,625.0491071428571,2173.6,533.1428571428571,625.0491071428571,2275.2,533.1428571428571,625.0491071428571,2386.4,533.1428571428571,625.0491071428571,2487.3,533.1428571428571,625.0491071428571,2589.4,533.1428571428571,625.0491071428571,2689.9,533.1428571428571,625.0491071428571,2794.5,533.1428571428571,625.0491071428571,2894.7,533.1428571428571,625.0491071428571,2995.2,533.1428571428571,625.0491071428571,3103.4,533.1428571428571,625.0491071428571,3203.7,533.1428571428571,625.0491071428571,3304,533.1428571428571,625.0491071428571,3407.4,533.1428571428571,625.0491071428571,3509,533.1428571428571,625.0491071428571,3613.6,533.1428571428571,625.0491071428571,3713.9,533.1428571428571,625.0491071428571,3820.7,533.1428571428571,625.0491071428571,3924.3,533.1428571428571,625.0491071428571,4024.5,533.1428571428571,626.0491071428571,4125.1,534.1428571428571,626.0491071428571,4238.3,534.1428571428571,626.0491071428571,4338.5,534.1428571428571,626.0491071428571,4439.2,535.1428571428571,627.0491071428571,4554.5,536.1428571428571,627.0491071428571,4659.1,536.1428571428571,627.0491071428571,4763.7,536.1428571428571,627.0491071428571,4864,536.1428571428571,627.0491071428571,4969.2]","[1577.6,1577.6,1000,0.1,577.6,""smooth"",""right"",""right"",""bad_move"",7745.7,6167.6,2509.5,4888.5,347.7,""smooth"",""down"",""down"",""bad_move"",10713.5,2967.6,2462.8,7745.9,504.8,""smooth"",""right"",""right"",""bad_move"",13378.8,2665.2,2210.6,10713.6,454.6,""smooth"",""down"",""down"",""bad_move"",16282.2,2903.3,2522.8,13379,380.4,""smooth"",""right"",""right"",""bad_move"",18911.9,2629.6,2283.2,16282.4,346.4,""smooth"",""down"",""down"",""bad_move"",22159.2,3246.9,2183.5,18912.3,1063.4,""oops"",""up"",""up"",""good_move""]","",""
"5136","","<div style=""width:500px;"">
  <p>What determined the result of this run?</p>
  </div>","0","html-slider-response","51","2215411","0.0-10.0-1.2","22","1","2025-07-09 09:06:46","7701e855f2ef39aa3fd6c71abdc6918a","197.245.162.70","Mozilla/5.0 (Windows NT 10.0; Win64; x64) AppleWebKit/537.36 (KHTML, like Gecko) Chrome/138.0.0.0 Safari/537.36","WebKit","Chrome","138.0.0.0","Windows","10.0","https://app.prolific.com/","en-ZA,en-GB;q=0.9,en-US;q=0.8,en;q=0.7","614e1c414dff2e589169f360","686d226cabeef709c732f8e1","686e311f6d1d695e3e5ee87c","614e1c414dff2e589169f360","2025-07-09T09:43:43.378Z","","","","","","AttribQ","","","","","","","","","","","","","","","","","","","","","","","","","","","","","","","","","","","","","","50"
"2756","","<div style=""width:500px;"">
  <p>How much control did you have over the ball?</p>
  </div>","6","html-slider-response","52","2218168","0.0-10.0-2.2","22","1","2025-07-09 09:06:46","7701e855f2ef39aa3fd6c71abdc6918a","197.245.162.70","Mozilla/5.0 (Windows NT 10.0; Win64; x64) AppleWebKit/537.36 (KHTML, like Gecko) Chrome/138.0.0.0 Safari/537.36","WebKit","Chrome","138.0.0.0","Windows","10.0","https://app.prolific.com/","en-ZA,en-GB;q=0.9,en-US;q=0.8,en;q=0.7","614e1c414dff2e589169f360","686d226cabeef709c732f8e1","686e311f6d1d695e3e5ee87c","614e1c414dff2e589169f360","2025-07-09T09:43:46.135Z","","","","","","ControlQ","","","","","","","","","","","","","","","","","","","","","","","","","","","","","","","","","","","","","","50"
"3923","","<div style=""width:500px;"">
  <p>How would you describe your current emotional state?</p>
  </div>","6","html-slider-response","53","2222092","0.0-10.0-3.2","22","1","2025-07-09 09:06:46","7701e855f2ef39aa3fd6c71abdc6918a","197.245.162.70","Mozilla/5.0 (Windows NT 10.0; Win64; x64) AppleWebKit/537.36 (KHTML, like Gecko) Chrome/138.0.0.0 Safari/537.36","WebKit","Chrome","138.0.0.0","Windows","10.0","https://app.prolific.com/","en-ZA,en-GB;q=0.9,en-US;q=0.8,en;q=0.7","614e1c414dff2e589169f360","686d226cabeef709c732f8e1","686e311f6d1d695e3e5ee87c","614e1c414dff2e589169f360","2025-07-09T09:43:50.059Z","","","","","","StressQ","","","","","","","","","","","","","","","","","","","","","","","","","","","","","","","","","","","","","","50"
"4290","","<div style=""width:500px;"">
  <p>What best describes how you currently feel?</p>
  </div>","83","html-slider-response","54","2226385","0.0-10.0-4.2","22","1","2025-07-09 09:06:46","7701e855f2ef39aa3fd6c71abdc6918a","197.245.162.70","Mozilla/5.0 (Windows NT 10.0; Win64; x64) AppleWebKit/537.36 (KHTML, like Gecko) Chrome/138.0.0.0 Safari/537.36","WebKit","Chrome","138.0.0.0","Windows","10.0","https://app.prolific.com/","en-ZA,en-GB;q=0.9,en-US;q=0.8,en;q=0.7","614e1c414dff2e589169f360","686d226cabeef709c732f8e1","686e311f6d1d695e3e5ee87c","614e1c414dff2e589169f360","2025-07-09T09:43:54.352Z","","","","","","MotivationQ","","","","","","","","","","","","","","","","","","","","","","","","","","","","","","","","","","","","","","50"
"","","","","ctl-task-cpt","55","2268185","0.0-10.0-0.3","22","1","2025-07-09 09:06:46","7701e855f2ef39aa3fd6c71abdc6918a","197.245.162.70","Mozilla/5.0 (Windows NT 10.0; Win64; x64) AppleWebKit/537.36 (KHTML, like Gecko) Chrome/138.0.0.0 Safari/537.36","WebKit","Chrome","138.0.0.0","Windows","10.0","https://app.prolific.com/","en-ZA,en-GB;q=0.9,en-US;q=0.8,en;q=0.7","614e1c414dff2e589169f360","686d226cabeef709c732f8e1","686e311f6d1d695e3e5ee87c","614e1c414dff2e589169f360","2025-07-09T09:44:36.152Z","","","","","","","","","","","","","","","","win-only","3","g1:SW,g2:NE","0.7","4","0","2229470.1","1490","6493.2","38779.5","1","4","8","6","1","-1","-1","8","9","0.06060606060606061","5003.2","3000","-2235","[""down"",""left""]","{""num_key_presses"":8,""num_perfect"":6,""num_errors"":0,""num_randdir"":2,""num_randdir_good_moves"":0,""num_whilered"":0,""num_whileblue"":0,""num_blue"":2,""num_good_moves"":5}","[345.14285714285717,347.04910714285717,0.3,345.14285714285717,347.04910714285717,104.8,345.14285714285717,352.04910714285717,204.9,346.14285714285717,353.04910714285717,308.1,394.14285714285717,372.04910714285717,411,396.14285714285717,373.04910714285717,512.2,438.14285714285717,406.04910714285717,617.4,492.14285714285717,505.04910714285717,726.1,578.1428571428571,651.0491071428571,826.1,615.1428571428571,722.0491071428571,926.6,618.1428571428571,728.0491071428571,1030.6,618.1428571428571,728.0491071428571,1139.1,618.1428571428571,728.0491071428571,1241.8,618.1428571428571,728.0491071428571,1346.4,618.1428571428571,728.0491071428571,1446.4,618.1428571428571,728.0491071428571,1555.3,618.1428571428571,728.0491071428571,1655.9,618.1428571428571,728.0491071428571,1757,618.1428571428571,728.0491071428571,1860.8,618.1428571428571,728.0491071428571,1966,619.1428571428571,728.0491071428571,2071.8,620.1428571428571,728.0491071428571,2176.7,620.1428571428571,728.0491071428571,2277.1,620.1428571428571,728.0491071428571,2388.8,620.1428571428571,728.0491071428571,2489,620.1428571428571,728.0491071428571,2589.3,620.1428571428571,728.0491071428571,2690,620.1428571428571,728.0491071428571,2790.5,620.1428571428571,728.0491071428571,2891.8,620.1428571428571,728.0491071428571,2992.4,620.1428571428571,728.0491071428571,3096.1,622.1428571428571,729.0491071428571,3200.9,622.1428571428571,729.0491071428571,3302.9,624.1428571428571,730.0491071428571,3406.8,625.1428571428571,730.0491071428571,3507,625.1428571428571,730.0491071428571,3610.3,625.1428571428571,730.0491071428571,3710.6,625.1428571428571,730.0491071428571,3815.3,625.1428571428571,730.0491071428571,3916.7,625.1428571428571,730.0491071428571,4023.3,625.1428571428571,730.0491071428571,4126.5,625.1428571428571,730.0491071428571,4240.3,625.1428571428571,730.0491071428571,4340.7,625.1428571428571,730.0491071428571,4441.3,625.1428571428571,730.0491071428571,4557,625.1428571428571,730.0491071428571,4660.4,625.1428571428571,730.0491071428571,4761.5,625.1428571428571,730.0491071428571,4866.4,625.1428571428571,730.0491071428571,4972.2]","[1453.2,1453.3,1000,0,453.3,""smooth"",""up"",""up"",""bad_move"",4989.7,3535.9,3075.2,1454,460.5,""smooth"",""left"",""left"",""good_move"",8176.5,3186.3,2754.7,4990.2,431.6,""smooth"",""down"",""down"",""good_move"",11416.4,3239.6,2805.4,8176.8,434.2,""smooth"",""left"",""left"",""good_move"",17265.7,5849.1,2688.1,14177.4,400.2,""oops"",""down"",""up"",""bad_move"",19974.3,2708.1,2276.8,17266.2,431.3,""smooth"",""down"",""down"",""good_move"",26632,6656.7,3149.4,23096,386.6,""smooth"",""down"",""down"",""good_move"",29336.3,2704.1,2231.5,26632.2,472.6,""oops"",""down"",""up"",""bad_move""]","",""
"4781","","<div style=""width:500px;"">
  <p>What determined the result of this run?</p>
  </div>","15","html-slider-response","56","2272965","0.0-10.0-1.3","22","1","2025-07-09 09:06:46","7701e855f2ef39aa3fd6c71abdc6918a","197.245.162.70","Mozilla/5.0 (Windows NT 10.0; Win64; x64) AppleWebKit/537.36 (KHTML, like Gecko) Chrome/138.0.0.0 Safari/537.36","WebKit","Chrome","138.0.0.0","Windows","10.0","https://app.prolific.com/","en-ZA,en-GB;q=0.9,en-US;q=0.8,en;q=0.7","614e1c414dff2e589169f360","686d226cabeef709c732f8e1","686e311f6d1d695e3e5ee87c","614e1c414dff2e589169f360","2025-07-09T09:44:40.932Z","","","","","","AttribQ","","","","","","","","","","","","","","","","","","","","","","","","","","","","","","","","","","","","","","50"
"2566","","<div style=""width:500px;"">
  <p>How much control did you have over the ball?</p>
  </div>","0","html-slider-response","57","2275531","0.0-10.0-2.3","22","1","2025-07-09 09:06:46","7701e855f2ef39aa3fd6c71abdc6918a","197.245.162.70","Mozilla/5.0 (Windows NT 10.0; Win64; x64) AppleWebKit/537.36 (KHTML, like Gecko) Chrome/138.0.0.0 Safari/537.36","WebKit","Chrome","138.0.0.0","Windows","10.0","https://app.prolific.com/","en-ZA,en-GB;q=0.9,en-US;q=0.8,en;q=0.7","614e1c414dff2e589169f360","686d226cabeef709c732f8e1","686e311f6d1d695e3e5ee87c","614e1c414dff2e589169f360","2025-07-09T09:44:43.498Z","","","","","","ControlQ","","","","","","","","","","","","","","","","","","","","","","","","","","","","","","","","","","","","","","50"
"3941","","<div style=""width:500px;"">
  <p>How would you describe your current emotional state?</p>
  </div>","64","html-slider-response","58","2279474","0.0-10.0-3.3","22","1","2025-07-09 09:06:46","7701e855f2ef39aa3fd6c71abdc6918a","197.245.162.70","Mozilla/5.0 (Windows NT 10.0; Win64; x64) AppleWebKit/537.36 (KHTML, like Gecko) Chrome/138.0.0.0 Safari/537.36","WebKit","Chrome","138.0.0.0","Windows","10.0","https://app.prolific.com/","en-ZA,en-GB;q=0.9,en-US;q=0.8,en;q=0.7","614e1c414dff2e589169f360","686d226cabeef709c732f8e1","686e311f6d1d695e3e5ee87c","614e1c414dff2e589169f360","2025-07-09T09:44:47.442Z","","","","","","StressQ","","","","","","","","","","","","","","","","","","","","","","","","","","","","","","","","","","","","","","50"
"3166","","<div style=""width:500px;"">
  <p>What best describes how you currently feel?</p>
  </div>","85","html-slider-response","59","2282642","0.0-10.0-4.3","22","1","2025-07-09 09:06:46","7701e855f2ef39aa3fd6c71abdc6918a","197.245.162.70","Mozilla/5.0 (Windows NT 10.0; Win64; x64) AppleWebKit/537.36 (KHTML, like Gecko) Chrome/138.0.0.0 Safari/537.36","WebKit","Chrome","138.0.0.0","Windows","10.0","https://app.prolific.com/","en-ZA,en-GB;q=0.9,en-US;q=0.8,en;q=0.7","614e1c414dff2e589169f360","686d226cabeef709c732f8e1","686e311f6d1d695e3e5ee87c","614e1c414dff2e589169f360","2025-07-09T09:44:50.609Z","","","","","","MotivationQ","","","","","","","","","","","","","","","","","","","","","","","","","","","","","","","","","","","","","","50"
"","","","","ctl-task-cpt","60","2306353","0.0-10.0-0.4","22","1","2025-07-09 09:06:46","7701e855f2ef39aa3fd6c71abdc6918a","197.245.162.70","Mozilla/5.0 (Windows NT 10.0; Win64; x64) AppleWebKit/537.36 (KHTML, like Gecko) Chrome/138.0.0.0 Safari/537.36","WebKit","Chrome","138.0.0.0","Windows","10.0","https://app.prolific.com/","en-ZA,en-GB;q=0.9,en-US;q=0.8,en;q=0.7","614e1c414dff2e589169f360","686d226cabeef709c732f8e1","686e311f6d1d695e3e5ee87c","614e1c414dff2e589169f360","2025-07-09T09:45:14.320Z","","","","","","","","","","","","","","","","win-only","0","g1:NW,g2:SE","0.6","5","0","2285730.3","1553","6557.3","20686.6","1","4","8","6","1","1","1","9","8","0.06818181818181818","5004.3","3000","1550","[""left"",""up""]","{""num_key_presses"":4,""num_perfect"":3,""num_errors"":0,""num_randdir"":1,""num_randdir_good_moves"":1,""num_whilered"":0,""num_whileblue"":0,""num_blue"":1,""num_good_moves"":4}","[342.14285714285717,346.04910714285717,0.2,342.14285714285717,346.04910714285717,102.5,346.14285714285717,349.04910714285717,203.8,354.14285714285717,355.04910714285717,304.7,355.14285714285717,355.04910714285717,407.9,355.14285714285717,355.04910714285717,508.5,355.14285714285717,355.04910714285717,613,356.14285714285717,357.04910714285717,716.8,356.14285714285717,361.04910714285717,823,361.14285714285717,377.04910714285717,923.2,371.14285714285717,395.04910714285717,1027.8,380.14285714285717,400.04910714285717,1131.8,389.14285714285717,400.04910714285717,1237.4,395.14285714285717,399.04910714285717,1337.8,401.14285714285717,397.04910714285717,1442.5,402.14285714285717,397.04910714285717,1544.2,402.14285714285717,397.04910714285717,1647.4,402.14285714285717,397.04910714285717,1752.6,402.14285714285717,397.04910714285717,1854,402.14285714285717,397.04910714285717,1958.8,402.14285714285717,397.04910714285717,2066.7,402.14285714285717,397.04910714285717,2169.2,402.14285714285717,397.04910714285717,2270,402.14285714285717,397.04910714285717,2372.4,402.14285714285717,397.04910714285717,2478.5,402.14285714285717,397.04910714285717,2578.9,402.14285714285717,397.04910714285717,2685.8,402.14285714285717,397.04910714285717,2787.9,402.14285714285717,397.04910714285717,2888.5,402.14285714285717,397.04910714285717,2992.8,402.14285714285717,397.04910714285717,3094.1,402.14285714285717,397.04910714285717,3201.3,402.14285714285717,397.04910714285717,3304.7,402.14285714285717,397.04910714285717,3408.1,402.14285714285717,397.04910714285717,3517.9,402.14285714285717,397.04910714285717,3618.3,402.14285714285717,397.04910714285717,3724.3,402.14285714285717,397.04910714285717,3829.1,402.14285714285717,397.04910714285717,3939.1,402.14285714285717,397.04910714285717,4043,402.14285714285717,397.04910714285717,4144.5,402.14285714285717,397.04910714285717,4248.1,402.14285714285717,397.04910714285717,4351,402.14285714285717,397.04910714285717,4452.4,402.14285714285717,397.04910714285717,4552.6,402.14285714285717,397.04910714285717,4652.7,402.14285714285717,397.04910714285717,4753.4,402.14285714285717,397.04910714285717,4853.7,402.14285714285717,397.04910714285717,4960.8]","[1637.6,1637.6,1000,0,637.6,""smooth"",""up"",""up"",""good_move"",4893.9,3255.8,2819.5,1638.1,436.3,""smooth"",""left"",""left"",""good_move"",7595.3,2701,2261.3,4894.3,439.7,""oops"",""up"",""up"",""good_move"",13995.5,6400,2753.5,10883.6,358.4,""smooth"",""left"",""left"",""good_move""]","",""
"46002","","<div style=""width:500px;"">
  <p>What determined the result of this run?</p>
  </div>","71","html-slider-response","61","2352354","0.0-10.0-1.4","22","1","2025-07-09 09:06:46","7701e855f2ef39aa3fd6c71abdc6918a","197.245.162.70","Mozilla/5.0 (Windows NT 10.0; Win64; x64) AppleWebKit/537.36 (KHTML, like Gecko) Chrome/138.0.0.0 Safari/537.36","WebKit","Chrome","138.0.0.0","Windows","10.0","https://app.prolific.com/","en-ZA,en-GB;q=0.9,en-US;q=0.8,en;q=0.7","614e1c414dff2e589169f360","686d226cabeef709c732f8e1","686e311f6d1d695e3e5ee87c","614e1c414dff2e589169f360","2025-07-09T09:46:00.321Z","","","","","","AttribQ","","","","","","","","","","","","","","","","","","","","","","","","","","","","","","","","","","","","","","50"
"7377","","<div style=""width:500px;"">
  <p>How much control did you have over the ball?</p>
  </div>","67","html-slider-response","62","2359733","0.0-10.0-2.4","22","1","2025-07-09 09:06:46","7701e855f2ef39aa3fd6c71abdc6918a","197.245.162.70","Mozilla/5.0 (Windows NT 10.0; Win64; x64) AppleWebKit/537.36 (KHTML, like Gecko) Chrome/138.0.0.0 Safari/537.36","WebKit","Chrome","138.0.0.0","Windows","10.0","https://app.prolific.com/","en-ZA,en-GB;q=0.9,en-US;q=0.8,en;q=0.7","614e1c414dff2e589169f360","686d226cabeef709c732f8e1","686e311f6d1d695e3e5ee87c","614e1c414dff2e589169f360","2025-07-09T09:46:07.700Z","","","","","","ControlQ","","","","","","","","","","","","","","","","","","","","","","","","","","","","","","","","","","","","","","50"
"3176","","<div style=""width:500px;"">
  <p>How would you describe your current emotional state?</p>
  </div>","35","html-slider-response","63","2362911","0.0-10.0-3.4","22","1","2025-07-09 09:06:46","7701e855f2ef39aa3fd6c71abdc6918a","197.245.162.70","Mozilla/5.0 (Windows NT 10.0; Win64; x64) AppleWebKit/537.36 (KHTML, like Gecko) Chrome/138.0.0.0 Safari/537.36","WebKit","Chrome","138.0.0.0","Windows","10.0","https://app.prolific.com/","en-ZA,en-GB;q=0.9,en-US;q=0.8,en;q=0.7","614e1c414dff2e589169f360","686d226cabeef709c732f8e1","686e311f6d1d695e3e5ee87c","614e1c414dff2e589169f360","2025-07-09T09:46:10.878Z","","","","","","StressQ","","","","","","","","","","","","","","","","","","","","","","","","","","","","","","","","","","","","","","50"
"3207","","<div style=""width:500px;"">
  <p>What best describes how you currently feel?</p>
  </div>","87","html-slider-response","64","2366119","0.0-10.0-4.4","22","1","2025-07-09 09:06:46","7701e855f2ef39aa3fd6c71abdc6918a","197.245.162.70","Mozilla/5.0 (Windows NT 10.0; Win64; x64) AppleWebKit/537.36 (KHTML, like Gecko) Chrome/138.0.0.0 Safari/537.36","WebKit","Chrome","138.0.0.0","Windows","10.0","https://app.prolific.com/","en-ZA,en-GB;q=0.9,en-US;q=0.8,en;q=0.7","614e1c414dff2e589169f360","686d226cabeef709c732f8e1","686e311f6d1d695e3e5ee87c","614e1c414dff2e589169f360","2025-07-09T09:46:14.087Z","","","","","","MotivationQ","","","","","","","","","","","","","","","","","","","","","","","","","","","","","","","","","","","","","","50"
"","","","","ctl-task-cpt","65","2394095","0.0-10.0-0.5","22","1","2025-07-09 09:06:46","7701e855f2ef39aa3fd6c71abdc6918a","197.245.162.70","Mozilla/5.0 (Windows NT 10.0; Win64; x64) AppleWebKit/537.36 (KHTML, like Gecko) Chrome/138.0.0.0 Safari/537.36","WebKit","Chrome","138.0.0.0","Windows","10.0","https://app.prolific.com/","en-ZA,en-GB;q=0.9,en-US;q=0.8,en;q=0.7","614e1c414dff2e589169f360","686d226cabeef709c732f8e1","686e311f6d1d695e3e5ee87c","614e1c414dff2e589169f360","2025-07-09T09:46:42.062Z","","","","","","","","","","","","","","","","win-only","0","g1:NW,g2:SE","0.5","6","0","2369209.5","2944.3","7955.6","24956.4","1","4","4","6","2","4","3","12","9","0.09090909090909091","5011.3","3000","1265","[""down"",""right""]","{""num_key_presses"":6,""num_perfect"":3,""num_errors"":1,""num_randdir"":2,""num_randdir_good_moves"":2,""num_whilered"":0,""num_whileblue"":1,""num_blue"":1,""num_good_moves"":6}","[350.14285714285717,342.04910714285717,0.2,350.14285714285717,342.04910714285717,101.1,347.14285714285717,342.04910714285717,201.3,365.14285714285717,389.04910714285717,307.7,413.14285714285717,466.04910714285717,408.4,452.14285714285717,561.0491071428571,515,474.14285714285717,618.0491071428571,615.8,525.1428571428571,680.0491071428571,717,748.1428571428571,777.0491071428571,821.8,827.1428571428571,780.0491071428571,926.1,827.1428571428571,780.0491071428571,1031.5,827.1428571428571,780.0491071428571,1146.4,828.1428571428571,779.0491071428571,1249.1,829.1428571428571,779.0491071428571,1350.9,829.1428571428571,779.0491071428571,1451.1,829.1428571428571,779.0491071428571,1551.1,829.1428571428571,779.0491071428571,1651.6,829.1428571428571,779.0491071428571,1752.2,829.1428571428571,779.0491071428571,1858.4,829.1428571428571,779.0491071428571,1962.4,829.1428571428571,779.0491071428571,2080.9,830.1428571428571,779.0491071428571,2181.3,830.1428571428571,779.0491071428571,2286.4,830.1428571428571,779.0491071428571,2391.2,830.1428571428571,779.0491071428571,2492.4,830.1428571428571,779.0491071428571,2596,830.1428571428571,779.0491071428571,2697.3,830.1428571428571,779.0491071428571,2811.9,830.1428571428571,779.0491071428571,2912.2,830.1428571428571,779.0491071428571,3014.7,830.1428571428571,779.0491071428571,3120.7,830.1428571428571,779.0491071428571,3221.1,830.1428571428571,779.0491071428571,3321.1,830.1428571428571,779.0491071428571,3426.9,830.1428571428571,779.0491071428571,3527.5,830.1428571428571,779.0491071428571,3627.5,830.1428571428571,779.0491071428571,3735.2,830.1428571428571,779.0491071428571,3836.1,826.1428571428571,754.0491071428571,3936.5,826.1428571428571,754.0491071428571,4041.3,826.1428571428571,754.0491071428571,4142,826.1428571428571,754.0491071428571,4247.5,826.1428571428571,754.0491071428571,4364.4,826.1428571428571,754.0491071428571,4471.2,826.1428571428571,754.0491071428571,4572.4,826.1428571428571,754.0491071428571,4677.4,826.1428571428571,754.0491071428571,4778.3,826.1428571428571,754.0491071428571,4887.5,826.1428571428571,754.0491071428571,4991.7]","[1477.9,1477.9,1000,0,477.9,""oops"",""down"",""down"",""good_move"",4353.8,2875.1,2435.8,1478.7,439.3,""smooth"",""right"",""right"",""good_move"",8091,3736.9,3303.4,4354.1,433.5,""while_blue"",""right"",""right"",""good_move"",10858.7,2767.2,2355.9,8091.5,411.3,""smooth"",""right"",""right"",""good_move"",13650,2791,2344.6,10859.1,446.3,""oops"",""down"",""down"",""good_move"",16892.5,3242.3,2794.9,13650.3,447.3,""smooth"",""down"",""down"",""good_move""]","",""
"2835","","<div style=""width:500px;"">
  <p>What determined the result of this run?</p>
  </div>","92","html-slider-response","66","2396930","0.0-10.0-1.5","22","1","2025-07-09 09:06:46","7701e855f2ef39aa3fd6c71abdc6918a","197.245.162.70","Mozilla/5.0 (Windows NT 10.0; Win64; x64) AppleWebKit/537.36 (KHTML, like Gecko) Chrome/138.0.0.0 Safari/537.36","WebKit","Chrome","138.0.0.0","Windows","10.0","https://app.prolific.com/","en-ZA,en-GB;q=0.9,en-US;q=0.8,en;q=0.7","614e1c414dff2e589169f360","686d226cabeef709c732f8e1","686e311f6d1d695e3e5ee87c","614e1c414dff2e589169f360","2025-07-09T09:46:44.897Z","","","","","","AttribQ","","","","","","","","","","","","","","","","","","","","","","","","","","","","","","","","","","","","","","50"
"3478","","<div style=""width:500px;"">
  <p>How much control did you have over the ball?</p>
  </div>","82","html-slider-response","67","2400411","0.0-10.0-2.5","22","1","2025-07-09 09:06:46","7701e855f2ef39aa3fd6c71abdc6918a","197.245.162.70","Mozilla/5.0 (Windows NT 10.0; Win64; x64) AppleWebKit/537.36 (KHTML, like Gecko) Chrome/138.0.0.0 Safari/537.36","WebKit","Chrome","138.0.0.0","Windows","10.0","https://app.prolific.com/","en-ZA,en-GB;q=0.9,en-US;q=0.8,en;q=0.7","614e1c414dff2e589169f360","686d226cabeef709c732f8e1","686e311f6d1d695e3e5ee87c","614e1c414dff2e589169f360","2025-07-09T09:46:48.378Z","","","","","","ControlQ","","","","","","","","","","","","","","","","","","","","","","","","","","","","","","","","","","","","","","50"
"4705","","<div style=""width:500px;"">
  <p>How would you describe your current emotional state?</p>
  </div>","74","html-slider-response","68","2405117","0.0-10.0-3.5","22","1","2025-07-09 09:06:46","7701e855f2ef39aa3fd6c71abdc6918a","197.245.162.70","Mozilla/5.0 (Windows NT 10.0; Win64; x64) AppleWebKit/537.36 (KHTML, like Gecko) Chrome/138.0.0.0 Safari/537.36","WebKit","Chrome","138.0.0.0","Windows","10.0","https://app.prolific.com/","en-ZA,en-GB;q=0.9,en-US;q=0.8,en;q=0.7","614e1c414dff2e589169f360","686d226cabeef709c732f8e1","686e311f6d1d695e3e5ee87c","614e1c414dff2e589169f360","2025-07-09T09:46:53.085Z","","","","","","StressQ","","","","","","","","","","","","","","","","","","","","","","","","","","","","","","","","","","","","","","50"
"11174","","<div style=""width:500px;"">
  <p>What best describes how you currently feel?</p>
  </div>","96","html-slider-response","69","2416293","0.0-10.0-4.5","22","1","2025-07-09 09:06:46","7701e855f2ef39aa3fd6c71abdc6918a","197.245.162.70","Mozilla/5.0 (Windows NT 10.0; Win64; x64) AppleWebKit/537.36 (KHTML, like Gecko) Chrome/138.0.0.0 Safari/537.36","WebKit","Chrome","138.0.0.0","Windows","10.0","https://app.prolific.com/","en-ZA,en-GB;q=0.9,en-US;q=0.8,en;q=0.7","614e1c414dff2e589169f360","686d226cabeef709c732f8e1","686e311f6d1d695e3e5ee87c","614e1c414dff2e589169f360","2025-07-09T09:47:04.260Z","","","","","","MotivationQ","","","","","","","","","","","","","","","","","","","","","","","","","","","","","","","","","","","","","","50"
"","","","","ctl-task-cpt","70","2463388","0.0-10.0-0.6","22","1","2025-07-09 09:06:46","7701e855f2ef39aa3fd6c71abdc6918a","197.245.162.70","Mozilla/5.0 (Windows NT 10.0; Win64; x64) AppleWebKit/537.36 (KHTML, like Gecko) Chrome/138.0.0.0 Safari/537.36","WebKit","Chrome","138.0.0.0","Windows","10.0","https://app.prolific.com/","en-ZA,en-GB;q=0.9,en-US;q=0.8,en;q=0.7","614e1c414dff2e589169f360","686d226cabeef709c732f8e1","686e311f6d1d695e3e5ee87c","614e1c414dff2e589169f360","2025-07-09T09:47:51.355Z","","","","","","","","","","","","","","","","win-only","2","g1:SE,g2:NW","0.4","7","0","2419388","1500.4","6501.7","44080.2","1","4","4","6","1","-1","-1","11","12","0.08333333333333333","5001.3","3000","-2460","[""down"",""right""]","{""num_key_presses"":7,""num_perfect"":4,""num_errors"":0,""num_randdir"":3,""num_randdir_good_moves"":1,""num_whilered"":0,""num_whileblue"":0,""num_blue"":4,""num_good_moves"":5}","[351.14285714285717,342.04910714285717,0.1,351.14285714285717,342.04910714285717,102.3,362.14285714285717,345.04910714285717,202.4,390.14285714285717,355.04910714285717,302.6,391.14285714285717,355.04910714285717,404.8,405.14285714285717,375.04910714285717,519.1,479.14285714285717,503.04910714285717,621.6,520.1428571428571,552.0491071428571,725.1,533.1428571428571,568.0491071428571,832.6,542.1428571428571,571.0491071428571,936.5,555.1428571428571,580.0491071428571,1053.7,558.1428571428571,604.0491071428571,1169.2,521.1428571428571,606.0491071428571,1270.6,520.1428571428571,606.0491071428571,1374.9,520.1428571428571,606.0491071428571,1475.1,520.1428571428571,606.0491071428571,1575.1,520.1428571428571,606.0491071428571,1682.2,520.1428571428571,606.0491071428571,1784.8,520.1428571428571,608.0491071428571,1885,520.1428571428571,610.0491071428571,2003.9,520.1428571428571,612.0491071428571,2105.9,520.1428571428571,617.0491071428571,2211.2,520.1428571428571,618.0491071428571,2315.4,520.1428571428571,618.0491071428571,2415.8,520.1428571428571,618.0491071428571,2516.2,520.1428571428571,618.0491071428571,2619.9,520.1428571428571,618.0491071428571,2721.2,520.1428571428571,618.0491071428571,2839.1,520.1428571428571,618.0491071428571,2939.9,520.1428571428571,618.0491071428571,3040.6,520.1428571428571,618.0491071428571,3147.5,520.1428571428571,618.0491071428571,3250.6,520.1428571428571,618.0491071428571,3370.6,520.1428571428571,621.0491071428571,3475,520.1428571428571,621.0491071428571,3575.6,520.1428571428571,621.0491071428571,3687.5,520.1428571428571,621.0491071428571,3789.2,520.1428571428571,621.0491071428571,3889.3,520.1428571428571,621.0491071428571,3989.3,520.1428571428571,621.0491071428571,4107,520.1428571428571,621.0491071428571,4210.3,520.1428571428571,621.0491071428571,4313.6,520.1428571428571,621.0491071428571,4415,520.1428571428571,621.0491071428571,4515.3,520.1428571428571,621.0491071428571,4615.3,520.1428571428571,621.0491071428571,4720.2,520.1428571428571,621.0491071428571,4828.5,519.1428571428571,624.0491071428571,4929.7]","[1545.6,1545.6,1000,0,545.6,""smooth"",""down"",""down"",""good_move"",3917,2370.5,1910.1,1546.5,460.4,""smooth"",""right"",""right"",""good_move"",13711,9793.7,1992.7,11209.9,508.4,""smooth"",""down"",""down"",""good_move"",16898.8,3187.4,2700.1,13711.4,487.3,""oops"",""right"",""left"",""bad_move"",20319.2,3419.8,2914.1,16899.4,505.7,""smooth"",""right"",""right"",""good_move"",24013.6,3693.7,3220.3,20319.9,473.4,""oops"",""right"",""left"",""bad_move"",30064.8,6050.9,2125.4,27467.7,471.7,""oops"",""right"",""right"",""good_move""]","",""
"3799","","<div style=""width:500px;"">
  <p>What determined the result of this run?</p>
  </div>","9","html-slider-response","71","2467187","0.0-10.0-1.6","22","1","2025-07-09 09:06:46","7701e855f2ef39aa3fd6c71abdc6918a","197.245.162.70","Mozilla/5.0 (Windows NT 10.0; Win64; x64) AppleWebKit/537.36 (KHTML, like Gecko) Chrome/138.0.0.0 Safari/537.36","WebKit","Chrome","138.0.0.0","Windows","10.0","https://app.prolific.com/","en-ZA,en-GB;q=0.9,en-US;q=0.8,en;q=0.7","614e1c414dff2e589169f360","686d226cabeef709c732f8e1","686e311f6d1d695e3e5ee87c","614e1c414dff2e589169f360","2025-07-09T09:47:55.154Z","","","","","","AttribQ","","","","","","","","","","","","","","","","","","","","","","","","","","","","","","","","","","","","","","50"
"3600","","<div style=""width:500px;"">
  <p>How much control did you have over the ball?</p>
  </div>","0","html-slider-response","72","2470789","0.0-10.0-2.6","22","1","2025-07-09 09:06:46","7701e855f2ef39aa3fd6c71abdc6918a","197.245.162.70","Mozilla/5.0 (Windows NT 10.0; Win64; x64) AppleWebKit/537.36 (KHTML, like Gecko) Chrome/138.0.0.0 Safari/537.36","WebKit","Chrome","138.0.0.0","Windows","10.0","https://app.prolific.com/","en-ZA,en-GB;q=0.9,en-US;q=0.8,en;q=0.7","614e1c414dff2e589169f360","686d226cabeef709c732f8e1","686e311f6d1d695e3e5ee87c","614e1c414dff2e589169f360","2025-07-09T09:47:58.756Z","","","","","","ControlQ","","","","","","","","","","","","","","","","","","","","","","","","","","","","","","","","","","","","","","50"
"5004","","<div style=""width:500px;"">
  <p>How would you describe your current emotional state?</p>
  </div>","78","html-slider-response","73","2475794","0.0-10.0-3.6","22","1","2025-07-09 09:06:46","7701e855f2ef39aa3fd6c71abdc6918a","197.245.162.70","Mozilla/5.0 (Windows NT 10.0; Win64; x64) AppleWebKit/537.36 (KHTML, like Gecko) Chrome/138.0.0.0 Safari/537.36","WebKit","Chrome","138.0.0.0","Windows","10.0","https://app.prolific.com/","en-ZA,en-GB;q=0.9,en-US;q=0.8,en;q=0.7","614e1c414dff2e589169f360","686d226cabeef709c732f8e1","686e311f6d1d695e3e5ee87c","614e1c414dff2e589169f360","2025-07-09T09:48:03.761Z","","","","","","StressQ","","","","","","","","","","","","","","","","","","","","","","","","","","","","","","","","","","","","","","50"
"4119","","<div style=""width:500px;"">
  <p>What best describes how you currently feel?</p>
  </div>","78","html-slider-response","74","2479915","0.0-10.0-4.6","22","1","2025-07-09 09:06:46","7701e855f2ef39aa3fd6c71abdc6918a","197.245.162.70","Mozilla/5.0 (Windows NT 10.0; Win64; x64) AppleWebKit/537.36 (KHTML, like Gecko) Chrome/138.0.0.0 Safari/537.36","WebKit","Chrome","138.0.0.0","Windows","10.0","https://app.prolific.com/","en-ZA,en-GB;q=0.9,en-US;q=0.8,en;q=0.7","614e1c414dff2e589169f360","686d226cabeef709c732f8e1","686e311f6d1d695e3e5ee87c","614e1c414dff2e589169f360","2025-07-09T09:48:07.882Z","","","","","","MotivationQ","","","","","","","","","","","","","","","","","","","","","","","","","","","","","","","","","","","","","","50"
"","","","","ctl-task-cpt","75","2510119","0.0-10.0-0.7","22","1","2025-07-09 09:06:46","7701e855f2ef39aa3fd6c71abdc6918a","197.245.162.70","Mozilla/5.0 (Windows NT 10.0; Win64; x64) AppleWebKit/537.36 (KHTML, like Gecko) Chrome/138.0.0.0 Safari/537.36","WebKit","Chrome","138.0.0.0","Windows","10.0","https://app.prolific.com/","en-ZA,en-GB;q=0.9,en-US;q=0.8,en;q=0.7","614e1c414dff2e589169f360","686d226cabeef709c732f8e1","686e311f6d1d695e3e5ee87c","614e1c414dff2e589169f360","2025-07-09T09:48:38.086Z","","","","","","","","","","","","","","","","win-only","0","g1:NW,g2:SE","0.3","8","0","2483010.5","4547.5","9552.5","27193.5","1","4","8","6","1","1","1","12","11","0.09090909090909091","5005","3000","1595","[""left"",""up""]","{""num_key_presses"":4,""num_perfect"":2,""num_errors"":0,""num_randdir"":2,""num_randdir_good_moves"":2,""num_whilered"":0,""num_whileblue"":0,""num_blue"":2,""num_good_moves"":4}","[343.14285714285717,343.04910714285717,0.2,343.14285714285717,343.04910714285717,104.3,344.14285714285717,345.04910714285717,209.7,344.14285714285717,345.04910714285717,313.5,343.14285714285717,349.04910714285717,413.9,343.14285714285717,349.04910714285717,515.2,343.14285714285717,349.04910714285717,618.8,343.14285714285717,350.04910714285717,732.1,466.14285714285717,470.04910714285717,833.4,1146.142857142857,691.0491071428571,938.9,1146.142857142857,679.0491071428571,1043.8,1134.142857142857,679.0491071428571,1147.7,1125.142857142857,678.0491071428571,1248.6,1125.142857142857,678.0491071428571,1348.7,1125.142857142857,678.0491071428571,1449.6,1124.142857142857,678.0491071428571,1549.8,1122.142857142857,682.0491071428571,1667.6,1119.142857142857,686.0491071428571,1768.3,1119.142857142857,687.0491071428571,1868.3,1119.142857142857,687.0491071428571,1974.5,1118.142857142857,689.0491071428571,2078.5,1118.142857142857,689.0491071428571,2182.8,1117.142857142857,691.0491071428571,2283.2,1117.142857142857,691.0491071428571,2383.6,1117.142857142857,691.0491071428571,2501,1117.142857142857,691.0491071428571,2601,1117.142857142857,691.0491071428571,2701.4,1117.142857142857,691.0491071428571,2803.3,1117.142857142857,691.0491071428571,2910.1,1117.142857142857,691.0491071428571,3013.4,1117.142857142857,691.0491071428571,3114.1,1117.142857142857,691.0491071428571,3233.5,1117.142857142857,691.0491071428571,3333.9,1117.142857142857,691.0491071428571,3439.1,1117.142857142857,691.0491071428571,3539.1,1117.142857142857,691.0491071428571,3644.7,1117.142857142857,691.0491071428571,3748.6,1117.142857142857,691.0491071428571,3868.1,1117.142857142857,691.0491071428571,3983.8,1117.142857142857,691.0491071428571,4090.3,1117.142857142857,691.0491071428571,4193.2,1117.142857142857,691.0491071428571,4296.7,1117.142857142857,691.0491071428571,4399.3,1117.142857142857,691.0491071428571,4504.9,1117.142857142857,691.0491071428571,4609.3,1117.142857142857,691.0491071428571,4715.2,1117.142857142857,691.0491071428571,4815.5,1117.142857142857,691.0491071428571,4922.1]","[8053,8053,2483.2,5108.2,461.6,""oops"",""up"",""up"",""good_move"",10913.1,2859.5,2391.3,8053.6,468.2,""smooth"",""left"",""left"",""good_move"",13915.8,3002.4,2500,10913.4,502.4,""smooth"",""up"",""up"",""good_move"",17520.5,3604.6,3085.5,13915.9,519.1,""oops"",""left"",""left"",""good_move""]","",""
"2857","","<div style=""width:500px;"">
  <p>What determined the result of this run?</p>
  </div>","61","html-slider-response","76","2512978","0.0-10.0-1.7","22","1","2025-07-09 09:06:46","7701e855f2ef39aa3fd6c71abdc6918a","197.245.162.70","Mozilla/5.0 (Windows NT 10.0; Win64; x64) AppleWebKit/537.36 (KHTML, like Gecko) Chrome/138.0.0.0 Safari/537.36","WebKit","Chrome","138.0.0.0","Windows","10.0","https://app.prolific.com/","en-ZA,en-GB;q=0.9,en-US;q=0.8,en;q=0.7","614e1c414dff2e589169f360","686d226cabeef709c732f8e1","686e311f6d1d695e3e5ee87c","614e1c414dff2e589169f360","2025-07-09T09:48:40.945Z","","","","","","AttribQ","","","","","","","","","","","","","","","","","","","","","","","","","","","","","","","","","","","","","","50"
"2835","","<div style=""width:500px;"">
  <p>How much control did you have over the ball?</p>
  </div>","30","html-slider-response","77","2515814","0.0-10.0-2.7","22","1","2025-07-09 09:06:46","7701e855f2ef39aa3fd6c71abdc6918a","197.245.162.70","Mozilla/5.0 (Windows NT 10.0; Win64; x64) AppleWebKit/537.36 (KHTML, like Gecko) Chrome/138.0.0.0 Safari/537.36","WebKit","Chrome","138.0.0.0","Windows","10.0","https://app.prolific.com/","en-ZA,en-GB;q=0.9,en-US;q=0.8,en;q=0.7","614e1c414dff2e589169f360","686d226cabeef709c732f8e1","686e311f6d1d695e3e5ee87c","614e1c414dff2e589169f360","2025-07-09T09:48:43.781Z","","","","","","ControlQ","","","","","","","","","","","","","","","","","","","","","","","","","","","","","","","","","","","","","","50"
"3680","","<div style=""width:500px;"">
  <p>How would you describe your current emotional state?</p>
  </div>","63","html-slider-response","78","2519493","0.0-10.0-3.7","22","1","2025-07-09 09:06:46","7701e855f2ef39aa3fd6c71abdc6918a","197.245.162.70","Mozilla/5.0 (Windows NT 10.0; Win64; x64) AppleWebKit/537.36 (KHTML, like Gecko) Chrome/138.0.0.0 Safari/537.36","WebKit","Chrome","138.0.0.0","Windows","10.0","https://app.prolific.com/","en-ZA,en-GB;q=0.9,en-US;q=0.8,en;q=0.7","614e1c414dff2e589169f360","686d226cabeef709c732f8e1","686e311f6d1d695e3e5ee87c","614e1c414dff2e589169f360","2025-07-09T09:48:47.460Z","","","","","","StressQ","","","","","","","","","","","","","","","","","","","","","","","","","","","","","","","","","","","","","","50"
"3450","","<div style=""width:500px;"">
  <p>What best describes how you currently feel?</p>
  </div>","96","html-slider-response","79","2522944","0.0-10.0-4.7","22","1","2025-07-09 09:06:46","7701e855f2ef39aa3fd6c71abdc6918a","197.245.162.70","Mozilla/5.0 (Windows NT 10.0; Win64; x64) AppleWebKit/537.36 (KHTML, like Gecko) Chrome/138.0.0.0 Safari/537.36","WebKit","Chrome","138.0.0.0","Windows","10.0","https://app.prolific.com/","en-ZA,en-GB;q=0.9,en-US;q=0.8,en;q=0.7","614e1c414dff2e589169f360","686d226cabeef709c732f8e1","686e311f6d1d695e3e5ee87c","614e1c414dff2e589169f360","2025-07-09T09:48:50.911Z","","","","","","MotivationQ","","","","","","","","","","","","","","","","","","","","","","","","","","","","","","","","","","","","","","50"
"","","","","ctl-task-cpt","80","2555174","0.0-10.0-0.8","22","1","2025-07-09 09:06:46","7701e855f2ef39aa3fd6c71abdc6918a","197.245.162.70","Mozilla/5.0 (Windows NT 10.0; Win64; x64) AppleWebKit/537.36 (KHTML, like Gecko) Chrome/138.0.0.0 Safari/537.36","WebKit","Chrome","138.0.0.0","Windows","10.0","https://app.prolific.com/","en-ZA,en-GB;q=0.9,en-US;q=0.8,en;q=0.7","614e1c414dff2e589169f360","686d226cabeef709c732f8e1","686e311f6d1d695e3e5ee87c","614e1c414dff2e589169f360","2025-07-09T09:49:23.141Z","","","","","","","","","","","","","","","","win-only","0","g1:NW,g2:SE","0.2","9","0","2526041.1","1241.5","6246.5","29210.5","1","4","4","6","1","-1","-1","11","12","0.08333333333333333","5005","3000","-1950","[""left"",""up""]","{""num_key_presses"":7,""num_perfect"":1,""num_errors"":0,""num_randdir"":6,""num_randdir_good_moves"":2,""num_whilered"":0,""num_whileblue"":0,""num_blue"":1,""num_good_moves"":3}","[350.14285714285717,348.04910714285717,0.4,350.14285714285717,348.04910714285717,100,353.14285714285717,346.04910714285717,201.7,354.14285714285717,348.04910714285717,304.5,400.14285714285717,377.04910714285717,405.4,753.1428571428571,516.0491071428571,519.1,860.1428571428571,558.0491071428571,622.6,796.1428571428571,534.0491071428571,726,389.14285714285717,405.04910714285717,837.6,388.14285714285717,405.04910714285717,940.1,946.1428571428571,576.0491071428571,1041.3,1146.142857142857,629.0491071428571,1144.5,1146.142857142857,629.0491071428571,1254.8,1146.142857142857,629.0491071428571,1362.4,1146.142857142857,629.0491071428571,1467.3,1146.142857142857,629.0491071428571,1568.9,1146.142857142857,629.0491071428571,1669.6,1146.142857142857,629.0491071428571,1769.6,1146.142857142857,636.0491071428571,1881.8,1146.142857142857,638.0491071428571,1984.8,1146.142857142857,638.0491071428571,2089.6,1146.142857142857,638.0491071428571,2195.4,1146.142857142857,638.0491071428571,2301.5,1146.142857142857,638.0491071428571,2403.7,1146.142857142857,638.0491071428571,2508.7,1146.142857142857,638.0491071428571,2608.9,1146.142857142857,638.0491071428571,2716.7,1146.142857142857,638.0491071428571,2817.4,1146.142857142857,638.0491071428571,2917.7,1146.142857142857,638.0491071428571,3019.7,1146.142857142857,638.0491071428571,3121.5,1146.142857142857,638.0491071428571,3231.3,1146.142857142857,638.0491071428571,3331.4,1146.142857142857,638.0491071428571,3434.8,1146.142857142857,638.0491071428571,3536.2,1146.142857142857,638.0491071428571,3647.4,1146.142857142857,638.0491071428571,3752.6,1146.142857142857,638.0491071428571,3863.9,1146.142857142857,638.0491071428571,3968,1146.142857142857,638.0491071428571,4071.4,1146.142857142857,638.0491071428571,4171.8,1146.142857142857,638.0491071428571,4289.2,1146.142857142857,638.0491071428571,4393.3,1146.142857142857,638.0491071428571,4499.5,1146.142857142857,638.0491071428571,4604.5,1146.142857142857,638.0491071428571,4708.2,1146.142857142857,638.0491071428571,4812.2,1146.142857142857,638.0491071428571,4914.7]","[1572.2,1572.2,1000,0,572.2,""oops"",""up"",""down"",""bad_move"",4358.1,2784.1,2262.4,1574.1,521.6,""oops"",""up"",""down"",""bad_move"",7669.5,3311,2761.1,4358.5,549.9,""oops"",""up"",""up"",""good_move"",10611.6,2941.6,2470.8,7670,470.8,""oops"",""left"",""right"",""bad_move"",12876,2263.8,1659.6,10612.2,604.2,""oops"",""left"",""left"",""good_move"",15320.2,2442.9,1996.8,12877.3,446.1,""oops"",""left"",""down"",""bad_move"",20416.7,5096,2047.8,17905.1,463.8,""smooth"",""left"",""left"",""good_move""]","",""
"3119","","<div style=""width:500px;"">
  <p>What determined the result of this run?</p>
  </div>","0","html-slider-response","81","2558294","0.0-10.0-1.8","22","1","2025-07-09 09:06:46","7701e855f2ef39aa3fd6c71abdc6918a","197.245.162.70","Mozilla/5.0 (Windows NT 10.0; Win64; x64) AppleWebKit/537.36 (KHTML, like Gecko) Chrome/138.0.0.0 Safari/537.36","WebKit","Chrome","138.0.0.0","Windows","10.0","https://app.prolific.com/","en-ZA,en-GB;q=0.9,en-US;q=0.8,en;q=0.7","614e1c414dff2e589169f360","686d226cabeef709c732f8e1","686e311f6d1d695e3e5ee87c","614e1c414dff2e589169f360","2025-07-09T09:49:26.261Z","","","","","","AttribQ","","","","","","","","","","","","","","","","","","","","","","","","","","","","","","","","","","","","","","50"
"2365","","<div style=""width:500px;"">
  <p>How much control did you have over the ball?</p>
  </div>","0","html-slider-response","82","2560661","0.0-10.0-2.8","22","1","2025-07-09 09:06:46","7701e855f2ef39aa3fd6c71abdc6918a","197.245.162.70","Mozilla/5.0 (Windows NT 10.0; Win64; x64) AppleWebKit/537.36 (KHTML, like Gecko) Chrome/138.0.0.0 Safari/537.36","WebKit","Chrome","138.0.0.0","Windows","10.0","https://app.prolific.com/","en-ZA,en-GB;q=0.9,en-US;q=0.8,en;q=0.7","614e1c414dff2e589169f360","686d226cabeef709c732f8e1","686e311f6d1d695e3e5ee87c","614e1c414dff2e589169f360","2025-07-09T09:49:28.628Z","","","","","","ControlQ","","","","","","","","","","","","","","","","","","","","","","","","","","","","","","","","","","","","","","50"
"15475","","<div style=""width:500px;"">
  <p>How would you describe your current emotional state?</p>
  </div>","75","html-slider-response","83","2576135","0.0-10.0-3.8","22","1","2025-07-09 09:06:46","7701e855f2ef39aa3fd6c71abdc6918a","197.245.162.70","Mozilla/5.0 (Windows NT 10.0; Win64; x64) AppleWebKit/537.36 (KHTML, like Gecko) Chrome/138.0.0.0 Safari/537.36","WebKit","Chrome","138.0.0.0","Windows","10.0","https://app.prolific.com/","en-ZA,en-GB;q=0.9,en-US;q=0.8,en;q=0.7","614e1c414dff2e589169f360","686d226cabeef709c732f8e1","686e311f6d1d695e3e5ee87c","614e1c414dff2e589169f360","2025-07-09T09:49:44.102Z","","","","","","StressQ","","","","","","","","","","","","","","","","","","","","","","","","","","","","","","","","","","","","","","50"
"3929","","<div style=""width:500px;"">
  <p>What best describes how you currently feel?</p>
  </div>","70","html-slider-response","84","2580065","0.0-10.0-4.8","22","1","2025-07-09 09:06:46","7701e855f2ef39aa3fd6c71abdc6918a","197.245.162.70","Mozilla/5.0 (Windows NT 10.0; Win64; x64) AppleWebKit/537.36 (KHTML, like Gecko) Chrome/138.0.0.0 Safari/537.36","WebKit","Chrome","138.0.0.0","Windows","10.0","https://app.prolific.com/","en-ZA,en-GB;q=0.9,en-US;q=0.8,en;q=0.7","614e1c414dff2e589169f360","686d226cabeef709c732f8e1","686e311f6d1d695e3e5ee87c","614e1c414dff2e589169f360","2025-07-09T09:49:48.032Z","","","","","","MotivationQ","","","","","","","","","","","","","","","","","","","","","","","","","","","","","","","","","","","","","","50"
