"rt","response_timestamp","stimulus","response","trial_type","trial_index","time_elapsed","internal_node_id","run_id","condition","recorded_at","source_code_version","ip","user_agent","device","browser","browser_version","platform","platform_version","referer","accept_language","PROLIFIC_PID","STUDY_ID","SESSION_ID","prolific_id","realtime","view_history","question_order","consent","success","question_id","eventType","responses","item_order","radio_event_ids","radio_event_times","key_event_times","mouse_event_times","straightlining","zigzagging","honeypot","which_type","canvas_config","goals_layout","control_level","trial_number","tutorial_trial_number","trial_start_time","phase1_start_time","phase2_start_time","phase3_start_time","goal_1_value","goal_1_distance","goal_2_value","goal_2_distance","goal_selected","outcome","outcome_total","participant_final_score","participant_initial_score","participant_final_score_prop","goal_choice_rt","allocated_time","allocated_time_remaining","goal_direction","counts","mouse_movements","key_presses","correct","slider_start","sub_question"
"52124","1752052185321","<p style='font-size:40px;line-height:1.25'><strong>Welcome to the experiment!</strong></p><p style='font-size:1.1em;line-height:1.25'>Thank you for your interest in our experiment! Before you begin, it is important that we obtain your informed consent to participate in the study.</p><p style='font-size:1.1em;line-height:1.25'>On the next screen will be an <strong>information sheet</strong> for you to read. To participate in the study we need you to read this information sheet and the following consent form carefully. If you agree with all the statements, please click the <strong>I agree</strong> button.</p><p style='font-size:1.1em;line-height:1.25'>Press <strong>Next</strong> to read the information sheet.</p>","0","custom-html-button-response","0","52147","0.0-0.0","131","1","2025-07-09 09:08:51","7701e855f2ef39aa3fd6c71abdc6918a","41.122.151.251","Mozilla/5.0 (Windows NT 10.0; Win64; x64; rv:140.0) Gecko/20100101 Firefox/140.0","","Firefox","140.0","Windows","10.0","https://app.prolific.com/","en-US,en;q=0.5","669f76a7112b8713f104644c","686d226cabeef709c732f8e1","686e312047ef40ef598cb043","669f76a7112b8713f104644c","2025-07-09T09:09:45.321Z","","","","","","","","","","","","","","","","","","","","","","","","","","","","","","","","","","","","","","","","","","","","",""
"26860","","","","instructions","1","79009","0.0-1.0","131","1","2025-07-09 09:08:51","7701e855f2ef39aa3fd6c71abdc6918a","41.122.151.251","Mozilla/5.0 (Windows NT 10.0; Win64; x64; rv:140.0) Gecko/20100101 Firefox/140.0","","Firefox","140.0","Windows","10.0","https://app.prolific.com/","en-US,en;q=0.5","669f76a7112b8713f104644c","686d226cabeef709c732f8e1","686e312047ef40ef598cb043","669f76a7112b8713f104644c","","[{""page_index"":0,""viewing_time"":23125},{""page_index"":1,""viewing_time"":3735}]","","","","","","","","","","","","","","","","","","","","","","","","","","","","","","","","","","","","","","","","","","","",""
"8166","","","{""Q0"":"""",""Q1"":"""",""Q2"":"""",""Q3"":"""",""Q4"":"""",""Q5"":"""",""Q6"":""I agree""}","survey-multi-choice","2","87181","0.0-2.0","131","1","2025-07-09 09:08:51","7701e855f2ef39aa3fd6c71abdc6918a","41.122.151.251","Mozilla/5.0 (Windows NT 10.0; Win64; x64; rv:140.0) Gecko/20100101 Firefox/140.0","","Firefox","140.0","Windows","10.0","https://app.prolific.com/","en-US,en;q=0.5","669f76a7112b8713f104644c","686d226cabeef709c732f8e1","686e312047ef40ef598cb043","669f76a7112b8713f104644c","","","[0,1,2,3,4,5,6]","true","","","","","","","","","","","","","","","","","","","","","","","","","","","","","","","","","","","","","","","","","",""
"16670","","","","fullscreen","3","104906","0.0-4.0","131","1","2025-07-09 09:08:51","7701e855f2ef39aa3fd6c71abdc6918a","41.122.151.251","Mozilla/5.0 (Windows NT 10.0; Win64; x64; rv:140.0) Gecko/20100101 Firefox/140.0","","Firefox","140.0","Windows","10.0","https://app.prolific.com/","en-US,en;q=0.5","669f76a7112b8713f104644c","686d226cabeef709c732f8e1","686e312047ef40ef598cb043","669f76a7112b8713f104644c","","","","","true","","","","","","","","","","","","","","","","","","","","","","","","","","","","","","","","","","","","","","","","",""
"7660","1752052245746"," <p style='font-size:1.1em;line-height:1.25'>Thank you for completing the consent form and closing all other tabs.</p><p style='font-size:1.1em;line-height:1.25'>We will now invite you to fill in some demographic information and questionnaires, before starting the game.<br>This will take about 5 minutes.<br></p><p style='font-size:1.1em;line-height:1.25'>Press the <strong>Next</strong> button to continue.</p>","0","custom-html-button-response","4","112572","0.0-5.0","131","1","2025-07-09 09:08:51","7701e855f2ef39aa3fd6c71abdc6918a","41.122.151.251","Mozilla/5.0 (Windows NT 10.0; Win64; x64; rv:140.0) Gecko/20100101 Firefox/140.0","","Firefox","140.0","Windows","10.0","https://app.prolific.com/","en-US,en;q=0.5","669f76a7112b8713f104644c","686d226cabeef709c732f8e1","686e312047ef40ef598cb043","669f76a7112b8713f104644c","2025-07-09T09:10:45.746Z","","","","","","","","","","","","","","","","","","","","","","","","","","","","","","","","","","","","","","","","","","","","",""
"19271","","","{""age"":""23""}","survey-text","5","131907","0.0-6.0-0.0","131","1","2025-07-09 09:08:51","7701e855f2ef39aa3fd6c71abdc6918a","41.122.151.251","Mozilla/5.0 (Windows NT 10.0; Win64; x64; rv:140.0) Gecko/20100101 Firefox/140.0","","Firefox","140.0","Windows","10.0","https://app.prolific.com/","en-US,en;q=0.5","669f76a7112b8713f104644c","686d226cabeef709c732f8e1","686e312047ef40ef598cb043","669f76a7112b8713f104644c","","","","","","0","demographics","","","","","","","","","","","","","","","","","","","","","","","","","","","","","","","","","","","","","","",""
"4186","","","{""gender_identity"":""female/woman""}","survey-multi-choice","6","136095","0.0-6.0-1.0","131","1","2025-07-09 09:08:51","7701e855f2ef39aa3fd6c71abdc6918a","41.122.151.251","Mozilla/5.0 (Windows NT 10.0; Win64; x64; rv:140.0) Gecko/20100101 Firefox/140.0","","Firefox","140.0","Windows","10.0","https://app.prolific.com/","en-US,en;q=0.5","669f76a7112b8713f104644c","686d226cabeef709c732f8e1","686e312047ef40ef598cb043","669f76a7112b8713f104644c","","","[0]","","","1","demographics","","","","","","","","","","","","","","","","","","","","","","","","","","","","","","","","","","","","","","",""
"3064","","","{""assigned_sex"":""female""}","survey-multi-choice","7","139162","0.0-6.0-2.0","131","1","2025-07-09 09:08:51","7701e855f2ef39aa3fd6c71abdc6918a","41.122.151.251","Mozilla/5.0 (Windows NT 10.0; Win64; x64; rv:140.0) Gecko/20100101 Firefox/140.0","","Firefox","140.0","Windows","10.0","https://app.prolific.com/","en-US,en;q=0.5","669f76a7112b8713f104644c","686d226cabeef709c732f8e1","686e312047ef40ef598cb043","669f76a7112b8713f104644c","","","[0]","","","2","demographics","","","","","","","","","","","","","","","","","","","","","","","","","","","","","","","","","","","","","","",""
"3886","","","{""menstrual_cycle"":""Yes""}","survey-multi-choice","8","143050","0.0-6.0-3.0","131","1","2025-07-09 09:08:51","7701e855f2ef39aa3fd6c71abdc6918a","41.122.151.251","Mozilla/5.0 (Windows NT 10.0; Win64; x64; rv:140.0) Gecko/20100101 Firefox/140.0","","Firefox","140.0","Windows","10.0","https://app.prolific.com/","en-US,en;q=0.5","669f76a7112b8713f104644c","686d226cabeef709c732f8e1","686e312047ef40ef598cb043","669f76a7112b8713f104644c","","","[0]","","","4","demographics","","","","","","","","","","","","","","","","","","","","","","","","","","","","","","","","","","","","","","",""
"9992","","","{""education"":""Bachelor's Degree (e.g., BA)""}","survey-multi-choice","9","153043","0.0-6.0-4.0","131","1","2025-07-09 09:08:51","7701e855f2ef39aa3fd6c71abdc6918a","41.122.151.251","Mozilla/5.0 (Windows NT 10.0; Win64; x64; rv:140.0) Gecko/20100101 Firefox/140.0","","Firefox","140.0","Windows","10.0","https://app.prolific.com/","en-US,en;q=0.5","669f76a7112b8713f104644c","686d226cabeef709c732f8e1","686e312047ef40ef598cb043","669f76a7112b8713f104644c","","","[0]","","","5","demographics","","","","","","","","","","","","","","","","","","","","","","","","","","","","","","","","","","","","","","",""
"12573","","","{""education"":""Vocational Qualifications (e.g. City & Guilds)""}","survey-multi-choice","10","165620","0.0-6.0-5.0","131","1","2025-07-09 09:08:51","7701e855f2ef39aa3fd6c71abdc6918a","41.122.151.251","Mozilla/5.0 (Windows NT 10.0; Win64; x64; rv:140.0) Gecko/20100101 Firefox/140.0","","Firefox","140.0","Windows","10.0","https://app.prolific.com/","en-US,en;q=0.5","669f76a7112b8713f104644c","686d226cabeef709c732f8e1","686e312047ef40ef598cb043","669f76a7112b8713f104644c","2025-07-09T09:11:38.794Z","","[0]","","","6","demographics","","","","","","","","","","","","","","","","","","","","","","","","","","","","","","","","","","","","","","",""
"317889","","","{""mental_health_condition"":""yes, depression "",""mental_health_treatment"":""Cognitive Therapy"",""psychiatric_medication"":""not applicable""}","survey-text","11","483535","0.0-7.0-0.0","131","1","2025-07-09 09:08:51","7701e855f2ef39aa3fd6c71abdc6918a","41.122.151.251","Mozilla/5.0 (Windows NT 10.0; Win64; x64; rv:140.0) Gecko/20100101 Firefox/140.0","","Firefox","140.0","Windows","10.0","https://app.prolific.com/","en-US,en;q=0.5","669f76a7112b8713f104644c","686d226cabeef709c732f8e1","686e312047ef40ef598cb043","669f76a7112b8713f104644c","2025-07-09T09:16:56.709Z","","","","","1","mental_health","","","","","","","","","","","","","","","","","","","","","","","","","","","","","","","","","","","","","","",""
"19443","","","{""depression_history"":[""Yes""]}","survey-multi-select","12","502981","0.0-7.0-1.0","131","1","2025-07-09 09:08:51","7701e855f2ef39aa3fd6c71abdc6918a","41.122.151.251","Mozilla/5.0 (Windows NT 10.0; Win64; x64; rv:140.0) Gecko/20100101 Firefox/140.0","","Firefox","140.0","Windows","10.0","https://app.prolific.com/","en-US,en;q=0.5","669f76a7112b8713f104644c","686d226cabeef709c732f8e1","686e312047ef40ef598cb043","669f76a7112b8713f104644c","","","[0]","","","","mental_health","","","","","","","","","","","","","","","","","","","","","","","","","","","","","","","","","","","","","","",""
"8860","","","{""depression_episodes"":""1-2"",""depression_recent"":""Within the past year""}","survey-multi-choice","13","511844","0.0-7.0-2.0-0.0","131","1","2025-07-09 09:08:51","7701e855f2ef39aa3fd6c71abdc6918a","41.122.151.251","Mozilla/5.0 (Windows NT 10.0; Win64; x64; rv:140.0) Gecko/20100101 Firefox/140.0","","Firefox","140.0","Windows","10.0","https://app.prolific.com/","en-US,en;q=0.5","669f76a7112b8713f104644c","686d226cabeef709c732f8e1","686e312047ef40ef598cb043","669f76a7112b8713f104644c","2025-07-09T09:17:25.018Z","","[0,1]","","","3","mental_health","","","","","","","","","","","","","","","","","","","","","","","","","","","","","","","","","","","","","","",""
"88691","","","","survey-template","14","600541","0.0-7.0-3.0","131","1","2025-07-09 09:08:51","7701e855f2ef39aa3fd6c71abdc6918a","41.122.151.251","Mozilla/5.0 (Windows NT 10.0; Win64; x64; rv:140.0) Gecko/20100101 Firefox/140.0","","Firefox","140.0","Windows","10.0","https://app.prolific.com/","en-US,en;q=0.5","669f76a7112b8713f104644c","686d226cabeef709c732f8e1","686e312047ef40ef598cb043","669f76a7112b8713f104644c","2025-07-09T09:18:53.715Z","","","","","","ius","{""Q01"":""3"",""Q02"":""3"",""Q03"":""4"",""Q04"":""4"",""Q05"":""3"",""Q06"":""2"",""Q07"":""3"",""Q08"":""0"",""Q09"":""4"",""Q10"":""3"",""Q11"":""3"",""Q12"":""3"",""Q13"":""4""}","[0,1,2,3,4,5,6,7,8,9,10,11,12]","[""Q01"",""Q02"",""Q03"",""Q04"",""Q05"",""Q06"",""Q07"",""Q08"",""Q08"",""Q09"",""Q10"",""Q11"",""Q12"",""Q13""]","[6021,14018,16896,29383,33154,40584,44854,48736,51277,56047,66069,73313,81139,87282]","[]","[6021,9767,14018,15289,16351,16896,29383,33154,34594,40584,43830,44854,48736,51277,55176,56047,57193,64322,65186,66069,73313,77896,79102,80427,81139,82024,86522,87282,88691]","0.5384615384615384","0.5833333333333334","0","","","","","","","","","","","","","","","","","","","","","","","","","","","","","",""
"4081","1752052737797","<p style='font-size:1.1em;line-height:1.25'>In the following, we will ask you a few questions relating to your experiences over the past month.<br></p><p style='font-size:1.1em;line-height:1.25'>Press the <strong>Next</strong> button to continue.</p>","0","custom-html-button-response","15","604623","0.0-7.0-4.0","131","1","2025-07-09 09:08:51","7701e855f2ef39aa3fd6c71abdc6918a","41.122.151.251","Mozilla/5.0 (Windows NT 10.0; Win64; x64; rv:140.0) Gecko/20100101 Firefox/140.0","","Firefox","140.0","Windows","10.0","https://app.prolific.com/","en-US,en;q=0.5","669f76a7112b8713f104644c","686d226cabeef709c732f8e1","686e312047ef40ef598cb043","669f76a7112b8713f104644c","2025-07-09T09:18:57.797Z","","","","","","","","","","","","","","","","","","","","","","","","","","","","","","","","","","","","","","","","","","","","",""
"58445","","","","survey-template","16","663071","0.0-7.0-5.0","131","1","2025-07-09 09:08:51","7701e855f2ef39aa3fd6c71abdc6918a","41.122.151.251","Mozilla/5.0 (Windows NT 10.0; Win64; x64; rv:140.0) Gecko/20100101 Firefox/140.0","","Firefox","140.0","Windows","10.0","https://app.prolific.com/","en-US,en;q=0.5","669f76a7112b8713f104644c","686d226cabeef709c732f8e1","686e312047ef40ef598cb043","669f76a7112b8713f104644c","2025-07-09T09:19:56.245Z","","","","","","pss","{""Q01"":""4"",""Q02"":""3"",""Q03"":""4"",""Q04"":""2"",""Q05"":""2"",""Q06"":""3"",""Q07"":""2"",""Q08"":""2"",""Q09"":""2"",""Q10"":""3""}","[0,1,2,3,4,5,6,7,8,9]","[""Q01"",""Q02"",""Q03"",""Q04"",""Q05"",""Q06"",""Q07"",""Q08"",""Q09"",""Q10""]","[5785,12156,16221,18899,23347,30485,43167,46227,51966,56955]","[]","[0,5785,10290,11352,12156,14437,16221,18076,18899,22324,23347,30485,31381,41678,43167,46227,51966,56955,58445]","0.5","0.5555555555555556","0","","","","","","","","","","","","","","","","","","","","","","","","","","","","","",""
"2743","1752052798989","<p style='font-size:1.1em;line-height:1.25'>Thank you for your answers! Now we will ask you a few more questions relating to your feelings in the last 24 hours.<br></p><p style='font-size:1.1em;line-height:1.25'>Press the <strong>Next</strong> button to continue.</p>","0","custom-html-button-response","17","665815","0.0-7.0-6.0","131","1","2025-07-09 09:08:51","7701e855f2ef39aa3fd6c71abdc6918a","41.122.151.251","Mozilla/5.0 (Windows NT 10.0; Win64; x64; rv:140.0) Gecko/20100101 Firefox/140.0","","Firefox","140.0","Windows","10.0","https://app.prolific.com/","en-US,en;q=0.5","669f76a7112b8713f104644c","686d226cabeef709c732f8e1","686e312047ef40ef598cb043","669f76a7112b8713f104644c","2025-07-09T09:19:58.990Z","","","","","","","","","","","","","","","","","","","","","","","","","","","","","","","","","","","","","","","","","","","","",""
"87285","","","","survey-template","18","753105","0.0-7.0-7.0","131","1","2025-07-09 09:08:51","7701e855f2ef39aa3fd6c71abdc6918a","41.122.151.251","Mozilla/5.0 (Windows NT 10.0; Win64; x64; rv:140.0) Gecko/20100101 Firefox/140.0","","Firefox","140.0","Windows","10.0","https://app.prolific.com/","en-US,en;q=0.5","669f76a7112b8713f104644c","686d226cabeef709c732f8e1","686e312047ef40ef598cb043","669f76a7112b8713f104644c","2025-07-09T09:21:26.279Z","","","","","","drsp","{""Q01"":""1"",""Q02"":""1"",""Q03"":""1"",""Q04"":""5"",""Q05"":""1"",""Q06"":""2"",""Q07"":""2"",""Q08"":""1"",""Q09"":""2"",""Q10"":""3"",""Q11"":""2"",""Q12"":""3"",""Q13"":""4"",""Q14"":""5"",""Q15"":""0"",""Q16"":""5"",""Q17"":""5"",""Q18"":""2"",""Q19"":""2"",""Q20"":""3"",""Q21"":""3""}","[0,1,2,3,4,5,6,7,8,9,10,11,12,13,14,15,16,17,18,19,20]","[""Q01"",""Q02"",""Q03"",""Q04"",""Q05"",""Q06"",""Q07"",""Q08"",""Q09"",""Q10"",""Q11"",""Q12"",""Q13"",""Q14"",""Q15"",""Q16"",""Q17"",""Q18"",""Q19"",""Q20"",""Q21""]","[4480,6231,9879,11860,13953,17290,20546,22895,30680,33471,35214,38481,39861,46209,58824,61145,63014,68621,73712,81117,85890]","[]","[0,4480,6231,9109,9879,11860,13953,17290,19151,20546,22895,24358,30680,33471,35214,37599,38481,39861,45210,45409,46209,47216,57937,58824,61145,63014,67498,68621,73712,75303,81117,84915,85890,87284]","0.2857142857142857","0.55","0","","","","","","","","","","","","","","","","","","","","","","","","","","","","","",""
"15791","","","","survey-template","19","768899","0.0-7.0-8.0","131","1","2025-07-09 09:08:51","7701e855f2ef39aa3fd6c71abdc6918a","41.122.151.251","Mozilla/5.0 (Windows NT 10.0; Win64; x64; rv:140.0) Gecko/20100101 Firefox/140.0","","Firefox","140.0","Windows","10.0","https://app.prolific.com/","en-US,en;q=0.5","669f76a7112b8713f104644c","686d226cabeef709c732f8e1","686e312047ef40ef598cb043","669f76a7112b8713f104644c","2025-07-09T09:21:42.073Z","","","","","","stress","{""Q01"":""5"",""Q02"":""3"",""Q03"":""3""}","[0,1,2]","[""Q02"",""Q01"",""Q03""]","[7444,8911,14655]","[]","[6569,7444,8911,12343,13189,13953,14655,15791]","0.3333333333333333","0.5","0","","","","","","","","","","","","","","","","","","","","","","","","","","","","","",""
"217712","","","","instructions","20","986613","0.0-8.0-0.0","131","1","2025-07-09 09:08:51","7701e855f2ef39aa3fd6c71abdc6918a","41.122.151.251","Mozilla/5.0 (Windows NT 10.0; Win64; x64; rv:140.0) Gecko/20100101 Firefox/140.0","","Firefox","140.0","Windows","10.0","https://app.prolific.com/","en-US,en;q=0.5","669f76a7112b8713f104644c","686d226cabeef709c732f8e1","686e312047ef40ef598cb043","669f76a7112b8713f104644c","","[{""page_index"":0,""viewing_time"":61210},{""page_index"":1,""viewing_time"":61591},{""page_index"":2,""viewing_time"":45578},{""page_index"":3,""viewing_time"":49332}]","","","","","","","","","","","","","","","","","","","","","","","","","","","","","","","","","","","","","","","","","","","",""
"","","","","ctl-task-cpt","21","1034476","0.0-8.0-1.0","131","1","2025-07-09 09:08:51","7701e855f2ef39aa3fd6c71abdc6918a","41.122.151.251","Mozilla/5.0 (Windows NT 10.0; Win64; x64; rv:140.0) Gecko/20100101 Firefox/140.0","","Firefox","140.0","Windows","10.0","https://app.prolific.com/","en-US,en;q=0.5","669f76a7112b8713f104644c","686d226cabeef709c732f8e1","686e312047ef40ef598cb043","669f76a7112b8713f104644c","","","","","","","","","","","","","","","","","win-only","1","g1:NE,g2:SW","1","0","1","989957","6698","10710","44847","2","4","4","6","2","4","0","0","0","0","4012","4000","1905","[""down"",""left""]","{""num_key_presses"":15,""num_perfect"":6,""num_errors"":4,""num_randdir"":0,""num_randdir_good_moves"":0,""num_whilered"":5,""num_whileblue"":0,""num_blue"":2,""num_good_moves"":6}","[296.22857753208706,291.92857448032925,0,296.22857753208706,291.92857448032925,113,296.22857753208706,291.92857448032925,220,296.22857753208706,291.92857448032925,331,296.22857753208706,291.92857448032925,432,296.22857753208706,291.92857448032925,534,296.22857753208706,291.92857448032925,648,296.22857753208706,291.92857448032925,753,296.22857753208706,291.92857448032925,865,296.22857753208706,291.92857448032925,972,314.22857753208706,260.92857448032925,1085,338.22857753208706,247.92857448032925,1185,347.22857753208706,244.92857448032925,1287,347.22857753208706,244.92857448032925,1401,347.22857753208706,244.92857448032925,1510,347.22857753208706,244.92857448032925,1618,347.22857753208706,244.92857448032925,1731,347.22857753208706,244.92857448032925,1836,347.22857753208706,244.92857448032925,1946,347.22857753208706,244.92857448032925,2057,347.22857753208706,244.92857448032925,2165,327.22857753208706,268.92857448032925,2276,324.22857753208706,271.92857448032925,2384,324.22857753208706,271.92857448032925,2496,328.22857753208706,260.92857448032925,2603,337.22857753208706,250.92857448032925,2711,337.22857753208706,250.92857448032925,2813,337.22857753208706,250.92857448032925,2915,337.22857753208706,250.92857448032925,3032,337.22857753208706,250.92857448032925,3132,337.22857753208706,250.92857448032925,3247,337.22857753208706,250.92857448032925,3350,336.22857753208706,250.92857448032925,3462,336.22857753208706,250.92857448032925,3562,336.22857753208706,250.92857448032925,3666,336.22857753208706,250.92857448032925,3779,336.22857753208706,250.92857448032925,3880,336.22857753208706,250.92857448032925,3980]","[8674,8674,2752.7,2004,3917.3,""smooth"",""left"",""left"",""good_move"",8885,210,3172.9,8675,-2962.9,""error"",""-"",""-"",""no_move"",9058,172,3172.9,8675,-2788.9,""while_red"",""-"",""-"",""no_move"",9165,278,3172.9,8675,-2682.9,""while_red"",""-"",""-"",""no_move"",9310,423,3172.9,8675,-2537.9,""while_red"",""-"",""-"",""no_move"",9441,554,3172.9,8675,-2406.9,""while_red"",""-"",""-"",""no_move"",13371,4484,2709.7,9893,768.3,""smooth"",""left"",""left"",""good_move"",13639,267,3094.2,13372,-2826.2,""error"",""-"",""-"",""no_move"",18356,4716,3307.4,14653,395.6,""smooth"",""down"",""down"",""good_move"",18536,180,3564.5,18356,-3384.5,""error"",""-"",""-"",""no_move"",18613,77,3564.5,18356,-3307.5,""while_red"",""-"",""-"",""no_move"",26147,7611,2501.5,23146,499.5,""smooth"",""down"",""down"",""good_move"",26725,577,2612.5,26148,-2035.5,""error"",""-"",""-"",""no_move"",30715,3990,2349.6,27742,623.4,""smooth"",""down"",""down"",""good_move"",33868,3151,2777.8,30717,373.2,""smooth"",""left"",""left"",""good_move""]","","",""
"14462","","","","instructions","22","1048938","0.0-8.0-2.0","131","1","2025-07-09 09:08:51","7701e855f2ef39aa3fd6c71abdc6918a","41.122.151.251","Mozilla/5.0 (Windows NT 10.0; Win64; x64; rv:140.0) Gecko/20100101 Firefox/140.0","","Firefox","140.0","Windows","10.0","https://app.prolific.com/","en-US,en;q=0.5","669f76a7112b8713f104644c","686d226cabeef709c732f8e1","686e312047ef40ef598cb043","669f76a7112b8713f104644c","","[{""page_index"":0,""viewing_time"":14462}]","","","","","","","","","","","","","","","","","","","","","","","","","","","","","","","","","","","","","","","","","","","",""
"","","","","ctl-task-cpt","23","1141399","0.0-8.0-3.0","131","1","2025-07-09 09:08:51","7701e855f2ef39aa3fd6c71abdc6918a","41.122.151.251","Mozilla/5.0 (Windows NT 10.0; Win64; x64; rv:140.0) Gecko/20100101 Firefox/140.0","","Firefox","140.0","Windows","10.0","https://app.prolific.com/","en-US,en;q=0.5","669f76a7112b8713f104644c","686d226cabeef709c732f8e1","686e312047ef40ef598cb043","669f76a7112b8713f104644c","","","","","","","","","","","","","","","","","win-only","1","g1:NE,g2:SW","0.35","0","3","1052281","2686","6698","89448","2","4","8","6","1","2","-1","0","0","0","4012","4000","860","[""up"",""right""]","{""num_key_presses"":22,""num_perfect"":8,""num_errors"":3,""num_randdir"":11,""num_randdir_good_moves"":6,""num_whilered"":0,""num_whileblue"":1,""num_blue"":5,""num_good_moves"":12}","[301.22857753208706,297.92857448032925,0,301.22857753208706,297.92857448032925,105,301.22857753208706,297.92857448032925,219,301.22857753208706,297.92857448032925,320,301.22857753208706,297.92857448032925,447,301.22857753208706,297.92857448032925,548,301.22857753208706,297.92857448032925,665,335.22857753208706,268.92857448032925,780,346.22857753208706,262.92857448032925,896,348.22857753208706,259.92857448032925,1013,348.22857753208706,259.92857448032925,1129,348.22857753208706,259.92857448032925,1231,348.22857753208706,259.92857448032925,1336,348.22857753208706,259.92857448032925,1436,348.22857753208706,259.92857448032925,1541,348.22857753208706,259.92857448032925,1653,348.22857753208706,259.92857448032925,1767,348.22857753208706,259.92857448032925,1868,348.22857753208706,259.92857448032925,1968,348.22857753208706,259.92857448032925,2068,348.22857753208706,259.92857448032925,2169,348.22857753208706,259.92857448032925,2280,348.22857753208706,259.92857448032925,2393,348.22857753208706,259.92857448032925,2497,348.22857753208706,259.92857448032925,2597,348.22857753208706,259.92857448032925,2697,348.22857753208706,259.92857448032925,2810,348.22857753208706,259.92857448032925,2912,348.22857753208706,259.92857448032925,3025,348.22857753208706,259.92857448032925,3138,348.22857753208706,259.92857448032925,3244,348.22857753208706,259.92857448032925,3359,348.22857753208706,259.92857448032925,3471,348.22857753208706,259.92857448032925,3575,348.22857753208706,259.92857448032925,3676,348.22857753208706,259.92857448032925,3776,348.22857753208706,259.92857448032925,3876,348.22857753208706,259.92857448032925,3988]","[351,351,1000,0,-649,""error"",""-"",""-"",""no_move"",4079,3728,2198.5,1359,521.5,""smooth"",""down"",""down"",""bad_move"",7580,3501,2926.5,4079,574.5,""oops"",""up"",""down"",""bad_move"",17365,9784,2653.1,14149,562.9,""oops"",""up"",""left"",""bad_move"",20712,3346,1891.3,17366,1454.7,""oops"",""up"",""down"",""bad_move"",26595,5882,2706.7,23458,430.3,""oops"",""right"",""left"",""bad_move"",29990,3395,2162.1,26595,1232.9,""smooth"",""left"",""left"",""bad_move"",33268,3278,1674.6,29990,1603.4,""smooth"",""up"",""up"",""good_move"",36381,3113,2573.1,33268,539.9,""smooth"",""up"",""up"",""good_move"",39446,3064,2532.2,36382,531.8,""oops"",""up"",""right"",""good_move"",42645,3199,2773.2,39446,425.8,""oops"",""right"",""up"",""good_move"",46052,3406,2960,42646,446,""smooth"",""right"",""right"",""good_move"",48866,2813,2435.3,46053,377.7,""smooth"",""up"",""up"",""good_move"",52053,3187,2297.7,48866,889.3,""oops"",""up"",""down"",""bad_move"",55795,3741,3389,52054,352,""while_blue"",""right"",""left"",""bad_move"",58995,3200,2476.8,55795,723.2,""oops"",""up"",""right"",""good_move"",62192,3197,2747.1,58995,449.9,""oops"",""up"",""right"",""good_move"",68668,6475,2018.3,66182,467.7,""smooth"",""up"",""up"",""good_move"",71077,2408,2110.3,68669,297.7,""error"",""-"",""-"",""no_move"",75691,4613,3133.4,72083,474.6,""smooth"",""up"",""up"",""good_move"",79187,3495,3061,75692,434,""oops"",""right"",""right"",""good_move"",82458,3270,2735.3,79188,534.7,""oops"",""right"",""right"",""good_move""]","","",""
"60456","","","","instructions","24","1201857","0.0-8.0-4.0","131","1","2025-07-09 09:08:51","7701e855f2ef39aa3fd6c71abdc6918a","41.122.151.251","Mozilla/5.0 (Windows NT 10.0; Win64; x64; rv:140.0) Gecko/20100101 Firefox/140.0","","Firefox","140.0","Windows","10.0","https://app.prolific.com/","en-US,en;q=0.5","669f76a7112b8713f104644c","686d226cabeef709c732f8e1","686e312047ef40ef598cb043","669f76a7112b8713f104644c","","[{""page_index"":0,""viewing_time"":17559},{""page_index"":1,""viewing_time"":42897}]","","","","","","","","","","","","","","","","","","","","","","","","","","","","","","","","","","","","","","","","","","","",""
"68298","","","{""green_ball"":[""Ball always moves in the direction I press""]}","survey-multi-select","25","1270158","0.0-8.0-5.0-0.0","131","1","2025-07-09 09:08:51","7701e855f2ef39aa3fd6c71abdc6918a","41.122.151.251","Mozilla/5.0 (Windows NT 10.0; Win64; x64; rv:140.0) Gecko/20100101 Firefox/140.0","","Firefox","140.0","Windows","10.0","https://app.prolific.com/","en-US,en;q=0.5","669f76a7112b8713f104644c","686d226cabeef709c732f8e1","686e312047ef40ef598cb043","669f76a7112b8713f104644c","","","[0]","","","","quiz","","","","","","","","","","","","","","","","","","","","","","","","","","","","","","","","","","","","","false","",""
"4819","","<p align='center'><b>INCORRECT.</b> Usually the green ball moves in the indicated direction, but sometimes it shakes and moves randomly. </p>","0","html-button-response","26","1274979","0.0-8.0-5.0-1.0","131","1","2025-07-09 09:08:51","7701e855f2ef39aa3fd6c71abdc6918a","41.122.151.251","Mozilla/5.0 (Windows NT 10.0; Win64; x64; rv:140.0) Gecko/20100101 Firefox/140.0","","Firefox","140.0","Windows","10.0","https://app.prolific.com/","en-US,en;q=0.5","669f76a7112b8713f104644c","686d226cabeef709c732f8e1","686e312047ef40ef598cb043","669f76a7112b8713f104644c","","","","","","","","","","","","","","","","","","","","","","","","","","","","","","","","","","","","","","","","","","","","","",""
"14833","","","{""green_ball"":[""Ball sometimes shakes and moves in a random direction""]}","survey-multi-select","27","1289814","0.0-8.0-5.1-0.1","131","1","2025-07-09 09:08:51","7701e855f2ef39aa3fd6c71abdc6918a","41.122.151.251","Mozilla/5.0 (Windows NT 10.0; Win64; x64; rv:140.0) Gecko/20100101 Firefox/140.0","","Firefox","140.0","Windows","10.0","https://app.prolific.com/","en-US,en;q=0.5","669f76a7112b8713f104644c","686d226cabeef709c732f8e1","686e312047ef40ef598cb043","669f76a7112b8713f104644c","","","[0]","","","","quiz","","","","","","","","","","","","","","","","","","","","","","","","","","","","","","","","","","","","","true","",""
"2799","","<p align='center'><b>CORRECT!</b> Indeed, the green ball may sometimes shake and move in a random direction.</p>","0","html-button-response","28","1292616","0.0-8.0-5.1-1.1","131","1","2025-07-09 09:08:51","7701e855f2ef39aa3fd6c71abdc6918a","41.122.151.251","Mozilla/5.0 (Windows NT 10.0; Win64; x64; rv:140.0) Gecko/20100101 Firefox/140.0","","Firefox","140.0","Windows","10.0","https://app.prolific.com/","en-US,en;q=0.5","669f76a7112b8713f104644c","686d226cabeef709c732f8e1","686e312047ef40ef598cb043","669f76a7112b8713f104644c","","","","","","","","","","","","","","","","","","","","","","","","","","","","","","","","","","","","","","","","","","","","","",""
"23066","","","{""yellow_ball"":[""Ball doesn‘t move and I get -1 penalty point""]}","survey-multi-select","29","1315683","0.0-8.0-6.0-0.0","131","1","2025-07-09 09:08:51","7701e855f2ef39aa3fd6c71abdc6918a","41.122.151.251","Mozilla/5.0 (Windows NT 10.0; Win64; x64; rv:140.0) Gecko/20100101 Firefox/140.0","","Firefox","140.0","Windows","10.0","https://app.prolific.com/","en-US,en;q=0.5","669f76a7112b8713f104644c","686d226cabeef709c732f8e1","686e312047ef40ef598cb043","669f76a7112b8713f104644c","","","[0]","","","","quiz","","","","","","","","","","","","","","","","","","","","","","","","","","","","","","","","","","","","","true","",""
"1649","","<p align='center'><b>CORRECT!</b> Indeed, the yellow ball never moves and you receive a penalty.</p>","0","html-button-response","30","1317333","0.0-8.0-6.0-1.0","131","1","2025-07-09 09:08:51","7701e855f2ef39aa3fd6c71abdc6918a","41.122.151.251","Mozilla/5.0 (Windows NT 10.0; Win64; x64; rv:140.0) Gecko/20100101 Firefox/140.0","","Firefox","140.0","Windows","10.0","https://app.prolific.com/","en-US,en;q=0.5","669f76a7112b8713f104644c","686d226cabeef709c732f8e1","686e312047ef40ef598cb043","669f76a7112b8713f104644c","","","","","","","","","","","","","","","","","","","","","","","","","","","","","","","","","","","","","","","","","","","","","",""
"8622","","","{""blue_ball"":[""Ball doesn‘t move and I get -1 penalty point""]}","survey-multi-select","31","1325957","0.0-8.0-7.0-0.0","131","1","2025-07-09 09:08:51","7701e855f2ef39aa3fd6c71abdc6918a","41.122.151.251","Mozilla/5.0 (Windows NT 10.0; Win64; x64; rv:140.0) Gecko/20100101 Firefox/140.0","","Firefox","140.0","Windows","10.0","https://app.prolific.com/","en-US,en;q=0.5","669f76a7112b8713f104644c","686d226cabeef709c732f8e1","686e312047ef40ef598cb043","669f76a7112b8713f104644c","","","[0]","","","","quiz","","","","","","","","","","","","","","","","","","","","","","","","","","","","","","","","","","","","","false","",""
"3809","","<p align='center'><b>INCORRECT.</b> The blue ball always shakes and moves randomly.</p>","0","html-button-response","32","1329768","0.0-8.0-7.0-1.0","131","1","2025-07-09 09:08:51","7701e855f2ef39aa3fd6c71abdc6918a","41.122.151.251","Mozilla/5.0 (Windows NT 10.0; Win64; x64; rv:140.0) Gecko/20100101 Firefox/140.0","","Firefox","140.0","Windows","10.0","https://app.prolific.com/","en-US,en;q=0.5","669f76a7112b8713f104644c","686d226cabeef709c732f8e1","686e312047ef40ef598cb043","669f76a7112b8713f104644c","","","","","","","","","","","","","","","","","","","","","","","","","","","","","","","","","","","","","","","","","","","","","",""
"7775","","","{""blue_ball"":[""Ball always shakes and moves in a random direction""]}","survey-multi-select","33","1337544","0.0-8.0-7.1-0.1","131","1","2025-07-09 09:08:51","7701e855f2ef39aa3fd6c71abdc6918a","41.122.151.251","Mozilla/5.0 (Windows NT 10.0; Win64; x64; rv:140.0) Gecko/20100101 Firefox/140.0","","Firefox","140.0","Windows","10.0","https://app.prolific.com/","en-US,en;q=0.5","669f76a7112b8713f104644c","686d226cabeef709c732f8e1","686e312047ef40ef598cb043","669f76a7112b8713f104644c","","","[0]","","","","quiz","","","","","","","","","","","","","","","","","","","","","","","","","","","","","","","","","","","","","true","",""
"2137","","<p align='center'><b>CORRECT!</b> Indeed, the blue ball always shakes and moves in a random direction. Also there is a penalty of -1 point.</p>","0","html-button-response","34","1339684","0.0-8.0-7.1-1.1","131","1","2025-07-09 09:08:51","7701e855f2ef39aa3fd6c71abdc6918a","41.122.151.251","Mozilla/5.0 (Windows NT 10.0; Win64; x64; rv:140.0) Gecko/20100101 Firefox/140.0","","Firefox","140.0","Windows","10.0","https://app.prolific.com/","en-US,en;q=0.5","669f76a7112b8713f104644c","686d226cabeef709c732f8e1","686e312047ef40ef598cb043","669f76a7112b8713f104644c","","","","","","","","","","","","","","","","","","","","","","","","","","","","","","","","","","","","","","","","","","","","","",""
"4919","","","{""bonus"":[""When I reach 50% of points""]}","survey-multi-select","35","1344604","0.0-8.0-8.0-0.0","131","1","2025-07-09 09:08:51","7701e855f2ef39aa3fd6c71abdc6918a","41.122.151.251","Mozilla/5.0 (Windows NT 10.0; Win64; x64; rv:140.0) Gecko/20100101 Firefox/140.0","","Firefox","140.0","Windows","10.0","https://app.prolific.com/","en-US,en;q=0.5","669f76a7112b8713f104644c","686d226cabeef709c732f8e1","686e312047ef40ef598cb043","669f76a7112b8713f104644c","","","[0]","","","","quiz","","","","","","","","","","","","","","","","","","","","","","","","","","","","","","","","","","","","","true","",""
"1815","","<p align='center'><b>CORRECT!</b> Indeed, you receive 2 pounds extra when you reach 50% of points.</p>","0","html-button-response","36","1346421","0.0-8.0-8.0-1.0","131","1","2025-07-09 09:08:51","7701e855f2ef39aa3fd6c71abdc6918a","41.122.151.251","Mozilla/5.0 (Windows NT 10.0; Win64; x64; rv:140.0) Gecko/20100101 Firefox/140.0","","Firefox","140.0","Windows","10.0","https://app.prolific.com/","en-US,en;q=0.5","669f76a7112b8713f104644c","686d226cabeef709c732f8e1","686e312047ef40ef598cb043","669f76a7112b8713f104644c","","","","","","","","","","","","","","","","","","","","","","","","","","","","","","","","","","","","","","","","","","","","","",""
"3731","","","","instructions","37","1350153","0.0-8.0-9.0","131","1","2025-07-09 09:08:51","7701e855f2ef39aa3fd6c71abdc6918a","41.122.151.251","Mozilla/5.0 (Windows NT 10.0; Win64; x64; rv:140.0) Gecko/20100101 Firefox/140.0","","Firefox","140.0","Windows","10.0","https://app.prolific.com/","en-US,en;q=0.5","669f76a7112b8713f104644c","686d226cabeef709c732f8e1","686e312047ef40ef598cb043","669f76a7112b8713f104644c","","[{""page_index"":0,""viewing_time"":3730}]","","","","","","","","","","","","","","","","","","","","","","","","","","","","","","","","","","","","","","","","","","","",""
"10355","","<p>Before you start with this game please answer the following three questions yourself. </p>
  <p>Through this game, we measure several aspects of your cognitive performance, such as reaction times, multi-tasking capabilities </p>
  <p>and the ability to assess the situation you are in.</p>
  <p></p>
  <p><b>How good do you usually are in such tasks?</b></p>","73","html-slider-response","38","1360511","0.0-9.0-0.0","131","1","2025-07-09 09:08:51","7701e855f2ef39aa3fd6c71abdc6918a","41.122.151.251","Mozilla/5.0 (Windows NT 10.0; Win64; x64; rv:140.0) Gecko/20100101 Firefox/140.0","","Firefox","140.0","Windows","10.0","https://app.prolific.com/","en-US,en;q=0.5","669f76a7112b8713f104644c","686d226cabeef709c732f8e1","686e312047ef40ef598cb043","669f76a7112b8713f104644c","2025-07-09T09:31:33.685Z","","","","","","PreSkillQ","","","","","","","","","","","","","","","","","","","","","","","","","","","","","","","","","","","","","","50",""
"4517","","<div style=""width:500px;"">
  <p>How well do you think you will perform in this task compared to other participants?</p>
  </div>","83","html-slider-response","39","1365029","0.0-9.0-1.0","131","1","2025-07-09 09:08:51","7701e855f2ef39aa3fd6c71abdc6918a","41.122.151.251","Mozilla/5.0 (Windows NT 10.0; Win64; x64; rv:140.0) Gecko/20100101 Firefox/140.0","","Firefox","140.0","Windows","10.0","https://app.prolific.com/","en-US,en;q=0.5","669f76a7112b8713f104644c","686d226cabeef709c732f8e1","686e312047ef40ef598cb043","669f76a7112b8713f104644c","2025-07-09T09:31:38.203Z","","","","","","PrePerfQ","","","","","","","","","","","","","","","","","","","","","","","","","","","","","","","","","","","","","","50",""
"4530","","<div style=""width:500px;"">
  <p>What best describes how you currently feel?</p>
  </div>","85","html-slider-response","40","1369560","0.0-9.0-2.0","131","1","2025-07-09 09:08:51","7701e855f2ef39aa3fd6c71abdc6918a","41.122.151.251","Mozilla/5.0 (Windows NT 10.0; Win64; x64; rv:140.0) Gecko/20100101 Firefox/140.0","","Firefox","140.0","Windows","10.0","https://app.prolific.com/","en-US,en;q=0.5","669f76a7112b8713f104644c","686d226cabeef709c732f8e1","686e312047ef40ef598cb043","669f76a7112b8713f104644c","2025-07-09T09:31:42.734Z","","","","","","PreMotivationQ","","","","","","","","","","","","","","","","","","","","","","","","","","","","","","","","","","","","","","50",""
"","","","","ctl-task-cpt","41","1404032","0.0-10.0-0.0","131","1","2025-07-09 09:08:51","7701e855f2ef39aa3fd6c71abdc6918a","41.122.151.251","Mozilla/5.0 (Windows NT 10.0; Win64; x64; rv:140.0) Gecko/20100101 Firefox/140.0","","Firefox","140.0","Windows","10.0","https://app.prolific.com/","en-US,en;q=0.5","669f76a7112b8713f104644c","686d226cabeef709c732f8e1","686e312047ef40ef598cb043","669f76a7112b8713f104644c","2025-07-09T09:32:17.206Z","","","","","","","","","","","","","","","","win-only","2","g1:SE,g2:NW","1","1","0","1372902","2066","7082","31460","1","4","8","6","2","8","8","8","0","0.06060606060606061","5016","3000","2165","[""left"",""up""]","{""num_key_presses"":6,""num_perfect"":6,""num_errors"":0,""num_randdir"":0,""num_randdir_good_moves"":0,""num_whilered"":0,""num_whileblue"":0,""num_blue"":2,""num_good_moves"":6}","[298.22857753208706,298.92857448032925,0,298.22857753208706,298.92857448032925,104,298.22857753208706,298.92857448032925,205,298.22857753208706,298.92857448032925,305,298.22857753208706,298.92857448032925,425,298.22857753208706,298.92857448032925,532,298.22857753208706,298.92857448032925,634,298.22857753208706,298.92857448032925,749,298.22857753208706,298.92857448032925,849,298.22857753208706,298.92857448032925,965,298.22857753208706,298.92857448032925,1066,298.22857753208706,298.92857448032925,1169,298.22857753208706,298.92857448032925,1284,298.22857753208706,298.92857448032925,1385,298.22857753208706,298.92857448032925,1500,298.22857753208706,298.92857448032925,1601,298.22857753208706,298.92857448032925,1702,298.22857753208706,298.92857448032925,1802,305.22857753208706,306.92857448032925,1921,324.22857753208706,330.92857448032925,2033,337.22857753208706,347.92857448032925,2145,339.22857753208706,349.92857448032925,2247,340.22857753208706,349.92857448032925,2354,340.22857753208706,349.92857448032925,2462,340.22857753208706,349.92857448032925,2570,340.22857753208706,349.92857448032925,2671,340.22857753208706,349.92857448032925,2779,340.22857753208706,349.92857448032925,2880,340.22857753208706,349.92857448032925,2980,340.22857753208706,349.92857448032925,3090,340.22857753208706,349.92857448032925,3198,340.22857753208706,349.92857448032925,3313,340.22857753208706,349.92857448032925,3427,340.22857753208706,349.92857448032925,3529,340.22857753208706,349.92857448032925,3630,340.22857753208706,349.92857448032925,3744,340.22857753208706,349.92857448032925,3845,340.22857753208706,349.92857448032925,3946,340.22857753208706,349.92857448032925,4046,340.22857753208706,349.92857448032925,4171,340.22857753208706,349.92857448032925,4275,340.22857753208706,349.92857448032925,4398,340.22857753208706,349.92857448032925,4498,340.22857753208706,349.92857448032925,4598,340.22857753208706,349.92857448032925,4699,340.22857753208706,349.92857448032925,4814,340.22857753208706,349.92857448032925,4915]","[4222,4222,1796.9,2026,399.1,""smooth"",""up"",""up"",""good_move"",11087,6865,2433.9,8037,616.1,""smooth"",""up"",""up"",""good_move"",14319,3232,2284.7,11087,947.3,""smooth"",""up"",""up"",""good_move"",17464,3144,2481.8,14320,662.2,""smooth"",""left"",""left"",""good_move"",20571,3106,1967.6,17465,1138.4,""smooth"",""left"",""left"",""good_move"",24042,3471,3089.3,20571,381.7,""smooth"",""left"",""left"",""good_move""]","","",""
"4943","","<div style=""width:500px;"">
  <p>What determined the result of this run?</p>
  </div>","81","html-slider-response","42","1408977","0.0-10.0-1.0","131","1","2025-07-09 09:08:51","7701e855f2ef39aa3fd6c71abdc6918a","41.122.151.251","Mozilla/5.0 (Windows NT 10.0; Win64; x64; rv:140.0) Gecko/20100101 Firefox/140.0","","Firefox","140.0","Windows","10.0","https://app.prolific.com/","en-US,en;q=0.5","669f76a7112b8713f104644c","686d226cabeef709c732f8e1","686e312047ef40ef598cb043","669f76a7112b8713f104644c","2025-07-09T09:32:22.151Z","","","","","","AttribQ","","","","","","","","","","","","","","","","","","","","","","","","","","","","","","","","","","","","","","50",""
"9032","","<div style=""width:500px;"">
  <p>How much control did you have over the ball?</p>
  </div>","81","html-slider-response","43","1418009","0.0-10.0-2.0","131","1","2025-07-09 09:08:51","7701e855f2ef39aa3fd6c71abdc6918a","41.122.151.251","Mozilla/5.0 (Windows NT 10.0; Win64; x64; rv:140.0) Gecko/20100101 Firefox/140.0","","Firefox","140.0","Windows","10.0","https://app.prolific.com/","en-US,en;q=0.5","669f76a7112b8713f104644c","686d226cabeef709c732f8e1","686e312047ef40ef598cb043","669f76a7112b8713f104644c","2025-07-09T09:32:31.183Z","","","","","","ControlQ","","","","","","","","","","","","","","","","","","","","","","","","","","","","","","","","","","","","","","50",""
"5804","","<div style=""width:500px;"">
  <p>How would you describe your current emotional state?</p>
  </div>","33","html-slider-response","44","1423814","0.0-10.0-3.0","131","1","2025-07-09 09:08:51","7701e855f2ef39aa3fd6c71abdc6918a","41.122.151.251","Mozilla/5.0 (Windows NT 10.0; Win64; x64; rv:140.0) Gecko/20100101 Firefox/140.0","","Firefox","140.0","Windows","10.0","https://app.prolific.com/","en-US,en;q=0.5","669f76a7112b8713f104644c","686d226cabeef709c732f8e1","686e312047ef40ef598cb043","669f76a7112b8713f104644c","2025-07-09T09:32:36.988Z","","","","","","StressQ","","","","","","","","","","","","","","","","","","","","","","","","","","","","","","","","","","","","","","50",""
"4198","","<div style=""width:500px;"">
  <p>What best describes how you currently feel?</p>
  </div>","72","html-slider-response","45","1428014","0.0-10.0-4.0","131","1","2025-07-09 09:08:51","7701e855f2ef39aa3fd6c71abdc6918a","41.122.151.251","Mozilla/5.0 (Windows NT 10.0; Win64; x64; rv:140.0) Gecko/20100101 Firefox/140.0","","Firefox","140.0","Windows","10.0","https://app.prolific.com/","en-US,en;q=0.5","669f76a7112b8713f104644c","686d226cabeef709c732f8e1","686e312047ef40ef598cb043","669f76a7112b8713f104644c","2025-07-09T09:32:41.188Z","","","","","","MotivationQ","","","","","","","","","","","","","","","","","","","","","","","","","","","","","","","","","","","","","","50",""
"","","","","ctl-task-cpt","46","1451464","0.0-10.0-0.1","131","1","2025-07-09 09:08:51","7701e855f2ef39aa3fd6c71abdc6918a","41.122.151.251","Mozilla/5.0 (Windows NT 10.0; Win64; x64; rv:140.0) Gecko/20100101 Firefox/140.0","","Firefox","140.0","Windows","10.0","https://app.prolific.com/","en-US,en;q=0.5","669f76a7112b8713f104644c","686d226cabeef709c732f8e1","686e312047ef40ef598cb043","669f76a7112b8713f104644c","2025-07-09T09:33:04.638Z","","","","","","","","","","","","","","","","win-only","0","g1:NW,g2:SE","0.9","2","0","1431357","1406","6421","20435","1","4","4","6","1","1","0","8","8","0.06060606060606061","5015","3000","2450","[""left"",""up""]","{""num_key_presses"":5,""num_perfect"":4,""num_errors"":1,""num_randdir"":0,""num_randdir_good_moves"":0,""num_whilered"":0,""num_whileblue"":0,""num_blue"":0,""num_good_moves"":4}","[301.22857753208706,293.92857448032925,0,301.22857753208706,293.92857448032925,111,301.22857753208706,293.92857448032925,216,301.22857753208706,293.92857448032925,331,301.22857753208706,293.92857448032925,431,301.22857753208706,293.92857448032925,532,301.22857753208706,293.92857448032925,645,301.22857753208706,293.92857448032925,745,301.22857753208706,293.92857448032925,845,301.22857753208706,293.92857448032925,949,277.22857753208706,285.92857448032925,1067,257.22857753208706,272.92857448032925,1180,233.22857753208706,259.92857448032925,1297,233.22857753208706,259.92857448032925,1397,233.22857753208706,259.92857448032925,1509,233.22857753208706,259.92857448032925,1611,233.22857753208706,259.92857448032925,1728,233.22857753208706,259.92857448032925,1830,233.22857753208706,259.92857448032925,1946,233.22857753208706,259.92857448032925,2061,233.22857753208706,259.92857448032925,2180,233.22857753208706,259.92857448032925,2286,233.22857753208706,259.92857448032925,2398,233.22857753208706,259.92857448032925,2498,233.22857753208706,259.92857448032925,2600,233.22857753208706,259.92857448032925,2716,233.22857753208706,259.92857448032925,2831,233.22857753208706,259.92857448032925,2931,233.22857753208706,259.92857448032925,3031,233.22857753208706,259.92857448032925,3131,233.22857753208706,259.92857448032925,3231,233.22857753208706,259.92857448032925,3332,233.22857753208706,259.92857448032925,3432,233.22857753208706,259.92857448032925,3532,233.22857753208706,259.92857448032925,3634,233.22857753208706,259.92857448032925,3734,233.22857753208706,259.92857448032925,3848,233.22857753208706,259.92857448032925,3948,233.22857753208706,259.92857448032925,4049,233.22857753208706,259.92857448032925,4149,233.22857753208706,259.92857448032925,4260,233.22857753208706,259.92857448032925,4382,233.22857753208706,259.92857448032925,4482,233.22857753208706,259.92857448032925,4582,233.22857753208706,259.92857448032925,4682,233.22857753208706,259.92857448032925,4783,233.22857753208706,259.92857448032925,4884,233.22857753208706,259.92857448032925,4998]","[124,124,1000,0,-876,""error"",""-"",""-"",""no_move"",4240,4116,2558.9,1128,553.1,""smooth"",""up"",""up"",""good_move"",7382,3141,1922.7,4241,1218.3,""smooth"",""up"",""up"",""good_move"",10472,3089,2515.4,7384,572.6,""smooth"",""left"",""left"",""good_move"",13719,3246,2139,10473,1107,""smooth"",""left"",""left"",""good_move""]","","",""
"3577","","<div style=""width:500px;"">
  <p>What determined the result of this run?</p>
  </div>","65","html-slider-response","47","1455044","0.0-10.0-1.1","131","1","2025-07-09 09:08:51","7701e855f2ef39aa3fd6c71abdc6918a","41.122.151.251","Mozilla/5.0 (Windows NT 10.0; Win64; x64; rv:140.0) Gecko/20100101 Firefox/140.0","","Firefox","140.0","Windows","10.0","https://app.prolific.com/","en-US,en;q=0.5","669f76a7112b8713f104644c","686d226cabeef709c732f8e1","686e312047ef40ef598cb043","669f76a7112b8713f104644c","2025-07-09T09:33:08.218Z","","","","","","AttribQ","","","","","","","","","","","","","","","","","","","","","","","","","","","","","","","","","","","","","","50",""
"4442","","<div style=""width:500px;"">
  <p>How much control did you have over the ball?</p>
  </div>","39","html-slider-response","48","1459487","0.0-10.0-2.1","131","1","2025-07-09 09:08:51","7701e855f2ef39aa3fd6c71abdc6918a","41.122.151.251","Mozilla/5.0 (Windows NT 10.0; Win64; x64; rv:140.0) Gecko/20100101 Firefox/140.0","","Firefox","140.0","Windows","10.0","https://app.prolific.com/","en-US,en;q=0.5","669f76a7112b8713f104644c","686d226cabeef709c732f8e1","686e312047ef40ef598cb043","669f76a7112b8713f104644c","2025-07-09T09:33:12.661Z","","","","","","ControlQ","","","","","","","","","","","","","","","","","","","","","","","","","","","","","","","","","","","","","","50",""
"5817","","<div style=""width:500px;"">
  <p>How would you describe your current emotional state?</p>
  </div>","28","html-slider-response","49","1465306","0.0-10.0-3.1","131","1","2025-07-09 09:08:51","7701e855f2ef39aa3fd6c71abdc6918a","41.122.151.251","Mozilla/5.0 (Windows NT 10.0; Win64; x64; rv:140.0) Gecko/20100101 Firefox/140.0","","Firefox","140.0","Windows","10.0","https://app.prolific.com/","en-US,en;q=0.5","669f76a7112b8713f104644c","686d226cabeef709c732f8e1","686e312047ef40ef598cb043","669f76a7112b8713f104644c","2025-07-09T09:33:18.480Z","","","","","","StressQ","","","","","","","","","","","","","","","","","","","","","","","","","","","","","","","","","","","","","","50",""
"3747","","<div style=""width:500px;"">
  <p>What best describes how you currently feel?</p>
  </div>","83","html-slider-response","50","1469055","0.0-10.0-4.1","131","1","2025-07-09 09:08:51","7701e855f2ef39aa3fd6c71abdc6918a","41.122.151.251","Mozilla/5.0 (Windows NT 10.0; Win64; x64; rv:140.0) Gecko/20100101 Firefox/140.0","","Firefox","140.0","Windows","10.0","https://app.prolific.com/","en-US,en;q=0.5","669f76a7112b8713f104644c","686d226cabeef709c732f8e1","686e312047ef40ef598cb043","669f76a7112b8713f104644c","2025-07-09T09:33:22.229Z","","","","","","MotivationQ","","","","","","","","","","","","","","","","","","","","","","","","","","","","","","","","","","","","","","50",""
"","","","","ctl-task-cpt","51","1494825","0.0-10.0-0.2","131","1","2025-07-09 09:08:51","7701e855f2ef39aa3fd6c71abdc6918a","41.122.151.251","Mozilla/5.0 (Windows NT 10.0; Win64; x64; rv:140.0) Gecko/20100101 Firefox/140.0","","Firefox","140.0","Windows","10.0","https://app.prolific.com/","en-US,en;q=0.5","669f76a7112b8713f104644c","686d226cabeef709c732f8e1","686e312047ef40ef598cb043","669f76a7112b8713f104644c","2025-07-09T09:33:47.999Z","","","","","","","","","","","","","","","","win-only","2","g1:SE,g2:NW","0.8","3","0","1472397","1423","6430","22754","1","4","8","6","1","1","0","8","8","0.06060606060606061","5004","3000","2345","[""down"",""right""]","{""num_key_presses"":5,""num_perfect"":4,""num_errors"":1,""num_randdir"":0,""num_randdir_good_moves"":0,""num_whilered"":0,""num_whileblue"":0,""num_blue"":1,""num_good_moves"":4}","[300.22857753208706,298.92857448032925,0,300.22857753208706,298.92857448032925,118,300.22857753208706,298.92857448032925,224,300.22857753208706,298.92857448032925,334,300.22857753208706,298.92857448032925,446,300.22857753208706,298.92857448032925,552,300.22857753208706,298.92857448032925,665,300.22857753208706,298.92857448032925,771,300.22857753208706,298.92857448032925,885,300.22857753208706,298.92857448032925,989,300.22857753208706,298.92857448032925,1098,302.22857753208706,304.92857448032925,1220,311.22857753208706,316.92857448032925,1331,316.22857753208706,323.92857448032925,1432,323.22857753208706,317.92857448032925,1534,324.22857753208706,317.92857448032925,1648,324.22857753208706,317.92857448032925,1752,324.22857753208706,317.92857448032925,1866,324.22857753208706,317.92857448032925,1978,334.22857753208706,330.92857448032925,2083,341.22857753208706,337.92857448032925,2195,341.22857753208706,337.92857448032925,2305,341.22857753208706,337.92857448032925,2415,341.22857753208706,337.92857448032925,2516,341.22857753208706,337.92857448032925,2616,341.22857753208706,337.92857448032925,2716,341.22857753208706,337.92857448032925,2816,341.22857753208706,337.92857448032925,2933,341.22857753208706,337.92857448032925,3035,341.22857753208706,337.92857448032925,3147,341.22857753208706,337.92857448032925,3254,341.22857753208706,337.92857448032925,3364,341.22857753208706,337.92857448032925,3479,341.22857753208706,337.92857448032925,3582,341.22857753208706,337.92857448032925,3696,341.22857753208706,337.92857448032925,3803,341.22857753208706,337.92857448032925,3913,341.22857753208706,337.92857448032925,4021,341.22857753208706,337.92857448032925,4129,341.22857753208706,337.92857448032925,4243,341.22857753208706,337.92857448032925,4349,341.22857753208706,337.92857448032925,4460,341.22857753208706,337.92857448032925,4567,341.22857753208706,337.92857448032925,4678,341.22857753208706,337.92857448032925,4785,341.22857753208706,337.92857448032925,4895,341.22857753208706,337.92857448032925,4995]","[443,443,1000,0,-557,""error"",""-"",""-"",""no_move"",4106,3663,2010.7,1453,642.3,""smooth"",""down"",""down"",""good_move"",10703,6596,2736.8,7515,451.2,""smooth"",""right"",""right"",""good_move"",13436,2730,2247.9,10706,482.1,""smooth"",""right"",""right"",""good_move"",16045,2607,2181.6,13438,425.4,""smooth"",""down"",""down"",""good_move""]","","",""
"4558","","<div style=""width:500px;"">
  <p>What determined the result of this run?</p>
  </div>","69","html-slider-response","52","1499384","0.0-10.0-1.2","131","1","2025-07-09 09:08:51","7701e855f2ef39aa3fd6c71abdc6918a","41.122.151.251","Mozilla/5.0 (Windows NT 10.0; Win64; x64; rv:140.0) Gecko/20100101 Firefox/140.0","","Firefox","140.0","Windows","10.0","https://app.prolific.com/","en-US,en;q=0.5","669f76a7112b8713f104644c","686d226cabeef709c732f8e1","686e312047ef40ef598cb043","669f76a7112b8713f104644c","2025-07-09T09:33:52.558Z","","","","","","AttribQ","","","","","","","","","","","","","","","","","","","","","","","","","","","","","","","","","","","","","","50",""
"2276","","<div style=""width:500px;"">
  <p>How much control did you have over the ball?</p>
  </div>","75","html-slider-response","53","1501662","0.0-10.0-2.2","131","1","2025-07-09 09:08:51","7701e855f2ef39aa3fd6c71abdc6918a","41.122.151.251","Mozilla/5.0 (Windows NT 10.0; Win64; x64; rv:140.0) Gecko/20100101 Firefox/140.0","","Firefox","140.0","Windows","10.0","https://app.prolific.com/","en-US,en;q=0.5","669f76a7112b8713f104644c","686d226cabeef709c732f8e1","686e312047ef40ef598cb043","669f76a7112b8713f104644c","2025-07-09T09:33:54.836Z","","","","","","ControlQ","","","","","","","","","","","","","","","","","","","","","","","","","","","","","","","","","","","","","","50",""
"3508","","<div style=""width:500px;"">
  <p>How would you describe your current emotional state?</p>
  </div>","55","html-slider-response","54","1505172","0.0-10.0-3.2","131","1","2025-07-09 09:08:51","7701e855f2ef39aa3fd6c71abdc6918a","41.122.151.251","Mozilla/5.0 (Windows NT 10.0; Win64; x64; rv:140.0) Gecko/20100101 Firefox/140.0","","Firefox","140.0","Windows","10.0","https://app.prolific.com/","en-US,en;q=0.5","669f76a7112b8713f104644c","686d226cabeef709c732f8e1","686e312047ef40ef598cb043","669f76a7112b8713f104644c","2025-07-09T09:33:58.346Z","","","","","","StressQ","","","","","","","","","","","","","","","","","","","","","","","","","","","","","","","","","","","","","","50",""
"2915","","<div style=""width:500px;"">
  <p>What best describes how you currently feel?</p>
  </div>","75","html-slider-response","55","1508087","0.0-10.0-4.2","131","1","2025-07-09 09:08:51","7701e855f2ef39aa3fd6c71abdc6918a","41.122.151.251","Mozilla/5.0 (Windows NT 10.0; Win64; x64; rv:140.0) Gecko/20100101 Firefox/140.0","","Firefox","140.0","Windows","10.0","https://app.prolific.com/","en-US,en;q=0.5","669f76a7112b8713f104644c","686d226cabeef709c732f8e1","686e312047ef40ef598cb043","669f76a7112b8713f104644c","2025-07-09T09:34:01.262Z","","","","","","MotivationQ","","","","","","","","","","","","","","","","","","","","","","","","","","","","","","","","","","","","","","50",""
"","","","","ctl-task-cpt","56","1546751","0.0-10.0-0.3","131","1","2025-07-09 09:08:51","7701e855f2ef39aa3fd6c71abdc6918a","41.122.151.251","Mozilla/5.0 (Windows NT 10.0; Win64; x64; rv:140.0) Gecko/20100101 Firefox/140.0","","Firefox","140.0","Windows","10.0","https://app.prolific.com/","en-US,en;q=0.5","669f76a7112b8713f104644c","686d226cabeef709c732f8e1","686e312047ef40ef598cb043","669f76a7112b8713f104644c","2025-07-09T09:34:39.925Z","","","","","","","","","","","","","","","","win-only","1","g1:NE,g2:SW","0.7","4","0","1511430","1796","6797","35652","1","4","4","6","1","1","0","8","8","0.06060606060606061","5001","3000","1895","[""up"",""right""]","{""num_key_presses"":7,""num_perfect"":4,""num_errors"":1,""num_randdir"":2,""num_randdir_good_moves"":1,""num_whilered"":0,""num_whileblue"":0,""num_blue"":2,""num_good_moves"":5}","[298.22857753208706,291.92857448032925,2,298.22857753208706,291.92857448032925,105,298.22857753208706,291.92857448032925,209,298.22857753208706,291.92857448032925,326,298.22857753208706,291.92857448032925,436,298.22857753208706,291.92857448032925,538,298.22857753208706,291.92857448032925,639,298.22857753208706,291.92857448032925,754,298.22857753208706,291.92857448032925,863,298.22857753208706,291.92857448032925,970,314.22857753208706,268.92857448032925,1072,320.22857753208706,257.92857448032925,1185,332.22857753208706,243.92857448032925,1295,333.22857753208706,243.92857448032925,1411,333.22857753208706,243.92857448032925,1513,333.22857753208706,243.92857448032925,1638,333.22857753208706,243.92857448032925,1756,333.22857753208706,243.92857448032925,1867,333.22857753208706,243.92857448032925,1968,333.22857753208706,243.92857448032925,2089,333.22857753208706,243.92857448032925,2189,333.22857753208706,243.92857448032925,2301,333.22857753208706,243.92857448032925,2404,333.22857753208706,243.92857448032925,2505,333.22857753208706,243.92857448032925,2605,333.22857753208706,243.92857448032925,2705,333.22857753208706,243.92857448032925,2805,333.22857753208706,243.92857448032925,2911,333.22857753208706,243.92857448032925,3011,333.22857753208706,243.92857448032925,3121,333.22857753208706,243.92857448032925,3240,333.22857753208706,243.92857448032925,3355,333.22857753208706,243.92857448032925,3455,333.22857753208706,243.92857448032925,3555,333.22857753208706,243.92857448032925,3656,333.22857753208706,243.92857448032925,3757,333.22857753208706,243.92857448032925,3857,333.22857753208706,243.92857448032925,3958,333.22857753208706,243.92857448032925,4072,333.22857753208706,243.92857448032925,4175,333.22857753208706,243.92857448032925,4283,333.22857753208706,243.92857448032925,4389,333.22857753208706,243.92857448032925,4489,333.22857753208706,243.92857448032925,4589,333.22857753208706,243.92857448032925,4689,333.22857753208706,243.92857448032925,4790,333.22857753208706,243.92857448032925,4917]","[812,812,1000,0,-188,""error"",""-"",""-"",""no_move"",4775,3963,2255.5,1817,702.5,""oops"",""up"",""right"",""good_move"",12428,7652,2348.4,9355,724.6,""oops"",""up"",""left"",""bad_move"",15714,3286,2113.1,12428,1172.9,""smooth"",""up"",""up"",""good_move"",19027,3312,2519.3,15715,792.7,""smooth"",""up"",""up"",""good_move"",22166,3138,2640.6,19028,497.4,""smooth"",""right"",""right"",""good_move"",28570,6404,2375.9,25683,511.1,""smooth"",""right"",""right"",""good_move""]","","",""
"7331","","<div style=""width:500px;"">
  <p>What determined the result of this run?</p>
  </div>","79","html-slider-response","57","1554084","0.0-10.0-1.3","131","1","2025-07-09 09:08:51","7701e855f2ef39aa3fd6c71abdc6918a","41.122.151.251","Mozilla/5.0 (Windows NT 10.0; Win64; x64; rv:140.0) Gecko/20100101 Firefox/140.0","","Firefox","140.0","Windows","10.0","https://app.prolific.com/","en-US,en;q=0.5","669f76a7112b8713f104644c","686d226cabeef709c732f8e1","686e312047ef40ef598cb043","669f76a7112b8713f104644c","2025-07-09T09:34:47.258Z","","","","","","AttribQ","","","","","","","","","","","","","","","","","","","","","","","","","","","","","","","","","","","","","","50",""
"3759","","<div style=""width:500px;"">
  <p>How much control did you have over the ball?</p>
  </div>","65","html-slider-response","58","1557843","0.0-10.0-2.3","131","1","2025-07-09 09:08:51","7701e855f2ef39aa3fd6c71abdc6918a","41.122.151.251","Mozilla/5.0 (Windows NT 10.0; Win64; x64; rv:140.0) Gecko/20100101 Firefox/140.0","","Firefox","140.0","Windows","10.0","https://app.prolific.com/","en-US,en;q=0.5","669f76a7112b8713f104644c","686d226cabeef709c732f8e1","686e312047ef40ef598cb043","669f76a7112b8713f104644c","2025-07-09T09:34:51.017Z","","","","","","ControlQ","","","","","","","","","","","","","","","","","","","","","","","","","","","","","","","","","","","","","","50",""
"3440","","<div style=""width:500px;"">
  <p>How would you describe your current emotional state?</p>
  </div>","57","html-slider-response","59","1561284","0.0-10.0-3.3","131","1","2025-07-09 09:08:51","7701e855f2ef39aa3fd6c71abdc6918a","41.122.151.251","Mozilla/5.0 (Windows NT 10.0; Win64; x64; rv:140.0) Gecko/20100101 Firefox/140.0","","Firefox","140.0","Windows","10.0","https://app.prolific.com/","en-US,en;q=0.5","669f76a7112b8713f104644c","686d226cabeef709c732f8e1","686e312047ef40ef598cb043","669f76a7112b8713f104644c","2025-07-09T09:34:54.458Z","","","","","","StressQ","","","","","","","","","","","","","","","","","","","","","","","","","","","","","","","","","","","","","","50",""
"3482","","<div style=""width:500px;"">
  <p>What best describes how you currently feel?</p>
  </div>","70","html-slider-response","60","1564767","0.0-10.0-4.3","131","1","2025-07-09 09:08:51","7701e855f2ef39aa3fd6c71abdc6918a","41.122.151.251","Mozilla/5.0 (Windows NT 10.0; Win64; x64; rv:140.0) Gecko/20100101 Firefox/140.0","","Firefox","140.0","Windows","10.0","https://app.prolific.com/","en-US,en;q=0.5","669f76a7112b8713f104644c","686d226cabeef709c732f8e1","686e312047ef40ef598cb043","669f76a7112b8713f104644c","2025-07-09T09:34:57.941Z","","","","","","MotivationQ","","","","","","","","","","","","","","","","","","","","","","","","","","","","","","","","","","","","","","50",""
"","","","","ctl-task-cpt","61","1610599","0.0-10.0-0.4","131","1","2025-07-09 09:08:51","7701e855f2ef39aa3fd6c71abdc6918a","41.122.151.251","Mozilla/5.0 (Windows NT 10.0; Win64; x64; rv:140.0) Gecko/20100101 Firefox/140.0","","Firefox","140.0","Windows","10.0","https://app.prolific.com/","en-US,en;q=0.5","669f76a7112b8713f104644c","686d226cabeef709c732f8e1","686e312047ef40ef598cb043","669f76a7112b8713f104644c","2025-07-09T09:35:43.773Z","","","","","","","","","","","","","","","","win-only","2","g1:SE,g2:NW","0.6","5","0","1568109","1333","6348","42825","1","4","8","6","2","8","8","16","8","0.12121212121212122","2416","3000","1825","[""left"",""up""]","{""num_key_presses"":8,""num_perfect"":5,""num_errors"":0,""num_randdir"":3,""num_randdir_good_moves"":2,""num_whilered"":0,""num_whileblue"":0,""num_blue"":3,""num_good_moves"":7}","[290.22857753208706,293.92857448032925,0,290.22857753208706,293.92857448032925,102,290.22857753208706,293.92857448032925,208,290.22857753208706,293.92857448032925,327,290.22857753208706,293.92857448032925,430,290.22857753208706,293.92857448032925,537,290.22857753208706,293.92857448032925,652,290.22857753208706,293.92857448032925,752,290.22857753208706,293.92857448032925,871,290.22857753208706,293.92857448032925,983,290.22857753208706,293.92857448032925,1085,290.22857753208706,293.92857448032925,1185,290.22857753208706,293.92857448032925,1285,290.22857753208706,293.92857448032925,1399,305.22857753208706,300.92857448032925,1500,296.22857753208706,302.92857448032925,1606,88.22857753208706,27.92857448032924,1717,89.22857753208706,14.928574480329239,1817,89.22857753208706,14.928574480329239,1919,80.22857753208706,12.928574480329239,2019,73.22857753208706,23.92857448032924,2136,73.22857753208706,23.92857448032924,2255,73.22857753208706,23.92857448032924,2360,73.22857753208706,23.92857448032924,2460,73.22857753208706,23.92857448032924,2563,73.22857753208706,23.92857448032924,2666,183.22857753208706,153.92857448032925,2802,202.22857753208706,189.92857448032925,2905,206.22857753208706,194.92857448032925,3016,241.22857753208706,242.92857448032925,3121,241.22857753208706,242.92857448032925,3229,241.22857753208706,242.92857448032925,3337,254.22857753208706,249.92857448032925,3453,307.22857753208706,303.92857448032925,3581,307.22857753208706,303.92857448032925,3682,307.22857753208706,303.92857448032925,3789,324.22857753208706,325.92857448032925,3904,329.22857753208706,337.92857448032925,4017,331.22857753208706,338.92857448032925,4125,333.22857753208706,339.92857448032925,4239,341.22857753208706,330.92857448032925,4353,341.22857753208706,330.92857448032925,4481,341.22857753208706,330.92857448032925,4584,341.22857753208706,330.92857448032925,4686,341.22857753208706,330.92857448032925,4800,341.22857753208706,330.92857448032925,4900]","[5763,5763,3205,2017,541,""smooth"",""up"",""up"",""good_move"",9159,3396,2226.8,5763,1169.2,""oops"",""up"",""up"",""good_move"",12403,3244,2512,9159,732,""smooth"",""up"",""up"",""good_move"",15456,3052,2048,12404,1004,""oops"",""left"",""left"",""good_move"",22567,7111,2817.1,19287,462.9,""oops"",""left"",""right"",""bad_move"",26104,3537,3028.8,22567,508.2,""smooth"",""left"",""left"",""good_move"",32860,6755,2377.8,29940,542.2,""smooth"",""left"",""left"",""good_move"",36170,3308,2836.3,32862,471.7,""smooth"",""left"",""left"",""good_move""]","","",""
"45735","","<div style=""width:500px;"">
  <p>What determined the result of this run?</p>
  </div>","81","html-slider-response","62","1656344","0.0-10.0-1.4","131","1","2025-07-09 09:08:51","7701e855f2ef39aa3fd6c71abdc6918a","41.122.151.251","Mozilla/5.0 (Windows NT 10.0; Win64; x64; rv:140.0) Gecko/20100101 Firefox/140.0","","Firefox","140.0","Windows","10.0","https://app.prolific.com/","en-US,en;q=0.5","669f76a7112b8713f104644c","686d226cabeef709c732f8e1","686e312047ef40ef598cb043","669f76a7112b8713f104644c","2025-07-09T09:36:29.518Z","","","","","","AttribQ","","","","","","","","","","","","","","","","","","","","","","","","","","","","","","","","","","","","","","50",""
"3863","","<div style=""width:500px;"">
  <p>How much control did you have over the ball?</p>
  </div>","76","html-slider-response","63","1660208","0.0-10.0-2.4","131","1","2025-07-09 09:08:51","7701e855f2ef39aa3fd6c71abdc6918a","41.122.151.251","Mozilla/5.0 (Windows NT 10.0; Win64; x64; rv:140.0) Gecko/20100101 Firefox/140.0","","Firefox","140.0","Windows","10.0","https://app.prolific.com/","en-US,en;q=0.5","669f76a7112b8713f104644c","686d226cabeef709c732f8e1","686e312047ef40ef598cb043","669f76a7112b8713f104644c","2025-07-09T09:36:33.382Z","","","","","","ControlQ","","","","","","","","","","","","","","","","","","","","","","","","","","","","","","","","","","","","","","50",""
"4270","","<div style=""width:500px;"">
  <p>How would you describe your current emotional state?</p>
  </div>","42","html-slider-response","64","1664481","0.0-10.0-3.4","131","1","2025-07-09 09:08:51","7701e855f2ef39aa3fd6c71abdc6918a","41.122.151.251","Mozilla/5.0 (Windows NT 10.0; Win64; x64; rv:140.0) Gecko/20100101 Firefox/140.0","","Firefox","140.0","Windows","10.0","https://app.prolific.com/","en-US,en;q=0.5","669f76a7112b8713f104644c","686d226cabeef709c732f8e1","686e312047ef40ef598cb043","669f76a7112b8713f104644c","2025-07-09T09:36:37.655Z","","","","","","StressQ","","","","","","","","","","","","","","","","","","","","","","","","","","","","","","","","","","","","","","50",""
"3466","","<div style=""width:500px;"">
  <p>What best describes how you currently feel?</p>
  </div>","70","html-slider-response","65","1667949","0.0-10.0-4.4","131","1","2025-07-09 09:08:51","7701e855f2ef39aa3fd6c71abdc6918a","41.122.151.251","Mozilla/5.0 (Windows NT 10.0; Win64; x64; rv:140.0) Gecko/20100101 Firefox/140.0","","Firefox","140.0","Windows","10.0","https://app.prolific.com/","en-US,en;q=0.5","669f76a7112b8713f104644c","686d226cabeef709c732f8e1","686e312047ef40ef598cb043","669f76a7112b8713f104644c","2025-07-09T09:36:41.123Z","","","","","","MotivationQ","","","","","","","","","","","","","","","","","","","","","","","","","","","","","","","","","","","","","","50",""
"","","","","ctl-task-cpt","66","1726186","0.0-10.0-0.5","131","1","2025-07-09 09:08:51","7701e855f2ef39aa3fd6c71abdc6918a","41.122.151.251","Mozilla/5.0 (Windows NT 10.0; Win64; x64; rv:140.0) Gecko/20100101 Firefox/140.0","","Firefox","140.0","Windows","10.0","https://app.prolific.com/","en-US,en;q=0.5","669f76a7112b8713f104644c","686d226cabeef709c732f8e1","686e312047ef40ef598cb043","669f76a7112b8713f104644c","2025-07-09T09:37:39.360Z","","","","","","","","","","","","","","","","win-only","0","g1:NW,g2:SE","0.5","6","0","1671291","1655","6664","55231","1","4","4","6","2","4","4","20","16","0.15151515151515152","1859","3000","995","[""down"",""right""]","{""num_key_presses"":14,""num_perfect"":7,""num_errors"":0,""num_randdir"":7,""num_randdir_good_moves"":3,""num_whilered"":0,""num_whileblue"":0,""num_blue"":2,""num_good_moves"":10}","[294.22857753208706,296.92857448032925,1,294.22857753208706,296.92857448032925,102,294.22857753208706,296.92857448032925,210,294.22857753208706,296.92857448032925,329,294.22857753208706,296.92857448032925,431,294.22857753208706,296.92857448032925,544,294.22857753208706,296.92857448032925,646,472.22857753208706,548.9285744803292,763,496.22857753208706,574.9285744803292,882,496.22857753208706,574.9285744803292,999,501.22857753208706,574.9285744803292,1103,504.22857753208706,572.9285744803292,1213,505.22857753208706,571.9285744803292,1313,505.22857753208706,571.9285744803292,1414,505.22857753208706,571.9285744803292,1516,505.22857753208706,571.9285744803292,1632,505.22857753208706,571.9285744803292,1733,505.22857753208706,571.9285744803292,1845,505.22857753208706,571.9285744803292,1945,505.22857753208706,571.9285744803292,2048,505.22857753208706,571.9285744803292,2150,415.22857753208706,487.92857448032925,2279,357.22857753208706,424.92857448032925,2384,357.22857753208706,424.92857448032925,2497,357.22857753208706,424.92857448032925,2597,295.22857753208706,329.92857448032925,2707,271.22857753208706,284.92857448032925,2817,257.22857753208706,274.92857448032925,2918,248.22857753208706,255.92857448032925,3027,246.22857753208706,239.92857448032925,3128,246.22857753208706,239.92857448032925,3231,246.22857753208706,239.92857448032925,3337,246.22857753208706,239.92857448032925,3445,246.22857753208706,239.92857448032925,3562,246.22857753208706,239.92857448032925,3676,246.22857753208706,239.92857448032925,3789,246.22857753208706,239.92857448032925,3890,246.22857753208706,239.92857448032925,3994,246.22857753208706,239.92857448032925,4105,246.22857753208706,239.92857448032925,4210,246.22857753208706,239.92857448032925,4327,246.22857753208706,239.92857448032925,4441,246.22857753208706,239.92857448032925,4544,246.22857753208706,239.92857448032925,4660,246.22857753208706,239.92857448032925,4771,246.22857753208706,239.92857448032925,4875,246.22857753208706,239.92857448032925,4976]","[4000,4000,1322.8,2004,673.2,""smooth"",""down"",""down"",""good_move"",7109,3109,2681.4,4001,426.6,""oops"",""down"",""up"",""bad_move"",10338,3229,2149.6,7109,1079.4,""smooth"",""down"",""down"",""good_move"",13460,3122,2590.6,10338,531.4,""smooth"",""down"",""down"",""good_move"",16412,2947,2411.9,13465,535.1,""smooth"",""down"",""down"",""good_move"",19301,2888,2479.9,16413,408.1,""oops"",""right"",""up"",""bad_move"",22351,3050,2629.3,19301,420.7,""oops"",""down"",""left"",""bad_move"",25580,3229,2865.7,22351,363.3,""smooth"",""down"",""down"",""good_move"",28360,2773,2406.7,25587,366.3,""oops"",""right"",""up"",""bad_move"",35455,7097,2920.5,32069,468.5,""oops"",""down"",""down"",""good_move"",38736,3277,2842.5,35459,434.5,""smooth"",""right"",""right"",""good_move"",42072,3336,2909.5,38736,426.5,""smooth"",""right"",""right"",""good_move"",45610,3537,3122.7,42073,414.3,""oops"",""right"",""right"",""good_move"",48236,2626,2016.3,45610,609.7,""oops"",""right"",""right"",""good_move""]","","",""
"3137","","<div style=""width:500px;"">
  <p>What determined the result of this run?</p>
  </div>","86","html-slider-response","67","1729326","0.0-10.0-1.5","131","1","2025-07-09 09:08:51","7701e855f2ef39aa3fd6c71abdc6918a","41.122.151.251","Mozilla/5.0 (Windows NT 10.0; Win64; x64; rv:140.0) Gecko/20100101 Firefox/140.0","","Firefox","140.0","Windows","10.0","https://app.prolific.com/","en-US,en;q=0.5","669f76a7112b8713f104644c","686d226cabeef709c732f8e1","686e312047ef40ef598cb043","669f76a7112b8713f104644c","2025-07-09T09:37:42.500Z","","","","","","AttribQ","","","","","","","","","","","","","","","","","","","","","","","","","","","","","","","","","","","","","","50",""
"2791","","<div style=""width:500px;"">
  <p>How much control did you have over the ball?</p>
  </div>","95","html-slider-response","68","1732120","0.0-10.0-2.5","131","1","2025-07-09 09:08:51","7701e855f2ef39aa3fd6c71abdc6918a","41.122.151.251","Mozilla/5.0 (Windows NT 10.0; Win64; x64; rv:140.0) Gecko/20100101 Firefox/140.0","","Firefox","140.0","Windows","10.0","https://app.prolific.com/","en-US,en;q=0.5","669f76a7112b8713f104644c","686d226cabeef709c732f8e1","686e312047ef40ef598cb043","669f76a7112b8713f104644c","2025-07-09T09:37:45.294Z","","","","","","ControlQ","","","","","","","","","","","","","","","","","","","","","","","","","","","","","","","","","","","","","","50",""
"3711","","<div style=""width:500px;"">
  <p>How would you describe your current emotional state?</p>
  </div>","4","html-slider-response","69","1735832","0.0-10.0-3.5","131","1","2025-07-09 09:08:51","7701e855f2ef39aa3fd6c71abdc6918a","41.122.151.251","Mozilla/5.0 (Windows NT 10.0; Win64; x64; rv:140.0) Gecko/20100101 Firefox/140.0","","Firefox","140.0","Windows","10.0","https://app.prolific.com/","en-US,en;q=0.5","669f76a7112b8713f104644c","686d226cabeef709c732f8e1","686e312047ef40ef598cb043","669f76a7112b8713f104644c","2025-07-09T09:37:49.006Z","","","","","","StressQ","","","","","","","","","","","","","","","","","","","","","","","","","","","","","","","","","","","","","","50",""
"3093","","<div style=""width:500px;"">
  <p>What best describes how you currently feel?</p>
  </div>","96","html-slider-response","70","1738927","0.0-10.0-4.5","131","1","2025-07-09 09:08:51","7701e855f2ef39aa3fd6c71abdc6918a","41.122.151.251","Mozilla/5.0 (Windows NT 10.0; Win64; x64; rv:140.0) Gecko/20100101 Firefox/140.0","","Firefox","140.0","Windows","10.0","https://app.prolific.com/","en-US,en;q=0.5","669f76a7112b8713f104644c","686d226cabeef709c732f8e1","686e312047ef40ef598cb043","669f76a7112b8713f104644c","2025-07-09T09:37:52.101Z","","","","","","MotivationQ","","","","","","","","","","","","","","","","","","","","","","","","","","","","","","","","","","","","","","50",""
"","","","","ctl-task-cpt","71","1771355","0.0-10.0-0.6","131","1","2025-07-09 09:08:51","7701e855f2ef39aa3fd6c71abdc6918a","41.122.151.251","Mozilla/5.0 (Windows NT 10.0; Win64; x64; rv:140.0) Gecko/20100101 Firefox/140.0","","Firefox","140.0","Windows","10.0","https://app.prolific.com/","en-US,en;q=0.5","669f76a7112b8713f104644c","686d226cabeef709c732f8e1","686e312047ef40ef598cb043","669f76a7112b8713f104644c","2025-07-09T09:38:24.529Z","","","","","","","","","","","","","","","","win-only","1","g1:NE,g2:SW","0.4","7","0","1742270","1210","6219","29414","1","4","4","6","2","4","4","24","20","0.18181818181818182","1425","3000","1995","[""down"",""left""]","{""num_key_presses"":8,""num_perfect"":4,""num_errors"":0,""num_randdir"":4,""num_randdir_good_moves"":3,""num_whilered"":0,""num_whileblue"":0,""num_blue"":0,""num_good_moves"":7}","[297.22857753208706,300.92857448032925,0,297.22857753208706,300.92857448032925,109,297.22857753208706,300.92857448032925,228,297.22857753208706,300.92857448032925,343,297.22857753208706,300.92857448032925,447,297.22857753208706,300.92857448032925,549,154.22857753208706,487.92857448032925,659,79.22857753208706,578.9285744803292,765,79.22857753208706,578.9285744803292,880,78.22857753208706,578.9285744803292,981,78.22857753208706,575.9285744803292,1083,78.22857753208706,572.9285744803292,1196,78.22857753208706,572.9285744803292,1307,78.22857753208706,572.9285744803292,1412,78.22857753208706,572.9285744803292,1521,78.22857753208706,572.9285744803292,1640,78.22857753208706,572.9285744803292,1740,78.22857753208706,572.9285744803292,1842,132.22857753208706,521.9285744803292,1955,259.22857753208706,388.92857448032925,2066,341.22857753208706,324.92857448032925,2186,356.22857753208706,306.92857448032925,2296,359.22857753208706,289.92857448032925,2398,353.22857753208706,286.92857448032925,2512,343.22857753208706,282.92857448032925,2613,343.22857753208706,282.92857448032925,2724,343.22857753208706,282.92857448032925,2831,343.22857753208706,282.92857448032925,2931,343.22857753208706,282.92857448032925,3058,343.22857753208706,282.92857448032925,3169,343.22857753208706,278.92857448032925,3281,343.22857753208706,259.92857448032925,3395,345.22857753208706,251.92857448032925,3511,345.22857753208706,251.92857448032925,3636,345.22857753208706,251.92857448032925,3742,345.22857753208706,251.92857448032925,3845,345.22857753208706,251.92857448032925,3959,345.22857753208706,251.92857448032925,4060,345.22857753208706,251.92857448032925,4176,345.22857753208706,251.92857448032925,4291,345.22857753208706,251.92857448032925,4392,345.22857753208706,251.92857448032925,4494,345.22857753208706,251.92857448032925,4609,345.22857753208706,251.92857448032925,4723,345.22857753208706,251.92857448032925,4823,345.22857753208706,251.92857448032925,4923]","[1492,1492,1000,0,492,""oops"",""down"",""up"",""bad_move"",4717,3222,2682.1,1495,539.9,""oops"",""down"",""left"",""good_move"",7889,3171,1935,4718,1236,""smooth"",""down"",""down"",""good_move"",10622,2733,2309.7,7889,423.3,""smooth"",""down"",""down"",""good_move"",13873,3250,2891.4,10623,358.6,""smooth"",""down"",""down"",""good_move"",16636,2763,2225.9,13873,537.1,""smooth"",""left"",""left"",""good_move"",19782,3146,2784,16636,362,""oops"",""down"",""left"",""good_move"",22906,3124,2367.9,19782,756.1,""oops"",""down"",""down"",""good_move""]","","",""
"2703","","<div style=""width:500px;"">
  <p>What determined the result of this run?</p>
  </div>","77","html-slider-response","72","1774060","0.0-10.0-1.6","131","1","2025-07-09 09:08:51","7701e855f2ef39aa3fd6c71abdc6918a","41.122.151.251","Mozilla/5.0 (Windows NT 10.0; Win64; x64; rv:140.0) Gecko/20100101 Firefox/140.0","","Firefox","140.0","Windows","10.0","https://app.prolific.com/","en-US,en;q=0.5","669f76a7112b8713f104644c","686d226cabeef709c732f8e1","686e312047ef40ef598cb043","669f76a7112b8713f104644c","2025-07-09T09:38:27.234Z","","","","","","AttribQ","","","","","","","","","","","","","","","","","","","","","","","","","","","","","","","","","","","","","","50",""
"2051","","<div style=""width:500px;"">
  <p>How much control did you have over the ball?</p>
  </div>","51","html-slider-response","73","1776112","0.0-10.0-2.6","131","1","2025-07-09 09:08:51","7701e855f2ef39aa3fd6c71abdc6918a","41.122.151.251","Mozilla/5.0 (Windows NT 10.0; Win64; x64; rv:140.0) Gecko/20100101 Firefox/140.0","","Firefox","140.0","Windows","10.0","https://app.prolific.com/","en-US,en;q=0.5","669f76a7112b8713f104644c","686d226cabeef709c732f8e1","686e312047ef40ef598cb043","669f76a7112b8713f104644c","2025-07-09T09:38:29.286Z","","","","","","ControlQ","","","","","","","","","","","","","","","","","","","","","","","","","","","","","","","","","","","","","","50",""
"4580","","<div style=""width:500px;"">
  <p>How would you describe your current emotional state?</p>
  </div>","32","html-slider-response","74","1780693","0.0-10.0-3.6","131","1","2025-07-09 09:08:51","7701e855f2ef39aa3fd6c71abdc6918a","41.122.151.251","Mozilla/5.0 (Windows NT 10.0; Win64; x64; rv:140.0) Gecko/20100101 Firefox/140.0","","Firefox","140.0","Windows","10.0","https://app.prolific.com/","en-US,en;q=0.5","669f76a7112b8713f104644c","686d226cabeef709c732f8e1","686e312047ef40ef598cb043","669f76a7112b8713f104644c","2025-07-09T09:38:33.867Z","","","","","","StressQ","","","","","","","","","","","","","","","","","","","","","","","","","","","","","","","","","","","","","","50",""
"5879","","<div style=""width:500px;"">
  <p>What best describes how you currently feel?</p>
  </div>","86","html-slider-response","75","1786573","0.0-10.0-4.6","131","1","2025-07-09 09:08:51","7701e855f2ef39aa3fd6c71abdc6918a","41.122.151.251","Mozilla/5.0 (Windows NT 10.0; Win64; x64; rv:140.0) Gecko/20100101 Firefox/140.0","","Firefox","140.0","Windows","10.0","https://app.prolific.com/","en-US,en;q=0.5","669f76a7112b8713f104644c","686d226cabeef709c732f8e1","686e312047ef40ef598cb043","669f76a7112b8713f104644c","2025-07-09T09:38:39.747Z","","","","","","MotivationQ","","","","","","","","","","","","","","","","","","","","","","","","","","","","","","","","","","","","","","50",""
"","","","","ctl-task-cpt","76","1892836","0.0-10.0-0.7","131","1","2025-07-09 09:08:51","7701e855f2ef39aa3fd6c71abdc6918a","41.122.151.251","Mozilla/5.0 (Windows NT 10.0; Win64; x64; rv:140.0) Gecko/20100101 Firefox/140.0","","Firefox","140.0","Windows","10.0","https://app.prolific.com/","en-US,en;q=0.5","669f76a7112b8713f104644c","686d226cabeef709c732f8e1","686e312047ef40ef598cb043","669f76a7112b8713f104644c","2025-07-09T09:40:26.010Z","","","","","","","","","","","","","","","","win-only","1","g1:NE,g2:SW","0.3","8","0","1789915","2293","7312","103246","1","4","8","6","2","-8","-8","16","24","0.12121212121212122","1754","3000","-960","[""down"",""left""]","{""num_key_presses"":21,""num_perfect"":7,""num_errors"":0,""num_randdir"":14,""num_randdir_good_moves"":5,""num_whilered"":0,""num_whileblue"":0,""num_blue"":8,""num_good_moves"":12}","[293.22857753208706,293.92857448032925,0,293.22857753208706,293.92857448032925,109,293.22857753208706,293.92857448032925,225,293.22857753208706,293.92857448032925,349,293.22857753208706,293.92857448032925,451,252.22857753208706,327.92857448032925,556,168.22857753208706,425.92857448032925,656,116.22857753208706,458.92857448032925,757,115.22857753208706,459.92857448032925,857,104.22857753208706,463.92857448032925,957,95.22857753208706,467.92857448032925,1060,95.22857753208706,467.92857448032925,1164,95.22857753208706,467.92857448032925,1277,68.22857753208706,512.9285744803292,1403,68.22857753208706,512.9285744803292,1533,68.22857753208706,512.9285744803292,1634,68.22857753208706,512.9285744803292,1737,68.22857753208706,512.9285744803292,1844,68.22857753208706,512.9285744803292,1946,68.22857753208706,512.9285744803292,2053,84.22857753208706,498.92857448032925,2166,184.22857753208706,421.92857448032925,2286,236.22857753208706,363.92857448032925,2389,244.22857753208706,350.92857448032925,2494,306.22857753208706,299.92857448032925,2599,327.22857753208706,292.92857448032925,2713,327.22857753208706,292.92857448032925,2832,334.22857753208706,286.92857448032925,2947,343.22857753208706,265.92857448032925,3060,344.22857753208706,263.92857448032925,3177,344.22857753208706,263.92857448032925,3278,344.22857753208706,263.92857448032925,3384,344.22857753208706,263.92857448032925,3495,344.22857753208706,263.92857448032925,3600,344.22857753208706,263.92857448032925,3701,344.22857753208706,263.92857448032925,3801,344.22857753208706,263.92857448032925,3904,344.22857753208706,263.92857448032925,4014,344.22857753208706,263.92857448032925,4125,344.22857753208706,263.92857448032925,4237,344.22857753208706,263.92857448032925,4351,344.22857753208706,263.92857448032925,4451,344.22857753208706,263.92857448032925,4552,344.22857753208706,263.92857448032925,4663,344.22857753208706,263.92857448032925,4781,344.22857753208706,263.92857448032925,4902]","[5753,5753,3181.7,2005,566.3,""oops"",""down"",""left"",""good_move"",8966,3213,1807.5,5753,1405.5,""oops"",""down"",""down"",""good_move"",12131,3165,2725.5,8966,439.5,""smooth"",""down"",""down"",""good_move"",18148,6016,2370.8,15347,430.2,""oops"",""left"",""up"",""bad_move"",25391,7243,3088.4,21940,362.6,""smooth"",""left"",""left"",""good_move"",32098,6707,2514.7,29168,415.3,""oops"",""left"",""left"",""good_move"",35419,3321,2199.7,32098,1121.3,""smooth"",""down"",""down"",""good_move"",38487,3066,2664.9,35421,401.1,""oops"",""down"",""right"",""bad_move"",41858,3369,2935.5,38489,433.5,""oops"",""down"",""right"",""bad_move"",48069,6211,1891.5,45778,399.5,""oops"",""down"",""right"",""bad_move"",51182,3112,2447.7,48070,664.3,""smooth"",""left"",""left"",""good_move"",54237,3055,1884.2,51182,1170.8,""oops"",""left"",""right"",""bad_move"",61676,7437,3452.9,57776,447.1,""oops"",""left"",""up"",""bad_move"",65427,3748,3261,61679,487,""smooth"",""down"",""down"",""good_move"",71288,5859,2530.3,68301,456.7,""smooth"",""down"",""down"",""good_move"",74939,3650,2868.6,71289,781.4,""oops"",""left"",""right"",""bad_move"",81391,6451,2210.2,78737,443.8,""oops"",""left"",""right"",""bad_move"",84595,3203,2770.9,81392,432.1,""oops"",""up"",""up"",""bad_move"",87663,3068,2119,84595,949,""oops"",""left"",""left"",""good_move"",90640,2976,2044.9,87664,931.1,""oops"",""left"",""down"",""good_move"",93210,2569,2168.3,90641,400.7,""smooth"",""left"",""left"",""good_move""]","","",""
"6751","","<div style=""width:500px;"">
  <p>What determined the result of this run?</p>
  </div>","72","html-slider-response","77","1899591","0.0-10.0-1.7","131","1","2025-07-09 09:08:51","7701e855f2ef39aa3fd6c71abdc6918a","41.122.151.251","Mozilla/5.0 (Windows NT 10.0; Win64; x64; rv:140.0) Gecko/20100101 Firefox/140.0","","Firefox","140.0","Windows","10.0","https://app.prolific.com/","en-US,en;q=0.5","669f76a7112b8713f104644c","686d226cabeef709c732f8e1","686e312047ef40ef598cb043","669f76a7112b8713f104644c","2025-07-09T09:40:32.765Z","","","","","","AttribQ","","","","","","","","","","","","","","","","","","","","","","","","","","","","","","","","","","","","","","50",""
"14486","","<div style=""width:500px;"">
  <p>How much control did you have over the ball?</p>
  </div>","33","html-slider-response","78","1914079","0.0-10.0-2.7","131","1","2025-07-09 09:08:51","7701e855f2ef39aa3fd6c71abdc6918a","41.122.151.251","Mozilla/5.0 (Windows NT 10.0; Win64; x64; rv:140.0) Gecko/20100101 Firefox/140.0","","Firefox","140.0","Windows","10.0","https://app.prolific.com/","en-US,en;q=0.5","669f76a7112b8713f104644c","686d226cabeef709c732f8e1","686e312047ef40ef598cb043","669f76a7112b8713f104644c","2025-07-09T09:40:47.253Z","","","","","","ControlQ","","","","","","","","","","","","","","","","","","","","","","","","","","","","","","","","","","","","","","50",""
"2781","","<div style=""width:500px;"">
  <p>How would you describe your current emotional state?</p>
  </div>","28","html-slider-response","79","1916861","0.0-10.0-3.7","131","1","2025-07-09 09:08:51","7701e855f2ef39aa3fd6c71abdc6918a","41.122.151.251","Mozilla/5.0 (Windows NT 10.0; Win64; x64; rv:140.0) Gecko/20100101 Firefox/140.0","","Firefox","140.0","Windows","10.0","https://app.prolific.com/","en-US,en;q=0.5","669f76a7112b8713f104644c","686d226cabeef709c732f8e1","686e312047ef40ef598cb043","669f76a7112b8713f104644c","2025-07-09T09:40:50.035Z","","","","","","StressQ","","","","","","","","","","","","","","","","","","","","","","","","","","","","","","","","","","","","","","50",""
"3028","","<div style=""width:500px;"">
  <p>What best describes how you currently feel?</p>
  </div>","84","html-slider-response","80","1919891","0.0-10.0-4.7","131","1","2025-07-09 09:08:51","7701e855f2ef39aa3fd6c71abdc6918a","41.122.151.251","Mozilla/5.0 (Windows NT 10.0; Win64; x64; rv:140.0) Gecko/20100101 Firefox/140.0","","Firefox","140.0","Windows","10.0","https://app.prolific.com/","en-US,en;q=0.5","669f76a7112b8713f104644c","686d226cabeef709c732f8e1","686e312047ef40ef598cb043","669f76a7112b8713f104644c","2025-07-09T09:40:53.065Z","","","","","","MotivationQ","","","","","","","","","","","","","","","","","","","","","","","","","","","","","","","","","","","","","","50",""
"","","","","ctl-task-cpt","81","1998149","0.0-10.0-0.8","131","1","2025-07-09 09:08:51","7701e855f2ef39aa3fd6c71abdc6918a","41.122.151.251","Mozilla/5.0 (Windows NT 10.0; Win64; x64; rv:140.0) Gecko/20100101 Firefox/140.0","","Firefox","140.0","Windows","10.0","https://app.prolific.com/","en-US,en;q=0.5","669f76a7112b8713f104644c","686d226cabeef709c732f8e1","686e312047ef40ef598cb043","669f76a7112b8713f104644c","2025-07-09T09:42:11.323Z","","","","","","","","","","","","","","","","win-only","0","g1:NW,g2:SE","0.2","9","0","1923234","1499","6504","75243","1","4","4","6","2","-4","-6","10","16","0.07575757575757576","1977","3000","-915","[""down"",""right""]","{""num_key_presses"":20,""num_perfect"":4,""num_errors"":2,""num_randdir"":14,""num_randdir_good_moves"":6,""num_whilered"":0,""num_whileblue"":1,""num_blue"":3,""num_good_moves"":11}","[301.22857753208706,302.92857448032925,0,301.22857753208706,302.92857448032925,112,301.22857753208706,302.92857448032925,218,301.22857753208706,302.92857448032925,333,266.22857753208706,345.92857448032925,435,257.22857753208706,359.92857448032925,544,259.22857753208706,364.92857448032925,647,259.22857753208706,364.92857448032925,769,326.22857753208706,419.92857448032925,881,417.22857753208706,479.92857448032925,985,444.22857753208706,498.92857448032925,1096,456.22857753208706,538.9285744803292,1211,456.22857753208706,538.9285744803292,1312,456.22857753208706,538.9285744803292,1412,469.22857753208706,538.9285744803292,1532,507.22857753208706,539.9285744803292,1639,510.22857753208706,540.9285744803292,1750,510.22857753208706,540.9285744803292,1859,510.22857753208706,540.9285744803292,1980,510.22857753208706,540.9285744803292,2088,510.22857753208706,540.9285744803292,2195,510.22857753208706,540.9285744803292,2297,476.22857753208706,522.9285744803292,2411,315.22857753208706,402.92857448032925,2529,293.22857753208706,358.92857448032925,2646,282.22857753208706,343.92857448032925,2760,282.22857753208706,343.92857448032925,2867,282.22857753208706,343.92857448032925,2970,268.22857753208706,317.92857448032925,3071,259.22857753208706,300.92857448032925,3178,253.22857753208706,288.92857448032925,3299,250.22857753208706,255.92857448032925,3417,249.22857753208706,254.92857448032925,3520,249.22857753208706,254.92857448032925,3646,249.22857753208706,254.92857448032925,3759,249.22857753208706,254.92857448032925,3873,249.22857753208706,254.92857448032925,3991,249.22857753208706,254.92857448032925,4094,249.22857753208706,254.92857448032925,4213,249.22857753208706,254.92857448032925,4313,249.22857753208706,254.92857448032925,4426,249.22857753208706,254.92857448032925,4532,249.22857753208706,254.92857448032925,4637,249.22857753208706,254.92857448032925,4742,249.22857753208706,254.92857448032925,4844,249.22857753208706,254.92857448032925,4946]","[1603,1603,1000,0,603,""oops"",""down"",""left"",""bad_move"",4794,3190,2097.9,1604,1092.1,""oops"",""right"",""up"",""bad_move"",8012,3217,2365.7,4795,851.3,""oops"",""down"",""right"",""good_move"",11226,3214,2757.3,8012,456.7,""smooth"",""right"",""right"",""good_move"",14078,2852,2402,11226,450,""oops"",""right"",""left"",""bad_move"",17513,3435,2154.8,14078,1280.2,""oops"",""right"",""left"",""bad_move"",21047,3532,2974.1,17515,557.9,""smooth"",""down"",""down"",""good_move"",24020,2972,2442.2,21048,529.8,""oops"",""down"",""right"",""good_move"",26713,2693,2212.8,24020,480.2,""oops"",""down"",""left"",""bad_move"",29907,3194,2844,26713,350,""while_blue"",""right"",""right"",""good_move"",33618,3711,3207,29907,504,""oops"",""down"",""left"",""bad_move"",40397,6779,2484.1,37427,485.9,""oops"",""down"",""right"",""good_move"",44258,3861,3332.5,40397,528.5,""smooth"",""right"",""right"",""good_move"",47505,3247,2095,44258,1152,""oops"",""right"",""up"",""bad_move"",50976,3470,3045.3,47506,424.7,""smooth"",""down"",""down"",""good_move"",53367,2391,1982.8,50976,408.2,""oops"",""down"",""left"",""bad_move"",56545,3178,2791.1,53367,386.9,""oops"",""right"",""right"",""good_move"",61995,5450,2516,59095,384,""oops"",""right"",""down"",""good_move"",65172,3177,2149.4,61995,1027.6,""oops"",""down"",""right"",""good_move"",65348,175,2420.4,65173,-2245.4,""error"",""-"",""-"",""no_move""]","","",""
"3528","","<div style=""width:500px;"">
  <p>What determined the result of this run?</p>
  </div>","71","html-slider-response","82","2001679","0.0-10.0-1.8","131","1","2025-07-09 09:08:51","7701e855f2ef39aa3fd6c71abdc6918a","41.122.151.251","Mozilla/5.0 (Windows NT 10.0; Win64; x64; rv:140.0) Gecko/20100101 Firefox/140.0","","Firefox","140.0","Windows","10.0","https://app.prolific.com/","en-US,en;q=0.5","669f76a7112b8713f104644c","686d226cabeef709c732f8e1","686e312047ef40ef598cb043","669f76a7112b8713f104644c","2025-07-09T09:42:14.853Z","","","","","","AttribQ","","","","","","","","","","","","","","","","","","","","","","","","","","","","","","","","","","","","","","50",""
"2474","","<div style=""width:500px;"">
  <p>How much control did you have over the ball?</p>
  </div>","72","html-slider-response","83","2004154","0.0-10.0-2.8","131","1","2025-07-09 09:08:51","7701e855f2ef39aa3fd6c71abdc6918a","41.122.151.251","Mozilla/5.0 (Windows NT 10.0; Win64; x64; rv:140.0) Gecko/20100101 Firefox/140.0","","Firefox","140.0","Windows","10.0","https://app.prolific.com/","en-US,en;q=0.5","669f76a7112b8713f104644c","686d226cabeef709c732f8e1","686e312047ef40ef598cb043","669f76a7112b8713f104644c","2025-07-09T09:42:17.328Z","","","","","","ControlQ","","","","","","","","","","","","","","","","","","","","","","","","","","","","","","","","","","","","","","50",""
"3261","","<div style=""width:500px;"">
  <p>How would you describe your current emotional state?</p>
  </div>","34","html-slider-response","84","2007417","0.0-10.0-3.8","131","1","2025-07-09 09:08:51","7701e855f2ef39aa3fd6c71abdc6918a","41.122.151.251","Mozilla/5.0 (Windows NT 10.0; Win64; x64; rv:140.0) Gecko/20100101 Firefox/140.0","","Firefox","140.0","Windows","10.0","https://app.prolific.com/","en-US,en;q=0.5","669f76a7112b8713f104644c","686d226cabeef709c732f8e1","686e312047ef40ef598cb043","669f76a7112b8713f104644c","2025-07-09T09:42:20.591Z","","","","","","StressQ","","","","","","","","","","","","","","","","","","","","","","","","","","","","","","","","","","","","","","50",""
"2591","","<div style=""width:500px;"">
  <p>What best describes how you currently feel?</p>
  </div>","79","html-slider-response","85","2010009","0.0-10.0-4.8","131","1","2025-07-09 09:08:51","7701e855f2ef39aa3fd6c71abdc6918a","41.122.151.251","Mozilla/5.0 (Windows NT 10.0; Win64; x64; rv:140.0) Gecko/20100101 Firefox/140.0","","Firefox","140.0","Windows","10.0","https://app.prolific.com/","en-US,en;q=0.5","669f76a7112b8713f104644c","686d226cabeef709c732f8e1","686e312047ef40ef598cb043","669f76a7112b8713f104644c","2025-07-09T09:42:23.183Z","","","","","","MotivationQ","","","","","","","","","","","","","","","","","","","","","","","","","","","","","","","","","","","","","","50",""
"","","","","ctl-task-cpt","86","2043001","0.0-10.0-0.9","131","1","2025-07-09 09:08:51","7701e855f2ef39aa3fd6c71abdc6918a","41.122.151.251","Mozilla/5.0 (Windows NT 10.0; Win64; x64; rv:140.0) Gecko/20100101 Firefox/140.0","","Firefox","140.0","Windows","10.0","https://app.prolific.com/","en-US,en;q=0.5","669f76a7112b8713f104644c","686d226cabeef709c732f8e1","686e312047ef40ef598cb043","669f76a7112b8713f104644c","2025-07-09T09:42:56.175Z","","","","","","","","","","","","","","","","win-only","3","g1:SW,g2:NE","0.4","10","0","2013353","1582","6587","29975","1","4","8","6","2","8","8","18","10","0.13636363636363635","1424","3000","1790","[""up"",""right""]","{""num_key_presses"":8,""num_perfect"":3,""num_errors"":0,""num_randdir"":5,""num_randdir_good_moves"":4,""num_whilered"":0,""num_whileblue"":0,""num_blue"":0,""num_good_moves"":7}","[302.22857753208706,295.92857448032925,2,302.22857753208706,295.92857448032925,106,302.22857753208706,295.92857448032925,206,302.22857753208706,295.92857448032925,312,302.22857753208706,295.92857448032925,423,302.22857753208706,295.92857448032925,535,393.22857753208706,195.92857448032925,660,453.22857753208706,168.92857448032925,769,453.22857753208706,168.92857448032925,869,479.22857753208706,132.92857448032925,983,527.228577532087,61.92857448032924,1087,529.228577532087,59.92857448032924,1194,529.228577532087,59.92857448032924,1303,529.228577532087,59.92857448032924,1428,529.228577532087,59.92857448032924,1537,529.228577532087,59.92857448032924,1640,529.228577532087,59.92857448032924,1743,529.228577532087,59.92857448032924,1860,499.22857753208706,89.92857448032925,1960,379.22857753208706,190.92857448032925,2077,298.22857753208706,282.92857448032925,2195,264.22857753208706,322.92857448032925,2306,264.22857753208706,322.92857448032925,2419,259.22857753208706,329.92857448032925,2524,259.22857753208706,330.92857448032925,2633,259.22857753208706,330.92857448032925,2735,259.22857753208706,330.92857448032925,2838,259.22857753208706,330.92857448032925,2951,259.22857753208706,330.92857448032925,3059,259.22857753208706,330.92857448032925,3174,259.22857753208706,330.92857448032925,3274,259.22857753208706,330.92857448032925,3388,259.22857753208706,330.92857448032925,3506,259.22857753208706,330.92857448032925,3617,259.22857753208706,330.92857448032925,3723,259.22857753208706,330.92857448032925,3832,259.22857753208706,330.92857448032925,3939,259.22857753208706,330.92857448032925,4056,259.22857753208706,330.92857448032925,4160,259.22857753208706,330.92857448032925,4268,259.22857753208706,330.92857448032925,4368,259.22857753208706,330.92857448032925,4473,259.22857753208706,330.92857448032925,4589,259.22857753208706,330.92857448032925,4692,259.22857753208706,330.92857448032925,4801,259.22857753208706,330.92857448032925,4914]","[1511,1511,1000,0,511,""oops"",""up"",""up"",""good_move"",5273,3762,3266.5,1511,495.5,""oops"",""up"",""right"",""good_move"",7717,2444,1677.3,5273,766.7,""oops"",""up"",""up"",""good_move"",10782,3064,2625.8,7718,438.2,""oops"",""up"",""left"",""bad_move"",14100,3317,2879.6,10783,437.4,""oops"",""right"",""up"",""good_move"",17094,2993,2508.6,14101,484.4,""smooth"",""right"",""right"",""good_move"",20266,3172,2787.1,17094,384.9,""smooth"",""right"",""right"",""good_move"",23090,2824,2442.3,20266,381.7,""smooth"",""right"",""right"",""good_move""]","","",""
"2273","","<div style=""width:500px;"">
  <p>What determined the result of this run?</p>
  </div>","72","html-slider-response","87","2045276","0.0-10.0-1.9","131","1","2025-07-09 09:08:51","7701e855f2ef39aa3fd6c71abdc6918a","41.122.151.251","Mozilla/5.0 (Windows NT 10.0; Win64; x64; rv:140.0) Gecko/20100101 Firefox/140.0","","Firefox","140.0","Windows","10.0","https://app.prolific.com/","en-US,en;q=0.5","669f76a7112b8713f104644c","686d226cabeef709c732f8e1","686e312047ef40ef598cb043","669f76a7112b8713f104644c","2025-07-09T09:42:58.450Z","","","","","","AttribQ","","","","","","","","","","","","","","","","","","","","","","","","","","","","","","","","","","","","","","50",""
"2640","","<div style=""width:500px;"">
  <p>How much control did you have over the ball?</p>
  </div>","74","html-slider-response","88","2047918","0.0-10.0-2.9","131","1","2025-07-09 09:08:51","7701e855f2ef39aa3fd6c71abdc6918a","41.122.151.251","Mozilla/5.0 (Windows NT 10.0; Win64; x64; rv:140.0) Gecko/20100101 Firefox/140.0","","Firefox","140.0","Windows","10.0","https://app.prolific.com/","en-US,en;q=0.5","669f76a7112b8713f104644c","686d226cabeef709c732f8e1","686e312047ef40ef598cb043","669f76a7112b8713f104644c","2025-07-09T09:43:01.092Z","","","","","","ControlQ","","","","","","","","","","","","","","","","","","","","","","","","","","","","","","","","","","","","","","50",""
"2777","","<div style=""width:500px;"">
  <p>How would you describe your current emotional state?</p>
