"rt","response_timestamp","stimulus","response","trial_type","trial_index","time_elapsed","internal_node_id","run_id","condition","recorded_at","source_code_version","ip","user_agent","device","browser","browser_version","platform","platform_version","referer","accept_language","PROLIFIC_PID","STUDY_ID","SESSION_ID","prolific_id","realtime","view_history","question_order","consent","success","question_id","eventType","responses","item_order","radio_event_ids","radio_event_times","key_event_times","mouse_event_times","straightlining","zigzagging","honeypot","which_type","canvas_config","goals_layout","control_level","trial_number","tutorial_trial_number","trial_start_time","phase1_start_time","phase2_start_time","phase3_start_time","goal_1_value","goal_1_distance","goal_2_value","goal_2_distance","goal_selected","outcome","outcome_total","participant_final_score","participant_initial_score","participant_final_score_prop","goal_choice_rt","allocated_time","allocated_time_remaining","goal_direction","counts","mouse_movements","key_presses","correct","slider_start"
"175167","1752052184052","<p style='font-size:40px;line-height:1.25'><strong>Welcome to the experiment!</strong></p><p style='font-size:1.1em;line-height:1.25'>Thank you for your interest in our experiment! Before you begin, it is important that we obtain your informed consent to participate in the study.</p><p style='font-size:1.1em;line-height:1.25'>On the next screen will be an <strong>information sheet</strong> for you to read. To participate in the study we need you to read this information sheet and the following consent form carefully. If you agree with all the statements, please click the <strong>I agree</strong> button.</p><p style='font-size:1.1em;line-height:1.25'>Press <strong>Next</strong> to read the information sheet.</p>","0","custom-html-button-response","0","175170","0.0-0.0","20","1","2025-07-09 09:06:44","7701e855f2ef39aa3fd6c71abdc6918a","165.165.122.131","Mozilla/5.0 (Windows NT 10.0; Win64; x64) AppleWebKit/537.36 (KHTML, like Gecko) Chrome/138.0.0.0 Safari/537.36","WebKit","Chrome","138.0.0.0","Windows","10.0","https://app.prolific.com/","en-GB,en-US;q=0.9,en;q=0.8","6736f4a8fe83ffce0936bdc4","686d226cabeef709c732f8e1","686e310aa01d4df5dc429d07","6736f4a8fe83ffce0936bdc4","2025-07-09T09:09:44.054Z","","","","","","","","","","","","","","","","","","","","","","","","","","","","","","","","","","","","","","","","","","","",""
"155798","","","","instructions","1","330974","0.0-1.0","20","1","2025-07-09 09:06:44","7701e855f2ef39aa3fd6c71abdc6918a","165.165.122.131","Mozilla/5.0 (Windows NT 10.0; Win64; x64) AppleWebKit/537.36 (KHTML, like Gecko) Chrome/138.0.0.0 Safari/537.36","WebKit","Chrome","138.0.0.0","Windows","10.0","https://app.prolific.com/","en-GB,en-US;q=0.9,en;q=0.8","6736f4a8fe83ffce0936bdc4","686d226cabeef709c732f8e1","686e310aa01d4df5dc429d07","6736f4a8fe83ffce0936bdc4","","[{""page_index"":0,""viewing_time"":114858},{""page_index"":1,""viewing_time"":40938}]","","","","","","","","","","","","","","","","","","","","","","","","","","","","","","","","","","","","","","","","","","",""
"9067","","","{""Q0"":"""",""Q1"":"""",""Q2"":"""",""Q3"":"""",""Q4"":"""",""Q5"":"""",""Q6"":""I agree""}","survey-multi-choice","2","340046","0.0-2.0","20","1","2025-07-09 09:06:44","7701e855f2ef39aa3fd6c71abdc6918a","165.165.122.131","Mozilla/5.0 (Windows NT 10.0; Win64; x64) AppleWebKit/537.36 (KHTML, like Gecko) Chrome/138.0.0.0 Safari/537.36","WebKit","Chrome","138.0.0.0","Windows","10.0","https://app.prolific.com/","en-GB,en-US;q=0.9,en;q=0.8","6736f4a8fe83ffce0936bdc4","686d226cabeef709c732f8e1","686e310aa01d4df5dc429d07","6736f4a8fe83ffce0936bdc4","","","[0,1,2,3,4,5,6]","true","","","","","","","","","","","","","","","","","","","","","","","","","","","","","","","","","","","","","","","","",""
"13609","","","","fullscreen","3","354665","0.0-4.0","20","1","2025-07-09 09:06:44","7701e855f2ef39aa3fd6c71abdc6918a","165.165.122.131","Mozilla/5.0 (Windows NT 10.0; Win64; x64) AppleWebKit/537.36 (KHTML, like Gecko) Chrome/138.0.0.0 Safari/537.36","WebKit","Chrome","138.0.0.0","Windows","10.0","https://app.prolific.com/","en-GB,en-US;q=0.9,en;q=0.8","6736f4a8fe83ffce0936bdc4","686d226cabeef709c732f8e1","686e310aa01d4df5dc429d07","6736f4a8fe83ffce0936bdc4","","","","","true","","","","","","","","","","","","","","","","","","","","","","","","","","","","","","","","","","","","","","","",""
"10816","1752052374373"," <p style='font-size:1.1em;line-height:1.25'>Thank you for completing the consent form and closing all other tabs.</p><p style='font-size:1.1em;line-height:1.25'>We will now invite you to fill in some demographic information and questionnaires, before starting the game.<br>This will take about 5 minutes.<br></p><p style='font-size:1.1em;line-height:1.25'>Press the <strong>Next</strong> button to continue.</p>","0","custom-html-button-response","4","365491","0.0-5.0","20","1","2025-07-09 09:06:44","7701e855f2ef39aa3fd6c71abdc6918a","165.165.122.131","Mozilla/5.0 (Windows NT 10.0; Win64; x64) AppleWebKit/537.36 (KHTML, like Gecko) Chrome/138.0.0.0 Safari/537.36","WebKit","Chrome","138.0.0.0","Windows","10.0","https://app.prolific.com/","en-GB,en-US;q=0.9,en;q=0.8","6736f4a8fe83ffce0936bdc4","686d226cabeef709c732f8e1","686e310aa01d4df5dc429d07","6736f4a8fe83ffce0936bdc4","2025-07-09T09:12:54.374Z","","","","","","","","","","","","","","","","","","","","","","","","","","","","","","","","","","","","","","","","","","","",""
"19861","","","{""age"":""32""}","survey-text","5","385366","0.0-6.0-0.0","20","1","2025-07-09 09:06:44","7701e855f2ef39aa3fd6c71abdc6918a","165.165.122.131","Mozilla/5.0 (Windows NT 10.0; Win64; x64) AppleWebKit/537.36 (KHTML, like Gecko) Chrome/138.0.0.0 Safari/537.36","WebKit","Chrome","138.0.0.0","Windows","10.0","https://app.prolific.com/","en-GB,en-US;q=0.9,en;q=0.8","6736f4a8fe83ffce0936bdc4","686d226cabeef709c732f8e1","686e310aa01d4df5dc429d07","6736f4a8fe83ffce0936bdc4","","","","","","0","demographics","","","","","","","","","","","","","","","","","","","","","","","","","","","","","","","","","","","","","",""
"4106","","","{""gender_identity"":""female/woman""}","survey-multi-choice","6","389475","0.0-6.0-1.0","20","1","2025-07-09 09:06:44","7701e855f2ef39aa3fd6c71abdc6918a","165.165.122.131","Mozilla/5.0 (Windows NT 10.0; Win64; x64) AppleWebKit/537.36 (KHTML, like Gecko) Chrome/138.0.0.0 Safari/537.36","WebKit","Chrome","138.0.0.0","Windows","10.0","https://app.prolific.com/","en-GB,en-US;q=0.9,en;q=0.8","6736f4a8fe83ffce0936bdc4","686d226cabeef709c732f8e1","686e310aa01d4df5dc429d07","6736f4a8fe83ffce0936bdc4","","","[0]","","","1","demographics","","","","","","","","","","","","","","","","","","","","","","","","","","","","","","","","","","","","","",""
"5430","","","{""assigned_sex"":""female""}","survey-multi-choice","7","394908","0.0-6.0-2.0","20","1","2025-07-09 09:06:44","7701e855f2ef39aa3fd6c71abdc6918a","165.165.122.131","Mozilla/5.0 (Windows NT 10.0; Win64; x64) AppleWebKit/537.36 (KHTML, like Gecko) Chrome/138.0.0.0 Safari/537.36","WebKit","Chrome","138.0.0.0","Windows","10.0","https://app.prolific.com/","en-GB,en-US;q=0.9,en;q=0.8","6736f4a8fe83ffce0936bdc4","686d226cabeef709c732f8e1","686e310aa01d4df5dc429d07","6736f4a8fe83ffce0936bdc4","","","[0]","","","2","demographics","","","","","","","","","","","","","","","","","","","","","","","","","","","","","","","","","","","","","",""
"7584","","","{""menstrual_cycle"":""Yes""}","survey-multi-choice","8","402493","0.0-6.0-3.0","20","1","2025-07-09 09:06:44","7701e855f2ef39aa3fd6c71abdc6918a","165.165.122.131","Mozilla/5.0 (Windows NT 10.0; Win64; x64) AppleWebKit/537.36 (KHTML, like Gecko) Chrome/138.0.0.0 Safari/537.36","WebKit","Chrome","138.0.0.0","Windows","10.0","https://app.prolific.com/","en-GB,en-US;q=0.9,en;q=0.8","6736f4a8fe83ffce0936bdc4","686d226cabeef709c732f8e1","686e310aa01d4df5dc429d07","6736f4a8fe83ffce0936bdc4","","","[0]","","","4","demographics","","","","","","","","","","","","","","","","","","","","","","","","","","","","","","","","","","","","","",""
"7602","","","{""education"":""Bachelor's Degree (e.g., BA)""}","survey-multi-choice","9","410097","0.0-6.0-4.0","20","1","2025-07-09 09:06:44","7701e855f2ef39aa3fd6c71abdc6918a","165.165.122.131","Mozilla/5.0 (Windows NT 10.0; Win64; x64) AppleWebKit/537.36 (KHTML, like Gecko) Chrome/138.0.0.0 Safari/537.36","WebKit","Chrome","138.0.0.0","Windows","10.0","https://app.prolific.com/","en-GB,en-US;q=0.9,en;q=0.8","6736f4a8fe83ffce0936bdc4","686d226cabeef709c732f8e1","686e310aa01d4df5dc429d07","6736f4a8fe83ffce0936bdc4","","","[0]","","","5","demographics","","","","","","","","","","","","","","","","","","","","","","","","","","","","","","","","","","","","","",""
"42682","","","{""education"":""Bachelor's Degree (e.g., BA)""}","survey-multi-choice","10","452781","0.0-6.0-5.0","20","1","2025-07-09 09:06:44","7701e855f2ef39aa3fd6c71abdc6918a","165.165.122.131","Mozilla/5.0 (Windows NT 10.0; Win64; x64) AppleWebKit/537.36 (KHTML, like Gecko) Chrome/138.0.0.0 Safari/537.36","WebKit","Chrome","138.0.0.0","Windows","10.0","https://app.prolific.com/","en-GB,en-US;q=0.9,en;q=0.8","6736f4a8fe83ffce0936bdc4","686d226cabeef709c732f8e1","686e310aa01d4df5dc429d07","6736f4a8fe83ffce0936bdc4","2025-07-09T09:14:21.664Z","","[0]","","","6","demographics","","","","","","","","","","","","","","","","","","","","","","","","","","","","","","","","","","","","","",""
"35770","","","{""mental_health_condition"":""no"",""mental_health_treatment"":""no"",""psychiatric_medication"":""no""}","survey-text","11","488569","0.0-7.0-0.0","20","1","2025-07-09 09:06:44","7701e855f2ef39aa3fd6c71abdc6918a","165.165.122.131","Mozilla/5.0 (Windows NT 10.0; Win64; x64) AppleWebKit/537.36 (KHTML, like Gecko) Chrome/138.0.0.0 Safari/537.36","WebKit","Chrome","138.0.0.0","Windows","10.0","https://app.prolific.com/","en-GB,en-US;q=0.9,en;q=0.8","6736f4a8fe83ffce0936bdc4","686d226cabeef709c732f8e1","686e310aa01d4df5dc429d07","6736f4a8fe83ffce0936bdc4","2025-07-09T09:14:57.452Z","","","","","1","mental_health","","","","","","","","","","","","","","","","","","","","","","","","","","","","","","","","","","","","","",""
"17868","","","{""depression_history"":[""No""]}","survey-multi-select","12","506442","0.0-7.0-1.0","20","1","2025-07-09 09:06:44","7701e855f2ef39aa3fd6c71abdc6918a","165.165.122.131","Mozilla/5.0 (Windows NT 10.0; Win64; x64) AppleWebKit/537.36 (KHTML, like Gecko) Chrome/138.0.0.0 Safari/537.36","WebKit","Chrome","138.0.0.0","Windows","10.0","https://app.prolific.com/","en-GB,en-US;q=0.9,en;q=0.8","6736f4a8fe83ffce0936bdc4","686d226cabeef709c732f8e1","686e310aa01d4df5dc429d07","6736f4a8fe83ffce0936bdc4","","","[0]","","","","mental_health","","","","","","","","","","","","","","","","","","","","","","","","","","","","","","","","","","","","","",""
"119092.59999999963","","","","survey-template","13","625542","0.0-7.0-3.0","20","1","2025-07-09 09:06:44","7701e855f2ef39aa3fd6c71abdc6918a","165.165.122.131","Mozilla/5.0 (Windows NT 10.0; Win64; x64) AppleWebKit/537.36 (KHTML, like Gecko) Chrome/138.0.0.0 Safari/537.36","WebKit","Chrome","138.0.0.0","Windows","10.0","https://app.prolific.com/","en-GB,en-US;q=0.9,en;q=0.8","6736f4a8fe83ffce0936bdc4","686d226cabeef709c732f8e1","686e310aa01d4df5dc429d07","6736f4a8fe83ffce0936bdc4","2025-07-09T09:17:14.425Z","","","","","","ius","{""Q01"":""1"",""Q02"":""4"",""Q03"":""0"",""Q04"":""4"",""Q05"":""0"",""Q06"":""0"",""Q07"":""0"",""Q08"":""0"",""Q09"":""4"",""Q10"":""1"",""Q11"":""0"",""Q12"":""4"",""Q13"":""4""}","[0,1,2,3,4,5,6,7,8,9,10,11,12]","[""Q01"",""Q02"",""Q03"",""Q04"",""Q05"",""Q06"",""Q07"",""Q08"",""Q09"",""Q10"",""Q11"",""Q12"",""Q13""]","[49025.199999999255,54354.79999999888,58458.699999999255,63644.40000000037,71735,78615.19999999925,82890.59999999963,87365.40000000037,91503.79999999888,104642.69999999925,109101.79999999888,112923,117881.09999999963]","[]","[49025.199999999255,54354.79999999888,58458.699999999255,63644.40000000037,71735,78615.19999999925,82890.59999999963,86158.19999999925,87365.40000000037,91503.79999999888,104642.69999999925,109101.79999999888,112923,117881.09999999963,119090]","0.46153846153846156","0.5","0","","","","","","","","","","","","","","","","","","","","","","","","","","","","",""
"8510","1752052642937","<p style='font-size:1.1em;line-height:1.25'>In the following, we will ask you a few questions relating to your experiences over the past month.<br></p><p style='font-size:1.1em;line-height:1.25'>Press the <strong>Next</strong> button to continue.</p>","0","custom-html-button-response","14","634054","0.0-7.0-4.0","20","1","2025-07-09 09:06:44","7701e855f2ef39aa3fd6c71abdc6918a","165.165.122.131","Mozilla/5.0 (Windows NT 10.0; Win64; x64) AppleWebKit/537.36 (KHTML, like Gecko) Chrome/138.0.0.0 Safari/537.36","WebKit","Chrome","138.0.0.0","Windows","10.0","https://app.prolific.com/","en-GB,en-US;q=0.9,en;q=0.8","6736f4a8fe83ffce0936bdc4","686d226cabeef709c732f8e1","686e310aa01d4df5dc429d07","6736f4a8fe83ffce0936bdc4","2025-07-09T09:17:22.937Z","","","","","","","","","","","","","","","","","","","","","","","","","","","","","","","","","","","","","","","","","","","",""
"71762.90000000037","","","","survey-template","15","705822","0.0-7.0-5.0","20","1","2025-07-09 09:06:44","7701e855f2ef39aa3fd6c71abdc6918a","165.165.122.131","Mozilla/5.0 (Windows NT 10.0; Win64; x64) AppleWebKit/537.36 (KHTML, like Gecko) Chrome/138.0.0.0 Safari/537.36","WebKit","Chrome","138.0.0.0","Windows","10.0","https://app.prolific.com/","en-GB,en-US;q=0.9,en;q=0.8","6736f4a8fe83ffce0936bdc4","686d226cabeef709c732f8e1","686e310aa01d4df5dc429d07","6736f4a8fe83ffce0936bdc4","2025-07-09T09:18:34.705Z","","","","","","pss","{""Q01"":""1"",""Q02"":""0"",""Q03"":""2"",""Q04"":""0"",""Q05"":""0"",""Q06"":""0"",""Q07"":""0"",""Q08"":""0"",""Q09"":""2"",""Q10"":""0""}","[0,1,2,3,4,5,6,7,8,9]","[""Q01"",""Q02"",""Q03"",""Q04"",""Q05"",""Q06"",""Q07"",""Q08"",""Q09"",""Q10""]","[8967.300000000745,14415.800000000745,21691.300000000745,27435.900000000373,34243.5,41626.10000000149,48424.10000000149,57143.5,64738.800000000745,70620.30000000075]","[]","[0,8967.300000000745,14415.800000000745,21691.300000000745,27435.900000000373,34243.5,41626.10000000149,46850.40000000037,48424.10000000149,57143.5,64738.800000000745,70620.30000000075,71759.60000000149]","0.4","0.3333333333333333","0","","","","","","","","","","","","","","","","","","","","","","","","","","","","",""
"5904","1752052720610","<p style='font-size:1.1em;line-height:1.25'>Thank you for your answers! Now we will ask you a few more questions relating to your feelings in the last 24 hours.<br></p><p style='font-size:1.1em;line-height:1.25'>Press the <strong>Next</strong> button to continue.</p>","0","custom-html-button-response","16","711728","0.0-7.0-6.0","20","1","2025-07-09 09:06:44","7701e855f2ef39aa3fd6c71abdc6918a","165.165.122.131","Mozilla/5.0 (Windows NT 10.0; Win64; x64) AppleWebKit/537.36 (KHTML, like Gecko) Chrome/138.0.0.0 Safari/537.36","WebKit","Chrome","138.0.0.0","Windows","10.0","https://app.prolific.com/","en-GB,en-US;q=0.9,en;q=0.8","6736f4a8fe83ffce0936bdc4","686d226cabeef709c732f8e1","686e310aa01d4df5dc429d07","6736f4a8fe83ffce0936bdc4","2025-07-09T09:18:40.611Z","","","","","","","","","","","","","","","","","","","","","","","","","","","","","","","","","","","","","","","","","","","",""
"92301.80000000075","","","","survey-template","17","804037","0.0-7.0-7.0","20","1","2025-07-09 09:06:44","7701e855f2ef39aa3fd6c71abdc6918a","165.165.122.131","Mozilla/5.0 (Windows NT 10.0; Win64; x64) AppleWebKit/537.36 (KHTML, like Gecko) Chrome/138.0.0.0 Safari/537.36","WebKit","Chrome","138.0.0.0","Windows","10.0","https://app.prolific.com/","en-GB,en-US;q=0.9,en;q=0.8","6736f4a8fe83ffce0936bdc4","686d226cabeef709c732f8e1","686e310aa01d4df5dc429d07","6736f4a8fe83ffce0936bdc4","2025-07-09T09:20:12.920Z","","","","","","drsp","{""Q01"":""0"",""Q02"":""0"",""Q03"":""0"",""Q04"":""0"",""Q05"":""0"",""Q06"":""0"",""Q07"":""0"",""Q08"":""0"",""Q09"":""0"",""Q10"":""0"",""Q11"":""0"",""Q12"":""3"",""Q13"":""3"",""Q14"":""0"",""Q15"":""0"",""Q16"":""0"",""Q17"":""0"",""Q18"":""2"",""Q19"":""0"",""Q20"":""0"",""Q21"":""0""}","[0,1,2,3,4,5,6,7,8,9,10,11,12,13,14,15,16,17,18,19,20]","[""Q01"",""Q03"",""Q04"",""Q05"",""Q06"",""Q07"",""Q09"",""Q08"",""Q10"",""Q11"",""Q12"",""Q13"",""Q14"",""Q15"",""Q16"",""Q17"",""Q18"",""Q19"",""Q21"",""Q02"",""Q20""]","[2928.300000000745,6046.4000000003725,7420.800000000745,8759.800000000745,11296.800000000745,14010.5,17095.700000001118,19187.900000000373,22674.200000001118,24452.800000000745,29979,34658.800000000745,38959.90000000037,41292,44759.300000000745,45800.10000000149,61968.5,71635.80000000075,78499.70000000112,84805.60000000149,90787.30000000075]","[]","[0,2928.300000000745,4255.700000001118,6046.4000000003725,7420.800000000745,8759.800000000745,11296.800000000745,14010.5,15322,17095.700000001118,18374.10000000149,19187.900000000373,22674.200000001118,24452.800000000745,29979,34658.800000000745,38959.90000000037,41292,42319.300000000745,44759.300000000745,45800.10000000149,61968.5,71635.80000000075,75811.90000000037,78499.70000000112,79752.20000000112,84805.60000000149,87621.60000000149,90787.30000000075,92298.40000000037]","0.8571428571428571","0","0","","","","","","","","","","","","","","","","","","","","","","","","","","","","",""
"18132.099999999627","","","","survey-template","18","822172","0.0-7.0-8.0","20","1","2025-07-09 09:06:44","7701e855f2ef39aa3fd6c71abdc6918a","165.165.122.131","Mozilla/5.0 (Windows NT 10.0; Win64; x64) AppleWebKit/537.36 (KHTML, like Gecko) Chrome/138.0.0.0 Safari/537.36","WebKit","Chrome","138.0.0.0","Windows","10.0","https://app.prolific.com/","en-GB,en-US;q=0.9,en;q=0.8","6736f4a8fe83ffce0936bdc4","686d226cabeef709c732f8e1","686e310aa01d4df5dc429d07","6736f4a8fe83ffce0936bdc4","2025-07-09T09:20:31.055Z","","","","","","stress","{""Q01"":""0"",""Q02"":""1"",""Q03"":""0""}","[0,1,2]","[""Q01"",""Q02"",""Q03""]","[4056.7999999988824,12802.39999999851,16880.299999998882]","[]","[4056.7999999988824,12802.39999999851,16880.299999998882,18130.699999999255]","0.6666666666666666","0","0","","","","","","","","","","","","","","","","","","","","","","","","","","","","",""
"137338","","","","instructions","19","959511","0.0-8.0-0.0","20","1","2025-07-09 09:06:44","7701e855f2ef39aa3fd6c71abdc6918a","165.165.122.131","Mozilla/5.0 (Windows NT 10.0; Win64; x64) AppleWebKit/537.36 (KHTML, like Gecko) Chrome/138.0.0.0 Safari/537.36","WebKit","Chrome","138.0.0.0","Windows","10.0","https://app.prolific.com/","en-GB,en-US;q=0.9,en;q=0.8","6736f4a8fe83ffce0936bdc4","686d226cabeef709c732f8e1","686e310aa01d4df5dc429d07","6736f4a8fe83ffce0936bdc4","","[{""page_index"":0,""viewing_time"":67474},{""page_index"":1,""viewing_time"":28866},{""page_index"":2,""viewing_time"":20682},{""page_index"":3,""viewing_time"":20316}]","","","","","","","","","","","","","","","","","","","","","","","","","","","","","","","","","","","","","","","","","","",""
"","","","","ctl-task-cpt","20","998836","0.0-8.0-1.0","20","1","2025-07-09 09:06:44","7701e855f2ef39aa3fd6c71abdc6918a","165.165.122.131","Mozilla/5.0 (Windows NT 10.0; Win64; x64) AppleWebKit/537.36 (KHTML, like Gecko) Chrome/138.0.0.0 Safari/537.36","WebKit","Chrome","138.0.0.0","Windows","10.0","https://app.prolific.com/","en-GB,en-US;q=0.9,en;q=0.8","6736f4a8fe83ffce0936bdc4","686d226cabeef709c732f8e1","686e310aa01d4df5dc429d07","6736f4a8fe83ffce0936bdc4","","","","","","","","","","","","","","","","","win-only","0","g1:NW,g2:SE","1","0","1","962794.1","4341.8","8347.2","36308.7","2","4","4","6","2","4","2","2","0","0.015151515151515152","1977.6","4000","1315","[""down"",""right""]","{""num_key_presses"":8,""num_perfect"":6,""num_errors"":2,""num_randdir"":0,""num_randdir_good_moves"":0,""num_whilered"":0,""num_whileblue"":0,""num_blue"":2,""num_good_moves"":6}","[406.5714133126395,412.82142761775424,1.4,406.5714133126395,412.82142761775424,105.1,406.5714133126395,412.82142761775424,205.2,407.8214133126395,412.82142761775424,309.8,411.5714133126395,411.57142761775424,411.6,412.8214133126395,410.32142761775424,515,421.5714133126395,400.32142761775424,619.1,495.3214133126395,395.32142761775424,725.8,619.0714133126395,406.57142761775424,834.5,621.5714133126395,406.57142761775424,941.3,621.5714133126395,409.07142761775424,1044.5,576.5714133126395,422.82142761775424,1149.7,571.5714133126395,427.82142761775424,1254.6,601.5714133126395,561.5714276177542,1359.6,644.0714133126395,675.3214276177542,1460.4,692.8214133126395,771.5714276177542,1564.2,695.3214133126395,776.5714276177542,1666.3,712.8214133126395,759.0714276177542,1767.6,726.5714133126395,752.8214276177542,1870,737.8214133126395,745.3214276177542,1981.1,740.3214133126395,745.3214276177542,2081.7,739.0714133126395,745.3214276177542,2183.8,739.0714133126395,746.5714276177542,2285.6,739.0714133126395,746.5714276177542,2391.6,764.0714133126395,754.0714276177542,2493.7,809.0714133126395,751.5714276177542,2594.7,890.3214133126395,745.3214276177542,2694.8,1070.3214133126396,695.3214276177542,2799.8,1281.5714133126396,501.57142761775424,2899.9,1282.8214133126396,501.57142761775424,3000.3,1282.8214133126396,501.57142761775424,3104.5,1282.8214133126396,501.57142761775424,3205.1,1282.8214133126396,501.57142761775424,3310.3,1282.8214133126396,501.57142761775424,3414.4,1282.8214133126396,501.57142761775424,3514.6,1282.8214133126396,501.57142761775424,3619.4,1282.8214133126396,501.57142761775424,3719.6,1282.8214133126396,501.57142761775424,3819.6,1282.8214133126396,501.57142761775424,3928.7]","[1560.4,1560.4,1000,0,560.4,""smooth"",""down"",""down"",""good_move"",2005.7,444.7,1748.9,1561.3,-1304.4,""error"",""-"",""-"",""no_move"",9883.3,7876.8,2891.5,6494,497.8,""smooth"",""down"",""down"",""good_move"",10111.1,227.3,2600.7,9883.9,-2373.4,""error"",""-"",""-"",""no_move"",14656.7,4545.1,3004.7,11113.5,538.5,""smooth"",""right"",""right"",""good_move"",18346.9,3688.5,3266.8,14658.4,421.7,""smooth"",""right"",""right"",""good_move"",21313,2965.4,2537.5,18347.7,427.8,""smooth"",""down"",""down"",""good_move"",27867.2,6553.5,3454.1,24014.3,398.8,""smooth"",""right"",""right"",""good_move""]","",""
"17142","","","","instructions","21","1015979","0.0-8.0-2.0","20","1","2025-07-09 09:06:44","7701e855f2ef39aa3fd6c71abdc6918a","165.165.122.131","Mozilla/5.0 (Windows NT 10.0; Win64; x64) AppleWebKit/537.36 (KHTML, like Gecko) Chrome/138.0.0.0 Safari/537.36","WebKit","Chrome","138.0.0.0","Windows","10.0","https://app.prolific.com/","en-GB,en-US;q=0.9,en;q=0.8","6736f4a8fe83ffce0936bdc4","686d226cabeef709c732f8e1","686e310aa01d4df5dc429d07","6736f4a8fe83ffce0936bdc4","","[{""page_index"":0,""viewing_time"":17142}]","","","","","","","","","","","","","","","","","","","","","","","","","","","","","","","","","","","","","","","","","","",""
"","","","","ctl-task-cpt","22","1050983","0.0-8.0-3.0","20","1","2025-07-09 09:06:44","7701e855f2ef39aa3fd6c71abdc6918a","165.165.122.131","Mozilla/5.0 (Windows NT 10.0; Win64; x64) AppleWebKit/537.36 (KHTML, like Gecko) Chrome/138.0.0.0 Safari/537.36","WebKit","Chrome","138.0.0.0","Windows","10.0","https://app.prolific.com/","en-GB,en-US;q=0.9,en;q=0.8","6736f4a8fe83ffce0936bdc4","686d226cabeef709c732f8e1","686e310aa01d4df5dc429d07","6736f4a8fe83ffce0936bdc4","","","","","","","","","","","","","","","","","win-only","0","g1:NW,g2:SE","0.35","0","3","1019255.9","1612","5616.6","31986.5","2","4","8","6","2","-8","-10","0","0","0","1223.5","4000","-2515","[""down"",""right""]","{""num_key_presses"":6,""num_perfect"":1,""num_errors"":2,""num_randdir"":3,""num_randdir_good_moves"":0,""num_whilered"":0,""num_whileblue"":1,""num_blue"":3,""num_good_moves"":1}","[420.3214133126395,407.82142761775424,0.7,420.3214133126395,407.82142761775424,104.2,420.3214133126395,407.82142761775424,209.2,420.3214133126395,407.82142761775424,309.2,419.0714133126395,407.82142761775424,413.7,661.5714133126395,621.5714276177542,515.7,875.3214133126395,781.5714276177542,618.8,967.8214133126395,799.0714276177542,720.9,962.8214133126395,799.0714276177542,823.7,880.3214133126395,816.5714276177542,924.6,822.8214133126395,807.8214276177542,1025.3,706.5714133126395,762.8214276177542,1129.1,702.8214133126395,761.5714276177542,1230.1,702.8214133126395,761.5714276177542,1330.2,715.3214133126395,776.5714276177542,1431.4,716.5714133126395,781.5714276177542,1534.2,727.8214133126395,791.5714276177542,1636.5,809.0714133126395,815.3214276177542,1737.1,930.3214133126395,840.3214276177542,1838.8,1144.0714133126396,846.5714276177542,1938.9,1375.3214133126396,836.5714276177542,2039.5,1375.3214133126396,796.5714276177542,2146.6,1375.3214133126396,774.0714276177542,2254.6,1375.3214133126396,774.0714276177542,2358.8,1375.3214133126396,774.0714276177542,2470.9,1375.3214133126396,774.0714276177542,2575.3,1375.3214133126396,774.0714276177542,2685.9,1375.3214133126396,774.0714276177542,2786.3,1375.3214133126396,774.0714276177542,2887.7,1375.3214133126396,774.0714276177542,2988.7,1375.3214133126396,774.0714276177542,3100.5,1375.3214133126396,774.0714276177542,3204.6,1375.3214133126396,774.0714276177542,3304.6,1375.3214133126396,774.0714276177542,3404.6,1375.3214133126396,774.0714276177542,3504.8,1375.3214133126396,774.0714276177542,3609.6,1375.3214133126396,774.0714276177542,3716.3,1375.3214133126396,774.0714276177542,3821.3,1375.3214133126396,774.0714276177542,3923.9]","[5152.5,5152.5,2788.4,2004.2,359.9,""oops"",""right"",""up"",""bad_move"",8491.6,3338.4,2804.8,5153.3,533.6,""oops"",""down"",""left"",""bad_move"",13227.5,4735,1606.4,8492.5,3128.6,""smooth"",""up"",""up"",""bad_move"",16582.2,3352.2,3037,13230,315.2,""oops"",""down"",""left"",""bad_move"",16915,331.8,2506.2,16583.2,-2174.4,""error"",""-"",""-"",""no_move"",19951.8,3036.1,1683.9,17917,350.9,""while_blue"",""down"",""right"",""good_move""]","",""
"35777","","","","instructions","23","1086762","0.0-8.0-4.0","20","1","2025-07-09 09:06:44","7701e855f2ef39aa3fd6c71abdc6918a","165.165.122.131","Mozilla/5.0 (Windows NT 10.0; Win64; x64) AppleWebKit/537.36 (KHTML, like Gecko) Chrome/138.0.0.0 Safari/537.36","WebKit","Chrome","138.0.0.0","Windows","10.0","https://app.prolific.com/","en-GB,en-US;q=0.9,en;q=0.8","6736f4a8fe83ffce0936bdc4","686d226cabeef709c732f8e1","686e310aa01d4df5dc429d07","6736f4a8fe83ffce0936bdc4","","[{""page_index"":0,""viewing_time"":7427},{""page_index"":1,""viewing_time"":28350}]","","","","","","","","","","","","","","","","","","","","","","","","","","","","","","","","","","","","","","","","","","",""
"14839","","","{""green_ball"":[""Ball always moves in the direction I press""]}","survey-multi-select","24","1101606","0.0-8.0-5.0-0.0","20","1","2025-07-09 09:06:44","7701e855f2ef39aa3fd6c71abdc6918a","165.165.122.131","Mozilla/5.0 (Windows NT 10.0; Win64; x64) AppleWebKit/537.36 (KHTML, like Gecko) Chrome/138.0.0.0 Safari/537.36","WebKit","Chrome","138.0.0.0","Windows","10.0","https://app.prolific.com/","en-GB,en-US;q=0.9,en;q=0.8","6736f4a8fe83ffce0936bdc4","686d226cabeef709c732f8e1","686e310aa01d4df5dc429d07","6736f4a8fe83ffce0936bdc4","","","[0]","","","","quiz","","","","","","","","","","","","","","","","","","","","","","","","","","","","","","","","","","","","","false",""
"8286","","<p align='center'><b>INCORRECT.</b> Usually the green ball moves in the indicated direction, but sometimes it shakes and moves randomly. </p>","0","html-button-response","25","1109897","0.0-8.0-5.0-1.0","20","1","2025-07-09 09:06:44","7701e855f2ef39aa3fd6c71abdc6918a","165.165.122.131","Mozilla/5.0 (Windows NT 10.0; Win64; x64) AppleWebKit/537.36 (KHTML, like Gecko) Chrome/138.0.0.0 Safari/537.36","WebKit","Chrome","138.0.0.0","Windows","10.0","https://app.prolific.com/","en-GB,en-US;q=0.9,en;q=0.8","6736f4a8fe83ffce0936bdc4","686d226cabeef709c732f8e1","686e310aa01d4df5dc429d07","6736f4a8fe83ffce0936bdc4","","","","","","","","","","","","","","","","","","","","","","","","","","","","","","","","","","","","","","","","","","","","",""
"19162","","","{""green_ball"":[""Ball always shakes and moves in a random direction""]}","survey-multi-select","26","1129064","0.0-8.0-5.1-0.1","20","1","2025-07-09 09:06:44","7701e855f2ef39aa3fd6c71abdc6918a","165.165.122.131","Mozilla/5.0 (Windows NT 10.0; Win64; x64) AppleWebKit/537.36 (KHTML, like Gecko) Chrome/138.0.0.0 Safari/537.36","WebKit","Chrome","138.0.0.0","Windows","10.0","https://app.prolific.com/","en-GB,en-US;q=0.9,en;q=0.8","6736f4a8fe83ffce0936bdc4","686d226cabeef709c732f8e1","686e310aa01d4df5dc429d07","6736f4a8fe83ffce0936bdc4","","","[0]","","","","quiz","","","","","","","","","","","","","","","","","","","","","","","","","","","","","","","","","","","","","false",""
"5206","","<p align='center'><b>INCORRECT.</b> Usually the green ball moves in the indicated direction, but sometimes it shakes and moves randomly. </p>","0","html-button-response","27","1134272","0.0-8.0-5.1-1.1","20","1","2025-07-09 09:06:44","7701e855f2ef39aa3fd6c71abdc6918a","165.165.122.131","Mozilla/5.0 (Windows NT 10.0; Win64; x64) AppleWebKit/537.36 (KHTML, like Gecko) Chrome/138.0.0.0 Safari/537.36","WebKit","Chrome","138.0.0.0","Windows","10.0","https://app.prolific.com/","en-GB,en-US;q=0.9,en;q=0.8","6736f4a8fe83ffce0936bdc4","686d226cabeef709c732f8e1","686e310aa01d4df5dc429d07","6736f4a8fe83ffce0936bdc4","","","","","","","","","","","","","","","","","","","","","","","","","","","","","","","","","","","","","","","","","","","","",""
"11443","","","{""green_ball"":[""Ball always moves in the direction I press""]}","survey-multi-select","28","1145722","0.0-8.0-5.2-0.2","20","1","2025-07-09 09:06:44","7701e855f2ef39aa3fd6c71abdc6918a","165.165.122.131","Mozilla/5.0 (Windows NT 10.0; Win64; x64) AppleWebKit/537.36 (KHTML, like Gecko) Chrome/138.0.0.0 Safari/537.36","WebKit","Chrome","138.0.0.0","Windows","10.0","https://app.prolific.com/","en-GB,en-US;q=0.9,en;q=0.8","6736f4a8fe83ffce0936bdc4","686d226cabeef709c732f8e1","686e310aa01d4df5dc429d07","6736f4a8fe83ffce0936bdc4","","","[0]","","","","quiz","","","","","","","","","","","","","","","","","","","","","","","","","","","","","","","","","","","","","false",""
"4439","","<p align='center'><b>INCORRECT.</b> Usually the green ball moves in the indicated direction, but sometimes it shakes and moves randomly. </p>","0","html-button-response","29","1150164","0.0-8.0-5.2-1.2","20","1","2025-07-09 09:06:44","7701e855f2ef39aa3fd6c71abdc6918a","165.165.122.131","Mozilla/5.0 (Windows NT 10.0; Win64; x64) AppleWebKit/537.36 (KHTML, like Gecko) Chrome/138.0.0.0 Safari/537.36","WebKit","Chrome","138.0.0.0","Windows","10.0","https://app.prolific.com/","en-GB,en-US;q=0.9,en;q=0.8","6736f4a8fe83ffce0936bdc4","686d226cabeef709c732f8e1","686e310aa01d4df5dc429d07","6736f4a8fe83ffce0936bdc4","","","","","","","","","","","","","","","","","","","","","","","","","","","","","","","","","","","","","","","","","","","","",""
"2836","","","{""green_ball"":[""Ball sometimes shakes and moves in a random direction""]}","survey-multi-select","30","1153003","0.0-8.0-5.3-0.3","20","1","2025-07-09 09:06:44","7701e855f2ef39aa3fd6c71abdc6918a","165.165.122.131","Mozilla/5.0 (Windows NT 10.0; Win64; x64) AppleWebKit/537.36 (KHTML, like Gecko) Chrome/138.0.0.0 Safari/537.36","WebKit","Chrome","138.0.0.0","Windows","10.0","https://app.prolific.com/","en-GB,en-US;q=0.9,en;q=0.8","6736f4a8fe83ffce0936bdc4","686d226cabeef709c732f8e1","686e310aa01d4df5dc429d07","6736f4a8fe83ffce0936bdc4","","","[0]","","","","quiz","","","","","","","","","","","","","","","","","","","","","","","","","","","","","","","","","","","","","true",""
"3762","","<p align='center'><b>CORRECT!</b> Indeed, the green ball may sometimes shake and move in a random direction.</p>","0","html-button-response","31","1156767","0.0-8.0-5.3-1.3","20","1","2025-07-09 09:06:44","7701e855f2ef39aa3fd6c71abdc6918a","165.165.122.131","Mozilla/5.0 (Windows NT 10.0; Win64; x64) AppleWebKit/537.36 (KHTML, like Gecko) Chrome/138.0.0.0 Safari/537.36","WebKit","Chrome","138.0.0.0","Windows","10.0","https://app.prolific.com/","en-GB,en-US;q=0.9,en;q=0.8","6736f4a8fe83ffce0936bdc4","686d226cabeef709c732f8e1","686e310aa01d4df5dc429d07","6736f4a8fe83ffce0936bdc4","","","","","","","","","","","","","","","","","","","","","","","","","","","","","","","","","","","","","","","","","","","","",""
"16578","","","{""yellow_ball"":[""Ball doesn‘t move and I get -1 penalty point""]}","survey-multi-select","32","1173348","0.0-8.0-6.0-0.0","20","1","2025-07-09 09:06:44","7701e855f2ef39aa3fd6c71abdc6918a","165.165.122.131","Mozilla/5.0 (Windows NT 10.0; Win64; x64) AppleWebKit/537.36 (KHTML, like Gecko) Chrome/138.0.0.0 Safari/537.36","WebKit","Chrome","138.0.0.0","Windows","10.0","https://app.prolific.com/","en-GB,en-US;q=0.9,en;q=0.8","6736f4a8fe83ffce0936bdc4","686d226cabeef709c732f8e1","686e310aa01d4df5dc429d07","6736f4a8fe83ffce0936bdc4","","","[0]","","","","quiz","","","","","","","","","","","","","","","","","","","","","","","","","","","","","","","","","","","","","true",""
"2392","","<p align='center'><b>CORRECT!</b> Indeed, the yellow ball never moves and you receive a penalty.</p>","0","html-button-response","33","1175743","0.0-8.0-6.0-1.0","20","1","2025-07-09 09:06:44","7701e855f2ef39aa3fd6c71abdc6918a","165.165.122.131","Mozilla/5.0 (Windows NT 10.0; Win64; x64) AppleWebKit/537.36 (KHTML, like Gecko) Chrome/138.0.0.0 Safari/537.36","WebKit","Chrome","138.0.0.0","Windows","10.0","https://app.prolific.com/","en-GB,en-US;q=0.9,en;q=0.8","6736f4a8fe83ffce0936bdc4","686d226cabeef709c732f8e1","686e310aa01d4df5dc429d07","6736f4a8fe83ffce0936bdc4","","","","","","","","","","","","","","","","","","","","","","","","","","","","","","","","","","","","","","","","","","","","",""
"12214","","","{""blue_ball"":[""Ball doesn‘t move and I get -1 penalty point""]}","survey-multi-select","34","1187960","0.0-8.0-7.0-0.0","20","1","2025-07-09 09:06:44","7701e855f2ef39aa3fd6c71abdc6918a","165.165.122.131","Mozilla/5.0 (Windows NT 10.0; Win64; x64) AppleWebKit/537.36 (KHTML, like Gecko) Chrome/138.0.0.0 Safari/537.36","WebKit","Chrome","138.0.0.0","Windows","10.0","https://app.prolific.com/","en-GB,en-US;q=0.9,en;q=0.8","6736f4a8fe83ffce0936bdc4","686d226cabeef709c732f8e1","686e310aa01d4df5dc429d07","6736f4a8fe83ffce0936bdc4","","","[0]","","","","quiz","","","","","","","","","","","","","","","","","","","","","","","","","","","","","","","","","","","","","false",""
"1474","","<p align='center'><b>INCORRECT.</b> The blue ball always shakes and moves randomly.</p>","0","html-button-response","35","1189435","0.0-8.0-7.0-1.0","20","1","2025-07-09 09:06:44","7701e855f2ef39aa3fd6c71abdc6918a","165.165.122.131","Mozilla/5.0 (Windows NT 10.0; Win64; x64) AppleWebKit/537.36 (KHTML, like Gecko) Chrome/138.0.0.0 Safari/537.36","WebKit","Chrome","138.0.0.0","Windows","10.0","https://app.prolific.com/","en-GB,en-US;q=0.9,en;q=0.8","6736f4a8fe83ffce0936bdc4","686d226cabeef709c732f8e1","686e310aa01d4df5dc429d07","6736f4a8fe83ffce0936bdc4","","","","","","","","","","","","","","","","","","","","","","","","","","","","","","","","","","","","","","","","","","","","",""
"2850","","","{""blue_ball"":[""Ball always shakes and moves in a random direction""]}","survey-multi-select","36","1192288","0.0-8.0-7.1-0.1","20","1","2025-07-09 09:06:44","7701e855f2ef39aa3fd6c71abdc6918a","165.165.122.131","Mozilla/5.0 (Windows NT 10.0; Win64; x64) AppleWebKit/537.36 (KHTML, like Gecko) Chrome/138.0.0.0 Safari/537.36","WebKit","Chrome","138.0.0.0","Windows","10.0","https://app.prolific.com/","en-GB,en-US;q=0.9,en;q=0.8","6736f4a8fe83ffce0936bdc4","686d226cabeef709c732f8e1","686e310aa01d4df5dc429d07","6736f4a8fe83ffce0936bdc4","","","[0]","","","","quiz","","","","","","","","","","","","","","","","","","","","","","","","","","","","","","","","","","","","","true",""
"1439","","<p align='center'><b>CORRECT!</b> Indeed, the blue ball always shakes and moves in a random direction. Also there is a penalty of -1 point.</p>","0","html-button-response","37","1193730","0.0-8.0-7.1-1.1","20","1","2025-07-09 09:06:44","7701e855f2ef39aa3fd6c71abdc6918a","165.165.122.131","Mozilla/5.0 (Windows NT 10.0; Win64; x64) AppleWebKit/537.36 (KHTML, like Gecko) Chrome/138.0.0.0 Safari/537.36","WebKit","Chrome","138.0.0.0","Windows","10.0","https://app.prolific.com/","en-GB,en-US;q=0.9,en;q=0.8","6736f4a8fe83ffce0936bdc4","686d226cabeef709c732f8e1","686e310aa01d4df5dc429d07","6736f4a8fe83ffce0936bdc4","","","","","","","","","","","","","","","","","","","","","","","","","","","","","","","","","","","","","","","","","","","","",""
"15062","","","{""bonus"":[""When I reach 50% of points""]}","survey-multi-select","38","1208796","0.0-8.0-8.0-0.0","20","1","2025-07-09 09:06:44","7701e855f2ef39aa3fd6c71abdc6918a","165.165.122.131","Mozilla/5.0 (Windows NT 10.0; Win64; x64) AppleWebKit/537.36 (KHTML, like Gecko) Chrome/138.0.0.0 Safari/537.36","WebKit","Chrome","138.0.0.0","Windows","10.0","https://app.prolific.com/","en-GB,en-US;q=0.9,en;q=0.8","6736f4a8fe83ffce0936bdc4","686d226cabeef709c732f8e1","686e310aa01d4df5dc429d07","6736f4a8fe83ffce0936bdc4","","","[0]","","","","quiz","","","","","","","","","","","","","","","","","","","","","","","","","","","","","","","","","","","","","true",""
"1254","","<p align='center'><b>CORRECT!</b> Indeed, you receive 2 pounds extra when you reach 50% of points.</p>","0","html-button-response","39","1210052","0.0-8.0-8.0-1.0","20","1","2025-07-09 09:06:44","7701e855f2ef39aa3fd6c71abdc6918a","165.165.122.131","Mozilla/5.0 (Windows NT 10.0; Win64; x64) AppleWebKit/537.36 (KHTML, like Gecko) Chrome/138.0.0.0 Safari/537.36","WebKit","Chrome","138.0.0.0","Windows","10.0","https://app.prolific.com/","en-GB,en-US;q=0.9,en;q=0.8","6736f4a8fe83ffce0936bdc4","686d226cabeef709c732f8e1","686e310aa01d4df5dc429d07","6736f4a8fe83ffce0936bdc4","","","","","","","","","","","","","","","","","","","","","","","","","","","","","","","","","","","","","","","","","","","","",""
"17154","","","","instructions","40","1227208","0.0-8.0-9.0","20","1","2025-07-09 09:06:44","7701e855f2ef39aa3fd6c71abdc6918a","165.165.122.131","Mozilla/5.0 (Windows NT 10.0; Win64; x64) AppleWebKit/537.36 (KHTML, like Gecko) Chrome/138.0.0.0 Safari/537.36","WebKit","Chrome","138.0.0.0","Windows","10.0","https://app.prolific.com/","en-GB,en-US;q=0.9,en;q=0.8","6736f4a8fe83ffce0936bdc4","686d226cabeef709c732f8e1","686e310aa01d4df5dc429d07","6736f4a8fe83ffce0936bdc4","","[{""page_index"":0,""viewing_time"":17154}]","","","","","","","","","","","","","","","","","","","","","","","","","","","","","","","","","","","","","","","","","","",""
"10043","","<p>Before you start with this game please answer the following three questions yourself. </p>
  <p>Through this game, we measure several aspects of your cognitive performance, such as reaction times, multi-tasking capabilities </p>
  <p>and the ability to assess the situation you are in.</p>
  <p></p>
  <p><b>How good do you usually are in such tasks?</b></p>","81","html-slider-response","41","1237257","0.0-9.0-0.0","20","1","2025-07-09 09:06:44","7701e855f2ef39aa3fd6c71abdc6918a","165.165.122.131","Mozilla/5.0 (Windows NT 10.0; Win64; x64) AppleWebKit/537.36 (KHTML, like Gecko) Chrome/138.0.0.0 Safari/537.36","WebKit","Chrome","138.0.0.0","Windows","10.0","https://app.prolific.com/","en-GB,en-US;q=0.9,en;q=0.8","6736f4a8fe83ffce0936bdc4","686d226cabeef709c732f8e1","686e310aa01d4df5dc429d07","6736f4a8fe83ffce0936bdc4","2025-07-09T09:27:26.140Z","","","","","","PreSkillQ","","","","","","","","","","","","","","","","","","","","","","","","","","","","","","","","","","","","","","50"
"4455","","<div style=""width:500px;"">
  <p>How well do you think you will perform in this task compared to other participants?</p>
  </div>","76","html-slider-response","42","1241715","0.0-9.0-1.0","20","1","2025-07-09 09:06:44","7701e855f2ef39aa3fd6c71abdc6918a","165.165.122.131","Mozilla/5.0 (Windows NT 10.0; Win64; x64) AppleWebKit/537.36 (KHTML, like Gecko) Chrome/138.0.0.0 Safari/537.36","WebKit","Chrome","138.0.0.0","Windows","10.0","https://app.prolific.com/","en-GB,en-US;q=0.9,en;q=0.8","6736f4a8fe83ffce0936bdc4","686d226cabeef709c732f8e1","686e310aa01d4df5dc429d07","6736f4a8fe83ffce0936bdc4","2025-07-09T09:27:30.598Z","","","","","","PrePerfQ","","","","","","","","","","","","","","","","","","","","","","","","","","","","","","","","","","","","","","50"
"4083","","<div style=""width:500px;"">
  <p>What best describes how you currently feel?</p>
  </div>","61","html-slider-response","43","1245801","0.0-9.0-2.0","20","1","2025-07-09 09:06:44","7701e855f2ef39aa3fd6c71abdc6918a","165.165.122.131","Mozilla/5.0 (Windows NT 10.0; Win64; x64) AppleWebKit/537.36 (KHTML, like Gecko) Chrome/138.0.0.0 Safari/537.36","WebKit","Chrome","138.0.0.0","Windows","10.0","https://app.prolific.com/","en-GB,en-US;q=0.9,en;q=0.8","6736f4a8fe83ffce0936bdc4","686d226cabeef709c732f8e1","686e310aa01d4df5dc429d07","6736f4a8fe83ffce0936bdc4","2025-07-09T09:27:34.684Z","","","","","","PreMotivationQ","","","","","","","","","","","","","","","","","","","","","","","","","","","","","","","","","","","","","","50"
"","","","","ctl-task-cpt","44","1270614","0.0-10.0-0.0","20","1","2025-07-09 09:06:44","7701e855f2ef39aa3fd6c71abdc6918a","165.165.122.131","Mozilla/5.0 (Windows NT 10.0; Win64; x64) AppleWebKit/537.36 (KHTML, like Gecko) Chrome/138.0.0.0 Safari/537.36","WebKit","Chrome","138.0.0.0","Windows","10.0","https://app.prolific.com/","en-GB,en-US;q=0.9,en;q=0.8","6736f4a8fe83ffce0936bdc4","686d226cabeef709c732f8e1","686e310aa01d4df5dc429d07","6736f4a8fe83ffce0936bdc4","2025-07-09T09:27:59.497Z","","","","","","","","","","","","","","","","win-only","3","g1:SW,g2:NE","1","1","0","1249081","1694.5","6710.7","21796.8","1","4","8","6","2","8","8","8","0","0.06060606060606061","1374.7","3000","1380","[""up"",""right""]","{""num_key_presses"":6,""num_perfect"":6,""num_errors"":0,""num_randdir"":0,""num_randdir_good_moves"":0,""num_whilered"":0,""num_whileblue"":0,""num_blue"":0,""num_good_moves"":6}","[407.8214133126395,411.57142761775424,1.4,407.8214133126395,411.57142761775424,102.7,429.0714133126395,416.57142761775424,213.1,429.0714133126395,424.07142761775424,318.6,441.5714133126395,426.57142761775424,428.2,631.5714133126395,340.32142761775424,528.5,967.8214133126395,-3.428572382245747,634.1,996.5714133126395,-69.67857238224575,743.8,907.8214133126395,-30.928572382245747,844.7,851.5714133126395,10.321427617754253,945.9,826.5714133126395,31.571427617754253,1046.6,819.0714133126395,36.57142761775425,1147,780.3214133126395,57.82142761775425,1264,777.8214133126395,57.82142761775425,1366.8,777.8214133126395,57.82142761775425,1468.7,785.3214133126395,52.82142761775425,1569.1,785.3214133126395,51.57142761775425,1673.2,785.3214133126395,111.57142761775425,1776.9,790.3214133126395,174.07142761775424,1877.6,796.5714133126395,189.07142761775424,1983.2,806.5714133126395,192.82142761775424,2099.3,806.5714133126395,191.57142761775424,2207.1,821.5714133126395,186.57142761775424,2314.6,821.5714133126395,186.57142761775424,2427.3,821.5714133126395,186.57142761775424,2528.2,821.5714133126395,186.57142761775424,2630.8,821.5714133126395,186.57142761775424,2731.1,821.5714133126395,186.57142761775424,2842,821.5714133126395,186.57142761775424,2946.8,821.5714133126395,186.57142761775424,3064,821.5714133126395,186.57142761775424,3169.4,821.5714133126395,186.57142761775424,3280.7,821.5714133126395,186.57142761775424,3391.6,821.5714133126395,186.57142761775424,3491.8,821.5714133126395,186.57142761775424,3596.4,821.5714133126395,186.57142761775424,3696.4,821.5714133126395,186.57142761775424,3802.7,821.5714133126395,186.57142761775424,3913.8,821.5714133126395,186.57142761775424,4017.4,821.5714133126395,186.57142761775424,4119.3,821.5714133126395,186.57142761775424,4225.6,821.5714133126395,186.57142761775424,4326.4,821.5714133126395,186.57142761775424,4431,821.5714133126395,186.57142761775424,4534.6,821.5714133126395,186.57142761775424,4637.3,821.5714133126395,186.57142761775424,4738,821.5714133126395,186.57142761775424,4846.8,821.5714133126395,186.57142761775424,4952]","[1430.1,1430.1,1000,0,430.1,""smooth"",""up"",""up"",""good_move"",4361.4,2929.7,2547.9,1431.7,381.8,""smooth"",""up"",""up"",""good_move"",7246.6,2883.6,2546.4,4363,337.2,""smooth"",""right"",""right"",""good_move"",9460,2211.9,1783.5,7248.1,428.4,""smooth"",""right"",""right"",""good_move"",12600.2,3139.7,2802.3,9460.6,337.4,""smooth"",""right"",""right"",""good_move"",14979.6,2378.5,2071.6,12601.1,306.9,""smooth"",""up"",""up"",""good_move""]","",""
"6246","","<div style=""width:500px;"">
  <p>What determined the result of this run?</p>
  </div>","97","html-slider-response","45","1276864","0.0-10.0-1.0","20","1","2025-07-09 09:06:44","7701e855f2ef39aa3fd6c71abdc6918a","165.165.122.131","Mozilla/5.0 (Windows NT 10.0; Win64; x64) AppleWebKit/537.36 (KHTML, like Gecko) Chrome/138.0.0.0 Safari/537.36","WebKit","Chrome","138.0.0.0","Windows","10.0","https://app.prolific.com/","en-GB,en-US;q=0.9,en;q=0.8","6736f4a8fe83ffce0936bdc4","686d226cabeef709c732f8e1","686e310aa01d4df5dc429d07","6736f4a8fe83ffce0936bdc4","2025-07-09T09:28:05.747Z","","","","","","AttribQ","","","","","","","","","","","","","","","","","","","","","","","","","","","","","","","","","","","","","","50"
"3725","","<div style=""width:500px;"">
  <p>How much control did you have over the ball?</p>
  </div>","94","html-slider-response","46","1280592","0.0-10.0-2.0","20","1","2025-07-09 09:06:44","7701e855f2ef39aa3fd6c71abdc6918a","165.165.122.131","Mozilla/5.0 (Windows NT 10.0; Win64; x64) AppleWebKit/537.36 (KHTML, like Gecko) Chrome/138.0.0.0 Safari/537.36","WebKit","Chrome","138.0.0.0","Windows","10.0","https://app.prolific.com/","en-GB,en-US;q=0.9,en;q=0.8","6736f4a8fe83ffce0936bdc4","686d226cabeef709c732f8e1","686e310aa01d4df5dc429d07","6736f4a8fe83ffce0936bdc4","2025-07-09T09:28:09.475Z","","","","","","ControlQ","","","","","","","","","","","","","","","","","","","","","","","","","","","","","","","","","","","","","","50"
"4918","","<div style=""width:500px;"">
  <p>How would you describe your current emotional state?</p>
  </div>","12","html-slider-response","47","1285512","0.0-10.0-3.0","20","1","2025-07-09 09:06:44","7701e855f2ef39aa3fd6c71abdc6918a","165.165.122.131","Mozilla/5.0 (Windows NT 10.0; Win64; x64) AppleWebKit/537.36 (KHTML, like Gecko) Chrome/138.0.0.0 Safari/537.36","WebKit","Chrome","138.0.0.0","Windows","10.0","https://app.prolific.com/","en-GB,en-US;q=0.9,en;q=0.8","6736f4a8fe83ffce0936bdc4","686d226cabeef709c732f8e1","686e310aa01d4df5dc429d07","6736f4a8fe83ffce0936bdc4","2025-07-09T09:28:14.395Z","","","","","","StressQ","","","","","","","","","","","","","","","","","","","","","","","","","","","","","","","","","","","","","","50"
"4317","","<div style=""width:500px;"">
  <p>What best describes how you currently feel?</p>
  </div>","85","html-slider-response","48","1289831","0.0-10.0-4.0","20","1","2025-07-09 09:06:44","7701e855f2ef39aa3fd6c71abdc6918a","165.165.122.131","Mozilla/5.0 (Windows NT 10.0; Win64; x64) AppleWebKit/537.36 (KHTML, like Gecko) Chrome/138.0.0.0 Safari/537.36","WebKit","Chrome","138.0.0.0","Windows","10.0","https://app.prolific.com/","en-GB,en-US;q=0.9,en;q=0.8","6736f4a8fe83ffce0936bdc4","686d226cabeef709c732f8e1","686e310aa01d4df5dc429d07","6736f4a8fe83ffce0936bdc4","2025-07-09T09:28:18.715Z","","","","","","MotivationQ","","","","","","","","","","","","","","","","","","","","","","","","","","","","","","","","","","","","","","50"
"","","","","ctl-task-cpt","49","1321962","0.0-10.0-0.1","20","1","2025-07-09 09:06:44","7701e855f2ef39aa3fd6c71abdc6918a","165.165.122.131","Mozilla/5.0 (Windows NT 10.0; Win64; x64) AppleWebKit/537.36 (KHTML, like Gecko) Chrome/138.0.0.0 Safari/537.36","WebKit","Chrome","138.0.0.0","Windows","10.0","https://app.prolific.com/","en-GB,en-US;q=0.9,en;q=0.8","6736f4a8fe83ffce0936bdc4","686d226cabeef709c732f8e1","686e310aa01d4df5dc429d07","6736f4a8fe83ffce0936bdc4","2025-07-09T09:28:50.845Z","","","","","","","","","","","","","","","","win-only","2","g1:SE,g2:NW","0.9","2","0","1293110.6","1312.8","6328.5","29110.6","1","4","4","6","2","4","2","10","8","0.07575757575757576","1395.8","3000","1815","[""left"",""up""]","{""num_key_presses"":7,""num_perfect"":5,""num_errors"":2,""num_randdir"":0,""num_randdir_good_moves"":0,""num_whilered"":0,""num_whileblue"":1,""num_blue"":3,""num_good_moves"":6}","[421.5714133126395,415.32142761775424,0.5,421.5714133126395,407.82142761775424,103.7,421.5714133126395,402.82142761775424,206.6,421.5714133126395,402.82142761775424,317.7,424.0714133126395,399.07142761775424,424.1,411.5714133126395,371.57142761775424,540.6,350.3214133126395,310.32142761775424,642.1,251.5714133126395,222.82142761775424,743.6,176.5714133126395,167.82142761775424,850.7,151.5714133126395,159.07142761775424,954.4,116.5714133126395,135.32142761775424,1061.7,106.5714133126395,114.07142761775425,1163.3,69.0714133126395,65.32142761775425,1264.2,64.0714133126395,60.32142761775425,1368.9,64.0714133126395,59.07142761775425,1473.5,64.0714133126395,59.07142761775425,1587.6,67.8214133126395,74.07142761775425,1690.3,221.5714133126395,177.82142761775424,1794.2,411.5714133126395,266.57142761775424,1894.7,447.8214133126395,271.57142761775424,1998.8,465.3214133126395,272.82142761775424,2106.5,491.5714133126395,292.82142761775424,2208.4,512.8214133126395,286.57142761775424,2313.7,529.0714133126395,256.57142761775424,2418.8,531.5714133126395,242.82142761775424,2520.1,541.5714133126395,194.07142761775424,2625.8,541.5714133126395,194.07142761775424,2728.9,544.0714133126395,194.07142761775424,2837,569.0714133126395,212.82142761775424,2938,576.5714133126395,217.82142761775424,3042.7,576.5714133126395,217.82142761775424,3143.6,576.5714133126395,217.82142761775424,3247.9,576.5714133126395,217.82142761775424,3356.3,576.5714133126395,217.82142761775424,3463.4,576.5714133126395,217.82142761775424,3567.2,576.5714133126395,217.82142761775424,3667.6,576.5714133126395,217.82142761775424,3767.8,576.5714133126395,217.82142761775424,3879.7,576.5714133126395,217.82142761775424,3982.7,576.5714133126395,217.82142761775424,4083.5,576.5714133126395,217.82142761775424,4192.2,576.5714133126395,217.82142761775424,4293.1,576.5714133126395,217.82142761775424,4397.5,576.5714133126395,217.82142761775424,4497.6,576.5714133126395,217.82142761775424,4597.8,576.5714133126395,217.82142761775424,4698.7,576.5714133126395,217.82142761775424,4812.8,576.5714133126395,217.82142761775424,4912.8]","[1360.7,1360.7,1000,0,360.7,""smooth"",""left"",""left"",""good_move"",4391.3,3029.7,2712.7,1361.7,317,""smooth"",""left"",""left"",""good_move"",12915.7,8523,2103.7,10441.8,370.2,""smooth"",""up"",""up"",""good_move"",13130.4,214,2530.6,12916.4,-2316.6,""error"",""-"",""-"",""no_move"",16866.2,3735.1,2421.3,14132.9,312.1,""smooth"",""up"",""up"",""good_move"",19941.5,3074.5,2717,16867,357.5,""smooth"",""left"",""left"",""good_move"",22651.4,2708.7,2394,19942.7,314.7,""while_blue"",""up"",""up"",""good_move""]","",""
"5031","","<div style=""width:500px;"">
  <p>What determined the result of this run?</p>
  </div>","82","html-slider-response","50","1326996","0.0-10.0-1.1","20","1","2025-07-09 09:06:44","7701e855f2ef39aa3fd6c71abdc6918a","165.165.122.131","Mozilla/5.0 (Windows NT 10.0; Win64; x64) AppleWebKit/537.36 (KHTML, like Gecko) Chrome/138.0.0.0 Safari/537.36","WebKit","Chrome","138.0.0.0","Windows","10.0","https://app.prolific.com/","en-GB,en-US;q=0.9,en;q=0.8","6736f4a8fe83ffce0936bdc4","686d226cabeef709c732f8e1","686e310aa01d4df5dc429d07","6736f4a8fe83ffce0936bdc4","2025-07-09T09:28:55.879Z","","","","","","AttribQ","","","","","","","","","","","","","","","","","","","","","","","","","","","","","","","","","","","","","","50"
"2776","","<div style=""width:500px;"">
  <p>How much control did you have over the ball?</p>
  </div>","56","html-slider-response","51","1329775","0.0-10.0-2.1","20","1","2025-07-09 09:06:44","7701e855f2ef39aa3fd6c71abdc6918a","165.165.122.131","Mozilla/5.0 (Windows NT 10.0; Win64; x64) AppleWebKit/537.36 (KHTML, like Gecko) Chrome/138.0.0.0 Safari/537.36","WebKit","Chrome","138.0.0.0","Windows","10.0","https://app.prolific.com/","en-GB,en-US;q=0.9,en;q=0.8","6736f4a8fe83ffce0936bdc4","686d226cabeef709c732f8e1","686e310aa01d4df5dc429d07","6736f4a8fe83ffce0936bdc4","2025-07-09T09:28:58.658Z","","","","","","ControlQ","","","","","","","","","","","","","","","","","","","","","","","","","","","","","","","","","","","","","","50"
"4250","","<div style=""width:500px;"">
  <p>How would you describe your current emotional state?</p>
  </div>","50","html-slider-response","52","1334037","0.0-10.0-3.1","20","1","2025-07-09 09:06:44","7701e855f2ef39aa3fd6c71abdc6918a","165.165.122.131","Mozilla/5.0 (Windows NT 10.0; Win64; x64) AppleWebKit/537.36 (KHTML, like Gecko) Chrome/138.0.0.0 Safari/537.36","WebKit","Chrome","138.0.0.0","Windows","10.0","https://app.prolific.com/","en-GB,en-US;q=0.9,en;q=0.8","6736f4a8fe83ffce0936bdc4","686d226cabeef709c732f8e1","686e310aa01d4df5dc429d07","6736f4a8fe83ffce0936bdc4","2025-07-09T09:29:02.921Z","","","","","","StressQ","","","","","","","","","","","","","","","","","","","","","","","","","","","","","","","","","","","","","","50"
"3717","","<div style=""width:500px;"">
  <p>What best describes how you currently feel?</p>
  </div>","85","html-slider-response","53","1337757","0.0-10.0-4.1","20","1","2025-07-09 09:06:44","7701e855f2ef39aa3fd6c71abdc6918a","165.165.122.131","Mozilla/5.0 (Windows NT 10.0; Win64; x64) AppleWebKit/537.36 (KHTML, like Gecko) Chrome/138.0.0.0 Safari/537.36","WebKit","Chrome","138.0.0.0","Windows","10.0","https://app.prolific.com/","en-GB,en-US;q=0.9,en;q=0.8","6736f4a8fe83ffce0936bdc4","686d226cabeef709c732f8e1","686e310aa01d4df5dc429d07","6736f4a8fe83ffce0936bdc4","2025-07-09T09:29:06.641Z","","","","","","MotivationQ","","","","","","","","","","","","","","","","","","","","","","","","","","","","","","","","","","","","","","50"
"","","","","ctl-task-cpt","54","1366580","0.0-10.0-0.2","20","1","2025-07-09 09:06:44","7701e855f2ef39aa3fd6c71abdc6918a","165.165.122.131","Mozilla/5.0 (Windows NT 10.0; Win64; x64) AppleWebKit/537.36 (KHTML, like Gecko) Chrome/138.0.0.0 Safari/537.36","WebKit","Chrome","138.0.0.0","Windows","10.0","https://app.prolific.com/","en-GB,en-US;q=0.9,en;q=0.8","6736f4a8fe83ffce0936bdc4","686d226cabeef709c732f8e1","686e310aa01d4df5dc429d07","6736f4a8fe83ffce0936bdc4","2025-07-09T09:29:35.464Z","","","","","","","","","","","","","","","","win-only","0","g1:NW,g2:SE","0.8","3","0","1341038.5","1637.4","6655","25794.4","1","4","4","6","2","4","4","14","10","0.10606060606060606","1408.9","3000","1490","[""down"",""right""]","{""num_key_presses"":6,""num_perfect"":5,""num_errors"":0,""num_randdir"":1,""num_randdir_good_moves"":1,""num_whilered"":0,""num_whileblue"":0,""num_blue"":1,""num_good_moves"":6}","[410.3214133126395,420.32142761775424,0.5,410.3214133126395,419.07142761775424,109.2,411.5714133126395,417.82142761775424,213.5,411.5714133126395,417.82142761775424,313.6,436.5714133126395,415.32142761775424,483.9,466.5714133126395,415.32142761775424,584.1,461.5714133126395,417.82142761775424,690.8,445.3214133126395,417.82142761775424,794.2,585.3214133126395,567.8214276177542,895.4,691.5714133126395,664.0714276177542,996.2,751.5714133126395,731.5714276177542,1098.8,756.5714133126395,739.0714276177542,1201.3,777.8214133126395,771.5714276177542,1321.9,781.5714133126395,775.3214276177542,1425.8,781.5714133126395,772.8214276177542,1526.2,780.3214133126395,767.8214276177542,1628.4,776.5714133126395,767.8214276177542,1729,770.3214133126395,741.5714276177542,1829.6,792.8214133126395,679.0714276177542,1930.3,950.3214133126395,619.0714276177542,2030.4,950.3214133126395,619.0714276177542,2134.3,950.3214133126395,619.0714276177542,2235.7,950.3214133126395,619.0714276177542,2358,950.3214133126395,619.0714276177542,2460.7,950.3214133126395,619.0714276177542,2561.6,950.3214133126395,619.0714276177542,2667.6,950.3214133126395,619.0714276177542,2776.1,950.3214133126395,619.0714276177542,2882,950.3214133126395,619.0714276177542,2991.9,950.3214133126395,619.0714276177542,3094.6,950.3214133126395,619.0714276177542,3208.2,950.3214133126395,619.0714276177542,3309.5,950.3214133126395,619.0714276177542,3411.1,950.3214133126395,619.0714276177542,3513.3,950.3214133126395,619.0714276177542,3618.3,950.3214133126395,619.0714276177542,3719.1,950.3214133126395,619.0714276177542,3820.8,950.3214133126395,619.0714276177542,3943,950.3214133126395,619.0714276177542,4046,950.3214133126395,619.0714276177542,4156.1,950.3214133126395,619.0714276177542,4264.3,950.3214133126395,619.0714276177542,4390.2,950.3214133126395,619.0714276177542,4501.8,950.3214133126395,619.0714276177542,4604.6,950.3214133126395,619.0714276177542,4709.4,950.3214133126395,619.0714276177542,4813.4,950.3214133126395,619.0714276177542,4914.1]","[1646.5,1646.5,1000,0,646.5,""smooth"",""down"",""down"",""good_move"",5120,3472.4,3075.8,1647.6,396.6,""smooth"",""right"",""right"",""good_move"",11282.8,6161.9,2672.4,8260.3,350.1,""smooth"",""down"",""down"",""good_move"",13546.9,2263.7,1837.3,11283.2,426.4,""oops"",""right"",""right"",""good_move"",16595.2,3047.1,2651.2,13548.1,395.9,""smooth"",""down"",""down"",""good_move"",18999.6,2403.7,1979.1,16595.9,424.6,""smooth"",""right"",""right"",""good_move""]","",""
"6236","","<div style=""width:500px;"">
  <p>What determined the result of this run?</p>
  </div>","100","html-slider-response","55","1372818","0.0-10.0-1.2","20","1","2025-07-09 09:06:44","7701e855f2ef39aa3fd6c71abdc6918a","165.165.122.131","Mozilla/5.0 (Windows NT 10.0; Win64; x64) AppleWebKit/537.36 (KHTML, like Gecko) Chrome/138.0.0.0 Safari/537.36","WebKit","Chrome","138.0.0.0","Windows","10.0","https://app.prolific.com/","en-GB,en-US;q=0.9,en;q=0.8","6736f4a8fe83ffce0936bdc4","686d226cabeef709c732f8e1","686e310aa01d4df5dc429d07","6736f4a8fe83ffce0936bdc4","2025-07-09T09:29:41.701Z","","","","","","AttribQ","","","","","","","","","","","","","","","","","","","","","","","","","","","","","","","","","","","","","","50"
"2655","","<div style=""width:500px;"">
  <p>How much control did you have over the ball?</p>
  </div>","100","html-slider-response","56","1375477","0.0-10.0-2.2","20","1","2025-07-09 09:06:44","7701e855f2ef39aa3fd6c71abdc6918a","165.165.122.131","Mozilla/5.0 (Windows NT 10.0; Win64; x64) AppleWebKit/537.36 (KHTML, like Gecko) Chrome/138.0.0.0 Safari/537.36","WebKit","Chrome","138.0.0.0","Windows","10.0","https://app.prolific.com/","en-GB,en-US;q=0.9,en;q=0.8","6736f4a8fe83ffce0936bdc4","686d226cabeef709c732f8e1","686e310aa01d4df5dc429d07","6736f4a8fe83ffce0936bdc4","2025-07-09T09:29:44.360Z","","","","","","ControlQ","","","","","","","","","","","","","","","","","","","","","","","","","","","","","","","","","","","","","","50"
"3769","","<div style=""width:500px;"">
  <p>How would you describe your current emotional state?</p>
  </div>","16","html-slider-response","57","1379248","0.0-10.0-3.2","20","1","2025-07-09 09:06:44","7701e855f2ef39aa3fd6c71abdc6918a","165.165.122.131","Mozilla/5.0 (Windows NT 10.0; Win64; x64) AppleWebKit/537.36 (KHTML, like Gecko) Chrome/138.0.0.0 Safari/537.36","WebKit","Chrome","138.0.0.0","Windows","10.0","https://app.prolific.com/","en-GB,en-US;q=0.9,en;q=0.8","6736f4a8fe83ffce0936bdc4","686d226cabeef709c732f8e1","686e310aa01d4df5dc429d07","6736f4a8fe83ffce0936bdc4","2025-07-09T09:29:48.131Z","","","","","","StressQ","","","","","","","","","","","","","","","","","","","","","","","","","","","","","","","","","","","","","","50"
"2579","","<div style=""width:500px;"">
  <p>What best describes how you currently feel?</p>
  </div>","77","html-slider-response","58","1381829","0.0-10.0-4.2","20","1","2025-07-09 09:06:44","7701e855f2ef39aa3fd6c71abdc6918a","165.165.122.131","Mozilla/5.0 (Windows NT 10.0; Win64; x64) AppleWebKit/537.36 (KHTML, like Gecko) Chrome/138.0.0.0 Safari/537.36","WebKit","Chrome","138.0.0.0","Windows","10.0","https://app.prolific.com/","en-GB,en-US;q=0.9,en;q=0.8","6736f4a8fe83ffce0936bdc4","686d226cabeef709c732f8e1","686e310aa01d4df5dc429d07","6736f4a8fe83ffce0936bdc4","2025-07-09T09:29:50.712Z","","","","","","MotivationQ","","","","","","","","","","","","","","","","","","","","","","","","","","","","","","","","","","","","","","50"
"","","","","ctl-task-cpt","59","1426838","0.0-10.0-0.3","20","1","2025-07-09 09:06:44","7701e855f2ef39aa3fd6c71abdc6918a","165.165.122.131","Mozilla/5.0 (Windows NT 10.0; Win64; x64) AppleWebKit/537.36 (KHTML, like Gecko) Chrome/138.0.0.0 Safari/537.36","WebKit","Chrome","138.0.0.0","Windows","10.0","https://app.prolific.com/","en-GB,en-US;q=0.9,en;q=0.8","6736f4a8fe83ffce0936bdc4","686d226cabeef709c732f8e1","686e310aa01d4df5dc429d07","6736f4a8fe83ffce0936bdc4","2025-07-09T09:30:35.721Z","","","","","","","","","","","","","","","","win-only","2","g1:SE,g2:NW","0.7","4","0","1385108.7","2245.5","7259.1","41985.8","1","4","8","6","2","8","8","22","14","0.16666666666666666","1923.2","3000","970","[""left"",""up""]","{""num_key_presses"":8,""num_perfect"":6,""num_errors"":0,""num_randdir"":2,""num_randdir_good_moves"":1,""num_whilered"":0,""num_whileblue"":0,""num_blue"":4,""num_good_moves"":7}","[410.3214133126395,415.32142761775424,2.8,410.3214133126395,415.32142761775424,102,410.3214133126395,415.32142761775424,209.5,410.3214133126395,415.32142761775424,313.9,410.3214133126395,415.32142761775424,422.3,420.3214133126395,414.07142761775424,525.6,451.5714133126395,452.82142761775424,625.6,359.0714133126395,356.57142761775424,727.4,241.5714133126395,246.57142761775424,832.9,240.3214133126395,184.07142761775424,942.9,234.0714133126395,176.57142761775424,1052,226.5714133126395,144.07142761775424,1155.5,212.8214133126395,135.32142761775424,1258.6,-109.6785866873605,50.32142761775425,1367.7,-124.6785866873605,31.571427617754253,1471.2,-103.4285866873605,42.82142761775425,1576.4,-4.678586687360493,76.57142761775425,1679.6,37.82141331263951,82.82142761775425,1780.2,45.32141331263951,81.57142761775425,1881.3,46.57141331263951,81.57142761775425,1990.7,49.07141331263951,81.57142761775425,2100.4,87.8214133126395,106.57142761775425,2203.4,301.5714133126395,209.07142761775424,2306,479.0714133126395,274.07142761775424,2406.3,811.5714133126395,344.07142761775424,2509.7,945.3214133126395,347.82142761775424,2615.7,951.5714133126395,347.82142761775424,2729.6,951.5714133126395,347.82142761775424,2830.1,951.5714133126395,347.82142761775424,2935.2,951.5714133126395,347.82142761775424,3042.9,951.5714133126395,347.82142761775424,3163.2,951.5714133126395,347.82142761775424,3268.6,951.5714133126395,356.57142761775424,3372.5,944.0714133126395,396.57142761775424,3475.5,932.8214133126395,482.82142761775424,3584,932.8214133126395,486.57142761775424,3697.4,945.3214133126395,445.32142761775424,3805.7,945.3214133126395,440.32142761775424,3906.4,947.8214133126395,424.07142761775424,4015.7,949.0714133126395,381.57142761775424,4115.8,952.8214133126395,352.82142761775424,4224.1,952.8214133126395,346.57142761775424,4326.3,952.8214133126395,346.57142761775424,4426.6,952.8214133126395,346.57142761775424,4532.3,952.8214133126395,346.57142761775424,4636.9,952.8214133126395,346.57142761775424,4746.8,952.8214133126395,346.57142761775424,4848.8,952.8214133126395,346.57142761775424,4960.1]","[1410.3,1410.3,1000,0,410.3,""smooth"",""left"",""left"",""good_move"",4111.7,2699.8,2353.7,1411.9,346.1,""smooth"",""left"",""left"",""good_move"",10075.6,5962.6,2334.5,7334.3,406.8,""smooth"",""left"",""left"",""good_move"",12987.7,2911,2420.1,10076.7,490.9,""oops"",""up"",""down"",""bad_move"",19308.5,6317.6,2624.9,16308.3,375.4,""oops"",""up"",""up"",""good_move"",21893.4,2583.7,2003.5,19309.8,580.1,""smooth"",""up"",""up"",""good_move"",28112.5,6217.7,2301.2,25433,378.3,""smooth"",""up"",""up"",""good_move"",34588.7,6475.6,2282.8,31988.7,317.2,""smooth"",""up"",""up"",""good_move""]","",""
"10512","","<div style=""width:500px;"">
  <p>What determined the result of this run?</p>
  </div>","100","html-slider-response","60","1437353","0.0-10.0-1.3","20","1","2025-07-09 09:06:44","7701e855f2ef39aa3fd6c71abdc6918a","165.165.122.131","Mozilla/5.0 (Windows NT 10.0; Win64; x64) AppleWebKit/537.36 (KHTML, like Gecko) Chrome/138.0.0.0 Safari/537.36","WebKit","Chrome","138.0.0.0","Windows","10.0","https://app.prolific.com/","en-GB,en-US;q=0.9,en;q=0.8","6736f4a8fe83ffce0936bdc4","686d226cabeef709c732f8e1","686e310aa01d4df5dc429d07","6736f4a8fe83ffce0936bdc4","2025-07-09T09:30:46.236Z","","","","","","AttribQ","","","","","","","","","","","","","","","","","","","","","","","","","","","","","","","","","","","","","","50"
"5365","","<div style=""width:500px;"">
  <p>How much control did you have over the ball?</p>
  </div>","81","html-slider-response","61","1442721","0.0-10.0-2.3","20","1","2025-07-09 09:06:44","7701e855f2ef39aa3fd6c71abdc6918a","165.165.122.131","Mozilla/5.0 (Windows NT 10.0; Win64; x64) AppleWebKit/537.36 (KHTML, like Gecko) Chrome/138.0.0.0 Safari/537.36","WebKit","Chrome","138.0.0.0","Windows","10.0","https://app.prolific.com/","en-GB,en-US;q=0.9,en;q=0.8","6736f4a8fe83ffce0936bdc4","686d226cabeef709c732f8e1","686e310aa01d4df5dc429d07","6736f4a8fe83ffce0936bdc4","2025-07-09T09:30:51.604Z","","","","","","ControlQ","","","","","","","","","","","","","","","","","","","","","","","","","","","","","","","","","","","","","","50"
"8596","","<div style=""width:500px;"">
  <p>How would you describe your current emotional state?</p>
  </div>","18","html-slider-response","62","1451320","0.0-10.0-3.3","20","1","2025-07-09 09:06:44","7701e855f2ef39aa3fd6c71abdc6918a","165.165.122.131","Mozilla/5.0 (Windows NT 10.0; Win64; x64) AppleWebKit/537.36 (KHTML, like Gecko) Chrome/138.0.0.0 Safari/537.36","WebKit","Chrome","138.0.0.0","Windows","10.0","https://app.prolific.com/","en-GB,en-US;q=0.9,en;q=0.8","6736f4a8fe83ffce0936bdc4","686d226cabeef709c732f8e1","686e310aa01d4df5dc429d07","6736f4a8fe83ffce0936bdc4","2025-07-09T09:31:00.204Z","","","","","","StressQ","","","","","","","","","","","","","","","","","","","","","","","","","","","","","","","","","","","","","","50"
"8735","","<div style=""width:500px;"">
  <p>What best describes how you currently feel?</p>
  </div>","75","html-slider-response","63","1460059","0.0-10.0-4.3","20","1","2025-07-09 09:06:44","7701e855f2ef39aa3fd6c71abdc6918a","165.165.122.131","Mozilla/5.0 (Windows NT 10.0; Win64; x64) AppleWebKit/537.36 (KHTML, like Gecko) Chrome/138.0.0.0 Safari/537.36","WebKit","Chrome","138.0.0.0","Windows","10.0","https://app.prolific.com/","en-GB,en-US;q=0.9,en;q=0.8","6736f4a8fe83ffce0936bdc4","686d226cabeef709c732f8e1","686e310aa01d4df5dc429d07","6736f4a8fe83ffce0936bdc4","2025-07-09T09:31:08.942Z","","","","","","MotivationQ","","","","","","","","","","","","","","","","","","","","","","","","","","","","","","","","","","","","","","50"
"","","","","ctl-task-cpt","64","1506359","0.0-10.0-0.4","20","1","2025-07-09 09:06:44","7701e855f2ef39aa3fd6c71abdc6918a","165.165.122.131","Mozilla/5.0 (Windows NT 10.0; Win64; x64) AppleWebKit/537.36 (KHTML, like Gecko) Chrome/138.0.0.0 Safari/537.36","WebKit","Chrome","138.0.0.0","Windows","10.0","https://app.prolific.com/","en-GB,en-US;q=0.9,en;q=0.8","6736f4a8fe83ffce0936bdc4","686d226cabeef709c732f8e1","686e310aa01d4df5dc429d07","6736f4a8fe83ffce0936bdc4","2025-07-09T09:31:55.243Z","","","","","","","","","","","","","","","","win-only","3","g1:SW,g2:NE","0.6","5","0","1463341.6","1369.2","6375.8","43282","1","4","8","6","2","8","8","30","22","0.22727272727272727","1037.1","3000","865","[""up"",""right""]","{""num_key_presses"":8,""num_perfect"":6,""num_errors"":0,""num_randdir"":2,""num_randdir_good_moves"":1,""num_whilered"":0,""num_whileblue"":0,""num_blue"":4,""num_good_moves"":7}","[417.8214133126395,416.57142761775424,2.1,419.0714133126395,416.57142761775424,107,419.0714133126395,416.57142761775424,214.3,419.0714133126395,416.57142761775424,335.1,472.8214133126395,336.57142761775424,437.8,549.0714133126395,241.57142761775424,542.5,611.5714133126395,202.82142761775424,649.1,711.5714133126395,91.57142761775425,749.4,749.0714133126395,26.571427617754253,852.5,749.0714133126395,32.82142761775425,956.7,751.5714133126395,41.57142761775425,1062,751.5714133126395,41.57142761775425,1166.5,749.0714133126395,55.32142761775425,1267.3,742.8214133126395,70.32142761775425,1367.4,742.8214133126395,66.57142761775425,1477.3,745.3214133126395,52.82142761775425,1585.2,749.0714133126395,42.82142761775425,1689.4,749.0714133126395,40.32142761775425,1793.1,752.8214133126395,11.571427617754253,1901,752.8214133126395,11.571427617754253,2018.8,752.8214133126395,11.571427617754253,2126.8,752.8214133126395,11.571427617754253,2231.2,752.8214133126395,11.571427617754253,2334.9,752.8214133126395,11.571427617754253,2441.1,752.8214133126395,11.571427617754253,2549.9,752.8214133126395,11.571427617754253,2654.3,752.8214133126395,11.571427617754253,2757.5,752.8214133126395,11.571427617754253,2862.2,751.5714133126395,11.571427617754253,2964.8,751.5714133126395,12.821427617754253,3069.6,751.5714133126395,12.821427617754253,3180.1,751.5714133126395,12.821427617754253,3294.5,751.5714133126395,12.821427617754253,3409.1,751.5714133126395,12.821427617754253,3513.4,740.3214133126395,26.571427617754253,3617.6,731.5714133126395,39.07142761775425,3741.9,727.8214133126395,44.07142761775425,3851.8,726.5714133126395,46.57142761775425,3954.8,726.5714133126395,46.57142761775425,4066.5,726.5714133126395,46.57142761775425,4169.2,726.5714133126395,46.57142761775425,4273.1,726.5714133126395,46.57142761775425,4381.5,726.5714133126395,55.32142761775425,4485.2,824.0714133126395,259.07142761775424,4588.1,860.3214133126395,349.07142761775424,4691.1,860.3214133126395,349.07142761775424,4795.9,865.3214133126395,354.07142761775424,4903.3]","[4737.1,4737.1,2354.7,2025.6,356.8,""oops"",""up"",""down"",""bad_move"",11865.8,7127.1,3090.7,8459.8,315.3,""smooth"",""right"",""right"",""good_move"",15695.9,3829.1,3329.8,11866.8,499.3,""smooth"",""up"",""up"",""good_move"",21616.3,5915.4,2278,18996.1,342.2,""smooth"",""up"",""up"",""good_move"",27384.2,5766.7,2360.6,24681.8,341.8,""smooth"",""right"",""right"",""good_move"",30515.5,3130.6,1877,27384.9,1253.7,""smooth"",""up"",""up"",""good_move"",33688.5,3172,2555.5,30516.5,616.5,""oops"",""up"",""right"",""good_move"",36764,3074.4,2741.2,33689.6,333.2,""smooth"",""up"",""up"",""good_move""]","",""
"6543","","<div style=""width:500px;"">
  <p>What determined the result of this run?</p>
  </div>","100","html-slider-response","65","1512905","0.0-10.0-1.4","20","1","2025-07-09 09:06:44","7701e855f2ef39aa3fd6c71abdc6918a","165.165.122.131","Mozilla/5.0 (Windows NT 10.0; Win64; x64) AppleWebKit/537.36 (KHTML, like Gecko) Chrome/138.0.0.0 Safari/537.36","WebKit","Chrome","138.0.0.0","Windows","10.0","https://app.prolific.com/","en-GB,en-US;q=0.9,en;q=0.8","6736f4a8fe83ffce0936bdc4","686d226cabeef709c732f8e1","686e310aa01d4df5dc429d07","6736f4a8fe83ffce0936bdc4","2025-07-09T09:32:01.788Z","","","","","","AttribQ","","","","","","","","","","","","","","","","","","","","","","","","","","","","","","","","","","","","","","50"
"4566","","<div style=""width:500px;"">
  <p>How much control did you have over the ball?</p>
  </div>","100","html-slider-response","66","1517473","0.0-10.0-2.4","20","1","2025-07-09 09:06:44","7701e855f2ef39aa3fd6c71abdc6918a","165.165.122.131","Mozilla/5.0 (Windows NT 10.0; Win64; x64) AppleWebKit/537.36 (KHTML, like Gecko) Chrome/138.0.0.0 Safari/537.36","WebKit","Chrome","138.0.0.0","Windows","10.0","https://app.prolific.com/","en-GB,en-US;q=0.9,en;q=0.8","6736f4a8fe83ffce0936bdc4","686d226cabeef709c732f8e1","686e310aa01d4df5dc429d07","6736f4a8fe83ffce0936bdc4","2025-07-09T09:32:06.356Z","","","","","","ControlQ","","","","","","","","","","","","","","","","","","","","","","","","","","","","","","","","","","","","","","50"
"5425","","<div style=""width:500px;"">
  <p>How would you describe your current emotional state?</p>
  </div>","3","html-slider-response","67","1522901","0.0-10.0-3.4","20","1","2025-07-09 09:06:44","7701e855f2ef39aa3fd6c71abdc6918a","165.165.122.131","Mozilla/5.0 (Windows NT 10.0; Win64; x64) AppleWebKit/537.36 (KHTML, like Gecko) Chrome/138.0.0.0 Safari/537.36","WebKit","Chrome","138.0.0.0","Windows","10.0","https://app.prolific.com/","en-GB,en-US;q=0.9,en;q=0.8","6736f4a8fe83ffce0936bdc4","686d226cabeef709c732f8e1","686e310aa01d4df5dc429d07","6736f4a8fe83ffce0936bdc4","2025-07-09T09:32:11.784Z","","","","","","StressQ","","","","","","","","","","","","","","","","","","","","","","","","","","","","","","","","","","","","","","50"
"15949","","<div style=""width:500px;"">
  <p>What best describes how you currently feel?</p>
  </div>","99","html-slider-response","68","1538853","0.0-10.0-4.4","20","1","2025-07-09 09:06:44","7701e855f2ef39aa3fd6c71abdc6918a","165.165.122.131","Mozilla/5.0 (Windows NT 10.0; Win64; x64) AppleWebKit/537.36 (KHTML, like Gecko) Chrome/138.0.0.0 Safari/537.36","WebKit","Chrome","138.0.0.0","Windows","10.0","https://app.prolific.com/","en-GB,en-US;q=0.9,en;q=0.8","6736f4a8fe83ffce0936bdc4","686d226cabeef709c732f8e1","686e310aa01d4df5dc429d07","6736f4a8fe83ffce0936bdc4","2025-07-09T09:32:27.736Z","","","","","","MotivationQ","","","","","","","","","","","","","","","","","","","","","","","","","","","","","","","","","","","","","","50"
"","","","","ctl-task-cpt","69","1605970","0.0-10.0-0.5","20","1","2025-07-09 09:06:44","7701e855f2ef39aa3fd6c71abdc6918a","165.165.122.131","Mozilla/5.0 (Windows NT 10.0; Win64; x64) AppleWebKit/537.36 (KHTML, like Gecko) Chrome/138.0.0.0 Safari/537.36","WebKit","Chrome","138.0.0.0","Windows","10.0","https://app.prolific.com/","en-GB,en-US;q=0.9,en;q=0.8","6736f4a8fe83ffce0936bdc4","686d226cabeef709c732f8e1","686e310aa01d4df5dc429d07","6736f4a8fe83ffce0936bdc4","2025-07-09T09:33:34.853Z","","","","","","","","","","","","","","","","win-only","2","g1:SE,g2:NW","0.5","6","0","1542132.8","1900.7","6956.2","64072.8","1","4","4","6","2","4","4","34","30","0.25757575757575757","1494.1","3000","845","[""left"",""up""]","{""num_key_presses"":16,""num_perfect"":9,""num_errors"":0,""num_randdir"":7,""num_randdir_good_moves"":2,""num_whilered"":0,""num_whileblue"":0,""num_blue"":2,""num_good_moves"":11}","[421.5714133126395,416.57142761775424,1.9,421.5714133126395,416.57142761775424,102.4,421.5714133126395,416.57142761775424,204.9,421.5714133126395,416.57142761775424,307.4,421.5714133126395,416.57142761775424,416.1,414.0714133126395,416.57142761775424,518.3,234.0714133126395,320.32142761775424,620.3,90.3214133126395,301.57142761775424,727,50.32141331263951,217.82142761775424,833.4,51.57141331263951,189.07142761775424,945.2,51.57141331263951,170.32142761775424,1046.6,54.07141331263951,165.32142761775424,1147.8,56.57141331263951,150.32142761775424,1253.4,62.82141331263951,112.82142761775425,1361,66.5714133126395,81.57142761775425,1470.9,66.5714133126395,77.82142761775425,1571.9,70.3214133126395,77.82142761775425,1681.7,70.3214133126395,79.07142761775425,1782,131.5714133126395,126.57142761775425,1888.1,200.3214133126395,176.57142761775424,1991.5,227.8214133126395,174.07142761775424,2092.4,286.5714133126395,120.32142761775425,2194,295.3214133126395,116.57142761775425,2299.5,295.3214133126395,116.57142761775425,2411.7,295.3214133126395,116.57142761775425,2513.6,295.3214133126395,116.57142761775425,2619.1,295.3214133126395,116.57142761775425,2726.6,295.3214133126395,116.57142761775425,2826.6,295.3214133126395,116.57142761775425,2930.6,295.3214133126395,116.57142761775425,3036.2,295.3214133126395,116.57142761775425,3154,295.3214133126395,116.57142761775425,3262,295.3214133126395,116.57142761775425,3367.1,295.3214133126395,116.57142761775425,3473.6,295.3214133126395,116.57142761775425,3574.7,295.3214133126395,116.57142761775425,3685.4,295.3214133126395,116.57142761775425,3796.4,295.3214133126395,116.57142761775425,3901.2,295.3214133126395,116.57142761775425,4001.7,295.3214133126395,116.57142761775425,4105.4,295.3214133126395,116.57142761775425,4210.7,295.3214133126395,116.57142761775425,4317.5,295.3214133126395,116.57142761775425,4424.5,295.3214133126395,116.57142761775425,4530.3,295.3214133126395,116.57142761775425,4634,295.3214133126395,116.57142761775425,4743.1,295.3214133126395,116.57142761775425,4847.2,295.3214133126395,116.57142761775425,4958.6]","[1544.6,1544.6,1000,0,544.6,""smooth"",""left"",""left"",""good_move"",7378.2,5829.6,1869.5,5082.8,425.9,""oops"",""up"",""left"",""good_move"",10182.4,2802.8,1983.7,7379.6,819.1,""smooth"",""up"",""up"",""good_move"",13390.6,3206.2,2760.2,10184.4,446,""oops"",""up"",""right"",""bad_move"",15930.1,2537.8,1977.5,13392.3,560.3,""oops"",""up"",""right"",""bad_move"",18830.4,2896,2507.7,15934.4,388.3,""smooth"",""left"",""left"",""good_move"",21539.1,2707.2,1891.3,18831.9,815.9,""smooth"",""left"",""left"",""good_move"",24228.6,2688.4,2315.6,21540.3,372.7,""smooth"",""left"",""left"",""good_move"",27443.4,3213.7,2242.2,24229.7,971.5,""oops"",""up"",""right"",""bad_move"",30240,2794.9,2210.7,27445.1,584.2,""oops"",""right"",""right"",""bad_move"",32992,2750.8,2394.6,30241.2,356.2,""smooth"",""up"",""up"",""good_move"",40224.7,7231.6,2563.1,37288.1,373.5,""smooth"",""up"",""up"",""good_move"",44928.2,4702.7,2185.1,40225.6,2517.5,""smooth"",""left"",""left"",""good_move"",48961.4,4031.8,2508.6,44929.7,1523.1,""oops"",""left"",""right"",""bad_move"",52229.7,3266.8,2853.1,48962.9,413.7,""oops"",""left"",""left"",""good_move"",56693.8,4462.7,3005,52231.2,1457.7,""smooth"",""left"",""left"",""good_move""]","",""
"4381","","<div style=""width:500px;"">
  <p>What determined the result of this run?</p>
  </div>","99","html-slider-response","70","1610358","0.0-10.0-1.5","20","1","2025-07-09 09:06:44","7701e855f2ef39aa3fd6c71abdc6918a","165.165.122.131","Mozilla/5.0 (Windows NT 10.0; Win64; x64) AppleWebKit/537.36 (KHTML, like Gecko) Chrome/138.0.0.0 Safari/537.36","WebKit","Chrome","138.0.0.0","Windows","10.0","https://app.prolific.com/","en-GB,en-US;q=0.9,en;q=0.8","6736f4a8fe83ffce0936bdc4","686d226cabeef709c732f8e1","686e310aa01d4df5dc429d07","6736f4a8fe83ffce0936bdc4","2025-07-09T09:33:39.241Z","","","","","","AttribQ","","","","","","","","","","","","","","","","","","","","","","","","","","","","","","","","","","","","","","50"
"3730","","<div style=""width:500px;"">
  <p>How much control did you have over the ball?</p>
  </div>","29","html-slider-response","71","1614093","0.0-10.0-2.5","20","1","2025-07-09 09:06:44","7701e855f2ef39aa3fd6c71abdc6918a","165.165.122.131","Mozilla/5.0 (Windows NT 10.0; Win64; x64) AppleWebKit/537.36 (KHTML, like Gecko) Chrome/138.0.0.0 Safari/537.36","WebKit","Chrome","138.0.0.0","Windows","10.0","https://app.prolific.com/","en-GB,en-US;q=0.9,en;q=0.8","6736f4a8fe83ffce0936bdc4","686d226cabeef709c732f8e1","686e310aa01d4df5dc429d07","6736f4a8fe83ffce0936bdc4","2025-07-09T09:33:42.977Z","","","","","","ControlQ","","","","","","","","","","","","","","","","","","","","","","","","","","","","","","","","","","","","","","50"
"3727","","<div style=""width:500px;"">
  <p>How would you describe your current emotional state?</p>
  </div>","7","html-slider-response","72","1617824","0.0-10.0-3.5","20","1","2025-07-09 09:06:44","7701e855f2ef39aa3fd6c71abdc6918a","165.165.122.131","Mozilla/5.0 (Windows NT 10.0; Win64; x64) AppleWebKit/537.36 (KHTML, like Gecko) Chrome/138.0.0.0 Safari/537.36","WebKit","Chrome","138.0.0.0","Windows","10.0","https://app.prolific.com/","en-GB,en-US;q=0.9,en;q=0.8","6736f4a8fe83ffce0936bdc4","686d226cabeef709c732f8e1","686e310aa01d4df5dc429d07","6736f4a8fe83ffce0936bdc4","2025-07-09T09:33:46.707Z","","","","","","StressQ","","","","","","","","","","","","","","","","","","","","","","","","","","","","","","","","","","","","","","50"
"3230","","<div style=""width:500px;"">
  <p>What best describes how you currently feel?</p>
  </div>","96","html-slider-response","73","1621058","0.0-10.0-4.5","20","1","2025-07-09 09:06:44","7701e855f2ef39aa3fd6c71abdc6918a","165.165.122.131","Mozilla/5.0 (Windows NT 10.0; Win64; x64) AppleWebKit/537.36 (KHTML, like Gecko) Chrome/138.0.0.0 Safari/537.36","WebKit","Chrome","138.0.0.0","Windows","10.0","https://app.prolific.com/","en-GB,en-US;q=0.9,en;q=0.8","6736f4a8fe83ffce0936bdc4","686d226cabeef709c732f8e1","686e310aa01d4df5dc429d07","6736f4a8fe83ffce0936bdc4","2025-07-09T09:33:49.942Z","","","","","","MotivationQ","","","","","","","","","","","","","","","","","","","","","","","","","","","","","","","","","","","","","","50"
"","","","","ctl-task-cpt","74","1742692","0.0-10.0-0.6","20","1","2025-07-09 09:06:44","7701e855f2ef39aa3fd6c71abdc6918a","165.165.122.131","Mozilla/5.0 (Windows NT 10.0; Win64; x64) AppleWebKit/537.36 (KHTML, like Gecko) Chrome/138.0.0.0 Safari/537.36","WebKit","Chrome","138.0.0.0","Windows","10.0","https://app.prolific.com/","en-GB,en-US;q=0.9,en;q=0.8","6736f4a8fe83ffce0936bdc4","686d226cabeef709c732f8e1","686e310aa01d4df5dc429d07","6736f4a8fe83ffce0936bdc4","2025-07-09T09:35:51.575Z","","","","","","","","","","","","","","","","win-only","0","g1:NW,g2:SE","0.4","7","0","1624358.7","2261.2","7274.6","118596.7","1","4","4","6","2","-4","-5","29","34","0.2196969696969697","2042.2","3000","-1340","[""down"",""right""]","{""num_key_presses"":25,""num_perfect"":9,""num_errors"":1,""num_randdir"":15,""num_randdir_good_moves"":5,""num_whilered"":0,""num_whileblue"":1,""num_blue"":5,""num_good_moves"":13}","[424.0714133126395,416.57142761775424,4.8,424.0714133126395,416.57142761775424,101.6,424.0714133126395,416.57142761775424,235.1,424.0714133126395,416.57142761775424,365.2,424.0714133126395,416.57142761775424,473.1,424.0714133126395,416.57142761775424,598.8,421.5714133126395,416.57142761775424,707.4,407.8214133126395,429.07142761775424,846.5,566.5714133126395,586.5714276177542,973.2,611.5714133126395,621.5714276177542,1097.8,671.5714133126395,699.0714276177542,1204.4,700.3214133126395,735.3214276177542,1304.5,714.0714133126395,745.3214276177542,1429.2,725.3214133126395,745.3214276177542,1535.3,726.5714133126395,745.3214276177542,1655.1,726.5714133126395,745.3214276177542,1768.5,726.5714133126395,745.3214276177542,1886.9,726.5714133126395,745.3214276177542,1996.2,726.5714133126395,744.0714276177542,2173.1,726.5714133126395,741.5714276177542,2281.9,727.8214133126395,736.5714276177542,2397.5,727.8214133126395,730.3214276177542,2509.6,726.5714133126395,721.5714276177542,2646.6,722.8214133126395,719.0714276177542,2750.4,714.0714133126395,711.5714276177542,2878.7,701.5714133126395,705.3214276177542,3006.4,686.5714133126395,695.3214276177542,3138.3,681.5714133126395,687.8214276177542,3245.6,679.0714133126395,687.8214276177542,3369.6,666.5714133126395,676.5714276177542,3477.8,660.3214133126395,671.5714276177542,3595.3,657.8214133126395,671.5714276177542,3697.9,656.5714133126395,671.5714276177542,3806.6,656.5714133126395,669.0714276177542,3936.9,646.5714133126395,661.5714276177542,4066.5,614.0714133126395,646.5714276177542,4171.4,585.3214133126395,645.3214276177542,4289.7,585.3214133126395,645.3214276177542,4405.7,585.3214133126395,645.3214276177542,4521.2,585.3214133126395,645.3214276177542,4640.3,585.3214133126395,645.3214276177542,4752.3,585.3214133126395,645.3214276177542,4865.2,585.3214133126395,645.3214276177542,4980.4]","[4500.2,4500.2,2030.2,2020.9,449.1,""oops"",""down"",""right"",""good_move"",7525.5,3024,2488.7,4501.5,535.3,""smooth"",""down"",""down"",""good_move"",10797.1,3270,2929.1,7527.1,340.9,""oops"",""down"",""right"",""good_move"",13482.8,2684.9,2251.4,10798,433.5,""smooth"",""down"",""down"",""good_move"",15900.5,2416.6,1863.3,13483.9,553.3,""smooth"",""down"",""down"",""good_move"",18750.3,2848.7,2458.1,15901.6,390.6,""oops"",""right"",""left"",""bad_move"",23975.4,5223.1,2965.8,18752.3,2257.3,""smooth"",""right"",""right"",""good_move"",26987.3,3011,2537.8,23976.3,473.2,""oops"",""right"",""up"",""bad_move"",33481,6491.7,2211.7,26989.3,4280,""oops"",""right"",""down"",""good_move"",40392.7,6910.9,2261.4,37743.8,387.5,""oops"",""right"",""left"",""bad_move"",47051.4,6658.1,6300.7,40393.4,357.3,""while_blue"",""right"",""up"",""bad_move"",54429.4,7377.2,2918.7,47052.2,4458.5,""oops"",""right"",""up"",""bad_move"",66863.6,12433.5,3209.1,63178,476.5,""smooth"",""down"",""down"",""good_move"",73038,6173.7,1920.4,70354.6,763,""oops"",""right"",""down"",""good_move"",78048.4,5009.8,2379.4,73038.6,2630.4,""oops"",""right"",""right"",""good_move"",81911.3,3861.1,2296.7,78050.3,1564.3,""oops"",""right"",""left"",""bad_move"",85421.8,3509.6,2230.6,81912.2,1279,""smooth"",""left"",""left"",""bad_move"",87947.6,2524.8,1577.4,85422.8,947.4,""smooth"",""right"",""right"",""good_move"",90463.1,2514,2029.8,87949.1,484.2,""smooth"",""right"",""right"",""good_move"",93174,2709.7,2337.4,90464.3,372.3,""oops"",""right"",""left"",""bad_move"",96239.6,3064.1,2606.7,93175.5,457.4,""oops"",""up"",""left"",""bad_move"",99325.9,3084.9,2308,96241.1,776.8,""oops"",""right"",""left"",""bad_move"",102995.9,3667.6,2222.8,99328.3,1444.8,""oops"",""left"",""left"",""bad_move"",106241.1,3242.5,2547.3,102998.6,695.2,""oops"",""right"",""up"",""bad_move"",109405.3,3162.9,2075.8,106242.4,1087.1,""smooth"",""right"",""right"",""good_move""]","",""
"4607","","<div style=""width:500px;"">
  <p>What determined the result of this run?</p>
  </div>","38","html-slider-response","75","1747302","0.0-10.0-1.6","20","1","2025-07-09 09:06:44","7701e855f2ef39aa3fd6c71abdc6918a","165.165.122.131","Mozilla/5.0 (Windows NT 10.0; Win64; x64) AppleWebKit/537.36 (KHTML, like Gecko) Chrome/138.0.0.0 Safari/537.36","WebKit","Chrome","138.0.0.0","Windows","10.0","https://app.prolific.com/","en-GB,en-US;q=0.9,en;q=0.8","6736f4a8fe83ffce0936bdc4","686d226cabeef709c732f8e1","686e310aa01d4df5dc429d07","6736f4a8fe83ffce0936bdc4","2025-07-09T09:35:56.185Z","","","","","","AttribQ","","","","","","","","","","","","","","","","","","","","","","","","","","","","","","","","","","","","","","50"
"5059","","<div style=""width:500px;"">
  <p>How much control did you have over the ball?</p>
  </div>","0","html-slider-response","76","1752363","0.0-10.0-2.6","20","1","2025-07-09 09:06:44","7701e855f2ef39aa3fd6c71abdc6918a","165.165.122.131","Mozilla/5.0 (Windows NT 10.0; Win64; x64) AppleWebKit/537.36 (KHTML, like Gecko) Chrome/138.0.0.0 Safari/537.36","WebKit","Chrome","138.0.0.0","Windows","10.0","https://app.prolific.com/","en-GB,en-US;q=0.9,en;q=0.8","6736f4a8fe83ffce0936bdc4","686d226cabeef709c732f8e1","686e310aa01d4df5dc429d07","6736f4a8fe83ffce0936bdc4","2025-07-09T09:36:01.247Z","","","","","","ControlQ","","","","","","","","","","","","","","","","","","","","","","","","","","","","","","","","","","","","","","50"
"1810","","<div style=""width:500px;"">
  <p>How would you describe your current emotional state?</p>
  </div>","77","html-slider-response","77","1754176","0.0-10.0-3.6","20","1","2025-07-09 09:06:44","7701e855f2ef39aa3fd6c71abdc6918a","165.165.122.131","Mozilla/5.0 (Windows NT 10.0; Win64; x64) AppleWebKit/537.36 (KHTML, like Gecko) Chrome/138.0.0.0 Safari/537.36","WebKit","Chrome","138.0.0.0","Windows","10.0","https://app.prolific.com/","en-GB,en-US;q=0.9,en;q=0.8","6736f4a8fe83ffce0936bdc4","686d226cabeef709c732f8e1","686e310aa01d4df5dc429d07","6736f4a8fe83ffce0936bdc4","2025-07-09T09:36:03.059Z","","","","","","StressQ","","","","","","","","","","","","","","","","","","","","","","","","","","","","","","","","","","","","","","50"
"3020","","<div style=""width:500px;"">
  <p>What best describes how you currently feel?</p>
  </div>","65","html-slider-response","78","1757200","0.0-10.0-4.6","20","1","2025-07-09 09:06:44","7701e855f2ef39aa3fd6c71abdc6918a","165.165.122.131","Mozilla/5.0 (Windows NT 10.0; Win64; x64) AppleWebKit/537.36 (KHTML, like Gecko) Chrome/138.0.0.0 Safari/537.36","WebKit","Chrome","138.0.0.0","Windows","10.0","https://app.prolific.com/","en-GB,en-US;q=0.9,en;q=0.8","6736f4a8fe83ffce0936bdc4","686d226cabeef709c732f8e1","686e310aa01d4df5dc429d07","6736f4a8fe83ffce0936bdc4","2025-07-09T09:36:06.083Z","","","","","","MotivationQ","","","","","","","","","","","","","","","","","","","","","","","","","","","","","","","","","","","","","","50"
"","","","","ctl-task-cpt","79","1802986","0.0-10.0-0.7","20","1","2025-07-09 09:06:44","7701e855f2ef39aa3fd6c71abdc6918a","165.165.122.131","Mozilla/5.0 (Windows NT 10.0; Win64; x64) AppleWebKit/537.36 (KHTML, like Gecko) Chrome/138.0.0.0 Safari/537.36","WebKit","Chrome","138.0.0.0","Windows","10.0","https://app.prolific.com/","en-GB,en-US;q=0.9,en;q=0.8","6736f4a8fe83ffce0936bdc4","686d226cabeef709c732f8e1","686e310aa01d4df5dc429d07","6736f4a8fe83ffce0936bdc4","2025-07-09T09:36:51.869Z","","","","","","","","","","","","","","","","win-only","2","g1:SE,g2:NW","0.3","8","0","1760480.2","14186.8","19204","42721.8","1","4","8","6","1","1","1","30","29","0.22727272727272727","3527.4","3000","2320","[""down"",""right""]","{""num_key_presses"":6,""num_perfect"":3,""num_errors"":0,""num_randdir"":3,""num_randdir_good_moves"":2,""num_whilered"":0,""num_whileblue"":0,""num_blue"":1,""num_good_moves"":5}","[416.5714133126395,402.82142761775424,1.8,420.3214133126395,402.82142761775424,131.9,421.5714133126395,401.57142761775424,240.4,421.5714133126395,401.57142761775424,360.2,422.8214133126395,401.57142761775424,475.8,435.3214133126395,465.32142761775424,584.8,446.5714133126395,511.57142761775424,684.9,449.0714133126395,489.07142761775424,797.6,437.8214133126395,444.07142761775424,911.7,435.3214133126395,436.57142761775424,1021.3,430.3214133126395,436.57142761775424,1139.1,431.5714133126395,446.57142761775424,1242,464.0714133126395,477.82142761775424,1358.1,374.0714133126395,385.32142761775424,1471.2,200.3214133126395,221.57142761775424,1591.5,131.5714133126395,166.57142761775424,1710.8,81.5714133126395,115.32142761775425,1811.5,71.5714133126395,96.57142761775425,1912.8,71.5714133126395,71.57142761775425,2034.2,80.3214133126395,77.82142761775425,2154.8,732.8214133126395,726.5714276177542,2277.1,940.3214133126395,915.3214276177542,2401.1,1060.3214133126396,960.3214276177542,2505.2,1097.8214133126396,960.3214276177542,2611.1,997.8214133126395,887.8214276177542,2733.4,956.5714133126395,857.8214276177542,2837.3,911.5714133126395,836.5714276177542,2978.3,849.0714133126395,785.3214276177542,3085.1,817.8214133126395,751.5714276177542,3190.2,815.3214133126395,746.5714276177542,3305,801.5714133126395,741.5714276177542,3430.4,799.0714133126395,739.0714276177542,3542.6,799.0714133126395,739.0714276177542,3644.9,797.8214133126395,739.0714276177542,3751.7,792.8214133126395,741.5714276177542,3886.1,791.5714133126395,750.3214276177542,4002,786.5714133126395,759.0714276177542,4110.3,785.3214133126395,761.5714276177542,4226,781.5714133126395,771.5714276177542,4330.1,777.8214133126395,782.8214276177542,4440.5,777.8214133126395,782.8214276177542,4571.5,776.5714133126395,771.5714276177542,4678.6,776.5714133126395,757.8214276177542,4781,776.5714133126395,757.8214276177542,4904.4]","[1669.1,1669.1,1000,0,669.1,""oops"",""down"",""down"",""good_move"",5689.1,4018.5,3613.4,1670.6,405.1,""oops"",""right"",""right"",""good_move"",8901.8,3211.3,2646.3,5690.5,565,""smooth"",""right"",""right"",""good_move"",11951.9,3048.5,2635.4,8903.5,413,""oops"",""down"",""left"",""bad_move"",15929.7,3975.8,2267.6,11953.9,1708.2,""smooth"",""down"",""down"",""good_move"",22662.7,6731.7,2380.6,19725,557.2,""smooth"",""right"",""right"",""good_move""]","",""
"3804","","<div style=""width:500px;"">
  <p>What determined the result of this run?</p>
  </div>","99","html-slider-response","80","1806793","0.0-10.0-1.7","20","1","2025-07-09 09:06:44","7701e855f2ef39aa3fd6c71abdc6918a","165.165.122.131","Mozilla/5.0 (Windows NT 10.0; Win64; x64) AppleWebKit/537.36 (KHTML, like Gecko) Chrome/138.0.0.0 Safari/537.36","WebKit","Chrome","138.0.0.0","Windows","10.0","https://app.prolific.com/","en-GB,en-US;q=0.9,en;q=0.8","6736f4a8fe83ffce0936bdc4","686d226cabeef709c732f8e1","686e310aa01d4df5dc429d07","6736f4a8fe83ffce0936bdc4","2025-07-09T09:36:55.676Z","","","","","","AttribQ","","","","","","","","","","","","","","","","","","","","","","","","","","","","","","","","","","","","","","50"
"4037","","<div style=""width:500px;"">
  <p>How much control did you have over the ball?</p>
  </div>","79","html-slider-response","81","1810836","0.0-10.0-2.7","20","1","2025-07-09 09:06:44","7701e855f2ef39aa3fd6c71abdc6918a","165.165.122.131","Mozilla/5.0 (Windows NT 10.0; Win64; x64) AppleWebKit/537.36 (KHTML, like Gecko) Chrome/138.0.0.0 Safari/537.36","WebKit","Chrome","138.0.0.0","Windows","10.0","https://app.prolific.com/","en-GB,en-US;q=0.9,en;q=0.8","6736f4a8fe83ffce0936bdc4","686d226cabeef709c732f8e1","686e310aa01d4df5dc429d07","6736f4a8fe83ffce0936bdc4","2025-07-09T09:36:59.719Z","","","","","","ControlQ","","","","","","","","","","","","","","","","","","","","","","","","","","","","","","","","","","","","","","50"
"4861","","<div style=""width:500px;"">
  <p>How would you describe your current emotional state?</p>
  </div>","20","html-slider-response","82","1815703","0.0-10.0-3.7","20","1","2025-07-09 09:06:44","7701e855f2ef39aa3fd6c71abdc6918a","165.165.122.131","Mozilla/5.0 (Windows NT 10.0; Win64; x64) AppleWebKit/537.36 (KHTML, like Gecko) Chrome/138.0.0.0 Safari/537.36","WebKit","Chrome","138.0.0.0","Windows","10.0","https://app.prolific.com/","en-GB,en-US;q=0.9,en;q=0.8","6736f4a8fe83ffce0936bdc4","686d226cabeef709c732f8e1","686e310aa01d4df5dc429d07","6736f4a8fe83ffce0936bdc4","2025-07-09T09:37:04.586Z","","","","","","StressQ","","","","","","","","","","","","","","","","","","","","","","","","","","","","","","","","","","","","","","50"
"3069","","<div style=""width:500px;"">
  <p>What best describes how you currently feel?</p>
  </div>","50","html-slider-response","83","1818776","0.0-10.0-4.7","20","1","2025-07-09 09:06:44","7701e855f2ef39aa3fd6c71abdc6918a","165.165.122.131","Mozilla/5.0 (Windows NT 10.0; Win64; x64) AppleWebKit/537.36 (KHTML, like Gecko) Chrome/138.0.0.0 Safari/537.36","WebKit","Chrome","138.0.0.0","Windows","10.0","https://app.prolific.com/","en-GB,en-US;q=0.9,en;q=0.8","6736f4a8fe83ffce0936bdc4","686d226cabeef709c732f8e1","686e310aa01d4df5dc429d07","6736f4a8fe83ffce0936bdc4","2025-07-09T09:37:07.659Z","","","","","","MotivationQ","","","","","","","","","","","","","","","","","","","","","","","","","","","","","","","","","","","","","","50"
"","","","","ctl-task-cpt","84","1988065","0.0-10.0-0.8","20","1","2025-07-09 09:06:44","7701e855f2ef39aa3fd6c71abdc6918a","165.165.122.131","Mozilla/5.0 (Windows NT 10.0; Win64; x64) AppleWebKit/537.36 (KHTML, like Gecko) Chrome/138.0.0.0 Safari/537.36","WebKit","Chrome","138.0.0.0","Windows","10.0","https://app.prolific.com/","en-GB,en-US;q=0.9,en;q=0.8","6736f4a8fe83ffce0936bdc4","686d226cabeef709c732f8e1","686e310aa01d4df5dc429d07","6736f4a8fe83ffce0936bdc4","2025-07-09T09:39:56.948Z","","","","","","","","","","","","","","","","win-only","2","g1:SE,g2:NW","0.2","9","0","1822056.4","959.3","5969.9","166247","1","4","8","6","2","-8","-10","20","30","0.15151515151515152","735.2","3000","-625","[""left"",""up""]","{""num_key_presses"":27,""num_perfect"":5,""num_errors"":2,""num_randdir"":20,""num_randdir_good_moves"":10,""num_whilered"":0,""num_whileblue"":1,""num_blue"":9,""num_good_moves"":15}","[412.8214133126395,404.07142761775424,0.6,412.8214133126395,404.07142761775424,120.2,415.3214133126395,404.07142761775424,231.6,411.5714133126395,402.82142761775424,337.2,181.5714133126395,169.07142761775424,462.7,120.3214133126395,125.32142761775425,585.9,101.5714133126395,120.32142761775425,697.6,96.5714133126395,119.07142761775425,815.2,99.0714133126395,119.07142761775425,934.5,100.3214133126395,119.07142761775425,1041.5,99.0714133126395,121.57142761775425,1142.8,99.0714133126395,121.57142761775425,1247.2,99.0714133126395,121.57142761775425,1375.8,99.0714133126395,121.57142761775425,1476.9,97.8214133126395,121.57142761775425,1579,96.5714133126395,132.82142761775424,1687.2,221.5714133126395,171.57142761775424,1793.9,317.8214133126395,154.07142761775424,1907.1,669.0714133126395,136.57142761775424,2015.3,1275.3214133126396,15.321427617754253,2133,1292.8214133126396,15.321427617754253,2263.5,1294.0714133126396,15.321427617754253,2391.5,1237.8214133126396,22.821427617754253,2497.4,1015.3214133126395,62.82142761775425,2605,641.5714133126395,51.57142761775425,2718.8,539.0714133126395,34.07142761775425,2830.7,485.3214133126395,25.321427617754253,2938.5,195.3214133126395,21.571427617754253,3051.7,174.0714133126395,36.57142761775425,3172.1,157.8214133126395,56.57142761775425,3278.3,130.3214133126395,62.82142761775425,3400.6,121.5714133126395,61.57142761775425,3507.5,116.5714133126395,61.57142761775425,3614.6,95.3214133126395,69.07142761775425,3724.9,87.8214133126395,70.32142761775425,3838.2,84.0714133126395,70.32142761775425,3940.2,84.0714133126395,70.32142761775425,4052.8,84.0714133126395,70.32142761775425,4157.4,84.0714133126395,70.32142761775425,4258.9,84.0714133126395,70.32142761775425,4360,84.0714133126395,70.32142761775425,4460.3,87.8214133126395,71.57142761775425,4563.4,174.0714133126395,85.32142761775425,4674.5,267.8214133126395,104.07142761775425,4784.3,426.5714133126395,144.07142761775424,4895.1]","[5052.3,5052.3,2553.2,2031.7,467.4,""smooth"",""left"",""left"",""good_move"",13304.4,8247.2,1268.9,5057.2,6978.3,""oops"",""up"",""left"",""good_move"",19669.1,6364,2548,13305.1,3816,""smooth"",""up"",""up"",""good_move"",26101.3,6431.2,2417.1,19670.1,4014.1,""oops"",""up"",""left"",""good_move"",32987.4,6885.5,2411.1,26101.9,4474.4,""oops"",""up"",""down"",""bad_move"",38823.4,5835.2,2504.9,35874.3,444.2,""while_blue"",""right"",""right"",""bad_move"",42924,4099.7,2731,38824.3,1368.7,""oops"",""up"",""down"",""bad_move"",49552.6,6616.8,2198.7,42935.8,4418.1,""oops"",""left"",""left"",""good_move"",58502.9,8949.2,2406.9,49553.7,6542.3,""oops"",""up"",""down"",""bad_move"",69437.7,10934.2,2741.9,66242.2,453.6,""oops"",""right"",""right"",""bad_move"",73697.5,4259.3,1847.2,69438.3,2412.1,""oops"",""right"",""right"",""bad_move"",77416.4,3717.7,2541,73698.8,1176.6,""oops"",""up"",""up"",""good_move"",90483.7,13063.3,1965.8,87712.2,805.7,""oops"",""up"",""down"",""bad_move"",93745.1,3260.3,2753.4,90484.8,506.9,""oops"",""right"",""left"",""good_move"",94904.9,1157.1,2757.3,93747.8,-1600.2,""error"",""-"",""-"",""no_move"",98714.9,3809.4,2325.7,95908,481.2,""oops"",""up"",""right"",""bad_move"",102549.8,3833.6,3151.5,98716.2,682.1,""oops"",""down"",""up"",""good_move"",105895.5,3344.5,2106.7,102551,1237.8,""oops"",""down"",""right"",""bad_move"",116642.3,10745.4,2725.6,113511.7,405,""smooth"",""up"",""up"",""good_move"",121180.7,4525.8,2556.4,116654.9,1969.4,""oops"",""up"",""right"",""bad_move"",125106.2,3924.3,3389.2,121181.9,535.1,""smooth"",""up"",""up"",""good_move"",129599.6,4492.6,2572.1,125107,1920.5,""oops"",""up"",""right"",""bad_move"",132448.8,2848,1703.9,129601,1143.9,""oops"",""down"",""up"",""good_move"",141343.7,8894,2239.3,138627.2,477.2,""oops"",""left"",""left"",""good_move"",146178.3,4833.8,2907.3,141344.5,1926.5,""oops"",""left"",""up"",""good_move"",151129.8,4948.6,1854.4,146181.3,3094.1,""smooth"",""left"",""left"",""good_move"",155915.7,4767.2,2864.2,151148.5,1903,""oops"",""left"",""left"",""good_move""]","",""
"5280","","<div style=""width:500px;"">
  <p>What determined the result of this run?</p>
