"rt","response_timestamp","stimulus","response","trial_type","trial_index","time_elapsed","internal_node_id","run_id","condition","recorded_at","source_code_version","ip","user_agent","device","browser","browser_version","platform","platform_version","referer","accept_language","PROLIFIC_PID","STUDY_ID","SESSION_ID","prolific_id","realtime","view_history","question_order","consent","success","question_id","eventType","responses","item_order","radio_event_ids","radio_event_times","key_event_times","mouse_event_times","straightlining","zigzagging","honeypot","which_type","canvas_config","goals_layout","control_level","trial_number","tutorial_trial_number","trial_start_time","phase1_start_time","phase2_start_time","phase3_start_time","goal_1_value","goal_1_distance","goal_2_value","goal_2_distance","goal_selected","outcome","outcome_total","participant_final_score","participant_initial_score","participant_final_score_prop","goal_choice_rt","allocated_time","allocated_time_remaining","goal_direction","counts","mouse_movements","key_presses","correct","slider_start"
"1533","1752051941978","<p style='font-size:40px;line-height:1.25'><strong>Welcome to the experiment!</strong></p><p style='font-size:1.1em;line-height:1.25'>Thank you for your interest in our experiment! Before you begin, it is important that we obtain your informed consent to participate in the study.</p><p style='font-size:1.1em;line-height:1.25'>On the next screen will be an <strong>information sheet</strong> for you to read. To participate in the study we need you to read this information sheet and the following consent form carefully. If you agree with all the statements, please click the <strong>I agree</strong> button.</p><p style='font-size:1.1em;line-height:1.25'>Press <strong>Next</strong> to read the information sheet.</p>","0","custom-html-button-response","0","1536","0.0-0.0","10","1","2025-07-09 09:05:39","7701e855f2ef39aa3fd6c71abdc6918a","80.192.212.91","Mozilla/5.0 (Macintosh; Intel Mac OS X 10_15_7) AppleWebKit/537.36 (KHTML, like Gecko) Chrome/137.0.0.0 Safari/537.36","Macintosh","Chrome","137.0.0.0","OS X","10_15_7","https://app.prolific.com/","en-GB,en-US;q=0.9,en;q=0.8","671a44d9d93641d1d9e96883","686d226cabeef709c732f8e1","686e30da93345627e058110e","671a44d9d93641d1d9e96883","2025-07-09T09:05:41.981Z","","","","","","","","","","","","","","","","","","","","","","","","","","","","","","","","","","","","","","","","","","","",""
"2955","","","","instructions","1","4494","0.0-1.0","10","1","2025-07-09 09:05:39","7701e855f2ef39aa3fd6c71abdc6918a","80.192.212.91","Mozilla/5.0 (Macintosh; Intel Mac OS X 10_15_7) AppleWebKit/537.36 (KHTML, like Gecko) Chrome/137.0.0.0 Safari/537.36","Macintosh","Chrome","137.0.0.0","OS X","10_15_7","https://app.prolific.com/","en-GB,en-US;q=0.9,en;q=0.8","671a44d9d93641d1d9e96883","686d226cabeef709c732f8e1","686e30da93345627e058110e","671a44d9d93641d1d9e96883","","[{""page_index"":0,""viewing_time"":2160},{""page_index"":1,""viewing_time"":795}]","","","","","","","","","","","","","","","","","","","","","","","","","","","","","","","","","","","","","","","","","","",""
"3512","","","{""Q0"":"""",""Q1"":"""",""Q2"":"""",""Q3"":"""",""Q4"":"""",""Q5"":"""",""Q6"":""I agree""}","survey-multi-choice","2","8010","0.0-2.0","10","1","2025-07-09 09:05:39","7701e855f2ef39aa3fd6c71abdc6918a","80.192.212.91","Mozilla/5.0 (Macintosh; Intel Mac OS X 10_15_7) AppleWebKit/537.36 (KHTML, like Gecko) Chrome/137.0.0.0 Safari/537.36","Macintosh","Chrome","137.0.0.0","OS X","10_15_7","https://app.prolific.com/","en-GB,en-US;q=0.9,en;q=0.8","671a44d9d93641d1d9e96883","686d226cabeef709c732f8e1","686e30da93345627e058110e","671a44d9d93641d1d9e96883","","","[0,1,2,3,4,5,6]","true","","","","","","","","","","","","","","","","","","","","","","","","","","","","","","","","","","","","","","","","",""
"1060","","","","fullscreen","3","10077","0.0-4.0","10","1","2025-07-09 09:05:39","7701e855f2ef39aa3fd6c71abdc6918a","80.192.212.91","Mozilla/5.0 (Macintosh; Intel Mac OS X 10_15_7) AppleWebKit/537.36 (KHTML, like Gecko) Chrome/137.0.0.0 Safari/537.36","Macintosh","Chrome","137.0.0.0","OS X","10_15_7","https://app.prolific.com/","en-GB,en-US;q=0.9,en;q=0.8","671a44d9d93641d1d9e96883","686d226cabeef709c732f8e1","686e30da93345627e058110e","671a44d9d93641d1d9e96883","","","","","true","","","","","","","","","","","","","","","","","","","","","","","","","","","","","","","","","","","","","","","",""
"1938","1752051952460"," <p style='font-size:1.1em;line-height:1.25'>Thank you for completing the consent form and closing all other tabs.</p><p style='font-size:1.1em;line-height:1.25'>We will now invite you to fill in some demographic information and questionnaires, before starting the game.<br>This will take about 5 minutes.<br></p><p style='font-size:1.1em;line-height:1.25'>Press the <strong>Next</strong> button to continue.</p>","0","custom-html-button-response","4","12016","0.0-5.0","10","1","2025-07-09 09:05:39","7701e855f2ef39aa3fd6c71abdc6918a","80.192.212.91","Mozilla/5.0 (Macintosh; Intel Mac OS X 10_15_7) AppleWebKit/537.36 (KHTML, like Gecko) Chrome/137.0.0.0 Safari/537.36","Macintosh","Chrome","137.0.0.0","OS X","10_15_7","https://app.prolific.com/","en-GB,en-US;q=0.9,en;q=0.8","671a44d9d93641d1d9e96883","686d226cabeef709c732f8e1","686e30da93345627e058110e","671a44d9d93641d1d9e96883","2025-07-09T09:05:52.460Z","","","","","","","","","","","","","","","","","","","","","","","","","","","","","","","","","","","","","","","","","","","",""
"1919","","","{""age"":""38""}","survey-text","5","13939","0.0-6.0-0.0","10","1","2025-07-09 09:05:39","7701e855f2ef39aa3fd6c71abdc6918a","80.192.212.91","Mozilla/5.0 (Macintosh; Intel Mac OS X 10_15_7) AppleWebKit/537.36 (KHTML, like Gecko) Chrome/137.0.0.0 Safari/537.36","Macintosh","Chrome","137.0.0.0","OS X","10_15_7","https://app.prolific.com/","en-GB,en-US;q=0.9,en;q=0.8","671a44d9d93641d1d9e96883","686d226cabeef709c732f8e1","686e30da93345627e058110e","671a44d9d93641d1d9e96883","","","","","","0","demographics","","","","","","","","","","","","","","","","","","","","","","","","","","","","","","","","","","","","","",""
"1597","","","{""gender_identity"":""female/woman""}","survey-multi-choice","6","15537","0.0-6.0-1.0","10","1","2025-07-09 09:05:39","7701e855f2ef39aa3fd6c71abdc6918a","80.192.212.91","Mozilla/5.0 (Macintosh; Intel Mac OS X 10_15_7) AppleWebKit/537.36 (KHTML, like Gecko) Chrome/137.0.0.0 Safari/537.36","Macintosh","Chrome","137.0.0.0","OS X","10_15_7","https://app.prolific.com/","en-GB,en-US;q=0.9,en;q=0.8","671a44d9d93641d1d9e96883","686d226cabeef709c732f8e1","686e30da93345627e058110e","671a44d9d93641d1d9e96883","","","[0]","","","1","demographics","","","","","","","","","","","","","","","","","","","","","","","","","","","","","","","","","","","","","",""
"1446","","","{""assigned_sex"":""female""}","survey-multi-choice","7","16984","0.0-6.0-2.0","10","1","2025-07-09 09:05:39","7701e855f2ef39aa3fd6c71abdc6918a","80.192.212.91","Mozilla/5.0 (Macintosh; Intel Mac OS X 10_15_7) AppleWebKit/537.36 (KHTML, like Gecko) Chrome/137.0.0.0 Safari/537.36","Macintosh","Chrome","137.0.0.0","OS X","10_15_7","https://app.prolific.com/","en-GB,en-US;q=0.9,en;q=0.8","671a44d9d93641d1d9e96883","686d226cabeef709c732f8e1","686e30da93345627e058110e","671a44d9d93641d1d9e96883","","","[0]","","","2","demographics","","","","","","","","","","","","","","","","","","","","","","","","","","","","","","","","","","","","","",""
"2914","","","{""menstrual_cycle"":""Yes""}","survey-multi-choice","8","19901","0.0-6.0-3.0","10","1","2025-07-09 09:05:39","7701e855f2ef39aa3fd6c71abdc6918a","80.192.212.91","Mozilla/5.0 (Macintosh; Intel Mac OS X 10_15_7) AppleWebKit/537.36 (KHTML, like Gecko) Chrome/137.0.0.0 Safari/537.36","Macintosh","Chrome","137.0.0.0","OS X","10_15_7","https://app.prolific.com/","en-GB,en-US;q=0.9,en;q=0.8","671a44d9d93641d1d9e96883","686d226cabeef709c732f8e1","686e30da93345627e058110e","671a44d9d93641d1d9e96883","","","[0]","","","4","demographics","","","","","","","","","","","","","","","","","","","","","","","","","","","","","","","","","","","","","",""
"3801","","","{""education"":""Bachelor's Degree (e.g., BA)""}","survey-multi-choice","9","23703","0.0-6.0-4.0","10","1","2025-07-09 09:05:39","7701e855f2ef39aa3fd6c71abdc6918a","80.192.212.91","Mozilla/5.0 (Macintosh; Intel Mac OS X 10_15_7) AppleWebKit/537.36 (KHTML, like Gecko) Chrome/137.0.0.0 Safari/537.36","Macintosh","Chrome","137.0.0.0","OS X","10_15_7","https://app.prolific.com/","en-GB,en-US;q=0.9,en;q=0.8","671a44d9d93641d1d9e96883","686d226cabeef709c732f8e1","686e30da93345627e058110e","671a44d9d93641d1d9e96883","","","[0]","","","5","demographics","","","","","","","","","","","","","","","","","","","","","","","","","","","","","","","","","","","","","",""
"2292","","","{""education"":""Bachelor's Degree (e.g., BA)""}","survey-multi-choice","10","25997","0.0-6.0-5.0","10","1","2025-07-09 09:05:39","7701e855f2ef39aa3fd6c71abdc6918a","80.192.212.91","Mozilla/5.0 (Macintosh; Intel Mac OS X 10_15_7) AppleWebKit/537.36 (KHTML, like Gecko) Chrome/137.0.0.0 Safari/537.36","Macintosh","Chrome","137.0.0.0","OS X","10_15_7","https://app.prolific.com/","en-GB,en-US;q=0.9,en;q=0.8","671a44d9d93641d1d9e96883","686d226cabeef709c732f8e1","686e30da93345627e058110e","671a44d9d93641d1d9e96883","2025-07-09T09:06:06.441Z","","[0]","","","6","demographics","","","","","","","","","","","","","","","","","","","","","","","","","","","","","","","","","","","","","",""
"7764","","","{""mental_health_condition"":""Anxiety"",""mental_health_treatment"":""No"",""psychiatric_medication"":""NO""}","survey-text","11","33764","0.0-7.0-0.0","10","1","2025-07-09 09:05:39","7701e855f2ef39aa3fd6c71abdc6918a","80.192.212.91","Mozilla/5.0 (Macintosh; Intel Mac OS X 10_15_7) AppleWebKit/537.36 (KHTML, like Gecko) Chrome/137.0.0.0 Safari/537.36","Macintosh","Chrome","137.0.0.0","OS X","10_15_7","https://app.prolific.com/","en-GB,en-US;q=0.9,en;q=0.8","671a44d9d93641d1d9e96883","686d226cabeef709c732f8e1","686e30da93345627e058110e","671a44d9d93641d1d9e96883","2025-07-09T09:06:14.209Z","","","","","1","mental_health","","","","","","","","","","","","","","","","","","","","","","","","","","","","","","","","","","","","","",""
"3411","","","{""depression_history"":[""Yes""]}","survey-multi-select","12","37180","0.0-7.0-1.0","10","1","2025-07-09 09:05:39","7701e855f2ef39aa3fd6c71abdc6918a","80.192.212.91","Mozilla/5.0 (Macintosh; Intel Mac OS X 10_15_7) AppleWebKit/537.36 (KHTML, like Gecko) Chrome/137.0.0.0 Safari/537.36","Macintosh","Chrome","137.0.0.0","OS X","10_15_7","https://app.prolific.com/","en-GB,en-US;q=0.9,en;q=0.8","671a44d9d93641d1d9e96883","686d226cabeef709c732f8e1","686e30da93345627e058110e","671a44d9d93641d1d9e96883","","","[0]","","","","mental_health","","","","","","","","","","","","","","","","","","","","","","","","","","","","","","","","","","","","","",""
"6277","","","{""depression_episodes"":""3-5"",""depression_recent"":""More than 1 year ago""}","survey-multi-choice","13","43459","0.0-7.0-2.0-0.0","10","1","2025-07-09 09:05:39","7701e855f2ef39aa3fd6c71abdc6918a","80.192.212.91","Mozilla/5.0 (Macintosh; Intel Mac OS X 10_15_7) AppleWebKit/537.36 (KHTML, like Gecko) Chrome/137.0.0.0 Safari/537.36","Macintosh","Chrome","137.0.0.0","OS X","10_15_7","https://app.prolific.com/","en-GB,en-US;q=0.9,en;q=0.8","671a44d9d93641d1d9e96883","686d226cabeef709c732f8e1","686e30da93345627e058110e","671a44d9d93641d1d9e96883","2025-07-09T09:06:23.903Z","","[0,1]","","","3","mental_health","","","","","","","","","","","","","","","","","","","","","","","","","","","","","","","","","","","","","",""
"29933.79999999702","","","","survey-template","14","73408","0.0-7.0-3.0","10","1","2025-07-09 09:05:39","7701e855f2ef39aa3fd6c71abdc6918a","80.192.212.91","Mozilla/5.0 (Macintosh; Intel Mac OS X 10_15_7) AppleWebKit/537.36 (KHTML, like Gecko) Chrome/137.0.0.0 Safari/537.36","Macintosh","Chrome","137.0.0.0","OS X","10_15_7","https://app.prolific.com/","en-GB,en-US;q=0.9,en;q=0.8","671a44d9d93641d1d9e96883","686d226cabeef709c732f8e1","686e30da93345627e058110e","671a44d9d93641d1d9e96883","2025-07-09T09:06:53.852Z","","","","","","ius","{""Q01"":""3"",""Q02"":""2"",""Q03"":""2"",""Q04"":""3"",""Q05"":""2"",""Q06"":""1"",""Q07"":""1"",""Q08"":""0"",""Q09"":""2"",""Q10"":""2"",""Q11"":""2"",""Q12"":""3"",""Q13"":""1""}","[0,1,2,3,4,5,6,7,8,9,10,11,12]","[""Q01"",""Q02"",""Q03"",""Q04"",""Q05"",""Q06"",""Q06"",""Q07"",""Q08"",""Q09"",""Q10"",""Q11"",""Q12"",""Q13""]","[3567.9000000059605,4523.9000000059605,9251.90000000596,11301.90000000596,12805.70000000298,14595.90000000596,16167.79999999702,17705.60000000894,19153.70000000298,21519.70000000298,23819.79999999702,25903.70000000298,27494.10000000894,29397.5]","[]","[2532.1000000089407,3567.9000000059605,4523.9000000059605,7485.9000000059605,9004,9251.90000000596,10903.70000000298,11301.90000000596,12805.70000000298,14595.90000000596,15553.90000000596,16167.79999999702,17705.60000000894,19153.70000000298,21519.70000000298,23819.79999999702,25903.70000000298,27494.10000000894,29397.5,29930.70000000298]","0.46153846153846156","0.5","0","","","","","","","","","","","","","","","","","","","","","","","","","","","","",""
"1110","1752052014964","<p style='font-size:1.1em;line-height:1.25'>In the following, we will ask you a few questions relating to your experiences over the past month.<br></p><p style='font-size:1.1em;line-height:1.25'>Press the <strong>Next</strong> button to continue.</p>","0","custom-html-button-response","15","74520","0.0-7.0-4.0","10","1","2025-07-09 09:05:39","7701e855f2ef39aa3fd6c71abdc6918a","80.192.212.91","Mozilla/5.0 (Macintosh; Intel Mac OS X 10_15_7) AppleWebKit/537.36 (KHTML, like Gecko) Chrome/137.0.0.0 Safari/537.36","Macintosh","Chrome","137.0.0.0","OS X","10_15_7","https://app.prolific.com/","en-GB,en-US;q=0.9,en;q=0.8","671a44d9d93641d1d9e96883","686d226cabeef709c732f8e1","686e30da93345627e058110e","671a44d9d93641d1d9e96883","2025-07-09T09:06:54.964Z","","","","","","","","","","","","","","","","","","","","","","","","","","","","","","","","","","","","","","","","","","","",""
"33170.79999999702","","","","survey-template","16","107697","0.0-7.0-5.0","10","1","2025-07-09 09:05:39","7701e855f2ef39aa3fd6c71abdc6918a","80.192.212.91","Mozilla/5.0 (Macintosh; Intel Mac OS X 10_15_7) AppleWebKit/537.36 (KHTML, like Gecko) Chrome/137.0.0.0 Safari/537.36","Macintosh","Chrome","137.0.0.0","OS X","10_15_7","https://app.prolific.com/","en-GB,en-US;q=0.9,en;q=0.8","671a44d9d93641d1d9e96883","686d226cabeef709c732f8e1","686e30da93345627e058110e","671a44d9d93641d1d9e96883","2025-07-09T09:07:28.141Z","","","","","","pss","{""Q01"":""1"",""Q02"":""1"",""Q03"":""3"",""Q04"":""3"",""Q05"":""2"",""Q06"":""2"",""Q07"":""2"",""Q08"":""2"",""Q09"":""3"",""Q10"":""2""}","[0,1,2,3,4,5,6,7,8,9]","[""Q01"",""Q02"",""Q03"",""Q04"",""Q04"",""Q05"",""Q06"",""Q07"",""Q08"",""Q09"",""Q10""]","[3063.699999988079,5369.699999988079,7409.5999999940395,9405.699999988079,12739.699999988079,18875.69999998808,21902.39999999106,25463.79999999702,27461.69999998808,30801.69999998808,32603.59999999404]","[]","[0,3063.699999988079,5369.699999988079,6804.79999999702,7409.5999999940395,9405.699999988079,12739.699999988079,15185.59999999404,15807.5,16091.79999999702,18399.79999999702,18875.69999998808,21902.39999999106,25463.79999999702,27461.69999998808,30281.79999999702,30801.69999998808,32603.59999999404,33167.69999998808]","0.5","0.3333333333333333","0","","","","","","","","","","","","","","","","","","","","","","","","","","","","",""
"22233","1752052070376","<p style='font-size:1.1em;line-height:1.25'>Thank you for your answers! Now we will ask you a few more questions relating to your feelings in the last 24 hours.<br></p><p style='font-size:1.1em;line-height:1.25'>Press the <strong>Next</strong> button to continue.</p>","0","custom-html-button-response","17","129932","0.0-7.0-6.0","10","1","2025-07-09 09:05:39","7701e855f2ef39aa3fd6c71abdc6918a","80.192.212.91","Mozilla/5.0 (Macintosh; Intel Mac OS X 10_15_7) AppleWebKit/537.36 (KHTML, like Gecko) Chrome/137.0.0.0 Safari/537.36","Macintosh","Chrome","137.0.0.0","OS X","10_15_7","https://app.prolific.com/","en-GB,en-US;q=0.9,en;q=0.8","671a44d9d93641d1d9e96883","686d226cabeef709c732f8e1","686e30da93345627e058110e","671a44d9d93641d1d9e96883","2025-07-09T09:07:50.376Z","","","","","","","","","","","","","","","","","","","","","","","","","","","","","","","","","","","","","","","","","","","",""
"33866.5","","","","survey-template","18","163803","0.0-7.0-7.0","10","1","2025-07-09 09:05:39","7701e855f2ef39aa3fd6c71abdc6918a","80.192.212.91","Mozilla/5.0 (Macintosh; Intel Mac OS X 10_15_7) AppleWebKit/537.36 (KHTML, like Gecko) Chrome/137.0.0.0 Safari/537.36","Macintosh","Chrome","137.0.0.0","OS X","10_15_7","https://app.prolific.com/","en-GB,en-US;q=0.9,en;q=0.8","671a44d9d93641d1d9e96883","686d226cabeef709c732f8e1","686e30da93345627e058110e","671a44d9d93641d1d9e96883","2025-07-09T09:08:24.247Z","","","","","","drsp","{""Q01"":""1"",""Q02"":""0"",""Q03"":""0"",""Q04"":""2"",""Q05"":""2"",""Q06"":""2"",""Q07"":""2"",""Q08"":""0"",""Q09"":""0"",""Q10"":""0"",""Q11"":""1"",""Q12"":""0"",""Q13"":""0"",""Q14"":""0"",""Q15"":""0"",""Q16"":""1"",""Q17"":""1"",""Q18"":""3"",""Q19"":""1"",""Q20"":""1"",""Q21"":""1""}","[0,1,2,3,4,5,6,7,8,9,10,11,12,13,14,15,16,17,18,19,20]","[""Q01"",""Q02"",""Q04"",""Q05"",""Q06"",""Q07"",""Q08"",""Q09"",""Q10"",""Q11"",""Q12"",""Q13"",""Q15"",""Q14"",""Q16"",""Q17"",""Q18"",""Q19"",""Q20"",""Q21"",""Q03""]","[4296.4000000059605,5078.29999999702,6638.20000000298,7946,9732.40000000596,10674.20000000298,12144.09999999404,12616.29999999702,13694.20000000298,15947.20000000298,16533.20000000298,17204.20000000298,20022.09999999404,20573.09999999404,21722.09999999404,22442.09999999404,24346.09999999404,26544.09999999404,27774,28714.09999999404,32360.70000000298]","[]","[0,4296.4000000059605,5078.29999999702,5728.4000000059605,6638.20000000298,7946,9732.40000000596,10674.20000000298,11482.40000000596,12144.09999999404,12616.29999999702,13694.20000000298,14868.20000000298,15947.20000000298,16533.20000000298,17204.20000000298,18294.5,20022.09999999404,20573.09999999404,21722.09999999404,22442.09999999404,24346.09999999404,26544.09999999404,27774,28714.09999999404,29512.40000000596,32360.70000000298,33860.29999999702]","0.42857142857142855","0.2","0","","","","","","","","","","","","","","","","","","","","","","","","","","","","",""
"7521.9000000059605","","","","survey-template","19","171327","0.0-7.0-8.0","10","1","2025-07-09 09:05:39","7701e855f2ef39aa3fd6c71abdc6918a","80.192.212.91","Mozilla/5.0 (Macintosh; Intel Mac OS X 10_15_7) AppleWebKit/537.36 (KHTML, like Gecko) Chrome/137.0.0.0 Safari/537.36","Macintosh","Chrome","137.0.0.0","OS X","10_15_7","https://app.prolific.com/","en-GB,en-US;q=0.9,en;q=0.8","671a44d9d93641d1d9e96883","686d226cabeef709c732f8e1","686e30da93345627e058110e","671a44d9d93641d1d9e96883","2025-07-09T09:08:31.771Z","","","","","","stress","{""Q01"":""3"",""Q02"":""2"",""Q03"":""1""}","[0,1,2]","[""Q01"",""Q03"",""Q02""]","[2956.4000000059605,5948.300000011921,7022.5]","[]","[2956.4000000059605,4418.300000011921,5566.4000000059605,5948.300000011921,7022.5,7520.4000000059605]","0.6666666666666666","0","0","","","","","","","","","","","","","","","","","","","","","","","","","","","","",""
"67765","","","","instructions","20","239093","0.0-8.0-0.0","10","1","2025-07-09 09:05:39","7701e855f2ef39aa3fd6c71abdc6918a","80.192.212.91","Mozilla/5.0 (Macintosh; Intel Mac OS X 10_15_7) AppleWebKit/537.36 (KHTML, like Gecko) Chrome/137.0.0.0 Safari/537.36","Macintosh","Chrome","137.0.0.0","OS X","10_15_7","https://app.prolific.com/","en-GB,en-US;q=0.9,en;q=0.8","671a44d9d93641d1d9e96883","686d226cabeef709c732f8e1","686e30da93345627e058110e","671a44d9d93641d1d9e96883","","[{""page_index"":0,""viewing_time"":45479},{""page_index"":1,""viewing_time"":10983},{""page_index"":2,""viewing_time"":4954},{""page_index"":3,""viewing_time"":6348}]","","","","","","","","","","","","","","","","","","","","","","","","","","","","","","","","","","","","","","","","","","",""
"","","","","ctl-task-cpt","21","271154","0.0-8.0-1.0","10","1","2025-07-09 09:05:39","7701e855f2ef39aa3fd6c71abdc6918a","80.192.212.91","Mozilla/5.0 (Macintosh; Intel Mac OS X 10_15_7) AppleWebKit/537.36 (KHTML, like Gecko) Chrome/137.0.0.0 Safari/537.36","Macintosh","Chrome","137.0.0.0","OS X","10_15_7","https://app.prolific.com/","en-GB,en-US;q=0.9,en;q=0.8","671a44d9d93641d1d9e96883","686d226cabeef709c732f8e1","686e30da93345627e058110e","671a44d9d93641d1d9e96883","","","","","","","","","","","","","","","","","win-only","1","g1:NE,g2:SW","1","0","1","240595.4","13209.7","17211.2","29046.6","2","4","4","6","2","-4","-4","0","0","0","4001.5","4000","-2995","[""down"",""left""]","{""num_key_presses"":0,""num_perfect"":0,""num_errors"":0,""num_randdir"":0,""num_randdir_good_moves"":0,""num_whilered"":0,""num_whileblue"":0,""num_blue"":2,""num_good_moves"":0}","[254.65089285714285,257.5571428571429,1.4,254.65089285714285,257.5571428571429,101,254.65089285714285,257.5571428571429,201.8,247.65089285714285,265.5571428571429,307.1,246.65089285714285,265.5571428571429,411.5,246.65089285714285,265.5571428571429,516.1,271.6508928571429,256.5571428571429,617.2,288.6508928571429,252.55714285714285,721.5,301.6508928571429,248.55714285714285,821.5,303.6508928571429,247.55714285714285,921.7,311.6508928571429,226.55714285714285,1026.8,310.6508928571429,214.55714285714285,1131,302.6508928571429,210.55714285714285,1231.8,302.6508928571429,210.55714285714285,1336.2,294.6508928571429,214.55714285714285,1441.7,293.6508928571429,214.55714285714285,1541.8,293.6508928571429,214.55714285714285,1646.4,293.6508928571429,214.55714285714285,1751.5,293.6508928571429,214.55714285714285,1851.5,293.6508928571429,214.55714285714285,1951.8,293.6508928571429,214.55714285714285,2055.9,293.6508928571429,214.55714285714285,2161.9,293.6508928571429,214.55714285714285,2267.1,293.6508928571429,214.55714285714285,2367.1,293.6508928571429,214.55714285714285,2471.7,288.6508928571429,221.55714285714285,2576,161.65089285714285,381.5571428571429,2676.5,162.65089285714285,393.5571428571429,2781.4,158.65089285714285,395.5571428571429,2886.2,155.65089285714285,395.5571428571429,2987.1,154.65089285714285,395.5571428571429,3091.6,154.65089285714285,395.5571428571429,3196.6,155.65089285714285,394.5571428571429,3301.4,155.65089285714285,394.5571428571429,3406.7,155.65089285714285,394.5571428571429,3511.6,155.65089285714285,394.5571428571429,3611.8,155.65089285714285,394.5571428571429,3716.5,155.65089285714285,394.5571428571429,3821.1,155.65089285714285,394.5571428571429,3926]","[]","",""
"6468","","","","instructions","22","277622","0.0-8.0-2.0","10","1","2025-07-09 09:05:39","7701e855f2ef39aa3fd6c71abdc6918a","80.192.212.91","Mozilla/5.0 (Macintosh; Intel Mac OS X 10_15_7) AppleWebKit/537.36 (KHTML, like Gecko) Chrome/137.0.0.0 Safari/537.36","Macintosh","Chrome","137.0.0.0","OS X","10_15_7","https://app.prolific.com/","en-GB,en-US;q=0.9,en;q=0.8","671a44d9d93641d1d9e96883","686d226cabeef709c732f8e1","686e30da93345627e058110e","671a44d9d93641d1d9e96883","","[{""page_index"":0,""viewing_time"":6468}]","","","","","","","","","","","","","","","","","","","","","","","","","","","","","","","","","","","","","","","","","","",""
"","","","","ctl-task-cpt","23","297149","0.0-8.0-3.0","10","1","2025-07-09 09:05:39","7701e855f2ef39aa3fd6c71abdc6918a","80.192.212.91","Mozilla/5.0 (Macintosh; Intel Mac OS X 10_15_7) AppleWebKit/537.36 (KHTML, like Gecko) Chrome/137.0.0.0 Safari/537.36","Macintosh","Chrome","137.0.0.0","OS X","10_15_7","https://app.prolific.com/","en-GB,en-US;q=0.9,en;q=0.8","671a44d9d93641d1d9e96883","686d226cabeef709c732f8e1","686e30da93345627e058110e","671a44d9d93641d1d9e96883","","","","","","","","","","","","","","","","","win-only","1","g1:NE,g2:SW","0.35","0","3","279117.4","1048.3","5050.8","16516.9","2","4","8","6","1","-2","-2","0","0","0","2888.6","4000","-2975","[""up"",""right""]","{""num_key_presses"":0,""num_perfect"":0,""num_errors"":0,""num_randdir"":0,""num_randdir_good_moves"":0,""num_whilered"":0,""num_whileblue"":0,""num_blue"":2,""num_good_moves"":0}","[397.603125,404.49375,0.2,397.603125,404.49375,102.4,397.603125,404.49375,208,397.603125,404.49375,312.7,386.603125,404.49375,412.7,377.603125,406.49375,517.3,376.603125,405.49375,617.9,375.603125,405.49375,723,375.603125,411.49375,823.2,376.603125,412.49375,927.7,420.603125,395.49375,1032.1,608.603125,186.49375,1132.8,631.603125,125.49375,1237.8,634.603125,119.49375,1342.9,566.603125,181.49375,1447.3,524.603125,259.49375,1547.6,530.603125,278.49375,1647.7,539.603125,294.49375,1753,540.603125,297.49375,1853.2,546.603125,298.49375,1957.8,563.603125,266.49375,2062.2,567.603125,242.49375,2162.2,571.603125,232.49375,2262.5,571.603125,232.49375,2362.6,571.603125,232.49375,2462.9,571.603125,232.49375,2566.9,571.603125,232.49375,2668.6,666.603125,140.49375,2772.1,733.603125,56.493750000000006,2873.3,733.603125,56.493750000000006,2978.7,733.603125,56.493750000000006,3083.9,733.603125,56.493750000000006,3183.9,733.603125,56.493750000000006,3284.1,733.603125,56.493750000000006,3384.7,701.603125,135.49375,3487.3,624.603125,357.49375,3588.4,648.603125,399.49375,3692.7,743.603125,393.49375,3792.9,820.603125,377.49375,3897.6,826.603125,374.49375,3997.7]","[]","",""
"11550","","","","instructions","24","308699","0.0-8.0-4.0","10","1","2025-07-09 09:05:39","7701e855f2ef39aa3fd6c71abdc6918a","80.192.212.91","Mozilla/5.0 (Macintosh; Intel Mac OS X 10_15_7) AppleWebKit/537.36 (KHTML, like Gecko) Chrome/137.0.0.0 Safari/537.36","Macintosh","Chrome","137.0.0.0","OS X","10_15_7","https://app.prolific.com/","en-GB,en-US;q=0.9,en;q=0.8","671a44d9d93641d1d9e96883","686d226cabeef709c732f8e1","686e30da93345627e058110e","671a44d9d93641d1d9e96883","","[{""page_index"":0,""viewing_time"":6620},{""page_index"":1,""viewing_time"":4930}]","","","","","","","","","","","","","","","","","","","","","","","","","","","","","","","","","","","","","","","","","","",""
"7060","","","{""green_ball"":[""Ball always moves in the direction I press"",""Ball sometimes shakes and moves in a random direction""]}","survey-multi-select","25","315762","0.0-8.0-5.0-0.0","10","1","2025-07-09 09:05:39","7701e855f2ef39aa3fd6c71abdc6918a","80.192.212.91","Mozilla/5.0 (Macintosh; Intel Mac OS X 10_15_7) AppleWebKit/537.36 (KHTML, like Gecko) Chrome/137.0.0.0 Safari/537.36","Macintosh","Chrome","137.0.0.0","OS X","10_15_7","https://app.prolific.com/","en-GB,en-US;q=0.9,en;q=0.8","671a44d9d93641d1d9e96883","686d226cabeef709c732f8e1","686e30da93345627e058110e","671a44d9d93641d1d9e96883","","","[0]","","","","quiz","","","","","","","","","","","","","","","","","","","","","","","","","","","","","","","","","","","","","false",""
"2120","","<p align='center'><b>INCORRECT.</b> Usually the green ball moves in the indicated direction, but sometimes it shakes and moves randomly. </p>","0","html-button-response","26","317885","0.0-8.0-5.0-1.0","10","1","2025-07-09 09:05:39","7701e855f2ef39aa3fd6c71abdc6918a","80.192.212.91","Mozilla/5.0 (Macintosh; Intel Mac OS X 10_15_7) AppleWebKit/537.36 (KHTML, like Gecko) Chrome/137.0.0.0 Safari/537.36","Macintosh","Chrome","137.0.0.0","OS X","10_15_7","https://app.prolific.com/","en-GB,en-US;q=0.9,en;q=0.8","671a44d9d93641d1d9e96883","686d226cabeef709c732f8e1","686e30da93345627e058110e","671a44d9d93641d1d9e96883","","","","","","","","","","","","","","","","","","","","","","","","","","","","","","","","","","","","","","","","","","","","",""
"5799","","","{""green_ball"":[""Ball always moves in the direction I press""]}","survey-multi-select","27","323687","0.0-8.0-5.1-0.1","10","1","2025-07-09 09:05:39","7701e855f2ef39aa3fd6c71abdc6918a","80.192.212.91","Mozilla/5.0 (Macintosh; Intel Mac OS X 10_15_7) AppleWebKit/537.36 (KHTML, like Gecko) Chrome/137.0.0.0 Safari/537.36","Macintosh","Chrome","137.0.0.0","OS X","10_15_7","https://app.prolific.com/","en-GB,en-US;q=0.9,en;q=0.8","671a44d9d93641d1d9e96883","686d226cabeef709c732f8e1","686e30da93345627e058110e","671a44d9d93641d1d9e96883","","","[0]","","","","quiz","","","","","","","","","","","","","","","","","","","","","","","","","","","","","","","","","","","","","false",""
"1943","","<p align='center'><b>INCORRECT.</b> Usually the green ball moves in the indicated direction, but sometimes it shakes and moves randomly. </p>","0","html-button-response","28","325631","0.0-8.0-5.1-1.1","10","1","2025-07-09 09:05:39","7701e855f2ef39aa3fd6c71abdc6918a","80.192.212.91","Mozilla/5.0 (Macintosh; Intel Mac OS X 10_15_7) AppleWebKit/537.36 (KHTML, like Gecko) Chrome/137.0.0.0 Safari/537.36","Macintosh","Chrome","137.0.0.0","OS X","10_15_7","https://app.prolific.com/","en-GB,en-US;q=0.9,en;q=0.8","671a44d9d93641d1d9e96883","686d226cabeef709c732f8e1","686e30da93345627e058110e","671a44d9d93641d1d9e96883","","","","","","","","","","","","","","","","","","","","","","","","","","","","","","","","","","","","","","","","","","","","",""
"4301","","","{""green_ball"":[""Ball sometimes shakes and moves in a random direction""]}","survey-multi-select","29","329935","0.0-8.0-5.2-0.2","10","1","2025-07-09 09:05:39","7701e855f2ef39aa3fd6c71abdc6918a","80.192.212.91","Mozilla/5.0 (Macintosh; Intel Mac OS X 10_15_7) AppleWebKit/537.36 (KHTML, like Gecko) Chrome/137.0.0.0 Safari/537.36","Macintosh","Chrome","137.0.0.0","OS X","10_15_7","https://app.prolific.com/","en-GB,en-US;q=0.9,en;q=0.8","671a44d9d93641d1d9e96883","686d226cabeef709c732f8e1","686e30da93345627e058110e","671a44d9d93641d1d9e96883","","","[0]","","","","quiz","","","","","","","","","","","","","","","","","","","","","","","","","","","","","","","","","","","","","true",""
"725","","<p align='center'><b>CORRECT!</b> Indeed, the green ball may sometimes shake and move in a random direction.</p>","0","html-button-response","30","330661","0.0-8.0-5.2-1.2","10","1","2025-07-09 09:05:39","7701e855f2ef39aa3fd6c71abdc6918a","80.192.212.91","Mozilla/5.0 (Macintosh; Intel Mac OS X 10_15_7) AppleWebKit/537.36 (KHTML, like Gecko) Chrome/137.0.0.0 Safari/537.36","Macintosh","Chrome","137.0.0.0","OS X","10_15_7","https://app.prolific.com/","en-GB,en-US;q=0.9,en;q=0.8","671a44d9d93641d1d9e96883","686d226cabeef709c732f8e1","686e30da93345627e058110e","671a44d9d93641d1d9e96883","","","","","","","","","","","","","","","","","","","","","","","","","","","","","","","","","","","","","","","","","","","","",""
"2666","","","{""yellow_ball"":[""Ball always shakes and moves in a random direction""]}","survey-multi-select","31","333329","0.0-8.0-6.0-0.0","10","1","2025-07-09 09:05:39","7701e855f2ef39aa3fd6c71abdc6918a","80.192.212.91","Mozilla/5.0 (Macintosh; Intel Mac OS X 10_15_7) AppleWebKit/537.36 (KHTML, like Gecko) Chrome/137.0.0.0 Safari/537.36","Macintosh","Chrome","137.0.0.0","OS X","10_15_7","https://app.prolific.com/","en-GB,en-US;q=0.9,en;q=0.8","671a44d9d93641d1d9e96883","686d226cabeef709c732f8e1","686e30da93345627e058110e","671a44d9d93641d1d9e96883","","","[0]","","","","quiz","","","","","","","","","","","","","","","","","","","","","","","","","","","","","","","","","","","","","false",""
"1077","","<p align='center'><b>INCORRECT.</b> The yellow ball never moves and you reveice a penalty if you press anyways. </p>","0","html-button-response","32","334408","0.0-8.0-6.0-1.0","10","1","2025-07-09 09:05:39","7701e855f2ef39aa3fd6c71abdc6918a","80.192.212.91","Mozilla/5.0 (Macintosh; Intel Mac OS X 10_15_7) AppleWebKit/537.36 (KHTML, like Gecko) Chrome/137.0.0.0 Safari/537.36","Macintosh","Chrome","137.0.0.0","OS X","10_15_7","https://app.prolific.com/","en-GB,en-US;q=0.9,en;q=0.8","671a44d9d93641d1d9e96883","686d226cabeef709c732f8e1","686e30da93345627e058110e","671a44d9d93641d1d9e96883","","","","","","","","","","","","","","","","","","","","","","","","","","","","","","","","","","","","","","","","","","","","",""
"1516","","","{""yellow_ball"":[""Ball doesn‘t move and I get -1 penalty point""]}","survey-multi-select","33","335926","0.0-8.0-6.1-0.1","10","1","2025-07-09 09:05:39","7701e855f2ef39aa3fd6c71abdc6918a","80.192.212.91","Mozilla/5.0 (Macintosh; Intel Mac OS X 10_15_7) AppleWebKit/537.36 (KHTML, like Gecko) Chrome/137.0.0.0 Safari/537.36","Macintosh","Chrome","137.0.0.0","OS X","10_15_7","https://app.prolific.com/","en-GB,en-US;q=0.9,en;q=0.8","671a44d9d93641d1d9e96883","686d226cabeef709c732f8e1","686e30da93345627e058110e","671a44d9d93641d1d9e96883","","","[0]","","","","quiz","","","","","","","","","","","","","","","","","","","","","","","","","","","","","","","","","","","","","true",""
"851","","<p align='center'><b>CORRECT!</b> Indeed, the yellow ball never moves and you receive a penalty.</p>","0","html-button-response","34","336778","0.0-8.0-6.1-1.1","10","1","2025-07-09 09:05:39","7701e855f2ef39aa3fd6c71abdc6918a","80.192.212.91","Mozilla/5.0 (Macintosh; Intel Mac OS X 10_15_7) AppleWebKit/537.36 (KHTML, like Gecko) Chrome/137.0.0.0 Safari/537.36","Macintosh","Chrome","137.0.0.0","OS X","10_15_7","https://app.prolific.com/","en-GB,en-US;q=0.9,en;q=0.8","671a44d9d93641d1d9e96883","686d226cabeef709c732f8e1","686e30da93345627e058110e","671a44d9d93641d1d9e96883","","","","","","","","","","","","","","","","","","","","","","","","","","","","","","","","","","","","","","","","","","","","",""
"2036","","","{""blue_ball"":[""Ball always shakes and moves in a random direction""]}","survey-multi-select","35","338817","0.0-8.0-7.0-0.0","10","1","2025-07-09 09:05:39","7701e855f2ef39aa3fd6c71abdc6918a","80.192.212.91","Mozilla/5.0 (Macintosh; Intel Mac OS X 10_15_7) AppleWebKit/537.36 (KHTML, like Gecko) Chrome/137.0.0.0 Safari/537.36","Macintosh","Chrome","137.0.0.0","OS X","10_15_7","https://app.prolific.com/","en-GB,en-US;q=0.9,en;q=0.8","671a44d9d93641d1d9e96883","686d226cabeef709c732f8e1","686e30da93345627e058110e","671a44d9d93641d1d9e96883","","","[0]","","","","quiz","","","","","","","","","","","","","","","","","","","","","","","","","","","","","","","","","","","","","true",""
"732","","<p align='center'><b>CORRECT!</b> Indeed, the blue ball always shakes and moves in a random direction. Also there is a penalty of -1 point.</p>","0","html-button-response","36","339550","0.0-8.0-7.0-1.0","10","1","2025-07-09 09:05:39","7701e855f2ef39aa3fd6c71abdc6918a","80.192.212.91","Mozilla/5.0 (Macintosh; Intel Mac OS X 10_15_7) AppleWebKit/537.36 (KHTML, like Gecko) Chrome/137.0.0.0 Safari/537.36","Macintosh","Chrome","137.0.0.0","OS X","10_15_7","https://app.prolific.com/","en-GB,en-US;q=0.9,en;q=0.8","671a44d9d93641d1d9e96883","686d226cabeef709c732f8e1","686e30da93345627e058110e","671a44d9d93641d1d9e96883","","","","","","","","","","","","","","","","","","","","","","","","","","","","","","","","","","","","","","","","","","","","",""
"3759","","","{""bonus"":[""When I reach 50% of points""]}","survey-multi-select","37","343310","0.0-8.0-8.0-0.0","10","1","2025-07-09 09:05:39","7701e855f2ef39aa3fd6c71abdc6918a","80.192.212.91","Mozilla/5.0 (Macintosh; Intel Mac OS X 10_15_7) AppleWebKit/537.36 (KHTML, like Gecko) Chrome/137.0.0.0 Safari/537.36","Macintosh","Chrome","137.0.0.0","OS X","10_15_7","https://app.prolific.com/","en-GB,en-US;q=0.9,en;q=0.8","671a44d9d93641d1d9e96883","686d226cabeef709c732f8e1","686e30da93345627e058110e","671a44d9d93641d1d9e96883","","","[0]","","","","quiz","","","","","","","","","","","","","","","","","","","","","","","","","","","","","","","","","","","","","true",""
"709","","<p align='center'><b>CORRECT!</b> Indeed, you receive 2 pounds extra when you reach 50% of points.</p>","0","html-button-response","38","344020","0.0-8.0-8.0-1.0","10","1","2025-07-09 09:05:39","7701e855f2ef39aa3fd6c71abdc6918a","80.192.212.91","Mozilla/5.0 (Macintosh; Intel Mac OS X 10_15_7) AppleWebKit/537.36 (KHTML, like Gecko) Chrome/137.0.0.0 Safari/537.36","Macintosh","Chrome","137.0.0.0","OS X","10_15_7","https://app.prolific.com/","en-GB,en-US;q=0.9,en;q=0.8","671a44d9d93641d1d9e96883","686d226cabeef709c732f8e1","686e30da93345627e058110e","671a44d9d93641d1d9e96883","","","","","","","","","","","","","","","","","","","","","","","","","","","","","","","","","","","","","","","","","","","","",""
"1043","","","","instructions","39","345064","0.0-8.0-9.0","10","1","2025-07-09 09:05:39","7701e855f2ef39aa3fd6c71abdc6918a","80.192.212.91","Mozilla/5.0 (Macintosh; Intel Mac OS X 10_15_7) AppleWebKit/537.36 (KHTML, like Gecko) Chrome/137.0.0.0 Safari/537.36","Macintosh","Chrome","137.0.0.0","OS X","10_15_7","https://app.prolific.com/","en-GB,en-US;q=0.9,en;q=0.8","671a44d9d93641d1d9e96883","686d226cabeef709c732f8e1","686e30da93345627e058110e","671a44d9d93641d1d9e96883","","[{""page_index"":0,""viewing_time"":1042}]","","","","","","","","","","","","","","","","","","","","","","","","","","","","","","","","","","","","","","","","","","",""
"3529","","<p>Before you start with this game please answer the following three questions yourself. </p>
  <p>Through this game, we measure several aspects of your cognitive performance, such as reaction times, multi-tasking capabilities </p>
  <p>and the ability to assess the situation you are in.</p>
  <p></p>
  <p><b>How good do you usually are in such tasks?</b></p>","63","html-slider-response","40","348595","0.0-9.0-0.0","10","1","2025-07-09 09:05:39","7701e855f2ef39aa3fd6c71abdc6918a","80.192.212.91","Mozilla/5.0 (Macintosh; Intel Mac OS X 10_15_7) AppleWebKit/537.36 (KHTML, like Gecko) Chrome/137.0.0.0 Safari/537.36","Macintosh","Chrome","137.0.0.0","OS X","10_15_7","https://app.prolific.com/","en-GB,en-US;q=0.9,en;q=0.8","671a44d9d93641d1d9e96883","686d226cabeef709c732f8e1","686e30da93345627e058110e","671a44d9d93641d1d9e96883","2025-07-09T09:11:29.039Z","","","","","","PreSkillQ","","","","","","","","","","","","","","","","","","","","","","","","","","","","","","","","","","","","","","50"
"2115","","<div style=""width:500px;"">
  <p>How well do you think you will perform in this task compared to other participants?</p>
  </div>","63","html-slider-response","41","350711","0.0-9.0-1.0","10","1","2025-07-09 09:05:39","7701e855f2ef39aa3fd6c71abdc6918a","80.192.212.91","Mozilla/5.0 (Macintosh; Intel Mac OS X 10_15_7) AppleWebKit/537.36 (KHTML, like Gecko) Chrome/137.0.0.0 Safari/537.36","Macintosh","Chrome","137.0.0.0","OS X","10_15_7","https://app.prolific.com/","en-GB,en-US;q=0.9,en;q=0.8","671a44d9d93641d1d9e96883","686d226cabeef709c732f8e1","686e30da93345627e058110e","671a44d9d93641d1d9e96883","2025-07-09T09:11:31.155Z","","","","","","PrePerfQ","","","","","","","","","","","","","","","","","","","","","","","","","","","","","","","","","","","","","","50"
"2154","","<div style=""width:500px;"">
  <p>What best describes how you currently feel?</p>
  </div>","73","html-slider-response","42","352866","0.0-9.0-2.0","10","1","2025-07-09 09:05:39","7701e855f2ef39aa3fd6c71abdc6918a","80.192.212.91","Mozilla/5.0 (Macintosh; Intel Mac OS X 10_15_7) AppleWebKit/537.36 (KHTML, like Gecko) Chrome/137.0.0.0 Safari/537.36","Macintosh","Chrome","137.0.0.0","OS X","10_15_7","https://app.prolific.com/","en-GB,en-US;q=0.9,en;q=0.8","671a44d9d93641d1d9e96883","686d226cabeef709c732f8e1","686e30da93345627e058110e","671a44d9d93641d1d9e96883","2025-07-09T09:11:33.310Z","","","","","","PreMotivationQ","","","","","","","","","","","","","","","","","","","","","","","","","","","","","","","","","","","","","","50"
"","","","","ctl-task-cpt","43","381769","0.0-10.0-0.0","10","1","2025-07-09 09:05:39","7701e855f2ef39aa3fd6c71abdc6918a","80.192.212.91","Mozilla/5.0 (Macintosh; Intel Mac OS X 10_15_7) AppleWebKit/537.36 (KHTML, like Gecko) Chrome/137.0.0.0 Safari/537.36","Macintosh","Chrome","137.0.0.0","OS X","10_15_7","https://app.prolific.com/","en-GB,en-US;q=0.9,en;q=0.8","671a44d9d93641d1d9e96883","686d226cabeef709c732f8e1","686e30da93345627e058110e","671a44d9d93641d1d9e96883","2025-07-09T09:12:02.213Z","","","","","","","","","","","","","","","","win-only","3","g1:SW,g2:NE","1","1","0","354362.8","899.9","5901.3","25891.5","1","4","8","6","2","8","5","5","0","0.03787878787878788","1362.7","3000","980","[""up"",""right""]","{""num_key_presses"":9,""num_perfect"":5,""num_errors"":3,""num_randdir"":0,""num_randdir_good_moves"":0,""num_whilered"":1,""num_whileblue"":1,""num_blue"":2,""num_good_moves"":6}","[401.603125,397.49375,0.3,401.603125,397.49375,101,400.603125,397.49375,201.6,397.603125,400.49375,305.7,397.603125,400.49375,406,404.603125,391.49375,506,396.603125,394.49375,606.4,309.603125,457.49375,710.8,184.603125,645.49375,816.5,223.603125,631.49375,916.5,671.603125,191.49375,1016.6,705.603125,110.49375,1121.6,711.603125,98.49375,1226.4,715.603125,90.49375,1326.9,715.603125,90.49375,1432.7,706.603125,120.49375,1532.8,599.603125,403.49375,1635.8,587.603125,422.49375,1736,590.603125,404.49375,1837,611.603125,391.49375,1941.7,624.603125,379.49375,2046.5,624.603125,379.49375,2149.7,624.603125,379.49375,2251,624.603125,379.49375,2351.8,624.603125,379.49375,2456.1,624.603125,379.49375,2561.6,624.603125,379.49375,2667.8,624.603125,379.49375,2771.5,624.603125,379.49375,2871.5,624.603125,379.49375,2972,624.603125,379.49375,3076.4,624.603125,379.49375,3181.3,624.603125,379.49375,3282.9,607.603125,392.49375,3386.2,606.603125,379.49375,3488.1,602.603125,372.49375,3590.7,543.603125,399.49375,3690.9,490.603125,448.49375,3790.9,458.603125,464.49375,3896.7,452.603125,466.49375,3996.8,452.603125,466.49375,4101.6,452.603125,466.49375,4201.9,452.603125,466.49375,4303.9,452.603125,466.49375,4406.5,452.603125,466.49375,4506.7,452.603125,466.49375,4606.7,452.603125,466.49375,4711.3,452.603125,466.49375,4811.3,452.603125,466.49375,4916.6]","[1446.1,1446.1,1000,0,446.1,""smooth"",""right"",""right"",""good_move"",1778.2,331.7,2482.4,1446.5,-2150.7,""error"",""-"",""-"",""no_move"",2060.4,281.9,2482.4,1446.5,-1868.5,""while_red"",""-"",""-"",""no_move"",3140.2,1361.7,2466.2,2780.1,-2106.1,""error"",""-"",""-"",""no_move"",6676.9,3536.5,2157.1,4145.3,374.5,""smooth"",""up"",""up"",""good_move"",9704.7,3027.6,2432.4,6677.1,595.2,""smooth"",""up"",""up"",""good_move"",11619.2,1914.2,1562,9705,352.2,""smooth"",""right"",""right"",""good_move"",13537.9,1918.5,1585.5,11619.5,333,""while_blue"",""right"",""up"",""good_move"",19892.2,6354.1,2569.9,16975.6,346.7,""smooth"",""right"",""right"",""good_move""]","",""
"2622","","<div style=""width:500px;"">
  <p>What determined the result of this run?</p>
  </div>","95","html-slider-response","44","384393","0.0-10.0-1.0","10","1","2025-07-09 09:05:39","7701e855f2ef39aa3fd6c71abdc6918a","80.192.212.91","Mozilla/5.0 (Macintosh; Intel Mac OS X 10_15_7) AppleWebKit/537.36 (KHTML, like Gecko) Chrome/137.0.0.0 Safari/537.36","Macintosh","Chrome","137.0.0.0","OS X","10_15_7","https://app.prolific.com/","en-GB,en-US;q=0.9,en;q=0.8","671a44d9d93641d1d9e96883","686d226cabeef709c732f8e1","686e30da93345627e058110e","671a44d9d93641d1d9e96883","2025-07-09T09:12:04.837Z","","","","","","AttribQ","","","","","","","","","","","","","","","","","","","","","","","","","","","","","","","","","","","","","","50"
"1701","","<div style=""width:500px;"">
  <p>How much control did you have over the ball?</p>
  </div>","99","html-slider-response","45","386096","0.0-10.0-2.0","10","1","2025-07-09 09:05:39","7701e855f2ef39aa3fd6c71abdc6918a","80.192.212.91","Mozilla/5.0 (Macintosh; Intel Mac OS X 10_15_7) AppleWebKit/537.36 (KHTML, like Gecko) Chrome/137.0.0.0 Safari/537.36","Macintosh","Chrome","137.0.0.0","OS X","10_15_7","https://app.prolific.com/","en-GB,en-US;q=0.9,en;q=0.8","671a44d9d93641d1d9e96883","686d226cabeef709c732f8e1","686e30da93345627e058110e","671a44d9d93641d1d9e96883","2025-07-09T09:12:06.540Z","","","","","","ControlQ","","","","","","","","","","","","","","","","","","","","","","","","","","","","","","","","","","","","","","50"
"2244","","<div style=""width:500px;"">
  <p>How would you describe your current emotional state?</p>
  </div>","14","html-slider-response","46","388341","0.0-10.0-3.0","10","1","2025-07-09 09:05:39","7701e855f2ef39aa3fd6c71abdc6918a","80.192.212.91","Mozilla/5.0 (Macintosh; Intel Mac OS X 10_15_7) AppleWebKit/537.36 (KHTML, like Gecko) Chrome/137.0.0.0 Safari/537.36","Macintosh","Chrome","137.0.0.0","OS X","10_15_7","https://app.prolific.com/","en-GB,en-US;q=0.9,en;q=0.8","671a44d9d93641d1d9e96883","686d226cabeef709c732f8e1","686e30da93345627e058110e","671a44d9d93641d1d9e96883","2025-07-09T09:12:08.785Z","","","","","","StressQ","","","","","","","","","","","","","","","","","","","","","","","","","","","","","","","","","","","","","","50"
"2546","","<div style=""width:500px;"">
  <p>What best describes how you currently feel?</p>
  </div>","87","html-slider-response","47","390888","0.0-10.0-4.0","10","1","2025-07-09 09:05:39","7701e855f2ef39aa3fd6c71abdc6918a","80.192.212.91","Mozilla/5.0 (Macintosh; Intel Mac OS X 10_15_7) AppleWebKit/537.36 (KHTML, like Gecko) Chrome/137.0.0.0 Safari/537.36","Macintosh","Chrome","137.0.0.0","OS X","10_15_7","https://app.prolific.com/","en-GB,en-US;q=0.9,en;q=0.8","671a44d9d93641d1d9e96883","686d226cabeef709c732f8e1","686e30da93345627e058110e","671a44d9d93641d1d9e96883","2025-07-09T09:12:11.332Z","","","","","","MotivationQ","","","","","","","","","","","","","","","","","","","","","","","","","","","","","","","","","","","","","","50"
"","","","","ctl-task-cpt","48","417333","0.0-10.0-0.1","10","1","2025-07-09 09:05:39","7701e855f2ef39aa3fd6c71abdc6918a","80.192.212.91","Mozilla/5.0 (Macintosh; Intel Mac OS X 10_15_7) AppleWebKit/537.36 (KHTML, like Gecko) Chrome/137.0.0.0 Safari/537.36","Macintosh","Chrome","137.0.0.0","OS X","10_15_7","https://app.prolific.com/","en-GB,en-US;q=0.9,en;q=0.8","671a44d9d93641d1d9e96883","686d226cabeef709c732f8e1","686e30da93345627e058110e","671a44d9d93641d1d9e96883","2025-07-09T09:12:37.777Z","","","","","","","","","","","","","","","","win-only","2","g1:SE,g2:NW","0.9","2","0","392384.9","946.1","5950.6","23436.4","1","4","4","6","2","4","4","9","5","0.06818181818181818","1199.7","3000","515","[""left"",""up""]","{""num_key_presses"":6,""num_perfect"":6,""num_errors"":0,""num_randdir"":0,""num_randdir_good_moves"":0,""num_whilered"":0,""num_whileblue"":0,""num_blue"":0,""num_good_moves"":6}","[398.603125,400.49375,0.3,398.603125,400.49375,104.7,398.603125,400.49375,205.4,398.603125,400.49375,313.4,398.603125,400.49375,413.9,402.603125,438.49375,514.1,354.603125,430.49375,615.2,339.603125,418.49375,720.6,339.603125,418.49375,824.4,313.603125,372.49375,925.2,116.603125,132.49375,1033.1,100.603125,95.49375,1134.7,87.603125,79.49375,1240.4,87.603125,79.49375,1354.3,102.603125,106.49375,1454.6,165.603125,210.49375,1555.4,190.603125,235.49375,1664.8,190.603125,235.49375,1764.9,190.603125,235.49375,1871,190.603125,235.49375,1975.2,190.603125,235.49375,2079.2,190.603125,235.49375,2180.8,190.603125,235.49375,2285,190.603125,235.49375,2385.3,190.603125,235.49375,2489.2,190.603125,235.49375,2589.5,190.603125,235.49375,2689.9,190.603125,235.49375,2790,195.603125,250.49375,2895.6,217.603125,295.49375,2999.6,231.603125,316.49375,3100.1,223.603125,317.49375,3200.9,218.603125,315.49375,3305.2,214.603125,312.49375,3410,236.603125,310.49375,3519.4,267.603125,337.49375,3620.1,281.603125,349.49375,3725.1,281.603125,349.49375,3825.4,281.603125,349.49375,3930.8,281.603125,349.49375,4034.9,281.603125,349.49375,4134.9,281.603125,349.49375,4239.6,281.603125,349.49375,4345.7,281.603125,349.49375,4449.3,281.603125,349.49375,4555.2,281.603125,349.49375,4655.6,281.603125,349.49375,4759.8,281.603125,349.49375,4865,281.603125,349.49375,4970]","[1544.2,1544.2,1000,0,544.2,""smooth"",""left"",""left"",""good_move"",4692.7,3148,2719.5,1544.7,428.5,""smooth"",""left"",""left"",""good_move"",8440.9,3747.9,3290.6,4693,457.3,""smooth"",""left"",""left"",""good_move"",11577.3,3136.2,2780.3,8441.1,355.9,""smooth"",""up"",""up"",""good_move"",14075.5,2497.9,2094.2,11577.6,403.7,""smooth"",""up"",""up"",""good_move"",17378.9,3303.3,2904.4,14075.6,398.9,""smooth"",""up"",""up"",""good_move""]","",""
"5060","","<div style=""width:500px;"">
  <p>What determined the result of this run?</p>
  </div>","92","html-slider-response","49","422394","0.0-10.0-1.1","10","1","2025-07-09 09:05:39","7701e855f2ef39aa3fd6c71abdc6918a","80.192.212.91","Mozilla/5.0 (Macintosh; Intel Mac OS X 10_15_7) AppleWebKit/537.36 (KHTML, like Gecko) Chrome/137.0.0.0 Safari/537.36","Macintosh","Chrome","137.0.0.0","OS X","10_15_7","https://app.prolific.com/","en-GB,en-US;q=0.9,en;q=0.8","671a44d9d93641d1d9e96883","686d226cabeef709c732f8e1","686e30da93345627e058110e","671a44d9d93641d1d9e96883","2025-07-09T09:12:42.838Z","","","","","","AttribQ","","","","","","","","","","","","","","","","","","","","","","","","","","","","","","","","","","","","","","50"
"1445","","<div style=""width:500px;"">
  <p>How much control did you have over the ball?</p>
  </div>","92","html-slider-response","50","423840","0.0-10.0-2.1","10","1","2025-07-09 09:05:39","7701e855f2ef39aa3fd6c71abdc6918a","80.192.212.91","Mozilla/5.0 (Macintosh; Intel Mac OS X 10_15_7) AppleWebKit/537.36 (KHTML, like Gecko) Chrome/137.0.0.0 Safari/537.36","Macintosh","Chrome","137.0.0.0","OS X","10_15_7","https://app.prolific.com/","en-GB,en-US;q=0.9,en;q=0.8","671a44d9d93641d1d9e96883","686d226cabeef709c732f8e1","686e30da93345627e058110e","671a44d9d93641d1d9e96883","2025-07-09T09:12:44.285Z","","","","","","ControlQ","","","","","","","","","","","","","","","","","","","","","","","","","","","","","","","","","","","","","","50"
"1603","","<div style=""width:500px;"">
  <p>How would you describe your current emotional state?</p>
  </div>","12","html-slider-response","51","425444","0.0-10.0-3.1","10","1","2025-07-09 09:05:39","7701e855f2ef39aa3fd6c71abdc6918a","80.192.212.91","Mozilla/5.0 (Macintosh; Intel Mac OS X 10_15_7) AppleWebKit/537.36 (KHTML, like Gecko) Chrome/137.0.0.0 Safari/537.36","Macintosh","Chrome","137.0.0.0","OS X","10_15_7","https://app.prolific.com/","en-GB,en-US;q=0.9,en;q=0.8","671a44d9d93641d1d9e96883","686d226cabeef709c732f8e1","686e30da93345627e058110e","671a44d9d93641d1d9e96883","2025-07-09T09:12:45.889Z","","","","","","StressQ","","","","","","","","","","","","","","","","","","","","","","","","","","","","","","","","","","","","","","50"
"1304","","<div style=""width:500px;"">
  <p>What best describes how you currently feel?</p>
  </div>","90","html-slider-response","52","426750","0.0-10.0-4.1","10","1","2025-07-09 09:05:39","7701e855f2ef39aa3fd6c71abdc6918a","80.192.212.91","Mozilla/5.0 (Macintosh; Intel Mac OS X 10_15_7) AppleWebKit/537.36 (KHTML, like Gecko) Chrome/137.0.0.0 Safari/537.36","Macintosh","Chrome","137.0.0.0","OS X","10_15_7","https://app.prolific.com/","en-GB,en-US;q=0.9,en;q=0.8","671a44d9d93641d1d9e96883","686d226cabeef709c732f8e1","686e30da93345627e058110e","671a44d9d93641d1d9e96883","2025-07-09T09:12:47.194Z","","","","","","MotivationQ","","","","","","","","","","","","","","","","","","","","","","","","","","","","","","","","","","","","","","50"
"","","","","ctl-task-cpt","53","467327","0.0-10.0-0.2","10","1","2025-07-09 09:05:39","7701e855f2ef39aa3fd6c71abdc6918a","80.192.212.91","Mozilla/5.0 (Macintosh; Intel Mac OS X 10_15_7) AppleWebKit/537.36 (KHTML, like Gecko) Chrome/137.0.0.0 Safari/537.36","Macintosh","Chrome","137.0.0.0","OS X","10_15_7","https://app.prolific.com/","en-GB,en-US;q=0.9,en;q=0.8","671a44d9d93641d1d9e96883","686d226cabeef709c732f8e1","686e30da93345627e058110e","671a44d9d93641d1d9e96883","2025-07-09T09:13:27.771Z","","","","","","","","","","","","","","","","win-only","2","g1:SE,g2:NW","0.8","3","0","428246.9","809.8","5810.4","37566.6","1","4","4","6","2","4","3","12","9","0.09090909090909091","2208.5","3000","480","[""left"",""up""]","{""num_key_presses"":8,""num_perfect"":6,""num_errors"":1,""num_randdir"":1,""num_randdir_good_moves"":0,""num_whilered"":0,""num_whileblue"":1,""num_blue"":3,""num_good_moves"":7}","[395.603125,399.49375,0.3,395.603125,399.49375,101.5,395.603125,399.49375,205.7,395.603125,399.49375,306.5,395.603125,399.49375,406.5,401.603125,397.49375,507.2,404.603125,397.49375,610.9,404.603125,398.49375,711.1,396.603125,403.49375,815.8,396.603125,403.49375,920.3,409.603125,404.49375,1021.3,433.603125,405.49375,1121.4,433.603125,405.49375,1221.4,433.603125,405.49375,1325.8,433.603125,405.49375,1428.5,433.603125,405.49375,1533.9,433.603125,405.49375,1635.7,433.603125,405.49375,1740.9,433.603125,405.49375,1841,146.603125,183.49375,1946.3,134.603125,115.49375,2051.3,119.603125,89.49375,2156.6,103.603125,87.49375,2256.6,106.603125,86.49375,2361.7,178.603125,183.49375,2465.6,235.603125,296.49375,2570.4,235.603125,296.49375,2671.7,237.603125,297.49375,2776,235.603125,303.49375,2876.1,248.603125,308.49375,2982.9,274.603125,313.49375,3086.5,274.603125,313.49375,3190.5,274.603125,313.49375,3291.6,274.603125,313.49375,3396.1,274.603125,313.49375,3496.3,274.603125,313.49375,3596.4,274.603125,313.49375,3700.8,274.603125,313.49375,3806.6,274.603125,313.49375,3911.1,274.603125,313.49375,4011.5,274.603125,313.49375,4115.8,274.603125,313.49375,4224.8,274.603125,313.49375,4327.5,274.603125,313.49375,4430.9,274.603125,313.49375,4536.2,274.603125,313.49375,4641.5,274.603125,313.49375,4747,274.603125,313.49375,4851.4,274.603125,313.49375,4957.1]","[5562.4,5562.4,3176.1,2005.4,380.9,""smooth"",""left"",""left"",""good_move"",8732.3,3169.4,2770.5,5562.9,398.9,""smooth"",""left"",""left"",""good_move"",11527,2794.5,2488.4,8732.5,306.1,""while_blue"",""left"",""up"",""good_move"",15565.7,4038.4,3647.8,11527.3,390.6,""oops"",""left"",""down"",""bad_move"",18805.4,3239.4,2827.2,15566,412.2,""smooth"",""left"",""left"",""good_move"",21718.5,2912.9,2520.8,18805.6,392.1,""smooth"",""up"",""up"",""good_move"",28682.1,6963.3,2923.9,25410.8,347.4,""smooth"",""up"",""up"",""good_move"",31648.8,2966.6,2601.8,28682.2,364.8,""smooth"",""up"",""up"",""good_move""]","",""
"2157","","<div style=""width:500px;"">
  <p>What determined the result of this run?</p>
  </div>","74","html-slider-response","54","469485","0.0-10.0-1.2","10","1","2025-07-09 09:05:39","7701e855f2ef39aa3fd6c71abdc6918a","80.192.212.91","Mozilla/5.0 (Macintosh; Intel Mac OS X 10_15_7) AppleWebKit/537.36 (KHTML, like Gecko) Chrome/137.0.0.0 Safari/537.36","Macintosh","Chrome","137.0.0.0","OS X","10_15_7","https://app.prolific.com/","en-GB,en-US;q=0.9,en;q=0.8","671a44d9d93641d1d9e96883","686d226cabeef709c732f8e1","686e30da93345627e058110e","671a44d9d93641d1d9e96883","2025-07-09T09:13:29.929Z","","","","","","AttribQ","","","","","","","","","","","","","","","","","","","","","","","","","","","","","","","","","","","","","","50"
"1939","","<div style=""width:500px;"">
  <p>How much control did you have over the ball?</p>
  </div>","70","html-slider-response","55","471425","0.0-10.0-2.2","10","1","2025-07-09 09:05:39","7701e855f2ef39aa3fd6c71abdc6918a","80.192.212.91","Mozilla/5.0 (Macintosh; Intel Mac OS X 10_15_7) AppleWebKit/537.36 (KHTML, like Gecko) Chrome/137.0.0.0 Safari/537.36","Macintosh","Chrome","137.0.0.0","OS X","10_15_7","https://app.prolific.com/","en-GB,en-US;q=0.9,en;q=0.8","671a44d9d93641d1d9e96883","686d226cabeef709c732f8e1","686e30da93345627e058110e","671a44d9d93641d1d9e96883","2025-07-09T09:13:31.869Z","","","","","","ControlQ","","","","","","","","","","","","","","","","","","","","","","","","","","","","","","","","","","","","","","50"
"1373","","<div style=""width:500px;"">
  <p>How would you describe your current emotional state?</p>
  </div>","10","html-slider-response","56","472799","0.0-10.0-3.2","10","1","2025-07-09 09:05:39","7701e855f2ef39aa3fd6c71abdc6918a","80.192.212.91","Mozilla/5.0 (Macintosh; Intel Mac OS X 10_15_7) AppleWebKit/537.36 (KHTML, like Gecko) Chrome/137.0.0.0 Safari/537.36","Macintosh","Chrome","137.0.0.0","OS X","10_15_7","https://app.prolific.com/","en-GB,en-US;q=0.9,en;q=0.8","671a44d9d93641d1d9e96883","686d226cabeef709c732f8e1","686e30da93345627e058110e","671a44d9d93641d1d9e96883","2025-07-09T09:13:33.243Z","","","","","","StressQ","","","","","","","","","","","","","","","","","","","","","","","","","","","","","","","","","","","","","","50"
"1768","","<div style=""width:500px;"">
  <p>What best describes how you currently feel?</p>
  </div>","87","html-slider-response","57","474568","0.0-10.0-4.2","10","1","2025-07-09 09:05:39","7701e855f2ef39aa3fd6c71abdc6918a","80.192.212.91","Mozilla/5.0 (Macintosh; Intel Mac OS X 10_15_7) AppleWebKit/537.36 (KHTML, like Gecko) Chrome/137.0.0.0 Safari/537.36","Macintosh","Chrome","137.0.0.0","OS X","10_15_7","https://app.prolific.com/","en-GB,en-US;q=0.9,en;q=0.8","671a44d9d93641d1d9e96883","686d226cabeef709c732f8e1","686e30da93345627e058110e","671a44d9d93641d1d9e96883","2025-07-09T09:13:35.012Z","","","","","","MotivationQ","","","","","","","","","","","","","","","","","","","","","","","","","","","","","","","","","","","","","","50"
"","","","","ctl-task-cpt","58","513346","0.0-10.0-0.3","10","1","2025-07-09 09:05:39","7701e855f2ef39aa3fd6c71abdc6918a","80.192.212.91","Mozilla/5.0 (Macintosh; Intel Mac OS X 10_15_7) AppleWebKit/537.36 (KHTML, like Gecko) Chrome/137.0.0.0 Safari/537.36","Macintosh","Chrome","137.0.0.0","OS X","10_15_7","https://app.prolific.com/","en-GB,en-US;q=0.9,en;q=0.8","671a44d9d93641d1d9e96883","686d226cabeef709c732f8e1","686e30da93345627e058110e","671a44d9d93641d1d9e96883","2025-07-09T09:14:13.790Z","","","","","","","","","","","","","","","","win-only","0","g1:NW,g2:SE","0.7","4","0","476064.7","755","5755.9","35766.2","1","4","8","6","2","8","7","19","12","0.14393939393939395","4030.2","3000","415","[""down"",""right""]","{""num_key_presses"":8,""num_perfect"":5,""num_errors"":1,""num_randdir"":2,""num_randdir_good_moves"":1,""num_whilered"":0,""num_whileblue"":1,""num_blue"":3,""num_good_moves"":7}","[388.603125,396.49375,0.3,388.603125,396.49375,100.7,392.603125,395.49375,206.1,397.603125,394.49375,309.5,407.603125,393.49375,412.2,405.603125,401.49375,516.2,405.603125,401.49375,616.2,408.603125,401.49375,716.4,415.603125,394.49375,821.2,424.603125,384.49375,929.4,424.603125,384.49375,1030.5,424.603125,384.49375,1130.8,424.603125,384.49375,1232.3,424.603125,384.49375,1335.5,424.603125,384.49375,1435.5,424.603125,384.49375,1543.3,424.603125,384.49375,1646.3,424.603125,384.49375,1750.3,424.603125,384.49375,1852.5,424.603125,384.49375,1955.6,424.603125,384.49375,2056,424.603125,384.49375,2160.9,424.603125,384.49375,2261.2,424.603125,384.49375,2365.5,424.603125,384.49375,2466.2,424.603125,384.49375,2571,424.603125,384.49375,2675.3,424.603125,384.49375,2775.5,424.603125,384.49375,2882.9,424.603125,384.49375,2986,424.603125,384.49375,3086,424.603125,384.49375,3191.4,424.603125,384.49375,3295.9,424.603125,384.49375,3397.1,424.603125,384.49375,3499.8,424.603125,384.49375,3600.3,442.603125,393.49375,3701,476.603125,415.49375,3805.5,693.603125,644.49375,3910.5,721.603125,675.49375,4014.2,723.603125,679.49375,4116.2,726.603125,687.49375,4220.9,728.603125,691.49375,4321.4,737.603125,703.49375,4421.5,733.603125,710.49375,4527.2,726.603125,707.49375,4630.8,725.603125,699.49375,4731,725.603125,698.49375,4835.3,725.603125,698.49375,4935.8]","[5455.7,5455.7,2951.6,2005.1,499,""smooth"",""down"",""down"",""good_move"",8554.6,3098.5,2790.5,5456.1,308,""oops"",""down"",""up"",""bad_move"",10841,2286.1,1873.2,8554.9,412.9,""smooth"",""down"",""down"",""good_move"",14081.6,3240.4,2849.7,10841.2,390.7,""smooth"",""right"",""right"",""good_move"",16238.7,2156.8,1697.2,14081.9,459.6,""smooth"",""right"",""right"",""good_move"",19804.6,3565.7,3195.9,16238.9,369.8,""oops"",""right"",""down"",""good_move"",26860.2,7055.5,2390.1,24044.8,425.3,""smooth"",""right"",""right"",""good_move"",29920.2,3059.8,2741.6,26860.4,318.2,""while_blue"",""down"",""down"",""good_move""]","",""
"2474","","<div style=""width:500px;"">
  <p>What determined the result of this run?</p>
  </div>","73","html-slider-response","59","515821","0.0-10.0-1.3","10","1","2025-07-09 09:05:39","7701e855f2ef39aa3fd6c71abdc6918a","80.192.212.91","Mozilla/5.0 (Macintosh; Intel Mac OS X 10_15_7) AppleWebKit/537.36 (KHTML, like Gecko) Chrome/137.0.0.0 Safari/537.36","Macintosh","Chrome","137.0.0.0","OS X","10_15_7","https://app.prolific.com/","en-GB,en-US;q=0.9,en;q=0.8","671a44d9d93641d1d9e96883","686d226cabeef709c732f8e1","686e30da93345627e058110e","671a44d9d93641d1d9e96883","2025-07-09T09:14:16.265Z","","","","","","AttribQ","","","","","","","","","","","","","","","","","","","","","","","","","","","","","","","","","","","","","","50"
"1323","","<div style=""width:500px;"">
  <p>How much control did you have over the ball?</p>
  </div>","71","html-slider-response","60","517145","0.0-10.0-2.3","10","1","2025-07-09 09:05:39","7701e855f2ef39aa3fd6c71abdc6918a","80.192.212.91","Mozilla/5.0 (Macintosh; Intel Mac OS X 10_15_7) AppleWebKit/537.36 (KHTML, like Gecko) Chrome/137.0.0.0 Safari/537.36","Macintosh","Chrome","137.0.0.0","OS X","10_15_7","https://app.prolific.com/","en-GB,en-US;q=0.9,en;q=0.8","671a44d9d93641d1d9e96883","686d226cabeef709c732f8e1","686e30da93345627e058110e","671a44d9d93641d1d9e96883","2025-07-09T09:14:17.589Z","","","","","","ControlQ","","","","","","","","","","","","","","","","","","","","","","","","","","","","","","","","","","","","","","50"
"1887","","<div style=""width:500px;"">
  <p>How would you describe your current emotional state?</p>
  </div>","15","html-slider-response","61","519033","0.0-10.0-3.3","10","1","2025-07-09 09:05:39","7701e855f2ef39aa3fd6c71abdc6918a","80.192.212.91","Mozilla/5.0 (Macintosh; Intel Mac OS X 10_15_7) AppleWebKit/537.36 (KHTML, like Gecko) Chrome/137.0.0.0 Safari/537.36","Macintosh","Chrome","137.0.0.0","OS X","10_15_7","https://app.prolific.com/","en-GB,en-US;q=0.9,en;q=0.8","671a44d9d93641d1d9e96883","686d226cabeef709c732f8e1","686e30da93345627e058110e","671a44d9d93641d1d9e96883","2025-07-09T09:14:19.477Z","","","","","","StressQ","","","","","","","","","","","","","","","","","","","","","","","","","","","","","","","","","","","","","","50"
"1988","","<div style=""width:500px;"">
  <p>What best describes how you currently feel?</p>
  </div>","88","html-slider-response","62","521022","0.0-10.0-4.3","10","1","2025-07-09 09:05:39","7701e855f2ef39aa3fd6c71abdc6918a","80.192.212.91","Mozilla/5.0 (Macintosh; Intel Mac OS X 10_15_7) AppleWebKit/537.36 (KHTML, like Gecko) Chrome/137.0.0.0 Safari/537.36","Macintosh","Chrome","137.0.0.0","OS X","10_15_7","https://app.prolific.com/","en-GB,en-US;q=0.9,en;q=0.8","671a44d9d93641d1d9e96883","686d226cabeef709c732f8e1","686e30da93345627e058110e","671a44d9d93641d1d9e96883","2025-07-09T09:14:21.466Z","","","","","","MotivationQ","","","","","","","","","","","","","","","","","","","","","","","","","","","","","","","","","","","","","","50"
"","","","","ctl-task-cpt","63","572940","0.0-10.0-0.4","10","1","2025-07-09 09:05:39","7701e855f2ef39aa3fd6c71abdc6918a","80.192.212.91","Mozilla/5.0 (Macintosh; Intel Mac OS X 10_15_7) AppleWebKit/537.36 (KHTML, like Gecko) Chrome/137.0.0.0 Safari/537.36","Macintosh","Chrome","137.0.0.0","OS X","10_15_7","https://app.prolific.com/","en-GB,en-US;q=0.9,en;q=0.8","671a44d9d93641d1d9e96883","686d226cabeef709c732f8e1","686e30da93345627e058110e","671a44d9d93641d1d9e96883","2025-07-09T09:15:13.384Z","","","","","","","","","","","","","","","","win-only","2","g1:SE,g2:NW","0.6","5","0","522519.5","926.8","5935.4","48906.3","1","4","8","6","2","-8","-10","9","19","0.06818181818181818","1204.4","3000","-2740","[""left"",""up""]","{""num_key_presses"":10,""num_perfect"":5,""num_errors"":2,""num_randdir"":3,""num_randdir_good_moves"":1,""num_whilered"":0,""num_whileblue"":2,""num_blue"":5,""num_good_moves"":7}","[398.603125,387.49375,0.2,398.603125,387.49375,104.2,398.603125,390.49375,208.9,396.603125,412.49375,308.9,396.603125,412.49375,414.5,400.603125,417.49375,518.7,407.603125,413.49375,623,407.603125,413.49375,723.5,356.603125,340.49375,824.5,240.603125,235.49375,924.7,35.603125000000006,111.49375,1029.4,44.603125000000006,54.493750000000006,1129.6,47.603125000000006,48.493750000000006,1229.7,47.603125000000006,48.493750000000006,1334.7,72.603125,87.49375,1439.1,123.603125,175.49375,1539.7,130.603125,188.49375,1648.3,130.603125,188.49375,1749.9,130.603125,188.49375,1853.8,130.603125,188.49375,1954.5,130.603125,188.49375,2056.7,130.603125,188.49375,2159.6,130.603125,188.49375,2263.8,130.603125,188.49375,2364,130.603125,188.49375,2464.5,130.603125,188.49375,2571.9,130.603125,188.49375,2674.5,130.603125,188.49375,2779.1,130.603125,188.49375,2879.2,130.603125,188.49375,2979.2,130.603125,188.49375,3079.4,130.603125,189.49375,3179.4,144.603125,213.49375,3279.5,144.603125,213.49375,3379.6,144.603125,213.49375,3479.6,144.603125,213.49375,3583.7,144.603125,213.49375,3684.5,144.603125,213.49375,3792.7,144.603125,213.49375,3893.1,144.603125,213.49375,3994.5,144.603125,213.49375,4095.3,144.603125,213.49375,4199.1,144.603125,213.49375,4299.1,144.603125,213.49375,4399.4,144.603125,213.49375,4504.5,144.603125,213.49375,4604.5,144.603125,213.49375,4714.6,144.603125,213.49375,4815,144.603125,213.49375,4918.8]","[1466.5,1466.6,1000,0,466.6,""oops"",""left"",""down"",""bad_move"",7734.7,6267.7,2375.5,5010.5,348.7,""smooth"",""left"",""left"",""good_move"",11208.2,3473.3,3128.1,7734.9,345.2,""smooth"",""left"",""left"",""good_move"",13858.2,2649.8,2320.3,11208.4,329.5,""smooth"",""left"",""left"",""good_move"",17387.2,3528.9,3182.3,13858.3,346.6,""while_blue"",""up"",""right"",""bad_move"",26984.2,9596.5,1949.3,24680.5,354.4,""oops"",""up"",""down"",""bad_move"",30304.6,3320.1,2877.2,26984.5,442.9,""smooth"",""up"",""up"",""good_move"",33782.6,3477.6,3174.5,30305,303.1,""smooth"",""up"",""up"",""good_move"",36313.7,2530.9,2189.3,33782.8,341.6,""oops"",""up"",""up"",""good_move"",40296.2,3982.3,3705.8,36313.9,276.5,""while_blue"",""up"",""up"",""good_move""]","",""
"1808","","<div style=""width:500px;"">
  <p>What determined the result of this run?</p>
  </div>","62","html-slider-response","64","574749","0.0-10.0-1.4","10","1","2025-07-09 09:05:39","7701e855f2ef39aa3fd6c71abdc6918a","80.192.212.91","Mozilla/5.0 (Macintosh; Intel Mac OS X 10_15_7) AppleWebKit/537.36 (KHTML, like Gecko) Chrome/137.0.0.0 Safari/537.36","Macintosh","Chrome","137.0.0.0","OS X","10_15_7","https://app.prolific.com/","en-GB,en-US;q=0.9,en;q=0.8","671a44d9d93641d1d9e96883","686d226cabeef709c732f8e1","686e30da93345627e058110e","671a44d9d93641d1d9e96883","2025-07-09T09:15:15.193Z","","","","","","AttribQ","","","","","","","","","","","","","","","","","","","","","","","","","","","","","","","","","","","","","","50"
"1875","","<div style=""width:500px;"">
  <p>How much control did you have over the ball?</p>
  </div>","63","html-slider-response","65","576625","0.0-10.0-2.4","10","1","2025-07-09 09:05:39","7701e855f2ef39aa3fd6c71abdc6918a","80.192.212.91","Mozilla/5.0 (Macintosh; Intel Mac OS X 10_15_7) AppleWebKit/537.36 (KHTML, like Gecko) Chrome/137.0.0.0 Safari/537.36","Macintosh","Chrome","137.0.0.0","OS X","10_15_7","https://app.prolific.com/","en-GB,en-US;q=0.9,en;q=0.8","671a44d9d93641d1d9e96883","686d226cabeef709c732f8e1","686e30da93345627e058110e","671a44d9d93641d1d9e96883","2025-07-09T09:15:17.069Z","","","","","","ControlQ","","","","","","","","","","","","","","","","","","","","","","","","","","","","","","","","","","","","","","50"
"1919","","<div style=""width:500px;"">
  <p>How would you describe your current emotional state?</p>
  </div>","34","html-slider-response","66","578545","0.0-10.0-3.4","10","1","2025-07-09 09:05:39","7701e855f2ef39aa3fd6c71abdc6918a","80.192.212.91","Mozilla/5.0 (Macintosh; Intel Mac OS X 10_15_7) AppleWebKit/537.36 (KHTML, like Gecko) Chrome/137.0.0.0 Safari/537.36","Macintosh","Chrome","137.0.0.0","OS X","10_15_7","https://app.prolific.com/","en-GB,en-US;q=0.9,en;q=0.8","671a44d9d93641d1d9e96883","686d226cabeef709c732f8e1","686e30da93345627e058110e","671a44d9d93641d1d9e96883","2025-07-09T09:15:18.989Z","","","","","","StressQ","","","","","","","","","","","","","","","","","","","","","","","","","","","","","","","","","","","","","","50"
"1640","","<div style=""width:500px;"">
  <p>What best describes how you currently feel?</p>
  </div>","88","html-slider-response","67","580186","0.0-10.0-4.4","10","1","2025-07-09 09:05:39","7701e855f2ef39aa3fd6c71abdc6918a","80.192.212.91","Mozilla/5.0 (Macintosh; Intel Mac OS X 10_15_7) AppleWebKit/537.36 (KHTML, like Gecko) Chrome/137.0.0.0 Safari/537.36","Macintosh","Chrome","137.0.0.0","OS X","10_15_7","https://app.prolific.com/","en-GB,en-US;q=0.9,en;q=0.8","671a44d9d93641d1d9e96883","686d226cabeef709c732f8e1","686e30da93345627e058110e","671a44d9d93641d1d9e96883","2025-07-09T09:15:20.631Z","","","","","","MotivationQ","","","","","","","","","","","","","","","","","","","","","","","","","","","","","","","","","","","","","","50"
"","","","","ctl-task-cpt","68","624277","0.0-10.0-0.5","10","1","2025-07-09 09:05:39","7701e855f2ef39aa3fd6c71abdc6918a","80.192.212.91","Mozilla/5.0 (Macintosh; Intel Mac OS X 10_15_7) AppleWebKit/537.36 (KHTML, like Gecko) Chrome/137.0.0.0 Safari/537.36","Macintosh","Chrome","137.0.0.0","OS X","10_15_7","https://app.prolific.com/","en-GB,en-US;q=0.9,en;q=0.8","671a44d9d93641d1d9e96883","686d226cabeef709c732f8e1","686e30da93345627e058110e","671a44d9d93641d1d9e96883","2025-07-09T09:16:04.721Z","","","","","","","","","","","","","","","","win-only","3","g1:SW,g2:NE","0.5","6","0","581683.7","9559.7","14568.3","41084.1","1","4","4","6","1","1","1","10","9","0.07575757575757576","1379.3","3000","1035","[""down"",""left""]","{""num_key_presses"":6,""num_perfect"":3,""num_errors"":0,""num_randdir"":3,""num_randdir_good_moves"":2,""num_whilered"":0,""num_whileblue"":0,""num_blue"":3,""num_good_moves"":5}","[404.603125,397.49375,0.3,404.603125,397.49375,101.4,411.603125,397.49375,203.3,401.603125,397.49375,305.9,401.603125,397.49375,406,390.603125,389.49375,512.1,384.603125,388.49375,615.7,494.603125,323.49375,716.2,822.603125,84.49375,820,748.603125,33.493750000000006,925.7,273.603125,422.49375,1032.4,163.603125,564.49375,1136.1,106.603125,627.49375,1236.9,49.603125000000006,686.49375,1340.8,55.603125000000006,716.49375,1441.1,54.603125000000006,713.49375,1541.1,45.603125000000006,712.49375,1641.8,45.603125000000006,711.49375,1745.8,70.603125,695.49375,1852.3,71.603125,695.49375,1956.5,77.603125,691.49375,2056.6,105.603125,718.49375,2157.9,114.603125,722.49375,2264.1,116.603125,720.49375,2367,117.603125,718.49375,2467.5,117.603125,718.49375,2571.5,117.603125,718.49375,2671.8,117.603125,718.49375,2775.9,117.603125,718.49375,2876.1,117.603125,718.49375,2977.4,117.603125,718.49375,3085.5,117.603125,718.49375,3186.6,117.603125,718.49375,3290.6,117.603125,718.49375,3390.8,117.603125,718.49375,3491.3,117.603125,718.49375,3596.4,117.603125,718.49375,3700.7,117.603125,718.49375,3800.9,117.603125,718.49375,3905,117.603125,718.49375,4006.6,117.603125,718.49375,4111.1,117.603125,718.49375,4216.2,117.603125,718.49375,4316.3,117.603125,718.49375,4416.3,117.603125,718.49375,4516.6,117.603125,718.49375,4621.2,117.603125,718.49375,4726.2,117.603125,718.49375,4837.3,117.603125,718.49375,4940.5]","[4779.3,4779.3,2362,2002.9,414.4,""oops"",""down"",""down"",""good_move"",11602.5,6822.8,2681.3,8627.8,293.4,""smooth"",""down"",""down"",""good_move"",15142.3,3539.5,3125.3,11602.8,414.2,""smooth"",""left"",""left"",""good_move"",17536.7,2394.2,1953.1,15142.6,441,""oops"",""left"",""up"",""bad_move"",20904.9,3368,2970.5,17536.9,397.5,""oops"",""left"",""down"",""good_move"",26407.3,5502.1,2005.3,24082.3,319.7,""smooth"",""left"",""left"",""good_move""]","",""
"1719","","<div style=""width:500px;"">
  <p>What determined the result of this run?</p>
  </div>","68","html-slider-response","69","625997","0.0-10.0-1.5","10","1","2025-07-09 09:05:39","7701e855f2ef39aa3fd6c71abdc6918a","80.192.212.91","Mozilla/5.0 (Macintosh; Intel Mac OS X 10_15_7) AppleWebKit/537.36 (KHTML, like Gecko) Chrome/137.0.0.0 Safari/537.36","Macintosh","Chrome","137.0.0.0","OS X","10_15_7","https://app.prolific.com/","en-GB,en-US;q=0.9,en;q=0.8","671a44d9d93641d1d9e96883","686d226cabeef709c732f8e1","686e30da93345627e058110e","671a44d9d93641d1d9e96883","2025-07-09T09:16:06.441Z","","","","","","AttribQ","","","","","","","","","","","","","","","","","","","","","","","","","","","","","","","","","","","","","","50"
"1386","","<div style=""width:500px;"">
  <p>How much control did you have over the ball?</p>
  </div>","66","html-slider-response","70","627384","0.0-10.0-2.5","10","1","2025-07-09 09:05:39","7701e855f2ef39aa3fd6c71abdc6918a","80.192.212.91","Mozilla/5.0 (Macintosh; Intel Mac OS X 10_15_7) AppleWebKit/537.36 (KHTML, like Gecko) Chrome/137.0.0.0 Safari/537.36","Macintosh","Chrome","137.0.0.0","OS X","10_15_7","https://app.prolific.com/","en-GB,en-US;q=0.9,en;q=0.8","671a44d9d93641d1d9e96883","686d226cabeef709c732f8e1","686e30da93345627e058110e","671a44d9d93641d1d9e96883","2025-07-09T09:16:07.828Z","","","","","","ControlQ","","","","","","","","","","","","","","","","","","","","","","","","","","","","","","","","","","","","","","50"
"1427","","<div style=""width:500px;"">
  <p>How would you describe your current emotional state?</p>
  </div>","26","html-slider-response","71","628812","0.0-10.0-3.5","10","1","2025-07-09 09:05:39","7701e855f2ef39aa3fd6c71abdc6918a","80.192.212.91","Mozilla/5.0 (Macintosh; Intel Mac OS X 10_15_7) AppleWebKit/537.36 (KHTML, like Gecko) Chrome/137.0.0.0 Safari/537.36","Macintosh","Chrome","137.0.0.0","OS X","10_15_7","https://app.prolific.com/","en-GB,en-US;q=0.9,en;q=0.8","671a44d9d93641d1d9e96883","686d226cabeef709c732f8e1","686e30da93345627e058110e","671a44d9d93641d1d9e96883","2025-07-09T09:16:09.256Z","","","","","","StressQ","","","","","","","","","","","","","","","","","","","","","","","","","","","","","","","","","","","","","","50"
"1443","","<div style=""width:500px;"">
  <p>What best describes how you currently feel?</p>
  </div>","85","html-slider-response","72","630256","0.0-10.0-4.5","10","1","2025-07-09 09:05:39","7701e855f2ef39aa3fd6c71abdc6918a","80.192.212.91","Mozilla/5.0 (Macintosh; Intel Mac OS X 10_15_7) AppleWebKit/537.36 (KHTML, like Gecko) Chrome/137.0.0.0 Safari/537.36","Macintosh","Chrome","137.0.0.0","OS X","10_15_7","https://app.prolific.com/","en-GB,en-US;q=0.9,en;q=0.8","671a44d9d93641d1d9e96883","686d226cabeef709c732f8e1","686e30da93345627e058110e","671a44d9d93641d1d9e96883","2025-07-09T09:16:10.701Z","","","","","","MotivationQ","","","","","","","","","","","","","","","","","","","","","","","","","","","","","","","","","","","","","","50"
"","","","","ctl-task-cpt","73","666296","0.0-10.0-0.6","10","1","2025-07-09 09:05:39","7701e855f2ef39aa3fd6c71abdc6918a","80.192.212.91","Mozilla/5.0 (Macintosh; Intel Mac OS X 10_15_7) AppleWebKit/537.36 (KHTML, like Gecko) Chrome/137.0.0.0 Safari/537.36","Macintosh","Chrome","137.0.0.0","OS X","10_15_7","https://app.prolific.com/","en-GB,en-US;q=0.9,en;q=0.8","671a44d9d93641d1d9e96883","686d226cabeef709c732f8e1","686e30da93345627e058110e","671a44d9d93641d1d9e96883","2025-07-09T09:16:46.740Z","","","","","","","","","","","","","","","","win-only","0","g1:NW,g2:SE","0.4","7","0","631754.1","776.5","5781.2","33025.6","1","4","8","6","2","-8","-8","2","10","0.015151515151515152","1791.8","3000","-2485","[""down"",""right""]","{""num_key_presses"":8,""num_perfect"":3,""num_errors"":0,""num_randdir"":5,""num_randdir_good_moves"":1,""num_whilered"":0,""num_whileblue"":0,""num_blue"":1,""num_good_moves"":4}","[398.603125,404.49375,0.1,398.603125,404.49375,103.6,398.603125,404.49375,203.8,398.603125,404.49375,305,398.603125,404.49375,416.6,405.603125,403.49375,519.3,407.603125,402.49375,621.3,408.603125,402.49375,723.9,408.603125,402.49375,824.8,408.603125,402.49375,930.3,408.603125,402.49375,1034.9,408.603125,402.49375,1138.8,408.603125,402.49375,1239.6,408.603125,402.49375,1340.4,558.603125,554.49375,1444.1,707.603125,641.49375,1547.5,723.603125,664.49375,1650.6,750.603125,707.49375,1754.5,753.603125,723.49375,1855.9,753.603125,723.49375,1957.3,753.603125,723.49375,2059.7,708.603125,709.49375,2168.7,701.603125,706.49375,2270.2,701.603125,706.49375,2374.8,701.603125,706.49375,2481.1,701.603125,706.49375,2588.1,701.603125,706.49375,2689.8,701.603125,706.49375,2790.6,701.603125,752.49375,2893.1,700.603125,749.49375,2994.9,693.603125,742.49375,3102.8,692.603125,738.49375,3206.7,690.603125,738.49375,3309.1,703.603125,712.49375,3410.1,705.603125,695.49375,3513.7,705.603125,695.49375,3616.8,705.603125,695.49375,3719.4,705.603125,695.49375,3821.9,705.603125,695.49375,3925.9,705.603125,695.49375,4029.7,705.603125,695.49375,4133,705.603125,695.49375,4234.5,705.603125,695.49375,4338.8,705.603125,695.49375,4440.7,705.603125,695.49375,4548.8,705.603125,695.49375,4649.9,705.603125,695.49375,4751.6,705.603125,695.49375,4855.1,705.603125,695.49375,4966]","[1551.8,1551.8,1000,0,551.8,""smooth"",""down"",""down"",""good_move"",4083,2530.7,2033.8,1552.3,496.9,""oops"",""down"",""up"",""bad_move"",7505,3421.7,3036.5,4083.3,385.2,""oops"",""down"",""up"",""bad_move"",9927,2421.8,2053.6,7505.2,368.2,""smooth"",""right"",""right"",""good_move"",15931.7,6004.4,2509.8,13039.5,382.4,""oops"",""right"",""right"",""good_move"",18466,2533.9,2147.7,15932.1,386.2,""smooth"",""right"",""right"",""good_move"",21469.5,3003.2,2541.3,18466.3,461.9,""oops"",""down"",""left"",""bad_move"",24226.4,2756.8,2428.1,21469.7,328.7,""oops"",""down"",""left"",""bad_move""]","",""
"1279","","<div style=""width:500px;"">
  <p>What determined the result of this run?</p>
  </div>","59","html-slider-response","74","667576","0.0-10.0-1.6","10","1","2025-07-09 09:05:39","7701e855f2ef39aa3fd6c71abdc6918a","80.192.212.91","Mozilla/5.0 (Macintosh; Intel Mac OS X 10_15_7) AppleWebKit/537.36 (KHTML, like Gecko) Chrome/137.0.0.0 Safari/537.36","Macintosh","Chrome","137.0.0.0","OS X","10_15_7","https://app.prolific.com/","en-GB,en-US;q=0.9,en;q=0.8","671a44d9d93641d1d9e96883","686d226cabeef709c732f8e1","686e30da93345627e058110e","671a44d9d93641d1d9e96883","2025-07-09T09:16:48.020Z","","","","","","AttribQ","","","","","","","","","","","","","","","","","","","","","","","","","","","","","","","","","","","","","","50"
"1938","","<div style=""width:500px;"">
  <p>How much control did you have over the ball?</p>
  </div>","60","html-slider-response","75","669514","0.0-10.0-2.6","10","1","2025-07-09 09:05:39","7701e855f2ef39aa3fd6c71abdc6918a","80.192.212.91","Mozilla/5.0 (Macintosh; Intel Mac OS X 10_15_7) AppleWebKit/537.36 (KHTML, like Gecko) Chrome/137.0.0.0 Safari/537.36","Macintosh","Chrome","137.0.0.0","OS X","10_15_7","https://app.prolific.com/","en-GB,en-US;q=0.9,en;q=0.8","671a44d9d93641d1d9e96883","686d226cabeef709c732f8e1","686e30da93345627e058110e","671a44d9d93641d1d9e96883","2025-07-09T09:16:49.959Z","","","","","","ControlQ","","","","","","","","","","","","","","","","","","","","","","","","","","","","","","","","","","","","","","50"
"1049","","<div style=""width:500px;"">
  <p>How would you describe your current emotional state?</p>
  </div>","31","html-slider-response","76","670564","0.0-10.0-3.6","10","1","2025-07-09 09:05:39","7701e855f2ef39aa3fd6c71abdc6918a","80.192.212.91","Mozilla/5.0 (Macintosh; Intel Mac OS X 10_15_7) AppleWebKit/537.36 (KHTML, like Gecko) Chrome/137.0.0.0 Safari/537.36","Macintosh","Chrome","137.0.0.0","OS X","10_15_7","https://app.prolific.com/","en-GB,en-US;q=0.9,en;q=0.8","671a44d9d93641d1d9e96883","686d226cabeef709c732f8e1","686e30da93345627e058110e","671a44d9d93641d1d9e96883","2025-07-09T09:16:51.008Z","","","","","","StressQ","","","","","","","","","","","","","","","","","","","","","","","","","","","","","","","","","","","","","","50"
"1397","","<div style=""width:500px;"">
  <p>What best describes how you currently feel?</p>
  </div>","84","html-slider-response","77","671962","0.0-10.0-4.6","10","1","2025-07-09 09:05:39","7701e855f2ef39aa3fd6c71abdc6918a","80.192.212.91","Mozilla/5.0 (Macintosh; Intel Mac OS X 10_15_7) AppleWebKit/537.36 (KHTML, like Gecko) Chrome/137.0.0.0 Safari/537.36","Macintosh","Chrome","137.0.0.0","OS X","10_15_7","https://app.prolific.com/","en-GB,en-US;q=0.9,en;q=0.8","671a44d9d93641d1d9e96883","686d226cabeef709c732f8e1","686e30da93345627e058110e","671a44d9d93641d1d9e96883","2025-07-09T09:16:52.406Z","","","","","","MotivationQ","","","","","","","","","","","","","","","","","","","","","","","","","","","","","","","","","","","","","","50"
"","","","","ctl-task-cpt","78","693459","0.0-10.0-0.7","10","1","2025-07-09 09:05:39","7701e855f2ef39aa3fd6c71abdc6918a","80.192.212.91","Mozilla/5.0 (Macintosh; Intel Mac OS X 10_15_7) AppleWebKit/537.36 (KHTML, like Gecko) Chrome/137.0.0.0 Safari/537.36","Macintosh","Chrome","137.0.0.0","OS X","10_15_7","https://app.prolific.com/","en-GB,en-US;q=0.9,en;q=0.8","671a44d9d93641d1d9e96883","686d226cabeef709c732f8e1","686e30da93345627e058110e","671a44d9d93641d1d9e96883","2025-07-09T09:17:13.903Z","","","","","","","","","","","","","","","","win-only","2","g1:SE,g2:NW","0.3","8","0","673459.6","732.6","5737.6","18488.6","1","4","4","6","1","1","1","3","2","0.022727272727272728","1375.2","3000","1805","[""down"",""right""]","{""num_key_presses"":4,""num_perfect"":1,""num_errors"":0,""num_randdir"":3,""num_randdir_good_moves"":3,""num_whilered"":0,""num_whileblue"":0,""num_blue"":1,""num_good_moves"":4}","[406.603125,390.49375,0.2,406.603125,390.49375,100.1,401.603125,390.49375,207.3,270.603125,277.49375,308.8,183.603125,149.49375,409.2,111.603125,111.49375,513.6,106.603125,110.49375,614.4,108.603125,110.49375,720.5,509.603125,441.49375,830.7,848.603125,731.49375,938,841.603125,753.49375,1041.7,827.603125,778.49375,1144.5,768.603125,751.49375,1248.4,752.603125,741.49375,1352.7,752.603125,741.49375,1453.5,752.603125,741.49375,1557.2,752.603125,741.49375,1660,752.603125,741.49375,1760.1,752.603125,741.49375,1860.2,752.603125,741.49375,1960.8,752.603125,741.49375,2066,752.603125,741.49375,2171.8,752.603125,741.49375,2280.7,752.603125,741.49375,2384.5,752.603125,741.49375,2494.7,752.603125,741.49375,2600.4,752.603125,741.49375,2702.2,752.603125,741.49375,2812.1,752.603125,741.49375,2915.9,752.603125,741.49375,3019.8,752.603125,741.49375,3121.6,752.603125,741.49375,3225,752.603125,741.49375,3327.5,752.603125,741.49375,3429.1,752.603125,741.49375,3534.4,752.603125,741.49375,3634.7,752.603125,741.49375,3735.8,752.603125,741.49375,3836,752.603125,741.49375,3942.1,752.603125,741.49375,4046.6,752.603125,741.49375,4147.9,752.603125,741.49375,4250,752.603125,741.49375,4354.2,752.603125,741.49375,4454.7,752.603125,741.49375,4560,752.603125,741.49375,4660.8,752.603125,741.49375,4764.2,752.603125,741.49375,4868.9,752.603125,741.49375,4968.9]","[1446.6,1446.6,1000,0,446.6,""oops"",""down"",""down"",""good_move"",4088.6,2641.6,2258.5,1447,383.1,""smooth"",""right"",""right"",""good_move"",6976.3,2887.4,2589,4088.9,298.4,""oops"",""right"",""right"",""good_move"",12627,5650.5,1804.5,10449,373.5,""oops"",""down"",""down"",""good_move""]","",""
"1500","","<div style=""width:500px;"">
  <p>What determined the result of this run?</p>
  </div>","79","html-slider-response","79","694960","0.0-10.0-1.7","10","1","2025-07-09 09:05:39","7701e855f2ef39aa3fd6c71abdc6918a","80.192.212.91","Mozilla/5.0 (Macintosh; Intel Mac OS X 10_15_7) AppleWebKit/537.36 (KHTML, like Gecko) Chrome/137.0.0.0 Safari/537.36","Macintosh","Chrome","137.0.0.0","OS X","10_15_7","https://app.prolific.com/","en-GB,en-US;q=0.9,en;q=0.8","671a44d9d93641d1d9e96883","686d226cabeef709c732f8e1","686e30da93345627e058110e","671a44d9d93641d1d9e96883","2025-07-09T09:17:15.404Z","","","","","","AttribQ","","","","","","","","","","","","","","","","","","","","","","","","","","","","","","","","","","","","","","50"
"965","","<div style=""width:500px;"">
  <p>How much control did you have over the ball?</p>
  </div>","75","html-slider-response","80","695926","0.0-10.0-2.7","10","1","2025-07-09 09:05:39","7701e855f2ef39aa3fd6c71abdc6918a","80.192.212.91","Mozilla/5.0 (Macintosh; Intel Mac OS X 10_15_7) AppleWebKit/537.36 (KHTML, like Gecko) Chrome/137.0.0.0 Safari/537.36","Macintosh","Chrome","137.0.0.0","OS X","10_15_7","https://app.prolific.com/","en-GB,en-US;q=0.9,en;q=0.8","671a44d9d93641d1d9e96883","686d226cabeef709c732f8e1","686e30da93345627e058110e","671a44d9d93641d1d9e96883","2025-07-09T09:17:16.370Z","","","","","","ControlQ","","","","","","","","","","","","","","","","","","","","","","","","","","","","","","","","","","","","","","50"
"1691","","<div style=""width:500px;"">
  <p>How would you describe your current emotional state?</p>
  </div>","28","html-slider-response","81","697618","0.0-10.0-3.7","10","1","2025-07-09 09:05:39","7701e855f2ef39aa3fd6c71abdc6918a","80.192.212.91","Mozilla/5.0 (Macintosh; Intel Mac OS X 10_15_7) AppleWebKit/537.36 (KHTML, like Gecko) Chrome/137.0.0.0 Safari/537.36","Macintosh","Chrome","137.0.0.0","OS X","10_15_7","https://app.prolific.com/","en-GB,en-US;q=0.9,en;q=0.8","671a44d9d93641d1d9e96883","686d226cabeef709c732f8e1","686e30da93345627e058110e","671a44d9d93641d1d9e96883","2025-07-09T09:17:18.062Z","","","","","","StressQ","","","","","","","","","","","","","","","","","","","","","","","","","","","","","","","","","","","","","","50"
"1625","","<div style=""width:500px;"">
  <p>What best describes how you currently feel?</p>
  </div>","88","html-slider-response","82","699244","0.0-10.0-4.7","10","1","2025-07-09 09:05:39","7701e855f2ef39aa3fd6c71abdc6918a","80.192.212.91","Mozilla/5.0 (Macintosh; Intel Mac OS X 10_15_7) AppleWebKit/537.36 (KHTML, like Gecko) Chrome/137.0.0.0 Safari/537.36","Macintosh","Chrome","137.0.0.0","OS X","10_15_7","https://app.prolific.com/","en-GB,en-US;q=0.9,en;q=0.8","671a44d9d93641d1d9e96883","686d226cabeef709c732f8e1","686e30da93345627e058110e","671a44d9d93641d1d9e96883","2025-07-09T09:17:19.688Z","","","","","","MotivationQ","","","","","","","","","","","","","","","","","","","","","","","","","","","","","","","","","","","","","","50"
"","","","","ctl-task-cpt","83","748591","0.0-10.0-0.8","10","1","2025-07-09 09:05:39","7701e855f2ef39aa3fd6c71abdc6918a","80.192.212.91","Mozilla/5.0 (Macintosh; Intel Mac OS X 10_15_7) AppleWebKit/537.36 (KHTML, like Gecko) Chrome/137.0.0.0 Safari/537.36","Macintosh","Chrome","137.0.0.0","OS X","10_15_7","https://app.prolific.com/","en-GB,en-US;q=0.9,en;q=0.8","671a44d9d93641d1d9e96883","686d226cabeef709c732f8e1","686e30da93345627e058110e","671a44d9d93641d1d9e96883","2025-07-09T09:18:09.035Z","","","","","","","","","","","","","","","","win-only","2","g1:SE,g2:NW","0.2","9","0","700742.2","947.9","5948.4","46331.2","1","4","8","6","2","-8","-11","0","3","0","1416.5","3000","-2150","[""left"",""up""]","{""num_key_presses"":11,""num_perfect"":1,""num_errors"":3,""num_randdir"":7,""num_randdir_good_moves"":2,""num_whilered"":0,""num_whileblue"":2,""num_blue"":4,""num_good_moves"":4}","[393.603125,410.49375,0.3,393.603125,410.49375,101.1,393.603125,410.49375,204.7,393.603125,410.49375,306,393.603125,410.49375,409.1,393.603125,410.49375,513.7,393.603125,410.49375,615.4,393.603125,410.49375,716.6,393.603125,410.49375,819.2,393.603125,410.49375,920.2,393.603125,410.49375,1023,296.603125,207.49375,1130.9,167.603125,85.49375,1232.9,123.603125,77.49375,1335.4,98.603125,77.49375,1438.4,98.603125,77.49375,1539.4,98.603125,77.49375,1644.8,98.603125,77.49375,1745.1,98.603125,77.49375,1855.7,98.603125,77.49375,1957.4,98.603125,77.49375,2057.5,98.603125,77.49375,2157.7,98.603125,77.49375,2262.9,98.603125,77.49375,2368.6,98.603125,77.49375,2473.3,98.603125,77.49375,2580.9,98.603125,77.49375,2684.6,98.603125,77.49375,2785.7,98.603125,77.49375,2886.1,98.603125,77.49375,2987.9,98.603125,77.49375,3089.4,98.603125,77.49375,3194.7,98.603125,77.49375,3297.8,98.603125,77.49375,3402.4,98.603125,77.49375,3505.6,98.603125,77.49375,3607.6,98.603125,77.49375,3709.6,98.603125,77.49375,3813.8,98.603125,77.49375,3920.8,98.603125,77.49375,4023.6,98.603125,77.49375,4127.3,98.603125,77.49375,4231,98.603125,77.49375,4331.3,98.603125,77.49375,4434.4,98.603125,77.49375,4541.4,98.603125,77.49375,4645.7,98.603125,77.49375,4749.5,98.603125,77.49375,4853.8,98.603125,77.49375,4955]","[1405.2,1405.2,1006.5,0,398.7,""while_blue"",""left"",""right"",""bad_move"",8393.6,6987.9,1942.7,5073.8,1377.1,""oops"",""up"",""up"",""good_move"",11288.4,2894.5,2566.1,8393.9,328.4,""oops"",""up"",""right"",""bad_move"",14301.1,3012.4,2666.7,11288.7,345.7,""oops"",""up"",""down"",""bad_move"",17113.2,2811.9,2462.1,14301.3,349.8,""oops"",""up"",""down"",""bad_move"",20458.5,3345.1,2997.9,17113.5,347.2,""oops"",""left"",""left"",""good_move"",21799.9,1341.1,2697.3,20458.8,-1356.2,""error"",""-"",""-"",""no_move"",25742.1,3942,2637.8,22801.9,302.4,""while_blue"",""left"",""up"",""good_move"",28350.8,2608.4,2206.9,25742.4,401.5,""oops"",""left"",""down"",""bad_move"",31336.1,2985.1,2607.2,28351,377.9,""oops"",""left"",""right"",""bad_move"",34099,2762.6,2400.1,31336.4,362.5,""smooth"",""left"",""left"",""good_move""]","",""
"2400","","<div style=""width:500px;"">
  <p>What determined the result of this run?</p>
  </div>","32","html-slider-response","84","750992","0.0-10.0-1.8","10","1","2025-07-09 09:05:39","7701e855f2ef39aa3fd6c71abdc6918a","80.192.212.91","Mozilla/5.0 (Macintosh; Intel Mac OS X 10_15_7) AppleWebKit/537.36 (KHTML, like Gecko) Chrome/137.0.0.0 Safari/537.36","Macintosh","Chrome","137.0.0.0","OS X","10_15_7","https://app.prolific.com/","en-GB,en-US;q=0.9,en;q=0.8","671a44d9d93641d1d9e96883","686d226cabeef709c732f8e1","686e30da93345627e058110e","671a44d9d93641d1d9e96883","2025-07-09T09:18:11.436Z","","","","","","AttribQ","","","","","","","","","","","","","","","","","","","","","","","","","","","","","","","","","","","","","","50"
"1623","","<div style=""width:500px;"">
  <p>How much control did you have over the ball?</p>
  </div>","30","html-slider-response","85","752616","0.0-10.0-2.8","10","1","2025-07-09 09:05:39","7701e855f2ef39aa3fd6c71abdc6918a","80.192.212.91","Mozilla/5.0 (Macintosh; Intel Mac OS X 10_15_7) AppleWebKit/537.36 (KHTML, like Gecko) Chrome/137.0.0.0 Safari/537.36","Macintosh","Chrome","137.0.0.0","OS X","10_15_7","https://app.prolific.com/","en-GB,en-US;q=0.9,en;q=0.8","671a44d9d93641d1d9e96883","686d226cabeef709c732f8e1","686e30da93345627e058110e","671a44d9d93641d1d9e96883","2025-07-09T09:18:13.060Z","","","","","","ControlQ","","","","","","","","","","","","","","","","","","","","","","","","","","","","","","","","","","","","","","50"
"2398","","<div style=""width:500px;"">
  <p>How would you describe your current emotional state?</p>
  </div>","30","html-slider-response","86","755015","0.0-10.0-3.8","10","1","2025-07-09 09:05:39","7701e855f2ef39aa3fd6c71abdc6918a","80.192.212.91","Mozilla/5.0 (Macintosh; Intel Mac OS X 10_15_7) AppleWebKit/537.36 (KHTML, like Gecko) Chrome/137.0.0.0 Safari/537.36","Macintosh","Chrome","137.0.0.0","OS X","10_15_7","https://app.prolific.com/","en-GB,en-US;q=0.9,en;q=0.8","671a44d9d93641d1d9e96883","686d226cabeef709c732f8e1","686e30da93345627e058110e","671a44d9d93641d1d9e96883","2025-07-09T09:18:15.459Z","","","","","","StressQ","","","","","","","","","","","","","","","","","","","","","","","","","","","","","","","","","","","","","","50"
"1149","","<div style=""width:500px;"">
  <p>What best describes how you currently feel?</p>
  </div>","90","html-slider-response","87","756165","0.0-10.0-4.8","10","1","2025-07-09 09:05:39","7701e855f2ef39aa3fd6c71abdc6918a","80.192.212.91","Mozilla/5.0 (Macintosh; Intel Mac OS X 10_15_7) AppleWebKit/537.36 (KHTML, like Gecko) Chrome/137.0.0.0 Safari/537.36","Macintosh","Chrome","137.0.0.0","OS X","10_15_7","https://app.prolific.com/","en-GB,en-US;q=0.9,en;q=0.8","671a44d9d93641d1d9e96883","686d226cabeef709c732f8e1","686e30da93345627e058110e","671a44d9d93641d1d9e96883","2025-07-09T09:18:16.609Z","","","","","","MotivationQ","","","","","","","","","","","","","","","","","","","","","","","","","","","","","","","","","","","","","","50"
"","","","","ctl-task-cpt","88","808733","0.0-10.0-0.9","10","1","2025-07-09 09:05:39","7701e855f2ef39aa3fd6c71abdc6918a","80.192.212.91","Mozilla/5.0 (Macintosh; Intel Mac OS X 10_15_7) AppleWebKit/537.36 (KHTML, like Gecko) Chrome/137.0.0.0 Safari/537.36","Macintosh","Chrome","137.0.0.0","OS X","10_15_7","https://app.prolific.com/","en-GB,en-US;q=0.9,en;q=0.8","671a44d9d93641d1d9e96883","686d226cabeef709c732f8e1","686e30da93345627e058110e","671a44d9d93641d1d9e96883","2025-07-09T09:19:09.177Z","","","","","","","","","","","","","","","","win-only","3","g1:SW,g2:NE","0.4","10","0","757663.4","490.7","5498.4","49556.8","1","4","4","6","2","-4","-4","0","0","0","3640.8","3000","-2105","[""up"",""right""]","{""num_key_presses"":11,""num_perfect"":4,""num_errors"":0,""num_randdir"":7,""num_randdir_good_moves"":3,""num_whilered"":0,""num_whileblue"":0,""num_blue"":3,""num_good_moves"":7}","[396.603125,392.49375,0.1,396.603125,392.49375,103.2,396.603125,392.49375,205.4,396.603125,392.49375,307.6,396.603125,392.49375,413,396.603125,392.49375,513.6,396.603125,392.49375,617.9,396.603125,392.49375,722.3,396.603125,392.49375,828.8,396.603125,392.49375,930.5,396.603125,392.49375,1034.2,396.603125,392.49375,1137.3,396.603125,392.49375,1239.2,396.603125,392.49375,1341.9,396.603125,392.49375,1448.3,396.603125,392.49375,1550.6,396.603125,392.49375,1656.8,396.603125,392.49375,1762.8,396.603125,392.49375,1863.2,396.603125,392.49375,1966.6,396.603125,392.49375,2067.2,396.603125,392.49375,2172.8,396.603125,392.49375,2275.5,396.603125,392.49375,2379.2,396.603125,392.49375,2482,396.603125,392.49375,2587.7,396.603125,392.49375,2692,396.603125,392.49375,2797.2,396.603125,392.49375,2898.9,396.603125,392.49375,3002.6,396.603125,392.49375,3107.1,396.603125,392.49375,3208,617.603125,232.49375,3323.5,577.603125,191.49375,3425.3,661.603125,130.49375,3538.7,698.603125,66.49375,3644.9,698.603125,66.49375,3749.7,698.603125,66.49375,3855.4,698.603125,66.49375,3956.5,698.603125,66.49375,4057.6,698.603125,66.49375,4160.6,698.603125,66.49375,4260.9,698.603125,66.49375,4363.5,698.603125,66.49375,4469.9,698.603125,66.49375,4575.9,698.603125,66.49375,4679.4,698.603125,66.49375,4780.3,698.603125,66.49375,4881,698.603125,66.49375,4984.2]","[4691.9,4691.9,2256.7,2007.2,428,""smooth"",""up"",""up"",""good_move"",7199,2506.7,2048.7,4692.4,458,""smooth"",""up"",""up"",""good_move"",13271.6,6072.3,1848,11043.7,379.9,""smooth"",""right"",""right"",""good_move"",15815.7,2543.8,2118.5,13271.9,425.3,""oops"",""right"",""up"",""good_move"",18747.4,2931.4,2475.9,15816,455.5,""smooth"",""right"",""right"",""good_move"",22571.3,3823.7,3361.1,18747.6,462.6,""oops"",""right"",""left"",""bad_move"",26175.9,3604.2,3226.6,22571.7,377.6,""oops"",""right"",""down"",""bad_move"",29708,3532,3141.5,26176.1,390.5,""oops"",""right"",""right"",""good_move"",33092,3383.5,3048.1,29708.5,335.4,""oops"",""right"",""right"",""good_move"",35689.7,2597.5,2111.4,33092.2,486.1,""oops"",""up"",""left"",""bad_move"",38674.9,2984.9,2676.4,35690,308.5,""oops"",""up"",""left"",""bad_move""]","",""
"1599","","<div style=""width:500px;"">
  <p>What determined the result of this run?</p>
  </div>","34","html-slider-response","89","810334","0.0-10.0-1.9","10","1","2025-07-09 09:05:39","7701e855f2ef39aa3fd6c71abdc6918a","80.192.212.91","Mozilla/5.0 (Macintosh; Intel Mac OS X 10_15_7) AppleWebKit/537.36 (KHTML, like Gecko) Chrome/137.0.0.0 Safari/537.36","Macintosh","Chrome","137.0.0.0","OS X","10_15_7","https://app.prolific.com/","en-GB,en-US;q=0.9,en;q=0.8","671a44d9d93641d1d9e96883","686d226cabeef709c732f8e1","686e30da93345627e058110e","671a44d9d93641d1d9e96883","2025-07-09T09:19:10.778Z","","","","","","AttribQ","","","","","","","","","","","","","","","","","","","","","","","","","","","","","","","","","","","","","","50"
"1442","","<div style=""width:500px;"">
  <p>How much control did you have over the ball?</p>
  </div>","36","html-slider-response","90","811777","0.0-10.0-2.9","10","1","2025-07-09 09:05:39","7701e855f2ef39aa3fd6c71abdc6918a","80.192.212.91","Mozilla/5.0 (Macintosh; Intel Mac OS X 10_15_7) AppleWebKit/537.36 (KHTML, like Gecko) Chrome/137.0.0.0 Safari/537.36","Macintosh","Chrome","137.0.0.0","OS X","10_15_7","https://app.prolific.com/","en-GB,en-US;q=0.9,en;q=0.8","671a44d9d93641d1d9e96883","686d226cabeef709c732f8e1","686e30da93345627e058110e","671a44d9d93641d1d9e96883","2025-07-09T09:19:12.221Z","","","","","","ControlQ","","","","","","","","","","","","","","","","","","","","","","","","","","","","","","","","","","","","","","50"
"2143","","<div style=""width:500px;"">
  <p>How would you describe your current emotional state?</p>
  </div>","34","html-slider-response","91","813921","0.0-10.0-3.9","10","1","2025-07-09 09:05:39","7701e855f2ef39aa3fd6c71abdc6918a","80.192.212.91","Mozilla/5.0 (Macintosh; Intel Mac OS X 10_15_7) AppleWebKit/537.36 (KHTML, like Gecko) Chrome/137.0.0.0 Safari/537.36","Macintosh","Chrome","137.0.0.0","OS X","10_15_7","https://app.prolific.com/","en-GB,en-US;q=0.9,en;q=0.8","671a44d9d93641d1d9e96883","686d226cabeef709c732f8e1","686e30da93345627e058110e","671a44d9d93641d1d9e96883","2025-07-09T09:19:14.366Z","","","","","","StressQ","","","","","","","","","","","","","","","","","","","","","","","","","","","","","","","","","","","","","","50"
"875","","<div style=""width:500px;"">
  <p>What best describes how you currently feel?</p>
  </div>","91","html-slider-response","92","814797","0.0-10.0-4.9","10","1","2025-07-09 09:05:39","7701e855f2ef39aa3fd6c71abdc6918a","80.192.212.91","Mozilla/5.0 (Macintosh; Intel Mac OS X 10_15_7) AppleWebKit/537.36 (KHTML, like Gecko) Chrome/137.0.0.0 Safari/537.36","Macintosh","Chrome","137.0.0.0","OS X","10_15_7","https://app.prolific.com/","en-GB,en-US;q=0.9,en;q=0.8","671a44d9d93641d1d9e96883","686d226cabeef709c732f8e1","686e30da93345627e058110e","671a44d9d93641d1d9e96883","2025-07-09T09:19:15.241Z","","","","","","MotivationQ","","","","","","","","","","","","","","","","","","","","","","","","","","","","","","","","","","","","","","50"
