"rt","response_timestamp","stimulus","response","trial_type","trial_index","time_elapsed","internal_node_id","run_id","condition","recorded_at","source_code_version","ip","user_agent","device","browser","browser_version","platform","platform_version","referer","accept_language","PROLIFIC_PID","STUDY_ID","SESSION_ID","prolific_id","realtime","view_history","question_order","consent","success","question_id","eventType","responses","item_order","radio_event_ids","radio_event_times","key_event_times","mouse_event_times","straightlining","zigzagging","honeypot","which_type","canvas_config","goals_layout","control_level","trial_number","tutorial_trial_number","trial_start_time","phase1_start_time","phase2_start_time","phase3_start_time","goal_1_value","goal_1_distance","goal_2_value","goal_2_distance","goal_selected","outcome","outcome_total","participant_final_score","participant_initial_score","participant_final_score_prop","goal_choice_rt","allocated_time","allocated_time_remaining","goal_direction","counts","mouse_movements","key_presses","correct","slider_start"
"6931","1752052363958","<p style='font-size:40px;line-height:1.25'><strong>Welcome to the experiment!</strong></p><p style='font-size:1.1em;line-height:1.25'>Thank you for your interest in our experiment! Before you begin, it is important that we obtain your informed consent to participate in the study.</p><p style='font-size:1.1em;line-height:1.25'>On the next screen will be an <strong>information sheet</strong> for you to read. To participate in the study we need you to read this information sheet and the following consent form carefully. If you agree with all the statements, please click the <strong>I agree</strong> button.</p><p style='font-size:1.1em;line-height:1.25'>Press <strong>Next</strong> to read the information sheet.</p>","0","custom-html-button-response","0","6934","0.0-0.0","176","1","2025-07-09 09:12:36","7701e855f2ef39aa3fd6c71abdc6918a","86.11.234.17","Mozilla/5.0 (Windows NT 10.0; Win64; x64) AppleWebKit/537.36 (KHTML, like Gecko) Chrome/138.0.0.0 Safari/537.36 Edg/138.0.0.0","WebKit","Edge","138.0.0.0","Windows","10.0","https://app.prolific.com/","en-GB,en;q=0.9,en-US;q=0.8","5bffc3ae4108380001f5cd63","686d226cabeef709c732f8e1","686e312c7437ae63dd79dfac","5bffc3ae4108380001f5cd63","2025-07-09T09:12:43.960Z","","","","","","","","","","","","","","","","","","","","","","","","","","","","","","","","","","","","","","","","","","","",""
"14966","","","","instructions","1","21902","0.0-1.0","176","1","2025-07-09 09:12:36","7701e855f2ef39aa3fd6c71abdc6918a","86.11.234.17","Mozilla/5.0 (Windows NT 10.0; Win64; x64) AppleWebKit/537.36 (KHTML, like Gecko) Chrome/138.0.0.0 Safari/537.36 Edg/138.0.0.0","WebKit","Edge","138.0.0.0","Windows","10.0","https://app.prolific.com/","en-GB,en;q=0.9,en-US;q=0.8","5bffc3ae4108380001f5cd63","686d226cabeef709c732f8e1","686e312c7437ae63dd79dfac","5bffc3ae4108380001f5cd63","","[{""page_index"":0,""viewing_time"":9335},{""page_index"":1,""viewing_time"":5630}]","","","","","","","","","","","","","","","","","","","","","","","","","","","","","","","","","","","","","","","","","","",""
"10770","","","{""Q0"":"""",""Q1"":"""",""Q2"":"""",""Q3"":"""",""Q4"":"""",""Q5"":"""",""Q6"":""I agree""}","survey-multi-choice","2","32676","0.0-2.0","176","1","2025-07-09 09:12:36","7701e855f2ef39aa3fd6c71abdc6918a","86.11.234.17","Mozilla/5.0 (Windows NT 10.0; Win64; x64) AppleWebKit/537.36 (KHTML, like Gecko) Chrome/138.0.0.0 Safari/537.36 Edg/138.0.0.0","WebKit","Edge","138.0.0.0","Windows","10.0","https://app.prolific.com/","en-GB,en;q=0.9,en-US;q=0.8","5bffc3ae4108380001f5cd63","686d226cabeef709c732f8e1","686e312c7437ae63dd79dfac","5bffc3ae4108380001f5cd63","","","[0,1,2,3,4,5,6]","true","","","","","","","","","","","","","","","","","","","","","","","","","","","","","","","","","","","","","","","","",""
"22215","","","","fullscreen","3","55910","0.0-4.0","176","1","2025-07-09 09:12:36","7701e855f2ef39aa3fd6c71abdc6918a","86.11.234.17","Mozilla/5.0 (Windows NT 10.0; Win64; x64) AppleWebKit/537.36 (KHTML, like Gecko) Chrome/138.0.0.0 Safari/537.36 Edg/138.0.0.0","WebKit","Edge","138.0.0.0","Windows","10.0","https://app.prolific.com/","en-GB,en;q=0.9,en-US;q=0.8","5bffc3ae4108380001f5cd63","686d226cabeef709c732f8e1","686e312c7437ae63dd79dfac","5bffc3ae4108380001f5cd63","","","","","true","","","","","","","","","","","","","","","","","","","","","","","","","","","","","","","","","","","","","","","",""
"6252","1752052419189"," <p style='font-size:1.1em;line-height:1.25'>Thank you for completing the consent form and closing all other tabs.</p><p style='font-size:1.1em;line-height:1.25'>We will now invite you to fill in some demographic information and questionnaires, before starting the game.<br>This will take about 5 minutes.<br></p><p style='font-size:1.1em;line-height:1.25'>Press the <strong>Next</strong> button to continue.</p>","0","custom-html-button-response","4","62165","0.0-5.0","176","1","2025-07-09 09:12:36","7701e855f2ef39aa3fd6c71abdc6918a","86.11.234.17","Mozilla/5.0 (Windows NT 10.0; Win64; x64) AppleWebKit/537.36 (KHTML, like Gecko) Chrome/138.0.0.0 Safari/537.36 Edg/138.0.0.0","WebKit","Edge","138.0.0.0","Windows","10.0","https://app.prolific.com/","en-GB,en;q=0.9,en-US;q=0.8","5bffc3ae4108380001f5cd63","686d226cabeef709c732f8e1","686e312c7437ae63dd79dfac","5bffc3ae4108380001f5cd63","2025-07-09T09:13:39.190Z","","","","","","","","","","","","","","","","","","","","","","","","","","","","","","","","","","","","","","","","","","","",""
"4230","","","{""age"":""40""}","survey-text","5","66403","0.0-6.0-0.0","176","1","2025-07-09 09:12:36","7701e855f2ef39aa3fd6c71abdc6918a","86.11.234.17","Mozilla/5.0 (Windows NT 10.0; Win64; x64) AppleWebKit/537.36 (KHTML, like Gecko) Chrome/138.0.0.0 Safari/537.36 Edg/138.0.0.0","WebKit","Edge","138.0.0.0","Windows","10.0","https://app.prolific.com/","en-GB,en;q=0.9,en-US;q=0.8","5bffc3ae4108380001f5cd63","686d226cabeef709c732f8e1","686e312c7437ae63dd79dfac","5bffc3ae4108380001f5cd63","","","","","","0","demographics","","","","","","","","","","","","","","","","","","","","","","","","","","","","","","","","","","","","","",""
"4993","","","{""gender_identity"":""female/woman""}","survey-multi-choice","6","71398","0.0-6.0-1.0","176","1","2025-07-09 09:12:36","7701e855f2ef39aa3fd6c71abdc6918a","86.11.234.17","Mozilla/5.0 (Windows NT 10.0; Win64; x64) AppleWebKit/537.36 (KHTML, like Gecko) Chrome/138.0.0.0 Safari/537.36 Edg/138.0.0.0","WebKit","Edge","138.0.0.0","Windows","10.0","https://app.prolific.com/","en-GB,en;q=0.9,en-US;q=0.8","5bffc3ae4108380001f5cd63","686d226cabeef709c732f8e1","686e312c7437ae63dd79dfac","5bffc3ae4108380001f5cd63","","","[0]","","","1","demographics","","","","","","","","","","","","","","","","","","","","","","","","","","","","","","","","","","","","","",""
"5949","","","{""assigned_sex"":""female""}","survey-multi-choice","7","77350","0.0-6.0-2.0","176","1","2025-07-09 09:12:36","7701e855f2ef39aa3fd6c71abdc6918a","86.11.234.17","Mozilla/5.0 (Windows NT 10.0; Win64; x64) AppleWebKit/537.36 (KHTML, like Gecko) Chrome/138.0.0.0 Safari/537.36 Edg/138.0.0.0","WebKit","Edge","138.0.0.0","Windows","10.0","https://app.prolific.com/","en-GB,en;q=0.9,en-US;q=0.8","5bffc3ae4108380001f5cd63","686d226cabeef709c732f8e1","686e312c7437ae63dd79dfac","5bffc3ae4108380001f5cd63","","","[0]","","","2","demographics","","","","","","","","","","","","","","","","","","","","","","","","","","","","","","","","","","","","","",""
"5367","","","{""menstrual_cycle"":""Yes""}","survey-multi-choice","8","82719","0.0-6.0-3.0","176","1","2025-07-09 09:12:36","7701e855f2ef39aa3fd6c71abdc6918a","86.11.234.17","Mozilla/5.0 (Windows NT 10.0; Win64; x64) AppleWebKit/537.36 (KHTML, like Gecko) Chrome/138.0.0.0 Safari/537.36 Edg/138.0.0.0","WebKit","Edge","138.0.0.0","Windows","10.0","https://app.prolific.com/","en-GB,en;q=0.9,en-US;q=0.8","5bffc3ae4108380001f5cd63","686d226cabeef709c732f8e1","686e312c7437ae63dd79dfac","5bffc3ae4108380001f5cd63","","","[0]","","","4","demographics","","","","","","","","","","","","","","","","","","","","","","","","","","","","","","","","","","","","","",""
"7208","","","{""education"":""Bachelor's Degree (e.g., BA)""}","survey-multi-choice","9","89931","0.0-6.0-4.0","176","1","2025-07-09 09:12:36","7701e855f2ef39aa3fd6c71abdc6918a","86.11.234.17","Mozilla/5.0 (Windows NT 10.0; Win64; x64) AppleWebKit/537.36 (KHTML, like Gecko) Chrome/138.0.0.0 Safari/537.36 Edg/138.0.0.0","WebKit","Edge","138.0.0.0","Windows","10.0","https://app.prolific.com/","en-GB,en;q=0.9,en-US;q=0.8","5bffc3ae4108380001f5cd63","686d226cabeef709c732f8e1","686e312c7437ae63dd79dfac","5bffc3ae4108380001f5cd63","","","[0]","","","5","demographics","","","","","","","","","","","","","","","","","","","","","","","","","","","","","","","","","","","","","",""
"10196","","","{""education"":""GCSE/Standard Grades""}","survey-multi-choice","10","100129","0.0-6.0-5.0","176","1","2025-07-09 09:12:36","7701e855f2ef39aa3fd6c71abdc6918a","86.11.234.17","Mozilla/5.0 (Windows NT 10.0; Win64; x64) AppleWebKit/537.36 (KHTML, like Gecko) Chrome/138.0.0.0 Safari/537.36 Edg/138.0.0.0","WebKit","Edge","138.0.0.0","Windows","10.0","https://app.prolific.com/","en-GB,en;q=0.9,en-US;q=0.8","5bffc3ae4108380001f5cd63","686d226cabeef709c732f8e1","686e312c7437ae63dd79dfac","5bffc3ae4108380001f5cd63","2025-07-09T09:14:17.154Z","","[0]","","","6","demographics","","","","","","","","","","","","","","","","","","","","","","","","","","","","","","","","","","","","","",""
"22639","","","{""mental_health_condition"":""No"",""mental_health_treatment"":""No"",""psychiatric_medication"":""""}","survey-text","11","122773","0.0-7.0-0.0","176","1","2025-07-09 09:12:36","7701e855f2ef39aa3fd6c71abdc6918a","86.11.234.17","Mozilla/5.0 (Windows NT 10.0; Win64; x64) AppleWebKit/537.36 (KHTML, like Gecko) Chrome/138.0.0.0 Safari/537.36 Edg/138.0.0.0","WebKit","Edge","138.0.0.0","Windows","10.0","https://app.prolific.com/","en-GB,en;q=0.9,en-US;q=0.8","5bffc3ae4108380001f5cd63","686d226cabeef709c732f8e1","686e312c7437ae63dd79dfac","5bffc3ae4108380001f5cd63","2025-07-09T09:14:39.798Z","","","","","1","mental_health","","","","","","","","","","","","","","","","","","","","","","","","","","","","","","","","","","","","","",""
"14852","","","{""depression_history"":[""Yes""]}","survey-multi-select","12","137628","0.0-7.0-1.0","176","1","2025-07-09 09:12:36","7701e855f2ef39aa3fd6c71abdc6918a","86.11.234.17","Mozilla/5.0 (Windows NT 10.0; Win64; x64) AppleWebKit/537.36 (KHTML, like Gecko) Chrome/138.0.0.0 Safari/537.36 Edg/138.0.0.0","WebKit","Edge","138.0.0.0","Windows","10.0","https://app.prolific.com/","en-GB,en;q=0.9,en-US;q=0.8","5bffc3ae4108380001f5cd63","686d226cabeef709c732f8e1","686e312c7437ae63dd79dfac","5bffc3ae4108380001f5cd63","","","[0]","","","","mental_health","","","","","","","","","","","","","","","","","","","","","","","","","","","","","","","","","","","","","",""
"16181","","","{""depression_episodes"":""3-5"",""depression_recent"":""More than 1 year ago""}","survey-multi-choice","13","153812","0.0-7.0-2.0-0.0","176","1","2025-07-09 09:12:36","7701e855f2ef39aa3fd6c71abdc6918a","86.11.234.17","Mozilla/5.0 (Windows NT 10.0; Win64; x64) AppleWebKit/537.36 (KHTML, like Gecko) Chrome/138.0.0.0 Safari/537.36 Edg/138.0.0.0","WebKit","Edge","138.0.0.0","Windows","10.0","https://app.prolific.com/","en-GB,en;q=0.9,en-US;q=0.8","5bffc3ae4108380001f5cd63","686d226cabeef709c732f8e1","686e312c7437ae63dd79dfac","5bffc3ae4108380001f5cd63","2025-07-09T09:15:10.838Z","","[0,1]","","","3","mental_health","","","","","","","","","","","","","","","","","","","","","","","","","","","","","","","","","","","","","",""
"87646.5","","","","survey-template","14","241466","0.0-7.0-3.0","176","1","2025-07-09 09:12:36","7701e855f2ef39aa3fd6c71abdc6918a","86.11.234.17","Mozilla/5.0 (Windows NT 10.0; Win64; x64) AppleWebKit/537.36 (KHTML, like Gecko) Chrome/138.0.0.0 Safari/537.36 Edg/138.0.0.0","WebKit","Edge","138.0.0.0","Windows","10.0","https://app.prolific.com/","en-GB,en;q=0.9,en-US;q=0.8","5bffc3ae4108380001f5cd63","686d226cabeef709c732f8e1","686e312c7437ae63dd79dfac","5bffc3ae4108380001f5cd63","2025-07-09T09:16:38.491Z","","","","","","ius","{""Q01"":""3"",""Q02"":""3"",""Q03"":""2"",""Q04"":""2"",""Q05"":""2"",""Q06"":""1"",""Q07"":""1"",""Q08"":""0"",""Q09"":""2"",""Q10"":""4"",""Q11"":""1"",""Q12"":""2"",""Q13"":""2""}","[0,1,2,3,4,5,6,7,8,9,10,11,12]","[""Q01"",""Q02"",""Q03"",""Q04"",""Q05"",""Q06"",""Q07"",""Q08"",""Q09"",""Q10"",""Q11"",""Q12"",""Q13""]","[17228.100000023842,20932.799999952316,25036.399999976158,36026.699999928474,40871.199999928474,50962.89999997616,55702.89999997616,58578.199999928474,65258.299999952316,69570.69999992847,73875.60000002384,81653.19999992847,86516.79999995232]","[]","[17228.100000023842,20932.799999952316,25036.399999976158,31446.100000023842,36026.699999928474,40871.199999928474,49739.699999928474,50962.89999997616,55702.89999997616,58578.199999928474,65258.299999952316,69570.69999992847,73875.60000002384,81653.19999992847,86516.79999995232,87641.5]","0.46153846153846156","0.3333333333333333","0","","","","","","","","","","","","","","","","","","","","","","","","","","","","",""
"3790","1752052602283","<p style='font-size:1.1em;line-height:1.25'>In the following, we will ask you a few questions relating to your experiences over the past month.<br></p><p style='font-size:1.1em;line-height:1.25'>Press the <strong>Next</strong> button to continue.</p>","0","custom-html-button-response","15","245259","0.0-7.0-4.0","176","1","2025-07-09 09:12:36","7701e855f2ef39aa3fd6c71abdc6918a","86.11.234.17","Mozilla/5.0 (Windows NT 10.0; Win64; x64) AppleWebKit/537.36 (KHTML, like Gecko) Chrome/138.0.0.0 Safari/537.36 Edg/138.0.0.0","WebKit","Edge","138.0.0.0","Windows","10.0","https://app.prolific.com/","en-GB,en;q=0.9,en-US;q=0.8","5bffc3ae4108380001f5cd63","686d226cabeef709c732f8e1","686e312c7437ae63dd79dfac","5bffc3ae4108380001f5cd63","2025-07-09T09:16:42.284Z","","","","","","","","","","","","","","","","","","","","","","","","","","","","","","","","","","","","","","","","","","","",""
"70949.5","","","","survey-template","16","316213","0.0-7.0-5.0","176","1","2025-07-09 09:12:36","7701e855f2ef39aa3fd6c71abdc6918a","86.11.234.17","Mozilla/5.0 (Windows NT 10.0; Win64; x64) AppleWebKit/537.36 (KHTML, like Gecko) Chrome/138.0.0.0 Safari/537.36 Edg/138.0.0.0","WebKit","Edge","138.0.0.0","Windows","10.0","https://app.prolific.com/","en-GB,en;q=0.9,en-US;q=0.8","5bffc3ae4108380001f5cd63","686d226cabeef709c732f8e1","686e312c7437ae63dd79dfac","5bffc3ae4108380001f5cd63","2025-07-09T09:17:53.238Z","","","","","","pss","{""Q01"":""1"",""Q02"":""2"",""Q03"":""2"",""Q04"":""2"",""Q05"":""2"",""Q06"":""2"",""Q07"":""2"",""Q08"":""2"",""Q09"":""2"",""Q10"":""2""}","[0,1,2,3,4,5,6,7,8,9]","[""Q01"",""Q02"",""Q03"",""Q04"",""Q05"",""Q06"",""Q07"",""Q09"",""Q10"",""Q08""]","[20475.800000071526,26216.5,30844.300000071526,36273,39635.5,45428.300000071526,48787.200000047684,55529.60000002384,59741.800000071526,67618.80000007153]","[]","[0.10000002384185791,20475.800000071526,26216.5,30844.300000071526,35164,36273,39635.5,45428.300000071526,48787.200000047684,51707.10000002384,55529.60000002384,59741.800000071526,61088.800000071526,61802.700000047684,67618.80000007153,70945.80000007153]","0.9","0.1111111111111111","0","","","","","","","","","","","","","","","","","","","","","","","","","","","","",""
"3391","1752052676630","<p style='font-size:1.1em;line-height:1.25'>Thank you for your answers! Now we will ask you a few more questions relating to your feelings in the last 24 hours.<br></p><p style='font-size:1.1em;line-height:1.25'>Press the <strong>Next</strong> button to continue.</p>","0","custom-html-button-response","17","319606","0.0-7.0-6.0","176","1","2025-07-09 09:12:36","7701e855f2ef39aa3fd6c71abdc6918a","86.11.234.17","Mozilla/5.0 (Windows NT 10.0; Win64; x64) AppleWebKit/537.36 (KHTML, like Gecko) Chrome/138.0.0.0 Safari/537.36 Edg/138.0.0.0","WebKit","Edge","138.0.0.0","Windows","10.0","https://app.prolific.com/","en-GB,en;q=0.9,en-US;q=0.8","5bffc3ae4108380001f5cd63","686d226cabeef709c732f8e1","686e312c7437ae63dd79dfac","5bffc3ae4108380001f5cd63","2025-07-09T09:17:56.631Z","","","","","","","","","","","","","","","","","","","","","","","","","","","","","","","","","","","","","","","","","","","",""
"73067.80000007153","","","","survey-template","18","392681","0.0-7.0-7.0","176","1","2025-07-09 09:12:36","7701e855f2ef39aa3fd6c71abdc6918a","86.11.234.17","Mozilla/5.0 (Windows NT 10.0; Win64; x64) AppleWebKit/537.36 (KHTML, like Gecko) Chrome/138.0.0.0 Safari/537.36 Edg/138.0.0.0","WebKit","Edge","138.0.0.0","Windows","10.0","https://app.prolific.com/","en-GB,en;q=0.9,en-US;q=0.8","5bffc3ae4108380001f5cd63","686d226cabeef709c732f8e1","686e312c7437ae63dd79dfac","5bffc3ae4108380001f5cd63","2025-07-09T09:19:09.706Z","","","","","","drsp","{""Q01"":""0"",""Q02"":""0"",""Q03"":""0"",""Q04"":""1"",""Q05"":""0"",""Q06"":""0"",""Q07"":""0"",""Q08"":""0"",""Q09"":""0"",""Q10"":""0"",""Q11"":""2"",""Q12"":""1"",""Q13"":""1"",""Q14"":""1"",""Q15"":""0"",""Q16"":""1"",""Q17"":""0"",""Q18"":""2"",""Q19"":""0"",""Q20"":""0"",""Q21"":""0""}","[0,1,2,3,4,5,6,7,8,9,10,11,12,13,14,15,16,17,18,19,20]","[""Q01"",""Q02"",""Q03"",""Q04"",""Q05"",""Q06"",""Q07"",""Q08"",""Q09"",""Q10"",""Q11"",""Q12"",""Q13"",""Q14"",""Q15"",""Q16"",""Q17"",""Q18"",""Q18"",""Q19"",""Q20"",""Q21""]","[8405.399999976158,9995.600000023842,11253.600000023842,15061.300000071526,18262.5,20359.600000023842,23556.200000047684,24890.399999976158,27071.100000023842,28768.700000047684,30779.800000071526,36272.700000047684,41666.39999997616,44953.5,47778.200000047684,49624.700000047684,52589.89999997616,55527.700000047684,57926,64498.5,67466.39999997616,69054.10000002384]","[]","[0,8405.399999976158,9995.600000023842,11253.600000023842,13549.5,15061.300000071526,18262.5,20359.600000023842,22031.700000047684,23556.200000047684,24890.399999976158,27071.100000023842,28768.700000047684,30779.800000071526,36272.700000047684,41666.39999997616,44953.5,47778.200000047684,49624.700000047684,51223.10000002384,52589.89999997616,55527.700000047684,57926,64498.5,67466.39999997616,69054.10000002384,73061.60000002384]","0.6666666666666666","0.3","0","","","","","","","","","","","","","","","","","","","","","","","","","","","","",""
"15190.100000023842","","","","survey-template","19","407875","0.0-7.0-8.0","176","1","2025-07-09 09:12:36","7701e855f2ef39aa3fd6c71abdc6918a","86.11.234.17","Mozilla/5.0 (Windows NT 10.0; Win64; x64) AppleWebKit/537.36 (KHTML, like Gecko) Chrome/138.0.0.0 Safari/537.36 Edg/138.0.0.0","WebKit","Edge","138.0.0.0","Windows","10.0","https://app.prolific.com/","en-GB,en;q=0.9,en-US;q=0.8","5bffc3ae4108380001f5cd63","686d226cabeef709c732f8e1","686e312c7437ae63dd79dfac","5bffc3ae4108380001f5cd63","2025-07-09T09:19:24.900Z","","","","","","stress","{""Q01"":""1"",""Q02"":""3"",""Q03"":""1""}","[0,1,2]","[""Q01"",""Q02"",""Q03""]","[3031.899999976158,9340,13807.800000071526]","[]","[3031.899999976158,9340,12625.5,13807.800000071526,15187.5]","0.6666666666666666","1","0","","","","","","","","","","","","","","","","","","","","","","","","","","","","",""
"90521","","","","instructions","20","498398","0.0-8.0-0.0","176","1","2025-07-09 09:12:36","7701e855f2ef39aa3fd6c71abdc6918a","86.11.234.17","Mozilla/5.0 (Windows NT 10.0; Win64; x64) AppleWebKit/537.36 (KHTML, like Gecko) Chrome/138.0.0.0 Safari/537.36 Edg/138.0.0.0","WebKit","Edge","138.0.0.0","Windows","10.0","https://app.prolific.com/","en-GB,en;q=0.9,en-US;q=0.8","5bffc3ae4108380001f5cd63","686d226cabeef709c732f8e1","686e312c7437ae63dd79dfac","5bffc3ae4108380001f5cd63","","[{""page_index"":0,""viewing_time"":53496},{""page_index"":1,""viewing_time"":14103},{""page_index"":2,""viewing_time"":8600},{""page_index"":3,""viewing_time"":14321}]","","","","","","","","","","","","","","","","","","","","","","","","","","","","","","","","","","","","","","","","","","",""
"","","","","ctl-task-cpt","21","525428","0.0-8.0-1.0","176","1","2025-07-09 09:12:36","7701e855f2ef39aa3fd6c71abdc6918a","86.11.234.17","Mozilla/5.0 (Windows NT 10.0; Win64; x64) AppleWebKit/537.36 (KHTML, like Gecko) Chrome/138.0.0.0 Safari/537.36 Edg/138.0.0.0","WebKit","Edge","138.0.0.0","Windows","10.0","https://app.prolific.com/","en-GB,en;q=0.9,en-US;q=0.8","5bffc3ae4108380001f5cd63","686d226cabeef709c732f8e1","686e312c7437ae63dd79dfac","5bffc3ae4108380001f5cd63","","","","","","","","","","","","","","","","","win-only","2","g1:SE,g2:NW","1","0","1","499954.5","3347.1","7352.3","24018.6","2","4","4","6","2","-4","-5","0","0","0","4005.1","4000","-2235","[""left"",""up""]","{""num_key_presses"":2,""num_perfect"":1,""num_errors"":1,""num_randdir"":0,""num_randdir_good_moves"":0,""num_whilered"":0,""num_whileblue"":0,""num_blue"":2,""num_good_moves"":1}","[411.57142857142856,418.47767857142856,0.6,411.57142857142856,418.47767857142856,104.7,411.57142857142856,418.47767857142856,215.2,411.57142857142856,418.47767857142856,318.3,411.57142857142856,418.47767857142856,419.3,411.57142857142856,418.47767857142856,519.8,411.57142857142856,418.47767857142856,626.9,411.57142857142856,418.47767857142856,733.5,467.57142857142856,450.47767857142856,833.9,478.57142857142856,483.47767857142856,941,481.57142857142856,485.47767857142856,1048.6,481.57142857142856,485.47767857142856,1151.9,481.57142857142856,485.47767857142856,1254.6,481.57142857142856,485.47767857142856,1357.4,481.57142857142856,485.47767857142856,1458.6,481.57142857142856,485.47767857142856,1559,481.57142857142856,485.47767857142856,1665.1,481.57142857142856,485.47767857142856,1766.9,481.57142857142856,485.47767857142856,1869.7,481.57142857142856,485.47767857142856,1982.6,481.57142857142856,485.47767857142856,2088.5,481.57142857142856,485.47767857142856,2189.4,481.57142857142856,485.47767857142856,2295.4,481.57142857142856,485.47767857142856,2396.8,481.57142857142856,485.47767857142856,2497,481.57142857142856,485.47767857142856,2599.6,481.57142857142856,485.47767857142856,2706.6,481.57142857142856,485.47767857142856,2807.2,481.57142857142856,485.47767857142856,2915.5,481.57142857142856,485.47767857142856,3015.6,481.57142857142856,485.47767857142856,3115.6,481.57142857142856,485.47767857142856,3218.9,481.57142857142856,485.47767857142856,3331.9,481.57142857142856,485.47767857142856,3438.4,481.57142857142856,485.47767857142856,3538.8,481.57142857142856,485.47767857142856,3648.3,481.57142857142856,485.47767857142856,3754.4,481.57142857142856,485.47767857142856,3857.1,481.57142857142856,485.47767857142856,3960.7]","[10245.3,10245.2,1856,5460.1,2929.2,""smooth"",""left"",""left"",""good_move"",11289.3,1043.3,2618.6,10246.1,-1575.3,""error"",""-"",""-"",""no_move""]","",""
"9213","","","","instructions","22","534642","0.0-8.0-2.0","176","1","2025-07-09 09:12:36","7701e855f2ef39aa3fd6c71abdc6918a","86.11.234.17","Mozilla/5.0 (Windows NT 10.0; Win64; x64) AppleWebKit/537.36 (KHTML, like Gecko) Chrome/138.0.0.0 Safari/537.36 Edg/138.0.0.0","WebKit","Edge","138.0.0.0","Windows","10.0","https://app.prolific.com/","en-GB,en;q=0.9,en-US;q=0.8","5bffc3ae4108380001f5cd63","686d226cabeef709c732f8e1","686e312c7437ae63dd79dfac","5bffc3ae4108380001f5cd63","","[{""page_index"":0,""viewing_time"":9212}]","","","","","","","","","","","","","","","","","","","","","","","","","","","","","","","","","","","","","","","","","","",""
"","","","","ctl-task-cpt","23","582595","0.0-8.0-3.0","176","1","2025-07-09 09:12:36","7701e855f2ef39aa3fd6c71abdc6918a","86.11.234.17","Mozilla/5.0 (Windows NT 10.0; Win64; x64) AppleWebKit/537.36 (KHTML, like Gecko) Chrome/138.0.0.0 Safari/537.36 Edg/138.0.0.0","WebKit","Edge","138.0.0.0","Windows","10.0","https://app.prolific.com/","en-GB,en;q=0.9,en-US;q=0.8","5bffc3ae4108380001f5cd63","686d226cabeef709c732f8e1","686e312c7437ae63dd79dfac","5bffc3ae4108380001f5cd63","","","","","","","","","","","","","","","","","win-only","2","g1:SE,g2:NW","0.35","0","3","536195.2","2165.9","6174.4","44936.6","2","4","8","6","2","-8","-13","0","0","0","4008.5","4000","-2185","[""left"",""up""]","{""num_key_presses"":14,""num_perfect"":1,""num_errors"":5,""num_randdir"":4,""num_randdir_good_moves"":3,""num_whilered"":4,""num_whileblue"":0,""num_blue"":3,""num_good_moves"":4}","[418.57142857142856,421.47767857142856,0.4,418.57142857142856,421.47767857142856,101.1,418.57142857142856,421.47767857142856,201.2,418.57142857142856,421.47767857142856,301.2,418.57142857142856,421.47767857142856,409.1,418.57142857142856,421.47767857142856,511.3,418.57142857142856,421.47767857142856,611.4,418.57142857142856,421.47767857142856,716.4,418.57142857142856,421.47767857142856,816.6,418.57142857142856,421.47767857142856,916.8,419.57142857142856,408.47767857142856,1020.3,436.57142857142856,405.47767857142856,1120.4,476.57142857142856,447.47767857142856,1224.7,502.57142857142856,475.47767857142856,1335.5,503.57142857142856,476.47767857142856,1441.3,503.57142857142856,476.47767857142856,1550.8,503.57142857142856,476.47767857142856,1656.8,503.57142857142856,476.47767857142856,1761,503.57142857142856,476.47767857142856,1866.9,503.57142857142856,476.47767857142856,1972.9,503.57142857142856,476.47767857142856,2074.9,503.57142857142856,476.47767857142856,2183.9,503.57142857142856,476.47767857142856,2289,503.57142857142856,476.47767857142856,2389.8,503.57142857142856,476.47767857142856,2491,487.57142857142856,476.47767857142856,2600.6,482.57142857142856,476.47767857142856,2705.8,482.57142857142856,476.47767857142856,2807.3,483.57142857142856,476.47767857142856,2913.7,483.57142857142856,476.47767857142856,3017.5,483.57142857142856,476.47767857142856,3123.9,483.57142857142856,476.47767857142856,3224.1,483.57142857142856,476.47767857142856,3331.3,483.57142857142856,476.47767857142856,3435.2,483.57142857142856,476.47767857142856,3535.2,483.57142857142856,476.47767857142856,3641.5,483.57142857142856,476.47767857142856,3751.2,483.57142857142856,476.47767857142856,3856.2,483.57142857142856,476.47767857142856,3961.6]","[2136.7,2136.7,1000,0,1136.7,""oops"",""left"",""left"",""good_move"",2408.6,271.2,2062.5,2137.4,-1791.3,""error"",""-"",""-"",""no_move"",2734.7,325.6,2062.5,2137.4,-1465.2,""while_red"",""-"",""-"",""no_move"",3258.4,849.3,2062.5,2137.4,-941.5,""while_red"",""-"",""-"",""no_move"",7381.1,4972,2872.8,3413.5,1094.8,""oops"",""left"",""left"",""good_move"",7782.9,401.5,2116.3,7381.6,-1714.9,""error"",""-"",""-"",""no_move"",12514.1,4730.2,3014.1,8791.9,708.1,""oops"",""left"",""up"",""good_move"",13363,848.3,2280.2,12514.7,-1431.9,""error"",""-"",""-"",""no_move"",20806.3,7442.7,1986.2,17799.9,1020.2,""smooth"",""up"",""up"",""good_move"",21152.1,345.3,2074.6,20806.8,-1729.3,""error"",""-"",""-"",""no_move"",33840.5,12688.1,2467.1,30401.3,972.1,""oops"",""up"",""right"",""bad_move"",34583,741.8,1928.4,33841.2,-1186.6,""error"",""-"",""-"",""no_move"",34991.5,408.1,1928.4,33841.2,-778.1,""while_red"",""-"",""-"",""no_move"",35346.5,763.1,1928.4,33841.2,-423.1,""while_red"",""-"",""-"",""no_move""]","",""
"29388","","","","instructions","24","611985","0.0-8.0-4.0","176","1","2025-07-09 09:12:36","7701e855f2ef39aa3fd6c71abdc6918a","86.11.234.17","Mozilla/5.0 (Windows NT 10.0; Win64; x64) AppleWebKit/537.36 (KHTML, like Gecko) Chrome/138.0.0.0 Safari/537.36 Edg/138.0.0.0","WebKit","Edge","138.0.0.0","Windows","10.0","https://app.prolific.com/","en-GB,en;q=0.9,en-US;q=0.8","5bffc3ae4108380001f5cd63","686d226cabeef709c732f8e1","686e312c7437ae63dd79dfac","5bffc3ae4108380001f5cd63","","[{""page_index"":0,""viewing_time"":14050},{""page_index"":1,""viewing_time"":15338}]","","","","","","","","","","","","","","","","","","","","","","","","","","","","","","","","","","","","","","","","","","",""
"13149","","","{""green_ball"":[""Ball always moves in the direction I press""]}","survey-multi-select","25","625139","0.0-8.0-5.0-0.0","176","1","2025-07-09 09:12:36","7701e855f2ef39aa3fd6c71abdc6918a","86.11.234.17","Mozilla/5.0 (Windows NT 10.0; Win64; x64) AppleWebKit/537.36 (KHTML, like Gecko) Chrome/138.0.0.0 Safari/537.36 Edg/138.0.0.0","WebKit","Edge","138.0.0.0","Windows","10.0","https://app.prolific.com/","en-GB,en;q=0.9,en-US;q=0.8","5bffc3ae4108380001f5cd63","686d226cabeef709c732f8e1","686e312c7437ae63dd79dfac","5bffc3ae4108380001f5cd63","","","[0]","","","","quiz","","","","","","","","","","","","","","","","","","","","","","","","","","","","","","","","","","","","","false",""
"5102","","<p align='center'><b>INCORRECT.</b> Usually the green ball moves in the indicated direction, but sometimes it shakes and moves randomly. </p>","0","html-button-response","26","630243","0.0-8.0-5.0-1.0","176","1","2025-07-09 09:12:36","7701e855f2ef39aa3fd6c71abdc6918a","86.11.234.17","Mozilla/5.0 (Windows NT 10.0; Win64; x64) AppleWebKit/537.36 (KHTML, like Gecko) Chrome/138.0.0.0 Safari/537.36 Edg/138.0.0.0","WebKit","Edge","138.0.0.0","Windows","10.0","https://app.prolific.com/","en-GB,en;q=0.9,en-US;q=0.8","5bffc3ae4108380001f5cd63","686d226cabeef709c732f8e1","686e312c7437ae63dd79dfac","5bffc3ae4108380001f5cd63","","","","","","","","","","","","","","","","","","","","","","","","","","","","","","","","","","","","","","","","","","","","",""
"10184","","","{""green_ball"":[""Ball always moves in the direction I press"",""Ball sometimes shakes and moves in a random direction""]}","survey-multi-select","27","640429","0.0-8.0-5.1-0.1","176","1","2025-07-09 09:12:36","7701e855f2ef39aa3fd6c71abdc6918a","86.11.234.17","Mozilla/5.0 (Windows NT 10.0; Win64; x64) AppleWebKit/537.36 (KHTML, like Gecko) Chrome/138.0.0.0 Safari/537.36 Edg/138.0.0.0","WebKit","Edge","138.0.0.0","Windows","10.0","https://app.prolific.com/","en-GB,en;q=0.9,en-US;q=0.8","5bffc3ae4108380001f5cd63","686d226cabeef709c732f8e1","686e312c7437ae63dd79dfac","5bffc3ae4108380001f5cd63","","","[0]","","","","quiz","","","","","","","","","","","","","","","","","","","","","","","","","","","","","","","","","","","","","false",""
"5887","","<p align='center'><b>INCORRECT.</b> Usually the green ball moves in the indicated direction, but sometimes it shakes and moves randomly. </p>","0","html-button-response","28","646320","0.0-8.0-5.1-1.1","176","1","2025-07-09 09:12:36","7701e855f2ef39aa3fd6c71abdc6918a","86.11.234.17","Mozilla/5.0 (Windows NT 10.0; Win64; x64) AppleWebKit/537.36 (KHTML, like Gecko) Chrome/138.0.0.0 Safari/537.36 Edg/138.0.0.0","WebKit","Edge","138.0.0.0","Windows","10.0","https://app.prolific.com/","en-GB,en;q=0.9,en-US;q=0.8","5bffc3ae4108380001f5cd63","686d226cabeef709c732f8e1","686e312c7437ae63dd79dfac","5bffc3ae4108380001f5cd63","","","","","","","","","","","","","","","","","","","","","","","","","","","","","","","","","","","","","","","","","","","","",""
"10628","","","{""green_ball"":[""Ball sometimes shakes and moves in a random direction""]}","survey-multi-select","29","656952","0.0-8.0-5.2-0.2","176","1","2025-07-09 09:12:36","7701e855f2ef39aa3fd6c71abdc6918a","86.11.234.17","Mozilla/5.0 (Windows NT 10.0; Win64; x64) AppleWebKit/537.36 (KHTML, like Gecko) Chrome/138.0.0.0 Safari/537.36 Edg/138.0.0.0","WebKit","Edge","138.0.0.0","Windows","10.0","https://app.prolific.com/","en-GB,en;q=0.9,en-US;q=0.8","5bffc3ae4108380001f5cd63","686d226cabeef709c732f8e1","686e312c7437ae63dd79dfac","5bffc3ae4108380001f5cd63","","","[0]","","","","quiz","","","","","","","","","","","","","","","","","","","","","","","","","","","","","","","","","","","","","true",""
"2224","","<p align='center'><b>CORRECT!</b> Indeed, the green ball may sometimes shake and move in a random direction.</p>","0","html-button-response","30","659178","0.0-8.0-5.2-1.2","176","1","2025-07-09 09:12:36","7701e855f2ef39aa3fd6c71abdc6918a","86.11.234.17","Mozilla/5.0 (Windows NT 10.0; Win64; x64) AppleWebKit/537.36 (KHTML, like Gecko) Chrome/138.0.0.0 Safari/537.36 Edg/138.0.0.0","WebKit","Edge","138.0.0.0","Windows","10.0","https://app.prolific.com/","en-GB,en;q=0.9,en-US;q=0.8","5bffc3ae4108380001f5cd63","686d226cabeef709c732f8e1","686e312c7437ae63dd79dfac","5bffc3ae4108380001f5cd63","","","","","","","","","","","","","","","","","","","","","","","","","","","","","","","","","","","","","","","","","","","","",""
"6888","","","{""yellow_ball"":[""Ball doesn‘t move and I get -1 penalty point""]}","survey-multi-select","31","666069","0.0-8.0-6.0-0.0","176","1","2025-07-09 09:12:36","7701e855f2ef39aa3fd6c71abdc6918a","86.11.234.17","Mozilla/5.0 (Windows NT 10.0; Win64; x64) AppleWebKit/537.36 (KHTML, like Gecko) Chrome/138.0.0.0 Safari/537.36 Edg/138.0.0.0","WebKit","Edge","138.0.0.0","Windows","10.0","https://app.prolific.com/","en-GB,en;q=0.9,en-US;q=0.8","5bffc3ae4108380001f5cd63","686d226cabeef709c732f8e1","686e312c7437ae63dd79dfac","5bffc3ae4108380001f5cd63","","","[0]","","","","quiz","","","","","","","","","","","","","","","","","","","","","","","","","","","","","","","","","","","","","true",""
"1881","","<p align='center'><b>CORRECT!</b> Indeed, the yellow ball never moves and you receive a penalty.</p>","0","html-button-response","32","667952","0.0-8.0-6.0-1.0","176","1","2025-07-09 09:12:36","7701e855f2ef39aa3fd6c71abdc6918a","86.11.234.17","Mozilla/5.0 (Windows NT 10.0; Win64; x64) AppleWebKit/537.36 (KHTML, like Gecko) Chrome/138.0.0.0 Safari/537.36 Edg/138.0.0.0","WebKit","Edge","138.0.0.0","Windows","10.0","https://app.prolific.com/","en-GB,en;q=0.9,en-US;q=0.8","5bffc3ae4108380001f5cd63","686d226cabeef709c732f8e1","686e312c7437ae63dd79dfac","5bffc3ae4108380001f5cd63","","","","","","","","","","","","","","","","","","","","","","","","","","","","","","","","","","","","","","","","","","","","",""
"8986","","","{""blue_ball"":[""Ball always shakes and moves in a random direction""]}","survey-multi-select","33","676940","0.0-8.0-7.0-0.0","176","1","2025-07-09 09:12:36","7701e855f2ef39aa3fd6c71abdc6918a","86.11.234.17","Mozilla/5.0 (Windows NT 10.0; Win64; x64) AppleWebKit/537.36 (KHTML, like Gecko) Chrome/138.0.0.0 Safari/537.36 Edg/138.0.0.0","WebKit","Edge","138.0.0.0","Windows","10.0","https://app.prolific.com/","en-GB,en;q=0.9,en-US;q=0.8","5bffc3ae4108380001f5cd63","686d226cabeef709c732f8e1","686e312c7437ae63dd79dfac","5bffc3ae4108380001f5cd63","","","[0]","","","","quiz","","","","","","","","","","","","","","","","","","","","","","","","","","","","","","","","","","","","","true",""
"3301","","<p align='center'><b>CORRECT!</b> Indeed, the blue ball always shakes and moves in a random direction. Also there is a penalty of -1 point.</p>","0","html-button-response","34","680244","0.0-8.0-7.0-1.0","176","1","2025-07-09 09:12:36","7701e855f2ef39aa3fd6c71abdc6918a","86.11.234.17","Mozilla/5.0 (Windows NT 10.0; Win64; x64) AppleWebKit/537.36 (KHTML, like Gecko) Chrome/138.0.0.0 Safari/537.36 Edg/138.0.0.0","WebKit","Edge","138.0.0.0","Windows","10.0","https://app.prolific.com/","en-GB,en;q=0.9,en-US;q=0.8","5bffc3ae4108380001f5cd63","686d226cabeef709c732f8e1","686e312c7437ae63dd79dfac","5bffc3ae4108380001f5cd63","","","","","","","","","","","","","","","","","","","","","","","","","","","","","","","","","","","","","","","","","","","","",""
"10819","","","{""bonus"":[""When I reach 80% of points""]}","survey-multi-select","35","691065","0.0-8.0-8.0-0.0","176","1","2025-07-09 09:12:36","7701e855f2ef39aa3fd6c71abdc6918a","86.11.234.17","Mozilla/5.0 (Windows NT 10.0; Win64; x64) AppleWebKit/537.36 (KHTML, like Gecko) Chrome/138.0.0.0 Safari/537.36 Edg/138.0.0.0","WebKit","Edge","138.0.0.0","Windows","10.0","https://app.prolific.com/","en-GB,en;q=0.9,en-US;q=0.8","5bffc3ae4108380001f5cd63","686d226cabeef709c732f8e1","686e312c7437ae63dd79dfac","5bffc3ae4108380001f5cd63","","","[0]","","","","quiz","","","","","","","","","","","","","","","","","","","","","","","","","","","","","","","","","","","","","false",""
"1977","","<p align='center'><b>INCORRECT.</b> You receive 2 pounds extra when you reach 50% of points </p>","0","html-button-response","36","693044","0.0-8.0-8.0-1.0","176","1","2025-07-09 09:12:36","7701e855f2ef39aa3fd6c71abdc6918a","86.11.234.17","Mozilla/5.0 (Windows NT 10.0; Win64; x64) AppleWebKit/537.36 (KHTML, like Gecko) Chrome/138.0.0.0 Safari/537.36 Edg/138.0.0.0","WebKit","Edge","138.0.0.0","Windows","10.0","https://app.prolific.com/","en-GB,en;q=0.9,en-US;q=0.8","5bffc3ae4108380001f5cd63","686d226cabeef709c732f8e1","686e312c7437ae63dd79dfac","5bffc3ae4108380001f5cd63","","","","","","","","","","","","","","","","","","","","","","","","","","","","","","","","","","","","","","","","","","","","",""
"2962","","","{""bonus"":[""When I reach 50% of points""]}","survey-multi-select","37","696009","0.0-8.0-8.1-0.1","176","1","2025-07-09 09:12:36","7701e855f2ef39aa3fd6c71abdc6918a","86.11.234.17","Mozilla/5.0 (Windows NT 10.0; Win64; x64) AppleWebKit/537.36 (KHTML, like Gecko) Chrome/138.0.0.0 Safari/537.36 Edg/138.0.0.0","WebKit","Edge","138.0.0.0","Windows","10.0","https://app.prolific.com/","en-GB,en;q=0.9,en-US;q=0.8","5bffc3ae4108380001f5cd63","686d226cabeef709c732f8e1","686e312c7437ae63dd79dfac","5bffc3ae4108380001f5cd63","","","[0]","","","","quiz","","","","","","","","","","","","","","","","","","","","","","","","","","","","","","","","","","","","","true",""
"1929","","<p align='center'><b>CORRECT!</b> Indeed, you receive 2 pounds extra when you reach 50% of points.</p>","0","html-button-response","38","697939","0.0-8.0-8.1-1.1","176","1","2025-07-09 09:12:36","7701e855f2ef39aa3fd6c71abdc6918a","86.11.234.17","Mozilla/5.0 (Windows NT 10.0; Win64; x64) AppleWebKit/537.36 (KHTML, like Gecko) Chrome/138.0.0.0 Safari/537.36 Edg/138.0.0.0","WebKit","Edge","138.0.0.0","Windows","10.0","https://app.prolific.com/","en-GB,en;q=0.9,en-US;q=0.8","5bffc3ae4108380001f5cd63","686d226cabeef709c732f8e1","686e312c7437ae63dd79dfac","5bffc3ae4108380001f5cd63","","","","","","","","","","","","","","","","","","","","","","","","","","","","","","","","","","","","","","","","","","","","",""
"3797","","","","instructions","39","701738","0.0-8.0-9.0","176","1","2025-07-09 09:12:36","7701e855f2ef39aa3fd6c71abdc6918a","86.11.234.17","Mozilla/5.0 (Windows NT 10.0; Win64; x64) AppleWebKit/537.36 (KHTML, like Gecko) Chrome/138.0.0.0 Safari/537.36 Edg/138.0.0.0","WebKit","Edge","138.0.0.0","Windows","10.0","https://app.prolific.com/","en-GB,en;q=0.9,en-US;q=0.8","5bffc3ae4108380001f5cd63","686d226cabeef709c732f8e1","686e312c7437ae63dd79dfac","5bffc3ae4108380001f5cd63","","[{""page_index"":0,""viewing_time"":3797}]","","","","","","","","","","","","","","","","","","","","","","","","","","","","","","","","","","","","","","","","","","",""
"7402","","<p>Before you start with this game please answer the following three questions yourself. </p>
  <p>Through this game, we measure several aspects of your cognitive performance, such as reaction times, multi-tasking capabilities </p>
  <p>and the ability to assess the situation you are in.</p>
  <p></p>
  <p><b>How good do you usually are in such tasks?</b></p>","64","html-slider-response","40","709142","0.0-9.0-0.0","176","1","2025-07-09 09:12:36","7701e855f2ef39aa3fd6c71abdc6918a","86.11.234.17","Mozilla/5.0 (Windows NT 10.0; Win64; x64) AppleWebKit/537.36 (KHTML, like Gecko) Chrome/138.0.0.0 Safari/537.36 Edg/138.0.0.0","WebKit","Edge","138.0.0.0","Windows","10.0","https://app.prolific.com/","en-GB,en;q=0.9,en-US;q=0.8","5bffc3ae4108380001f5cd63","686d226cabeef709c732f8e1","686e312c7437ae63dd79dfac","5bffc3ae4108380001f5cd63","2025-07-09T09:24:26.168Z","","","","","","PreSkillQ","","","","","","","","","","","","","","","","","","","","","","","","","","","","","","","","","","","","","","50"
"8274","","<div style=""width:500px;"">
  <p>How well do you think you will perform in this task compared to other participants?</p>
  </div>","49","html-slider-response","41","717419","0.0-9.0-1.0","176","1","2025-07-09 09:12:36","7701e855f2ef39aa3fd6c71abdc6918a","86.11.234.17","Mozilla/5.0 (Windows NT 10.0; Win64; x64) AppleWebKit/537.36 (KHTML, like Gecko) Chrome/138.0.0.0 Safari/537.36 Edg/138.0.0.0","WebKit","Edge","138.0.0.0","Windows","10.0","https://app.prolific.com/","en-GB,en;q=0.9,en-US;q=0.8","5bffc3ae4108380001f5cd63","686d226cabeef709c732f8e1","686e312c7437ae63dd79dfac","5bffc3ae4108380001f5cd63","2025-07-09T09:24:34.444Z","","","","","","PrePerfQ","","","","","","","","","","","","","","","","","","","","","","","","","","","","","","","","","","","","","","50"
"4302","","<div style=""width:500px;"">
  <p>What best describes how you currently feel?</p>
  </div>","100","html-slider-response","42","721723","0.0-9.0-2.0","176","1","2025-07-09 09:12:36","7701e855f2ef39aa3fd6c71abdc6918a","86.11.234.17","Mozilla/5.0 (Windows NT 10.0; Win64; x64) AppleWebKit/537.36 (KHTML, like Gecko) Chrome/138.0.0.0 Safari/537.36 Edg/138.0.0.0","WebKit","Edge","138.0.0.0","Windows","10.0","https://app.prolific.com/","en-GB,en;q=0.9,en-US;q=0.8","5bffc3ae4108380001f5cd63","686d226cabeef709c732f8e1","686e312c7437ae63dd79dfac","5bffc3ae4108380001f5cd63","2025-07-09T09:24:38.748Z","","","","","","PreMotivationQ","","","","","","","","","","","","","","","","","","","","","","","","","","","","","","","","","","","","","","50"
"","","","","ctl-task-cpt","43","752047","0.0-10.0-0.0","176","1","2025-07-09 09:12:36","7701e855f2ef39aa3fd6c71abdc6918a","86.11.234.17","Mozilla/5.0 (Windows NT 10.0; Win64; x64) AppleWebKit/537.36 (KHTML, like Gecko) Chrome/138.0.0.0 Safari/537.36 Edg/138.0.0.0","WebKit","Edge","138.0.0.0","Windows","10.0","https://app.prolific.com/","en-GB,en;q=0.9,en-US;q=0.8","5bffc3ae4108380001f5cd63","686d226cabeef709c732f8e1","686e312c7437ae63dd79dfac","5bffc3ae4108380001f5cd63","2025-07-09T09:25:09.072Z","","","","","","","","","","","","","","","","win-only","3","g1:SW,g2:NE","1","1","0","723279.6","3777.1","8779.8","27313.4","1","4","4","6","2","-4","-7","0","0","0","5002.7","3000","-2175","[""up"",""right""]","{""num_key_presses"":8,""num_perfect"":3,""num_errors"":3,""num_randdir"":0,""num_randdir_good_moves"":0,""num_whilered"":2,""num_whileblue"":0,""num_blue"":0,""num_good_moves"":3}","[417.57142857142856,414.47767857142856,0.9,417.57142857142856,414.47767857142856,103.7,417.57142857142856,414.47767857142856,204.9,417.57142857142856,414.47767857142856,311.3,417.57142857142856,414.47767857142856,417.5,417.57142857142856,414.47767857142856,520.1,417.57142857142856,414.47767857142856,620.8,417.57142857142856,414.47767857142856,721,361.57142857142856,458.47767857142856,827.3,350.57142857142856,468.47767857142856,933.1,350.57142857142856,470.47767857142856,1037.8,350.57142857142856,473.47767857142856,1138.8,352.57142857142856,474.47767857142856,1239.9,352.57142857142856,475.47767857142856,1341.3,352.57142857142856,475.47767857142856,1445.2,352.57142857142856,475.47767857142856,1553.9,352.57142857142856,475.47767857142856,1657.1,352.57142857142856,475.47767857142856,1762.2,352.57142857142856,475.47767857142856,1865.4,352.57142857142856,475.47767857142856,1969.9,352.57142857142856,475.47767857142856,2076.4,352.57142857142856,475.47767857142856,2177.4,352.57142857142856,475.47767857142856,2282,352.57142857142856,475.47767857142856,2386.5,352.57142857142856,475.47767857142856,2498.1,352.57142857142856,475.47767857142856,2602.3,352.57142857142856,475.47767857142856,2713.7,352.57142857142856,475.47767857142856,2814.7,352.57142857142856,472.47767857142856,2915.3,352.57142857142856,473.47767857142856,3020.5,349.57142857142856,473.47767857142856,3126,352.57142857142856,471.47767857142856,3228,354.57142857142856,469.47767857142856,3336.1,356.57142857142856,469.47767857142856,3447.8,356.57142857142856,470.47767857142856,3552.4,358.57142857142856,471.47767857142856,3658,359.57142857142856,471.47767857142856,3767.2,359.57142857142856,473.47767857142856,3870.7,357.57142857142856,477.47767857142856,3980.2,357.57142857142856,478.47767857142856,4084.3,357.57142857142856,478.47767857142856,4190.8,357.57142857142856,478.47767857142856,4296.3,358.57142857142856,476.47767857142856,4396.8,358.57142857142856,475.47767857142856,4500.1,359.57142857142856,475.47767857142856,4601.1,359.57142857142856,474.47767857142856,4703.9,359.57142857142856,474.47767857142856,4804.5,359.57142857142856,474.47767857142856,4907.5]","[2427.9,2427.9,1000,0,1427.9,""smooth"",""up"",""up"",""good_move"",2654.2,225.2,2667.9,2429.2,-2442.9,""error"",""-"",""-"",""no_move"",2821.1,166.7,2667.9,2429.2,-2276,""while_red"",""-"",""-"",""no_move"",2974.2,319.8,2667.9,2429.2,-2122.9,""while_red"",""-"",""-"",""no_move"",7638.6,4984.2,2343.1,3660.4,1635.1,""smooth"",""up"",""up"",""good_move"",7969.2,329.8,2391.5,7639.4,-2061.7,""error"",""-"",""-"",""no_move"",13099.6,5129.9,3081.7,8972.1,1045.9,""smooth"",""up"",""up"",""good_move"",14464.6,1364.5,2453.6,13100.1,-1089.1,""error"",""-"",""-"",""no_move""]","",""
"5604","","<div style=""width:500px;"">
  <p>What determined the result of this run?</p>
  </div>","23","html-slider-response","44","757653","0.0-10.0-1.0","176","1","2025-07-09 09:12:36","7701e855f2ef39aa3fd6c71abdc6918a","86.11.234.17","Mozilla/5.0 (Windows NT 10.0; Win64; x64) AppleWebKit/537.36 (KHTML, like Gecko) Chrome/138.0.0.0 Safari/537.36 Edg/138.0.0.0","WebKit","Edge","138.0.0.0","Windows","10.0","https://app.prolific.com/","en-GB,en;q=0.9,en-US;q=0.8","5bffc3ae4108380001f5cd63","686d226cabeef709c732f8e1","686e312c7437ae63dd79dfac","5bffc3ae4108380001f5cd63","2025-07-09T09:25:14.678Z","","","","","","AttribQ","","","","","","","","","","","","","","","","","","","","","","","","","","","","","","","","","","","","","","50"
"3557","","<div style=""width:500px;"">
  <p>How much control did you have over the ball?</p>
  </div>","17","html-slider-response","45","761211","0.0-10.0-2.0","176","1","2025-07-09 09:12:36","7701e855f2ef39aa3fd6c71abdc6918a","86.11.234.17","Mozilla/5.0 (Windows NT 10.0; Win64; x64) AppleWebKit/537.36 (KHTML, like Gecko) Chrome/138.0.0.0 Safari/537.36 Edg/138.0.0.0","WebKit","Edge","138.0.0.0","Windows","10.0","https://app.prolific.com/","en-GB,en;q=0.9,en-US;q=0.8","5bffc3ae4108380001f5cd63","686d226cabeef709c732f8e1","686e312c7437ae63dd79dfac","5bffc3ae4108380001f5cd63","2025-07-09T09:25:18.237Z","","","","","","ControlQ","","","","","","","","","","","","","","","","","","","","","","","","","","","","","","","","","","","","","","50"
"7122","","<div style=""width:500px;"">
  <p>How would you describe your current emotional state?</p>
  </div>","56","html-slider-response","46","768335","0.0-10.0-3.0","176","1","2025-07-09 09:12:36","7701e855f2ef39aa3fd6c71abdc6918a","86.11.234.17","Mozilla/5.0 (Windows NT 10.0; Win64; x64) AppleWebKit/537.36 (KHTML, like Gecko) Chrome/138.0.0.0 Safari/537.36 Edg/138.0.0.0","WebKit","Edge","138.0.0.0","Windows","10.0","https://app.prolific.com/","en-GB,en;q=0.9,en-US;q=0.8","5bffc3ae4108380001f5cd63","686d226cabeef709c732f8e1","686e312c7437ae63dd79dfac","5bffc3ae4108380001f5cd63","2025-07-09T09:25:25.360Z","","","","","","StressQ","","","","","","","","","","","","","","","","","","","","","","","","","","","","","","","","","","","","","","50"
"5856","","<div style=""width:500px;"">
  <p>What best describes how you currently feel?</p>
  </div>","97","html-slider-response","47","774193","0.0-10.0-4.0","176","1","2025-07-09 09:12:36","7701e855f2ef39aa3fd6c71abdc6918a","86.11.234.17","Mozilla/5.0 (Windows NT 10.0; Win64; x64) AppleWebKit/537.36 (KHTML, like Gecko) Chrome/138.0.0.0 Safari/537.36 Edg/138.0.0.0","WebKit","Edge","138.0.0.0","Windows","10.0","https://app.prolific.com/","en-GB,en;q=0.9,en-US;q=0.8","5bffc3ae4108380001f5cd63","686d226cabeef709c732f8e1","686e312c7437ae63dd79dfac","5bffc3ae4108380001f5cd63","2025-07-09T09:25:31.219Z","","","","","","MotivationQ","","","","","","","","","","","","","","","","","","","","","","","","","","","","","","","","","","","","","","50"
"","","","","ctl-task-cpt","48","796402","0.0-10.0-0.1","176","1","2025-07-09 09:12:36","7701e855f2ef39aa3fd6c71abdc6918a","86.11.234.17","Mozilla/5.0 (Windows NT 10.0; Win64; x64) AppleWebKit/537.36 (KHTML, like Gecko) Chrome/138.0.0.0 Safari/537.36 Edg/138.0.0.0","WebKit","Edge","138.0.0.0","Windows","10.0","https://app.prolific.com/","en-GB,en;q=0.9,en-US;q=0.8","5bffc3ae4108380001f5cd63","686d226cabeef709c732f8e1","686e312c7437ae63dd79dfac","5bffc3ae4108380001f5cd63","2025-07-09T09:25:53.427Z","","","","","","","","","","","","","","","","win-only","0","g1:NW,g2:SE","0.9","2","0","775749.7","2355.3","7362.7","19200.8","1","4","8","6","1","1","0","0","0","0","5006.9","3000","1550","[""left"",""up""]","{""num_key_presses"":5,""num_perfect"":3,""num_errors"":1,""num_randdir"":1,""num_randdir_good_moves"":1,""num_whilered"":0,""num_whileblue"":0,""num_blue"":0,""num_good_moves"":4}","[414.57142857142856,410.47767857142856,0.9,414.57142857142856,410.47767857142856,103,414.57142857142856,410.47767857142856,205.7,414.57142857142856,410.47767857142856,307.5,414.57142857142856,410.47767857142856,411.7,414.57142857142856,410.47767857142856,513.3,414.57142857142856,410.47767857142856,617.7,414.57142857142856,410.47767857142856,719.6,414.57142857142856,410.47767857142856,824.5,414.57142857142856,410.47767857142856,937.4,414.57142857142856,410.47767857142856,1052.4,414.57142857142856,410.47767857142856,1152.8,414.57142857142856,410.47767857142856,1253.3,414.57142857142856,410.47767857142856,1357.9,414.57142857142856,410.47767857142856,1462.3,414.57142857142856,410.47767857142856,1567.6,414.57142857142856,410.47767857142856,1668.3,414.57142857142856,410.47767857142856,1768.8,414.57142857142856,410.47767857142856,1871.2,414.57142857142856,410.47767857142856,1974,414.57142857142856,410.47767857142856,2078.2,414.57142857142856,410.47767857142856,2182.6,414.57142857142856,410.47767857142856,2290.4,414.57142857142856,410.47767857142856,2396,414.57142857142856,410.47767857142856,2503.5,414.57142857142856,410.47767857142856,2607.7,414.57142857142856,410.47767857142856,2711.5,414.57142857142856,410.47767857142856,2812.5,414.57142857142856,410.47767857142856,2918.9,414.57142857142856,410.47767857142856,3023.8,414.57142857142856,410.47767857142856,3130.4,414.57142857142856,410.47767857142856,3237.1,414.57142857142856,410.47767857142856,3344.7,414.57142857142856,410.47767857142856,3452,414.57142857142856,410.47767857142856,3565,414.57142857142856,410.47767857142856,3668.9,414.57142857142856,410.47767857142856,3772.8,414.57142857142856,410.47767857142856,3873,414.57142857142856,410.47767857142856,3977.8,414.57142857142856,410.47767857142856,4078.7,414.57142857142856,410.47767857142856,4182.4,414.57142857142856,410.47767857142856,4289.2,414.57142857142856,410.47767857142856,4393,414.57142857142856,410.47767857142856,4495.9,414.57142857142856,410.47767857142856,4600.3,414.57142857142856,410.47767857142856,4701.3,414.57142857142856,410.47767857142856,4807.9,414.57142857142856,410.47767857142856,4911.8]","[1517.6,1517.6,1000,0.1,517.5,""smooth"",""up"",""up"",""good_move"",1837.4,318.7,2803.6,1518.8,-2484.9,""error"",""-"",""-"",""no_move"",6067.1,4228.3,2753.7,2839.2,474.2,""smooth"",""up"",""up"",""good_move"",8773.1,2705.4,2043,6067.8,662.4,""smooth"",""left"",""left"",""good_move"",11692.1,2917.3,2458.9,8774.8,458.4,""oops"",""left"",""left"",""good_move""]","",""
"5249","","<div style=""width:500px;"">
  <p>What determined the result of this run?</p>
  </div>","95","html-slider-response","49","801653","0.0-10.0-1.1","176","1","2025-07-09 09:12:36","7701e855f2ef39aa3fd6c71abdc6918a","86.11.234.17","Mozilla/5.0 (Windows NT 10.0; Win64; x64) AppleWebKit/537.36 (KHTML, like Gecko) Chrome/138.0.0.0 Safari/537.36 Edg/138.0.0.0","WebKit","Edge","138.0.0.0","Windows","10.0","https://app.prolific.com/","en-GB,en;q=0.9,en-US;q=0.8","5bffc3ae4108380001f5cd63","686d226cabeef709c732f8e1","686e312c7437ae63dd79dfac","5bffc3ae4108380001f5cd63","2025-07-09T09:25:58.678Z","","","","","","AttribQ","","","","","","","","","","","","","","","","","","","","","","","","","","","","","","","","","","","","","","50"
"4185","","<div style=""width:500px;"">
  <p>How much control did you have over the ball?</p>
  </div>","84","html-slider-response","50","805839","0.0-10.0-2.1","176","1","2025-07-09 09:12:36","7701e855f2ef39aa3fd6c71abdc6918a","86.11.234.17","Mozilla/5.0 (Windows NT 10.0; Win64; x64) AppleWebKit/537.36 (KHTML, like Gecko) Chrome/138.0.0.0 Safari/537.36 Edg/138.0.0.0","WebKit","Edge","138.0.0.0","Windows","10.0","https://app.prolific.com/","en-GB,en;q=0.9,en-US;q=0.8","5bffc3ae4108380001f5cd63","686d226cabeef709c732f8e1","686e312c7437ae63dd79dfac","5bffc3ae4108380001f5cd63","2025-07-09T09:26:02.865Z","","","","","","ControlQ","","","","","","","","","","","","","","","","","","","","","","","","","","","","","","","","","","","","","","50"
"4004","","<div style=""width:500px;"">
  <p>How would you describe your current emotional state?</p>
  </div>","57","html-slider-response","51","809846","0.0-10.0-3.1","176","1","2025-07-09 09:12:36","7701e855f2ef39aa3fd6c71abdc6918a","86.11.234.17","Mozilla/5.0 (Windows NT 10.0; Win64; x64) AppleWebKit/537.36 (KHTML, like Gecko) Chrome/138.0.0.0 Safari/537.36 Edg/138.0.0.0","WebKit","Edge","138.0.0.0","Windows","10.0","https://app.prolific.com/","en-GB,en;q=0.9,en-US;q=0.8","5bffc3ae4108380001f5cd63","686d226cabeef709c732f8e1","686e312c7437ae63dd79dfac","5bffc3ae4108380001f5cd63","2025-07-09T09:26:06.871Z","","","","","","StressQ","","","","","","","","","","","","","","","","","","","","","","","","","","","","","","","","","","","","","","50"
"3742","","<div style=""width:500px;"">
  <p>What best describes how you currently feel?</p>
  </div>","99","html-slider-response","52","813590","0.0-10.0-4.1","176","1","2025-07-09 09:12:36","7701e855f2ef39aa3fd6c71abdc6918a","86.11.234.17","Mozilla/5.0 (Windows NT 10.0; Win64; x64) AppleWebKit/537.36 (KHTML, like Gecko) Chrome/138.0.0.0 Safari/537.36 Edg/138.0.0.0","WebKit","Edge","138.0.0.0","Windows","10.0","https://app.prolific.com/","en-GB,en;q=0.9,en-US;q=0.8","5bffc3ae4108380001f5cd63","686d226cabeef709c732f8e1","686e312c7437ae63dd79dfac","5bffc3ae4108380001f5cd63","2025-07-09T09:26:10.615Z","","","","","","MotivationQ","","","","","","","","","","","","","","","","","","","","","","","","","","","","","","","","","","","","","","50"
"","","","","ctl-task-cpt","53","848524","0.0-10.0-0.2","176","1","2025-07-09 09:12:36","7701e855f2ef39aa3fd6c71abdc6918a","86.11.234.17","Mozilla/5.0 (Windows NT 10.0; Win64; x64) AppleWebKit/537.36 (KHTML, like Gecko) Chrome/138.0.0.0 Safari/537.36 Edg/138.0.0.0","WebKit","Edge","138.0.0.0","Windows","10.0","https://app.prolific.com/","en-GB,en;q=0.9,en-US;q=0.8","5bffc3ae4108380001f5cd63","686d226cabeef709c732f8e1","686e312c7437ae63dd79dfac","5bffc3ae4108380001f5cd63","2025-07-09T09:26:45.549Z","","","","","","","","","","","","","","","","win-only","2","g1:SE,g2:NW","0.8","3","0","815145.1","2494.3","7502.6","31912.9","1","4","4","6","2","-4","-6","0","0","0","5008.3","3000","-1850","[""left"",""up""]","{""num_key_presses"":8,""num_perfect"":5,""num_errors"":2,""num_randdir"":1,""num_randdir_good_moves"":0,""num_whilered"":0,""num_whileblue"":0,""num_blue"":0,""num_good_moves"":4}","[414.57142857142856,409.47767857142856,0.5,414.57142857142856,409.47767857142856,103.6,414.57142857142856,409.47767857142856,205.8,414.57142857142856,409.47767857142856,313.2,414.57142857142856,409.47767857142856,413.3,414.57142857142856,409.47767857142856,523.1,414.57142857142856,409.47767857142856,629.8,414.57142857142856,409.47767857142856,731.1,414.57142857142856,409.47767857142856,831.4,414.57142857142856,409.47767857142856,935,414.57142857142856,409.47767857142856,1040.6,414.57142857142856,409.47767857142856,1147.8,414.57142857142856,409.47767857142856,1252.3,414.57142857142856,409.47767857142856,1363.2,414.57142857142856,409.47767857142856,1463.7,414.57142857142856,409.47767857142856,1573.1,414.57142857142856,409.47767857142856,1679.5,414.57142857142856,409.47767857142856,1780,414.57142857142856,409.47767857142856,1881.3,414.57142857142856,409.47767857142856,1981.8,414.57142857142856,409.47767857142856,2082.1,414.57142857142856,409.47767857142856,2192.4,414.57142857142856,409.47767857142856,2294.2,414.57142857142856,409.47767857142856,2395.8,414.57142857142856,409.47767857142856,2496.1,414.57142857142856,409.47767857142856,2601.1,414.57142857142856,409.47767857142856,2703.7,414.57142857142856,409.47767857142856,2816.1,414.57142857142856,409.47767857142856,2919.6,414.57142857142856,409.47767857142856,3032.8,414.57142857142856,409.47767857142856,3147.7,414.57142857142856,409.47767857142856,3265.4,414.57142857142856,409.47767857142856,3365.4,414.57142857142856,409.47767857142856,3468.4,414.57142857142856,409.47767857142856,3576.8,414.57142857142856,409.47767857142856,3679.2,414.57142857142856,409.47767857142856,3781.5,414.57142857142856,409.47767857142856,3887.3,414.57142857142856,409.47767857142856,3996.5,414.57142857142856,409.47767857142856,4103.2,414.57142857142856,409.47767857142856,4206.6,414.57142857142856,409.47767857142856,4319.3,414.57142857142856,409.47767857142856,4420.7,414.57142857142856,409.47767857142856,4529.5,414.57142857142856,409.47767857142856,4629.9,414.57142857142856,409.47767857142856,4730.9,414.57142857142856,409.47767857142856,4834.7,414.57142857142856,409.47767857142856,4937]","[1737.6,1737.6,1000,0,737.6,""smooth"",""down"",""down"",""bad_move"",3623.4,1885.1,2227.7,1738.4,-342.7,""error"",""-"",""-"",""no_move"",6009.1,2384.2,2113.7,4634,-738.6,""error"",""-"",""-"",""no_move"",10139.2,4128.6,2550,7011.5,577.7,""smooth"",""up"",""up"",""good_move"",13208.3,3068.6,2229.8,10139.7,838.8,""oops"",""up"",""down"",""bad_move"",16775.1,3566.5,2543.8,13208.6,1022.7,""smooth"",""left"",""left"",""good_move"",19038.5,2262.7,1473.7,16775.9,789,""smooth"",""up"",""up"",""good_move"",21564,2524.7,1830.4,19039.3,694.3,""smooth"",""up"",""up"",""good_move""]","",""
"3862","","<div style=""width:500px;"">
  <p>What determined the result of this run?</p>
  </div>","2","html-slider-response","54","852389","0.0-10.0-1.2","176","1","2025-07-09 09:12:36","7701e855f2ef39aa3fd6c71abdc6918a","86.11.234.17","Mozilla/5.0 (Windows NT 10.0; Win64; x64) AppleWebKit/537.36 (KHTML, like Gecko) Chrome/138.0.0.0 Safari/537.36 Edg/138.0.0.0","WebKit","Edge","138.0.0.0","Windows","10.0","https://app.prolific.com/","en-GB,en;q=0.9,en-US;q=0.8","5bffc3ae4108380001f5cd63","686d226cabeef709c732f8e1","686e312c7437ae63dd79dfac","5bffc3ae4108380001f5cd63","2025-07-09T09:26:49.415Z","","","","","","AttribQ","","","","","","","","","","","","","","","","","","","","","","","","","","","","","","","","","","","","","","50"
"4635","","<div style=""width:500px;"">
  <p>How much control did you have over the ball?</p>
  </div>","19","html-slider-response","55","857034","0.0-10.0-2.2","176","1","2025-07-09 09:12:36","7701e855f2ef39aa3fd6c71abdc6918a","86.11.234.17","Mozilla/5.0 (Windows NT 10.0; Win64; x64) AppleWebKit/537.36 (KHTML, like Gecko) Chrome/138.0.0.0 Safari/537.36 Edg/138.0.0.0","WebKit","Edge","138.0.0.0","Windows","10.0","https://app.prolific.com/","en-GB,en;q=0.9,en-US;q=0.8","5bffc3ae4108380001f5cd63","686d226cabeef709c732f8e1","686e312c7437ae63dd79dfac","5bffc3ae4108380001f5cd63","2025-07-09T09:26:54.059Z","","","","","","ControlQ","","","","","","","","","","","","","","","","","","","","","","","","","","","","","","","","","","","","","","50"
"3356","","<div style=""width:500px;"">
  <p>How would you describe your current emotional state?</p>
  </div>","73","html-slider-response","56","860394","0.0-10.0-3.2","176","1","2025-07-09 09:12:36","7701e855f2ef39aa3fd6c71abdc6918a","86.11.234.17","Mozilla/5.0 (Windows NT 10.0; Win64; x64) AppleWebKit/537.36 (KHTML, like Gecko) Chrome/138.0.0.0 Safari/537.36 Edg/138.0.0.0","WebKit","Edge","138.0.0.0","Windows","10.0","https://app.prolific.com/","en-GB,en;q=0.9,en-US;q=0.8","5bffc3ae4108380001f5cd63","686d226cabeef709c732f8e1","686e312c7437ae63dd79dfac","5bffc3ae4108380001f5cd63","2025-07-09T09:26:57.419Z","","","","","","StressQ","","","","","","","","","","","","","","","","","","","","","","","","","","","","","","","","","","","","","","50"
"3771","","<div style=""width:500px;"">
  <p>What best describes how you currently feel?</p>
  </div>","93","html-slider-response","57","864168","0.0-10.0-4.2","176","1","2025-07-09 09:12:36","7701e855f2ef39aa3fd6c71abdc6918a","86.11.234.17","Mozilla/5.0 (Windows NT 10.0; Win64; x64) AppleWebKit/537.36 (KHTML, like Gecko) Chrome/138.0.0.0 Safari/537.36 Edg/138.0.0.0","WebKit","Edge","138.0.0.0","Windows","10.0","https://app.prolific.com/","en-GB,en;q=0.9,en-US;q=0.8","5bffc3ae4108380001f5cd63","686d226cabeef709c732f8e1","686e312c7437ae63dd79dfac","5bffc3ae4108380001f5cd63","2025-07-09T09:27:01.193Z","","","","","","MotivationQ","","","","","","","","","","","","","","","","","","","","","","","","","","","","","","","","","","","","","","50"
"","","","","ctl-task-cpt","58","885624","0.0-10.0-0.3","176","1","2025-07-09 09:12:36","7701e855f2ef39aa3fd6c71abdc6918a","86.11.234.17","Mozilla/5.0 (Windows NT 10.0; Win64; x64) AppleWebKit/537.36 (KHTML, like Gecko) Chrome/138.0.0.0 Safari/537.36 Edg/138.0.0.0","WebKit","Edge","138.0.0.0","Windows","10.0","https://app.prolific.com/","en-GB,en;q=0.9,en-US;q=0.8","5bffc3ae4108380001f5cd63","686d226cabeef709c732f8e1","686e312c7437ae63dd79dfac","5bffc3ae4108380001f5cd63","2025-07-09T09:27:22.649Z","","","","","","","","","","","","","","","","win-only","2","g1:SE,g2:NW","0.7","4","0","865726.2","1924.6","6939.7","18435.1","1","4","8","6","1","1","1","1","0","0.007575757575757576","5015","3000","1665","[""down"",""right""]","{""num_key_presses"":4,""num_perfect"":3,""num_errors"":0,""num_randdir"":1,""num_randdir_good_moves"":1,""num_whilered"":0,""num_whileblue"":0,""num_blue"":0,""num_good_moves"":4}","[417.57142857142856,417.47767857142856,0.2,417.57142857142856,417.47767857142856,105.9,417.57142857142856,417.47767857142856,210.4,417.57142857142856,417.47767857142856,313.5,417.57142857142856,417.47767857142856,416.2,417.57142857142856,417.47767857142856,523.3,417.57142857142856,417.47767857142856,624.9,417.57142857142856,417.47767857142856,730.1,417.57142857142856,417.47767857142856,833.2,417.57142857142856,417.47767857142856,934.5,417.57142857142856,417.47767857142856,1034.6,417.57142857142856,417.47767857142856,1143,417.57142857142856,417.47767857142856,1251,417.57142857142856,417.47767857142856,1351.8,417.57142857142856,417.47767857142856,1452.9,417.57142857142856,417.47767857142856,1552.9,417.57142857142856,417.47767857142856,1654.9,417.57142857142856,417.47767857142856,1758.1,417.57142857142856,417.47767857142856,1861.1,417.57142857142856,417.47767857142856,1964.7,417.57142857142856,417.47767857142856,2076.2,417.57142857142856,417.47767857142856,2194,417.57142857142856,417.47767857142856,2300.7,417.57142857142856,417.47767857142856,2400.9,417.57142857142856,417.47767857142856,2508.2,417.57142857142856,417.47767857142856,2611.8,417.57142857142856,417.47767857142856,2716.2,417.57142857142856,417.47767857142856,2821.4,417.57142857142856,417.47767857142856,2923.8,417.57142857142856,417.47767857142856,3025.6,417.57142857142856,417.47767857142856,3127.6,417.57142857142856,417.47767857142856,3231.9,417.57142857142856,417.47767857142856,3340.5,417.57142857142856,417.47767857142856,3442.1,417.57142857142856,417.47767857142856,3542.6,417.57142857142856,417.47767857142856,3655.9,417.57142857142856,417.47767857142856,3756.1,417.57142857142856,417.47767857142856,3856.3,417.57142857142856,417.47767857142856,3958.2,417.57142857142856,417.47767857142856,4060.1,417.57142857142856,417.47767857142856,4173.5,417.57142857142856,417.47767857142856,4274.2,417.57142857142856,417.47767857142856,4377.8,417.57142857142856,417.47767857142856,4478.9,417.57142857142856,417.47767857142856,4587.8,417.57142857142856,417.47767857142856,4708.5,417.57142857142856,417.47767857142856,4815.9,417.57142857142856,417.47767857142856,4921.8]","[1620.6,1620.6,1000,0,620.6,""smooth"",""down"",""down"",""good_move"",4544.4,2923.4,2176.9,1621.1,746.4,""smooth"",""down"",""down"",""good_move"",8316,3771,3279.3,4545,491.7,""oops"",""right"",""right"",""good_move"",11355.8,3039.2,2559.6,8316.6,479.6,""smooth"",""right"",""right"",""good_move""]","",""
"4327","","<div style=""width:500px;"">
  <p>What determined the result of this run?</p>
  </div>","91","html-slider-response","59","889953","0.0-10.0-1.3","176","1","2025-07-09 09:12:36","7701e855f2ef39aa3fd6c71abdc6918a","86.11.234.17","Mozilla/5.0 (Windows NT 10.0; Win64; x64) AppleWebKit/537.36 (KHTML, like Gecko) Chrome/138.0.0.0 Safari/537.36 Edg/138.0.0.0","WebKit","Edge","138.0.0.0","Windows","10.0","https://app.prolific.com/","en-GB,en;q=0.9,en-US;q=0.8","5bffc3ae4108380001f5cd63","686d226cabeef709c732f8e1","686e312c7437ae63dd79dfac","5bffc3ae4108380001f5cd63","2025-07-09T09:27:26.978Z","","","","","","AttribQ","","","","","","","","","","","","","","","","","","","","","","","","","","","","","","","","","","","","","","50"
"3289","","<div style=""width:500px;"">
  <p>How much control did you have over the ball?</p>
  </div>","92","html-slider-response","60","893244","0.0-10.0-2.3","176","1","2025-07-09 09:12:36","7701e855f2ef39aa3fd6c71abdc6918a","86.11.234.17","Mozilla/5.0 (Windows NT 10.0; Win64; x64) AppleWebKit/537.36 (KHTML, like Gecko) Chrome/138.0.0.0 Safari/537.36 Edg/138.0.0.0","WebKit","Edge","138.0.0.0","Windows","10.0","https://app.prolific.com/","en-GB,en;q=0.9,en-US;q=0.8","5bffc3ae4108380001f5cd63","686d226cabeef709c732f8e1","686e312c7437ae63dd79dfac","5bffc3ae4108380001f5cd63","2025-07-09T09:27:30.269Z","","","","","","ControlQ","","","","","","","","","","","","","","","","","","","","","","","","","","","","","","","","","","","","","","50"
"4554","","<div style=""width:500px;"">
  <p>How would you describe your current emotional state?</p>
  </div>","50","html-slider-response","61","897800","0.0-10.0-3.3","176","1","2025-07-09 09:12:36","7701e855f2ef39aa3fd6c71abdc6918a","86.11.234.17","Mozilla/5.0 (Windows NT 10.0; Win64; x64) AppleWebKit/537.36 (KHTML, like Gecko) Chrome/138.0.0.0 Safari/537.36 Edg/138.0.0.0","WebKit","Edge","138.0.0.0","Windows","10.0","https://app.prolific.com/","en-GB,en;q=0.9,en-US;q=0.8","5bffc3ae4108380001f5cd63","686d226cabeef709c732f8e1","686e312c7437ae63dd79dfac","5bffc3ae4108380001f5cd63","2025-07-09T09:27:34.825Z","","","","","","StressQ","","","","","","","","","","","","","","","","","","","","","","","","","","","","","","","","","","","","","","50"
"5091","","<div style=""width:500px;"">
  <p>What best describes how you currently feel?</p>
  </div>","94","html-slider-response","62","902892","0.0-10.0-4.3","176","1","2025-07-09 09:12:36","7701e855f2ef39aa3fd6c71abdc6918a","86.11.234.17","Mozilla/5.0 (Windows NT 10.0; Win64; x64) AppleWebKit/537.36 (KHTML, like Gecko) Chrome/138.0.0.0 Safari/537.36 Edg/138.0.0.0","WebKit","Edge","138.0.0.0","Windows","10.0","https://app.prolific.com/","en-GB,en;q=0.9,en-US;q=0.8","5bffc3ae4108380001f5cd63","686d226cabeef709c732f8e1","686e312c7437ae63dd79dfac","5bffc3ae4108380001f5cd63","2025-07-09T09:27:39.917Z","","","","","","MotivationQ","","","","","","","","","","","","","","","","","","","","","","","","","","","","","","","","","","","","","","50"
"","","","","ctl-task-cpt","63","952527","0.0-10.0-0.4","176","1","2025-07-09 09:12:36","7701e855f2ef39aa3fd6c71abdc6918a","86.11.234.17","Mozilla/5.0 (Windows NT 10.0; Win64; x64) AppleWebKit/537.36 (KHTML, like Gecko) Chrome/138.0.0.0 Safari/537.36 Edg/138.0.0.0","WebKit","Edge","138.0.0.0","Windows","10.0","https://app.prolific.com/","en-GB,en;q=0.9,en-US;q=0.8","5bffc3ae4108380001f5cd63","686d226cabeef709c732f8e1","686e312c7437ae63dd79dfac","5bffc3ae4108380001f5cd63","2025-07-09T09:28:29.552Z","","","","","","","","","","","","","","","","win-only","3","g1:SW,g2:NE","0.6","5","0","904448","1775.7","6779","46616.8","1","4","4","6","2","4","3","4","1","0.030303030303030304","5003.2","3000","105","[""up"",""right""]","{""num_key_presses"":11,""num_perfect"":6,""num_errors"":1,""num_randdir"":4,""num_randdir_good_moves"":2,""num_whilered"":0,""num_whileblue"":0,""num_blue"":2,""num_good_moves"":8}","[416.57142857142856,414.47767857142856,0.3,416.57142857142856,414.47767857142856,105.6,416.57142857142856,414.47767857142856,205.7,416.57142857142856,414.47767857142856,307.3,416.57142857142856,414.47767857142856,409.8,430.57142857142856,424.47767857142856,515.5,495.57142857142856,457.47767857142856,621.8,500.57142857142856,460.47767857142856,725.2,500.57142857142856,460.47767857142856,835.2,500.57142857142856,460.47767857142856,935.3,500.57142857142856,460.47767857142856,1050.9,500.57142857142856,460.47767857142856,1161.1,500.57142857142856,460.47767857142856,1266.4,500.57142857142856,460.47767857142856,1366.8,500.57142857142856,460.47767857142856,1471.8,500.57142857142856,460.47767857142856,1574.8,500.57142857142856,460.47767857142856,1678.6,500.57142857142856,460.47767857142856,1782.4,500.57142857142856,460.47767857142856,1896.2,500.57142857142856,460.47767857142856,1996.6,500.57142857142856,460.47767857142856,2106.5,500.57142857142856,460.47767857142856,2208.1,500.57142857142856,460.47767857142856,2315.2,500.57142857142856,460.47767857142856,2419.9,500.57142857142856,460.47767857142856,2534.2,500.57142857142856,460.47767857142856,2638.7,500.57142857142856,460.47767857142856,2746.2,500.57142857142856,460.47767857142856,2849.1,500.57142857142856,460.47767857142856,2949.7,500.57142857142856,460.47767857142856,3056,500.57142857142856,460.47767857142856,3163.5,500.57142857142856,460.47767857142856,3276.2,500.57142857142856,460.47767857142856,3378.1,500.57142857142856,460.47767857142856,3482.9,500.57142857142856,460.47767857142856,3584.9,500.57142857142856,460.47767857142856,3688,500.57142857142856,460.47767857142856,3793.3,500.57142857142856,460.47767857142856,3898.2,500.57142857142856,460.47767857142856,4003.4,500.57142857142856,460.47767857142856,4112.7,500.57142857142856,460.47767857142856,4214,500.57142857142856,460.47767857142856,4314.7,500.57142857142856,460.47767857142856,4418,500.57142857142856,460.47767857142856,4531.8,500.57142857142856,460.47767857142856,4635,500.57142857142856,460.47767857142856,4742.5,500.57142857142856,460.47767857142856,4847.1,500.57142857142856,460.47767857142856,4963.9]","[697.2,697.2,1000,0,-302.8,""error"",""-"",""-"",""no_move"",4643.5,3946,2381.9,1701.1,560.6,""smooth"",""up"",""up"",""good_move"",7405.1,2760.7,2213.5,4644.4,547.2,""smooth"",""up"",""up"",""good_move"",14355.6,6948.2,3215.1,10702.2,438.3,""smooth"",""up"",""up"",""good_move"",17649.3,3293.4,2753,14355.9,540.4,""oops"",""right"",""right"",""good_move"",20998.4,3348.3,2904.4,17650.1,443.9,""smooth"",""right"",""right"",""good_move"",23970.6,2970.3,2429.1,21000.4,541.1,""oops"",""right"",""down"",""bad_move"",26709.3,2737.8,2271.5,23971.6,466.3,""oops"",""up"",""up"",""good_move"",29764.5,3054.8,2596.5,26709.7,458.3,""oops"",""right"",""down"",""bad_move"",36638.1,6873.3,2507.6,33691.2,439.4,""smooth"",""right"",""right"",""good_move"",39685.5,3045.4,2528.1,36640.1,517.4,""smooth"",""up"",""up"",""good_move""]","",""
"6595","","<div style=""width:500px;"">
  <p>What determined the result of this run?</p>
  </div>","50","html-slider-response","64","959124","0.0-10.0-1.4","176","1","2025-07-09 09:12:36","7701e855f2ef39aa3fd6c71abdc6918a","86.11.234.17","Mozilla/5.0 (Windows NT 10.0; Win64; x64) AppleWebKit/537.36 (KHTML, like Gecko) Chrome/138.0.0.0 Safari/537.36 Edg/138.0.0.0","WebKit","Edge","138.0.0.0","Windows","10.0","https://app.prolific.com/","en-GB,en;q=0.9,en-US;q=0.8","5bffc3ae4108380001f5cd63","686d226cabeef709c732f8e1","686e312c7437ae63dd79dfac","5bffc3ae4108380001f5cd63","2025-07-09T09:28:36.149Z","","","","","","AttribQ","","","","","","","","","","","","","","","","","","","","","","","","","","","","","","","","","","","","","","50"
"4287","","<div style=""width:500px;"">
  <p>How much control did you have over the ball?</p>
  </div>","50","html-slider-response","65","963416","0.0-10.0-2.4","176","1","2025-07-09 09:12:36","7701e855f2ef39aa3fd6c71abdc6918a","86.11.234.17","Mozilla/5.0 (Windows NT 10.0; Win64; x64) AppleWebKit/537.36 (KHTML, like Gecko) Chrome/138.0.0.0 Safari/537.36 Edg/138.0.0.0","WebKit","Edge","138.0.0.0","Windows","10.0","https://app.prolific.com/","en-GB,en;q=0.9,en-US;q=0.8","5bffc3ae4108380001f5cd63","686d226cabeef709c732f8e1","686e312c7437ae63dd79dfac","5bffc3ae4108380001f5cd63","2025-07-09T09:28:40.441Z","","","","","","ControlQ","","","","","","","","","","","","","","","","","","","","","","","","","","","","","","","","","","","","","","50"
"3426","","<div style=""width:500px;"">
  <p>How would you describe your current emotional state?</p>
  </div>","57","html-slider-response","66","966851","0.0-10.0-3.4","176","1","2025-07-09 09:12:36","7701e855f2ef39aa3fd6c71abdc6918a","86.11.234.17","Mozilla/5.0 (Windows NT 10.0; Win64; x64) AppleWebKit/537.36 (KHTML, like Gecko) Chrome/138.0.0.0 Safari/537.36 Edg/138.0.0.0","WebKit","Edge","138.0.0.0","Windows","10.0","https://app.prolific.com/","en-GB,en;q=0.9,en-US;q=0.8","5bffc3ae4108380001f5cd63","686d226cabeef709c732f8e1","686e312c7437ae63dd79dfac","5bffc3ae4108380001f5cd63","2025-07-09T09:28:43.876Z","","","","","","StressQ","","","","","","","","","","","","","","","","","","","","","","","","","","","","","","","","","","","","","","50"
"4678","","<div style=""width:500px;"">
  <p>What best describes how you currently feel?</p>
  </div>","98","html-slider-response","67","971535","0.0-10.0-4.4","176","1","2025-07-09 09:12:36","7701e855f2ef39aa3fd6c71abdc6918a","86.11.234.17","Mozilla/5.0 (Windows NT 10.0; Win64; x64) AppleWebKit/537.36 (KHTML, like Gecko) Chrome/138.0.0.0 Safari/537.36 Edg/138.0.0.0","WebKit","Edge","138.0.0.0","Windows","10.0","https://app.prolific.com/","en-GB,en;q=0.9,en-US;q=0.8","5bffc3ae4108380001f5cd63","686d226cabeef709c732f8e1","686e312c7437ae63dd79dfac","5bffc3ae4108380001f5cd63","2025-07-09T09:28:48.561Z","","","","","","MotivationQ","","","","","","","","","","","","","","","","","","","","","","","","","","","","","","","","","","","","","","50"
"","","","","ctl-task-cpt","68","1013287","0.0-10.0-0.5","176","1","2025-07-09 09:12:36","7701e855f2ef39aa3fd6c71abdc6918a","86.11.234.17","Mozilla/5.0 (Windows NT 10.0; Win64; x64) AppleWebKit/537.36 (KHTML, like Gecko) Chrome/138.0.0.0 Safari/537.36 Edg/138.0.0.0","WebKit","Edge","138.0.0.0","Windows","10.0","https://app.prolific.com/","en-GB,en;q=0.9,en-US;q=0.8","5bffc3ae4108380001f5cd63","686d226cabeef709c732f8e1","686e312c7437ae63dd79dfac","5bffc3ae4108380001f5cd63","2025-07-09T09:29:30.313Z","","","","","","","","","","","","","","","","win-only","3","g1:SW,g2:NE","0.5","6","0","973094.4","1790.6","6793.5","38721.7","1","4","8","6","1","1","1","5","4","0.03787878787878788","5002.8","3000","1040","[""down"",""left""]","{""num_key_presses"":6,""num_perfect"":4,""num_errors"":0,""num_randdir"":2,""num_randdir_good_moves"":1,""num_whilered"":0,""num_whileblue"":0,""num_blue"":4,""num_good_moves"":5}","[413.57142857142856,416.47767857142856,0.2,413.57142857142856,416.47767857142856,115,413.57142857142856,416.47767857142856,226.6,413.57142857142856,416.47767857142856,347.6,413.57142857142856,416.47767857142856,449.1,413.57142857142856,416.47767857142856,558.9,413.57142857142856,416.47767857142856,659.9,413.57142857142856,416.47767857142856,759.9,413.57142857142856,416.47767857142856,860.6,413.57142857142856,416.47767857142856,965.2,413.57142857142856,416.47767857142856,1069.4,413.57142857142856,416.47767857142856,1174.6,413.57142857142856,416.47767857142856,1278.9,413.57142857142856,416.47767857142856,1391.5,413.57142857142856,416.47767857142856,1493.6,413.57142857142856,416.47767857142856,1609.4,413.57142857142856,416.47767857142856,1724.9,413.57142857142856,416.47767857142856,1826.6,413.57142857142856,416.47767857142856,1938.6,413.57142857142856,416.47767857142856,2042.9,413.57142857142856,416.47767857142856,2152.3,413.57142857142856,416.47767857142856,2259.6,413.57142857142856,416.47767857142856,2363.3,413.57142857142856,416.47767857142856,2472.3,413.57142857142856,416.47767857142856,2577.7,413.57142857142856,416.47767857142856,2682.5,413.57142857142856,416.47767857142856,2790.1,413.57142857142856,416.47767857142856,2894.2,413.57142857142856,416.47767857142856,2996.9,413.57142857142856,416.47767857142856,3109.7,413.57142857142856,416.47767857142856,3218.3,413.57142857142856,416.47767857142856,3326.6,413.57142857142856,416.47767857142856,3426.8,413.57142857142856,416.47767857142856,3527.9,413.57142857142856,416.47767857142856,3629.2,413.57142857142856,416.47767857142856,3736.6,413.57142857142856,416.47767857142856,3839.4,413.57142857142856,416.47767857142856,3940.8,413.57142857142856,416.47767857142856,4042,413.57142857142856,416.47767857142856,4144,413.57142857142856,416.47767857142856,4249.5,413.57142857142856,416.47767857142856,4351.6,413.57142857142856,416.47767857142856,4454.1,413.57142857142856,416.47767857142856,4558.8,413.57142857142856,416.47767857142856,4672.6,413.57142857142856,416.47767857142856,4777.7,413.57142857142856,416.47767857142856,4883.7,413.57142857142856,416.47767857142856,4995.2]","[1719.1,1719.1,1000,0,719.1,""smooth"",""down"",""down"",""good_move"",8726.5,7005.2,2653.8,5578.6,494.1,""oops"",""left"",""up"",""bad_move"",14524.3,5797.1,2011.1,12059.4,453.9,""smooth"",""left"",""left"",""good_move"",18388.8,3864,3388.5,14524.8,475.5,""oops"",""down"",""down"",""good_move"",21127.8,2737.3,2147.3,18390.6,589.9,""smooth"",""left"",""left"",""good_move"",31770.3,10642.1,2540.1,28589.6,640.7,""smooth"",""down"",""down"",""good_move""]","",""
"4072","","<div style=""width:500px;"">
  <p>What determined the result of this run?</p>
  </div>","59","html-slider-response","69","1017362","0.0-10.0-1.5","176","1","2025-07-09 09:12:36","7701e855f2ef39aa3fd6c71abdc6918a","86.11.234.17","Mozilla/5.0 (Windows NT 10.0; Win64; x64) AppleWebKit/537.36 (KHTML, like Gecko) Chrome/138.0.0.0 Safari/537.36 Edg/138.0.0.0","WebKit","Edge","138.0.0.0","Windows","10.0","https://app.prolific.com/","en-GB,en;q=0.9,en-US;q=0.8","5bffc3ae4108380001f5cd63","686d226cabeef709c732f8e1","686e312c7437ae63dd79dfac","5bffc3ae4108380001f5cd63","2025-07-09T09:29:34.388Z","","","","","","AttribQ","","","","","","","","","","","","","","","","","","","","","","","","","","","","","","","","","","","","","","50"
"3726","","<div style=""width:500px;"">
  <p>How much control did you have over the ball?</p>
  </div>","96","html-slider-response","70","1021091","0.0-10.0-2.5","176","1","2025-07-09 09:12:36","7701e855f2ef39aa3fd6c71abdc6918a","86.11.234.17","Mozilla/5.0 (Windows NT 10.0; Win64; x64) AppleWebKit/537.36 (KHTML, like Gecko) Chrome/138.0.0.0 Safari/537.36 Edg/138.0.0.0","WebKit","Edge","138.0.0.0","Windows","10.0","https://app.prolific.com/","en-GB,en;q=0.9,en-US;q=0.8","5bffc3ae4108380001f5cd63","686d226cabeef709c732f8e1","686e312c7437ae63dd79dfac","5bffc3ae4108380001f5cd63","2025-07-09T09:29:38.116Z","","","","","","ControlQ","","","","","","","","","","","","","","","","","","","","","","","","","","","","","","","","","","","","","","50"
"3385","","<div style=""width:500px;"">
  <p>How would you describe your current emotional state?</p>
  </div>","50","html-slider-response","71","1024483","0.0-10.0-3.5","176","1","2025-07-09 09:12:36","7701e855f2ef39aa3fd6c71abdc6918a","86.11.234.17","Mozilla/5.0 (Windows NT 10.0; Win64; x64) AppleWebKit/537.36 (KHTML, like Gecko) Chrome/138.0.0.0 Safari/537.36 Edg/138.0.0.0","WebKit","Edge","138.0.0.0","Windows","10.0","https://app.prolific.com/","en-GB,en;q=0.9,en-US;q=0.8","5bffc3ae4108380001f5cd63","686d226cabeef709c732f8e1","686e312c7437ae63dd79dfac","5bffc3ae4108380001f5cd63","2025-07-09T09:29:41.509Z","","","","","","StressQ","","","","","","","","","","","","","","","","","","","","","","","","","","","","","","","","","","","","","","50"
"3700","","<div style=""width:500px;"">
  <p>What best describes how you currently feel?</p>
  </div>","98","html-slider-response","72","1028186","0.0-10.0-4.5","176","1","2025-07-09 09:12:36","7701e855f2ef39aa3fd6c71abdc6918a","86.11.234.17","Mozilla/5.0 (Windows NT 10.0; Win64; x64) AppleWebKit/537.36 (KHTML, like Gecko) Chrome/138.0.0.0 Safari/537.36 Edg/138.0.0.0","WebKit","Edge","138.0.0.0","Windows","10.0","https://app.prolific.com/","en-GB,en;q=0.9,en-US;q=0.8","5bffc3ae4108380001f5cd63","686d226cabeef709c732f8e1","686e312c7437ae63dd79dfac","5bffc3ae4108380001f5cd63","2025-07-09T09:29:45.212Z","","","","","","MotivationQ","","","","","","","","","","","","","","","","","","","","","","","","","","","","","","","","","","","","","","50"
"","","","","ctl-task-cpt","73","1068480","0.0-10.0-0.6","176","1","2025-07-09 09:12:36","7701e855f2ef39aa3fd6c71abdc6918a","86.11.234.17","Mozilla/5.0 (Windows NT 10.0; Win64; x64) AppleWebKit/537.36 (KHTML, like Gecko) Chrome/138.0.0.0 Safari/537.36 Edg/138.0.0.0","WebKit","Edge","138.0.0.0","Windows","10.0","https://app.prolific.com/","en-GB,en;q=0.9,en-US;q=0.8","5bffc3ae4108380001f5cd63","686d226cabeef709c732f8e1","686e312c7437ae63dd79dfac","5bffc3ae4108380001f5cd63","2025-07-09T09:30:25.505Z","","","","","","","","","","","","","","","","win-only","2","g1:SE,g2:NW","0.4","7","0","1029743.3","1415","6429.6","37254.1","1","4","4","6","1","1","1","6","5","0.045454545454545456","5014.6","3000","1315","[""down"",""right""]","{""num_key_presses"":8,""num_perfect"":4,""num_errors"":0,""num_randdir"":4,""num_randdir_good_moves"":2,""num_whilered"":0,""num_whileblue"":0,""num_blue"":2,""num_good_moves"":6}","[417.57142857142856,422.47767857142856,1.1,417.57142857142856,422.47767857142856,100.9,417.57142857142856,422.47767857142856,200.9,417.57142857142856,422.47767857142856,306.4,417.57142857142856,422.47767857142856,410.2,417.57142857142856,422.47767857142856,511.6,417.57142857142856,422.47767857142856,624.2,417.57142857142856,422.47767857142856,725.2,417.57142857142856,422.47767857142856,828.9,417.57142857142856,422.47767857142856,937.9,417.57142857142856,422.47767857142856,1045.8,417.57142857142856,422.47767857142856,1154.6,417.57142857142856,422.47767857142856,1260.3,417.57142857142856,422.47767857142856,1360.9,417.57142857142856,422.47767857142856,1465.4,417.57142857142856,422.47767857142856,1567.1,417.57142857142856,422.47767857142856,1685.8,417.57142857142856,422.47767857142856,1785.9,417.57142857142856,422.47767857142856,1888,417.57142857142856,422.47767857142856,1993.4,417.57142857142856,422.47767857142856,2098,417.57142857142856,422.47767857142856,2204.9,417.57142857142856,422.47767857142856,2307.3,417.57142857142856,422.47767857142856,2411.1,417.57142857142856,422.47767857142856,2515.8,417.57142857142856,422.47767857142856,2616.2,417.57142857142856,422.47767857142856,2736.4,417.57142857142856,422.47767857142856,2836.8,417.57142857142856,422.47767857142856,2942.9,417.57142857142856,422.47767857142856,3051.3,417.57142857142856,422.47767857142856,3154.8,417.57142857142856,422.47767857142856,3255.7,417.57142857142856,422.47767857142856,3362.2,417.57142857142856,422.47767857142856,3469.5,417.57142857142856,422.47767857142856,3581.4,417.57142857142856,422.47767857142856,3683.1,417.57142857142856,422.47767857142856,3795.6,417.57142857142856,422.47767857142856,3897.4,417.57142857142856,422.47767857142856,4000.3,417.57142857142856,422.47767857142856,4107.5,417.57142857142856,422.47767857142856,4213.8,417.57142857142856,422.47767857142856,4319.9,417.57142857142856,422.47767857142856,4424.2,417.57142857142856,422.47767857142856,4526.9,417.57142857142856,422.47767857142856,4631.4,417.57142857142856,422.47767857142856,4731.8,417.57142857142856,422.47767857142856,4837,417.57142857142856,422.47767857142856,4946.9]","[1725.9,1725.9,1000,0,725.9,""smooth"",""down"",""down"",""good_move"",4897.1,3170.6,2492.8,1726.6,677.8,""oops"",""down"",""left"",""bad_move"",8149.8,3251.9,2770.8,4898,481,""oops"",""down"",""down"",""good_move"",11289.8,3138.7,2718,8151.2,420.7,""smooth"",""right"",""right"",""good_move"",13744.8,2451.2,2015,11293.6,436.2,""oops"",""right"",""left"",""bad_move"",24248,10502.2,3191.2,20484.3,572.5,""smooth"",""right"",""right"",""good_move"",27476.3,3227.9,2527.7,24248.4,700.2,""oops"",""right"",""right"",""good_move"",30473.6,2997,2518.6,27476.6,478.5,""smooth"",""right"",""right"",""good_move""]","",""
"5180","","<div style=""width:500px;"">
  <p>What determined the result of this run?</p>
  </div>","91","html-slider-response","74","1073664","0.0-10.0-1.6","176","1","2025-07-09 09:12:36","7701e855f2ef39aa3fd6c71abdc6918a","86.11.234.17","Mozilla/5.0 (Windows NT 10.0; Win64; x64) AppleWebKit/537.36 (KHTML, like Gecko) Chrome/138.0.0.0 Safari/537.36 Edg/138.0.0.0","WebKit","Edge","138.0.0.0","Windows","10.0","https://app.prolific.com/","en-GB,en;q=0.9,en-US;q=0.8","5bffc3ae4108380001f5cd63","686d226cabeef709c732f8e1","686e312c7437ae63dd79dfac","5bffc3ae4108380001f5cd63","2025-07-09T09:30:30.690Z","","","","","","AttribQ","","","","","","","","","","","","","","","","","","","","","","","","","","","","","","","","","","","","","","50"
"3988","","<div style=""width:500px;"">
  <p>How much control did you have over the ball?</p>
  </div>","92","html-slider-response","75","1077664","0.0-10.0-2.6","176","1","2025-07-09 09:12:36","7701e855f2ef39aa3fd6c71abdc6918a","86.11.234.17","Mozilla/5.0 (Windows NT 10.0; Win64; x64) AppleWebKit/537.36 (KHTML, like Gecko) Chrome/138.0.0.0 Safari/537.36 Edg/138.0.0.0","WebKit","Edge","138.0.0.0","Windows","10.0","https://app.prolific.com/","en-GB,en;q=0.9,en-US;q=0.8","5bffc3ae4108380001f5cd63","686d226cabeef709c732f8e1","686e312c7437ae63dd79dfac","5bffc3ae4108380001f5cd63","2025-07-09T09:30:34.690Z","","","","","","ControlQ","","","","","","","","","","","","","","","","","","","","","","","","","","","","","","","","","","","","","","50"
"5051","","<div style=""width:500px;"">
  <p>How would you describe your current emotional state?</p>
  </div>","49","html-slider-response","76","1082718","0.0-10.0-3.6","176","1","2025-07-09 09:12:36","7701e855f2ef39aa3fd6c71abdc6918a","86.11.234.17","Mozilla/5.0 (Windows NT 10.0; Win64; x64) AppleWebKit/537.36 (KHTML, like Gecko) Chrome/138.0.0.0 Safari/537.36 Edg/138.0.0.0","WebKit","Edge","138.0.0.0","Windows","10.0","https://app.prolific.com/","en-GB,en;q=0.9,en-US;q=0.8","5bffc3ae4108380001f5cd63","686d226cabeef709c732f8e1","686e312c7437ae63dd79dfac","5bffc3ae4108380001f5cd63","2025-07-09T09:30:39.743Z","","","","","","StressQ","","","","","","","","","","","","","","","","","","","","","","","","","","","","","","","","","","","","","","50"
"2953","","<div style=""width:500px;"">
  <p>What best describes how you currently feel?</p>
  </div>","94","html-slider-response","77","1085674","0.0-10.0-4.6","176","1","2025-07-09 09:12:36","7701e855f2ef39aa3fd6c71abdc6918a","86.11.234.17","Mozilla/5.0 (Windows NT 10.0; Win64; x64) AppleWebKit/537.36 (KHTML, like Gecko) Chrome/138.0.0.0 Safari/537.36 Edg/138.0.0.0","WebKit","Edge","138.0.0.0","Windows","10.0","https://app.prolific.com/","en-GB,en;q=0.9,en-US;q=0.8","5bffc3ae4108380001f5cd63","686d226cabeef709c732f8e1","686e312c7437ae63dd79dfac","5bffc3ae4108380001f5cd63","2025-07-09T09:30:42.699Z","","","","","","MotivationQ","","","","","","","","","","","","","","","","","","","","","","","","","","","","","","","","","","","","","","50"
"","","","","ctl-task-cpt","78","1158542","0.0-10.0-0.7","176","1","2025-07-09 09:12:36","7701e855f2ef39aa3fd6c71abdc6918a","86.11.234.17","Mozilla/5.0 (Windows NT 10.0; Win64; x64) AppleWebKit/537.36 (KHTML, like Gecko) Chrome/138.0.0.0 Safari/537.36 Edg/138.0.0.0","WebKit","Edge","138.0.0.0","Windows","10.0","https://app.prolific.com/","en-GB,en;q=0.9,en-US;q=0.8","5bffc3ae4108380001f5cd63","686d226cabeef709c732f8e1","686e312c7437ae63dd79dfac","5bffc3ae4108380001f5cd63","2025-07-09T09:31:55.567Z","","","","","","","","","","","","","","","","win-only","1","g1:NE,g2:SW","0.3","8","0","1087228.5","1263.8","6266.1","69846.6","1","4","8","6","1","-1","-1","5","6","0.03787878787878788","5002.3","3000","-1285","[""up"",""right""]","{""num_key_presses"":17,""num_perfect"":6,""num_errors"":0,""num_randdir"":11,""num_randdir_good_moves"":5,""num_whilered"":0,""num_whileblue"":0,""num_blue"":3,""num_good_moves"":10}","[417.57142857142856,418.47767857142856,1.6,417.57142857142856,418.47767857142856,100.1,417.57142857142856,418.47767857142856,229.9,417.57142857142856,418.47767857142856,331.5,417.57142857142856,418.47767857142856,458.4,417.57142857142856,418.47767857142856,580.8,417.57142857142856,418.47767857142856,708.1,417.57142857142856,418.47767857142856,825.7,417.57142857142856,418.47767857142856,946.8,417.57142857142856,418.47767857142856,1072.7,417.57142857142856,418.47767857142856,1183.3,417.57142857142856,418.47767857142856,1289.9,417.57142857142856,418.47767857142856,1409.2,417.57142857142856,418.47767857142856,1511,417.57142857142856,418.47767857142856,1613.3,417.57142857142856,418.47767857142856,1732.6,417.57142857142856,418.47767857142856,1833.9,417.57142857142856,418.47767857142856,1959.7,417.57142857142856,418.47767857142856,2079.7,417.57142857142856,418.47767857142856,2186.8,417.57142857142856,418.47767857142856,2300.6,417.57142857142856,418.47767857142856,2416.6,417.57142857142856,418.47767857142856,2528.3,417.57142857142856,418.47767857142856,2630.1,417.57142857142856,418.47767857142856,2750.3,417.57142857142856,418.47767857142856,2852.9,417.57142857142856,418.47767857142856,2953.8,417.57142857142856,418.47767857142856,3053.8,417.57142857142856,418.47767857142856,3181.4,417.57142857142856,418.47767857142856,3302.4,417.57142857142856,418.47767857142856,3413.4,417.57142857142856,418.47767857142856,3518.7,417.57142857142856,418.47767857142856,3651.5,417.57142857142856,418.47767857142856,3774.1,417.57142857142856,418.47767857142856,3877.2,417.57142857142856,418.47767857142856,3999.2,417.57142857142856,418.47767857142856,4114.6,417.57142857142856,418.47767857142856,4215.7,417.57142857142856,418.47767857142856,4318.2,417.57142857142856,418.47767857142856,4421,417.57142857142856,418.47767857142856,4541.8,417.57142857142856,418.47767857142856,4645.3,417.57142857142856,418.47767857142856,4746.3,417.57142857142856,418.47767857142856,4848.8,417.57142857142856,418.47767857142856,4950.8]","[5564.4,5564.4,3067.6,2025.6,471.3,""smooth"",""up"",""up"",""good_move"",13739,8174.1,2198.6,10949.6,590.8,""oops"",""up"",""down"",""bad_move"",17146.2,3406.7,2795.6,13739.5,611.1,""oops"",""up"",""down"",""bad_move"",20669.2,3522.7,3021.7,17146.6,500.9,""smooth"",""right"",""right"",""good_move"",23806,3136.4,2551.6,20669.6,584.8,""oops"",""up"",""right"",""good_move"",26747.5,2941.2,2288.3,23806.3,652.9,""oops"",""up"",""down"",""bad_move"",30068.3,3320.6,2810.7,26747.7,509.9,""oops"",""up"",""up"",""good_move"",33681.1,3612.6,2769.1,30068.6,843.5,""oops"",""up"",""down"",""bad_move"",36195.8,2513.6,1978,33682.3,535.5,""oops"",""up"",""down"",""bad_move"",38714.1,2517.7,1970.7,36196.5,547,""smooth"",""left"",""left"",""bad_move"",41691,2974.1,2488.9,38716.9,485.2,""oops"",""up"",""left"",""bad_move"",44529.3,2838,2366.6,41691.3,471.4,""smooth"",""up"",""up"",""good_move"",47413.2,2882.5,2490.1,44530.8,392.3,""oops"",""up"",""right"",""good_move"",53388,5971.8,2012.9,50957.1,418,""smooth"",""up"",""up"",""good_move"",55865.5,2476.7,1980.6,53388.8,496.1,""smooth"",""up"",""up"",""good_move"",57982.8,2117,1549.5,55865.9,567.4,""oops"",""up"",""up"",""good_move"",61270.6,3286,2847.9,57984.6,438.1,""oops"",""up"",""right"",""good_move""]","",""
"4143","","<div style=""width:500px;"">
  <p>What determined the result of this run?</p>
  </div>","5","html-slider-response","79","1162689","0.0-10.0-1.7","176","1","2025-07-09 09:12:36","7701e855f2ef39aa3fd6c71abdc6918a","86.11.234.17","Mozilla/5.0 (Windows NT 10.0; Win64; x64) AppleWebKit/537.36 (KHTML, like Gecko) Chrome/138.0.0.0 Safari/537.36 Edg/138.0.0.0","WebKit","Edge","138.0.0.0","Windows","10.0","https://app.prolific.com/","en-GB,en;q=0.9,en-US;q=0.8","5bffc3ae4108380001f5cd63","686d226cabeef709c732f8e1","686e312c7437ae63dd79dfac","5bffc3ae4108380001f5cd63","2025-07-09T09:31:59.715Z","","","","","","AttribQ","","","","","","","","","","","","","","","","","","","","","","","","","","","","","","","","","","","","","","50"
"5413","","<div style=""width:500px;"">
  <p>How much control did you have over the ball?</p>
  </div>","8","html-slider-response","80","1168105","0.0-10.0-2.7","176","1","2025-07-09 09:12:36","7701e855f2ef39aa3fd6c71abdc6918a","86.11.234.17","Mozilla/5.0 (Windows NT 10.0; Win64; x64) AppleWebKit/537.36 (KHTML, like Gecko) Chrome/138.0.0.0 Safari/537.36 Edg/138.0.0.0","WebKit","Edge","138.0.0.0","Windows","10.0","https://app.prolific.com/","en-GB,en;q=0.9,en-US;q=0.8","5bffc3ae4108380001f5cd63","686d226cabeef709c732f8e1","686e312c7437ae63dd79dfac","5bffc3ae4108380001f5cd63","2025-07-09T09:32:05.131Z","","","","","","ControlQ","","","","","","","","","","","","","","","","","","","","","","","","","","","","","","","","","","","","","","50"
"3793","","<div style=""width:500px;"">
  <p>How would you describe your current emotional state?</p>
  </div>","93","html-slider-response","81","1171903","0.0-10.0-3.7","176","1","2025-07-09 09:12:36","7701e855f2ef39aa3fd6c71abdc6918a","86.11.234.17","Mozilla/5.0 (Windows NT 10.0; Win64; x64) AppleWebKit/537.36 (KHTML, like Gecko) Chrome/138.0.0.0 Safari/537.36 Edg/138.0.0.0","WebKit","Edge","138.0.0.0","Windows","10.0","https://app.prolific.com/","en-GB,en;q=0.9,en-US;q=0.8","5bffc3ae4108380001f5cd63","686d226cabeef709c732f8e1","686e312c7437ae63dd79dfac","5bffc3ae4108380001f5cd63","2025-07-09T09:32:08.929Z","","","","","","StressQ","","","","","","","","","","","","","","","","","","","","","","","","","","","","","","","","","","","","","","50"
"5271","","<div style=""width:500px;"">
  <p>What best describes how you currently feel?</p>
  </div>","93","html-slider-response","82","1177180","0.0-10.0-4.7","176","1","2025-07-09 09:12:36","7701e855f2ef39aa3fd6c71abdc6918a","86.11.234.17","Mozilla/5.0 (Windows NT 10.0; Win64; x64) AppleWebKit/537.36 (KHTML, like Gecko) Chrome/138.0.0.0 Safari/537.36 Edg/138.0.0.0","WebKit","Edge","138.0.0.0","Windows","10.0","https://app.prolific.com/","en-GB,en;q=0.9,en-US;q=0.8","5bffc3ae4108380001f5cd63","686d226cabeef709c732f8e1","686e312c7437ae63dd79dfac","5bffc3ae4108380001f5cd63","2025-07-09T09:32:14.205Z","","","","","","MotivationQ","","","","","","","","","","","","","","","","","","","","","","","","","","","","","","","","","","","","","","50"
"","","","","ctl-task-cpt","83","1273851","0.0-10.0-0.8","176","1","2025-07-09 09:12:36","7701e855f2ef39aa3fd6c71abdc6918a","86.11.234.17","Mozilla/5.0 (Windows NT 10.0; Win64; x64) AppleWebKit/537.36 (KHTML, like Gecko) Chrome/138.0.0.0 Safari/537.36 Edg/138.0.0.0","WebKit","Edge","138.0.0.0","Windows","10.0","https://app.prolific.com/","en-GB,en;q=0.9,en-US;q=0.8","5bffc3ae4108380001f5cd63","686d226cabeef709c732f8e1","686e312c7437ae63dd79dfac","5bffc3ae4108380001f5cd63","2025-07-09T09:33:50.876Z","","","","","","","","","","","","","","","","win-only","2","g1:SE,g2:NW","0.2","9","0","1178738.5","8095.7","13108.8","93622.4","1","4","8","6","2","-8","-10","0","5","0","5013.1","3000","-575","[""left"",""up""]","{""num_key_presses"":21,""num_perfect"":3,""num_errors"":2,""num_randdir"":16,""num_randdir_good_moves"":8,""num_whilered"":0,""num_whileblue"":2,""num_blue"":3,""num_good_moves"":11}","[414.57142857142856,414.47767857142856,2.6,414.57142857142856,414.47767857142856,111.5,414.57142857142856,414.47767857142856,219.5,414.57142857142856,414.47767857142856,320,414.57142857142856,414.47767857142856,427.4,414.57142857142856,414.47767857142856,535.5,414.57142857142856,414.47767857142856,640.9,414.57142857142856,414.47767857142856,749.9,414.57142857142856,414.47767857142856,852,414.57142857142856,414.47767857142856,964.9,414.57142857142856,414.47767857142856,1069.7,414.57142857142856,414.47767857142856,1184.8,414.57142857142856,414.47767857142856,1302.3,414.57142857142856,414.47767857142856,1402.8,414.57142857142856,414.47767857142856,1506.1,414.57142857142856,414.47767857142856,1617,414.57142857142856,414.47767857142856,1718.6,414.57142857142856,414.47767857142856,1819.6,414.57142857142856,414.47767857142856,1930.8,414.57142857142856,414.47767857142856,2045.7,414.57142857142856,414.47767857142856,2153,414.57142857142856,414.47767857142856,2261,414.57142857142856,414.47767857142856,2373.5,414.57142857142856,414.47767857142856,2485,414.57142857142856,414.47767857142856,2593.8,414.57142857142856,414.47767857142856,2708.3,414.57142857142856,414.47767857142856,2816.5,414.57142857142856,414.47767857142856,2917.7,414.57142857142856,414.47767857142856,3022.9,414.57142857142856,414.47767857142856,3138.5,414.57142857142856,414.47767857142856,3254.6,414.57142857142856,414.47767857142856,3371.6,414.57142857142856,414.47767857142856,3474.7,414.57142857142856,414.47767857142856,3592.2,414.57142857142856,414.47767857142856,3697.6,414.57142857142856,414.47767857142856,3806.2,414.57142857142856,414.47767857142856,3910.9,414.57142857142856,414.47767857142856,4020.4,414.57142857142856,414.47767857142856,4128,414.57142857142856,414.47767857142856,4238.8,414.57142857142856,414.47767857142856,4347.6,414.57142857142856,414.47767857142856,4451,414.57142857142856,414.47767857142856,4562.8,414.57142857142856,414.47767857142856,4667,414.57142857142856,414.47767857142856,4767.3,414.57142857142856,414.47767857142856,4871.2,414.57142857142856,414.47767857142856,4980.8]","[1511.1,1511.1,1000,0,511.1,""smooth"",""up"",""up"",""good_move"",5102.1,3590.6,2327.8,1511.5,1262.8,""oops"",""up"",""right"",""bad_move"",8813.3,3710.8,3271.4,5102.6,439.3,""oops"",""up"",""up"",""good_move"",12745.4,3931.6,2495.1,8813.8,1436.5,""oops"",""up"",""up"",""good_move"",17098.9,4353.2,2656.3,12745.7,1696.9,""oops"",""left"",""left"",""good_move"",21661.2,4561.9,2785.4,17099.3,1776.5,""oops"",""left"",""left"",""good_move"",26460.3,4798.6,2593.7,21661.7,2204.9,""oops"",""left"",""right"",""bad_move"",29659.7,3199.2,2630.2,26460.6,569,""while_blue"",""left"",""down"",""bad_move"",33266.8,3605.4,2989,29661.7,616.4,""smooth"",""left"",""left"",""good_move"",36833.1,3564.3,3046,33268.8,518.3,""oops"",""left"",""right"",""bad_move"",39676.7,2842.7,2336.3,36834,506.4,""oops"",""left"",""up"",""good_move"",42608.2,2929.7,2452.3,39678.6,477.4,""oops"",""left"",""right"",""bad_move"",45583.5,2974.4,2559.3,42609.2,415.1,""while_blue"",""left"",""down"",""bad_move"",48606.4,3020.1,2531.5,45586.3,488.6,""oops"",""left"",""up"",""good_move"",51709.6,3102.9,1504.2,48606.7,1598.7,""oops"",""left"",""left"",""good_move"",55141.5,3431.4,1810,51710.1,1621.4,""oops"",""left"",""right"",""bad_move"",59165.6,4023.8,3092.6,55141.8,931.2,""oops"",""left"",""down"",""bad_move"",61525.3,2359.5,1856.5,59165.8,503,""oops"",""left"",""right"",""bad_move"",64510.1,2984.1,2168.8,61526.1,815.2,""oops"",""left"",""down"",""bad_move"",67803.5,3293.1,2777,64510.4,516.1,""smooth"",""left"",""left"",""good_move"",72516.6,4712.6,1346.4,67804,3366.2,""oops"",""left"",""up"",""good_move""]","",""
"4333","","<div style=""width:500px;"">
  <p>What determined the result of this run?</p>
  </div>","1","html-slider-response","84","1278186","0.0-10.0-1.8","176","1","2025-07-09 09:12:36","7701e855f2ef39aa3fd6c71abdc6918a","86.11.234.17","Mozilla/5.0 (Windows NT 10.0; Win64; x64) AppleWebKit/537.36 (KHTML, like Gecko) Chrome/138.0.0.0 Safari/537.36 Edg/138.0.0.0","WebKit","Edge","138.0.0.0","Windows","10.0","https://app.prolific.com/","en-GB,en;q=0.9,en-US;q=0.8","5bffc3ae4108380001f5cd63","686d226cabeef709c732f8e1","686e312c7437ae63dd79dfac","5bffc3ae4108380001f5cd63","2025-07-09T09:33:55.211Z","","","","","","AttribQ","","","","","","","","","","","","","","","","","","","","","","","","","","","","","","","","","","","","","","50"
