"rt","response_timestamp","stimulus","response","trial_type","trial_index","time_elapsed","internal_node_id","run_id","condition","recorded_at","source_code_version","ip","user_agent","device","browser","browser_version","platform","platform_version","referer","accept_language","PROLIFIC_PID","STUDY_ID","SESSION_ID","prolific_id","realtime","view_history","question_order","consent","success","question_id","eventType","responses","item_order","radio_event_ids","radio_event_times","key_event_times","mouse_event_times","straightlining","zigzagging","honeypot","which_type","canvas_config","goals_layout","control_level","trial_number","tutorial_trial_number","trial_start_time","phase1_start_time","phase2_start_time","phase3_start_time","goal_1_value","goal_1_distance","goal_2_value","goal_2_distance","goal_selected","outcome","outcome_total","participant_final_score","participant_initial_score","participant_final_score_prop","goal_choice_rt","allocated_time","allocated_time_remaining","goal_direction","counts","mouse_movements","key_presses","correct","slider_start"
"17863","1752052400074","<p style='font-size:40px;line-height:1.25'><strong>Welcome to the experiment!</strong></p><p style='font-size:1.1em;line-height:1.25'>Thank you for your interest in our experiment! Before you begin, it is important that we obtain your informed consent to participate in the study.</p><p style='font-size:1.1em;line-height:1.25'>On the next screen will be an <strong>information sheet</strong> for you to read. To participate in the study we need you to read this information sheet and the following consent form carefully. If you agree with all the statements, please click the <strong>I agree</strong> button.</p><p style='font-size:1.1em;line-height:1.25'>Press <strong>Next</strong> to read the information sheet.</p>","0","custom-html-button-response","0","17868","0.0-0.0","180","1","2025-07-09 09:13:00","7701e855f2ef39aa3fd6c71abdc6918a","105.245.180.43","Mozilla/5.0 (Windows NT 10.0; Win64; x64) AppleWebKit/537.36 (KHTML, like Gecko) Chrome/138.0.0.0 Safari/537.36 Edg/138.0.0.0","WebKit","Edge","138.0.0.0","Windows","10.0","https://app.prolific.com/","en-US,en;q=0.9","673e5bdd2e10e666f394780f","686d226cabeef709c732f8e1","686e3132b93feb81aca89863","673e5bdd2e10e666f394780f","2025-07-09T09:13:20.076Z","","","","","","","","","","","","","","","","","","","","","","","","","","","","","","","","","","","","","","","","","","","",""
"383691","","","","instructions","1","401544","0.0-1.0","180","1","2025-07-09 09:13:00","7701e855f2ef39aa3fd6c71abdc6918a","105.245.180.43","Mozilla/5.0 (Windows NT 10.0; Win64; x64) AppleWebKit/537.36 (KHTML, like Gecko) Chrome/138.0.0.0 Safari/537.36 Edg/138.0.0.0","WebKit","Edge","138.0.0.0","Windows","10.0","https://app.prolific.com/","en-US,en;q=0.9","673e5bdd2e10e666f394780f","686d226cabeef709c732f8e1","686e3132b93feb81aca89863","673e5bdd2e10e666f394780f","","[{""page_index"":0,""viewing_time"":375054},{""page_index"":1,""viewing_time"":8636}]","","","","","","","","","","","","","","","","","","","","","","","","","","","","","","","","","","","","","","","","","","",""
"15081","","","{""Q0"":"""",""Q1"":"""",""Q2"":"""",""Q3"":"""",""Q4"":"""",""Q5"":"""",""Q6"":""I agree""}","survey-multi-choice","2","416630","0.0-2.0","180","1","2025-07-09 09:13:00","7701e855f2ef39aa3fd6c71abdc6918a","105.245.180.43","Mozilla/5.0 (Windows NT 10.0; Win64; x64) AppleWebKit/537.36 (KHTML, like Gecko) Chrome/138.0.0.0 Safari/537.36 Edg/138.0.0.0","WebKit","Edge","138.0.0.0","Windows","10.0","https://app.prolific.com/","en-US,en;q=0.9","673e5bdd2e10e666f394780f","686d226cabeef709c732f8e1","686e3132b93feb81aca89863","673e5bdd2e10e666f394780f","","","[0,1,2,3,4,5,6]","true","","","","","","","","","","","","","","","","","","","","","","","","","","","","","","","","","","","","","","","","",""
"13962","","","","fullscreen","3","431602","0.0-4.0","180","1","2025-07-09 09:13:00","7701e855f2ef39aa3fd6c71abdc6918a","105.245.180.43","Mozilla/5.0 (Windows NT 10.0; Win64; x64) AppleWebKit/537.36 (KHTML, like Gecko) Chrome/138.0.0.0 Safari/537.36 Edg/138.0.0.0","WebKit","Edge","138.0.0.0","Windows","10.0","https://app.prolific.com/","en-US,en;q=0.9","673e5bdd2e10e666f394780f","686d226cabeef709c732f8e1","686e3132b93feb81aca89863","673e5bdd2e10e666f394780f","","","","","true","","","","","","","","","","","","","","","","","","","","","","","","","","","","","","","","","","","","","","","",""
"13551","1752052827363"," <p style='font-size:1.1em;line-height:1.25'>Thank you for completing the consent form and closing all other tabs.</p><p style='font-size:1.1em;line-height:1.25'>We will now invite you to fill in some demographic information and questionnaires, before starting the game.<br>This will take about 5 minutes.<br></p><p style='font-size:1.1em;line-height:1.25'>Press the <strong>Next</strong> button to continue.</p>","0","custom-html-button-response","4","445155","0.0-5.0","180","1","2025-07-09 09:13:00","7701e855f2ef39aa3fd6c71abdc6918a","105.245.180.43","Mozilla/5.0 (Windows NT 10.0; Win64; x64) AppleWebKit/537.36 (KHTML, like Gecko) Chrome/138.0.0.0 Safari/537.36 Edg/138.0.0.0","WebKit","Edge","138.0.0.0","Windows","10.0","https://app.prolific.com/","en-US,en;q=0.9","673e5bdd2e10e666f394780f","686d226cabeef709c732f8e1","686e3132b93feb81aca89863","673e5bdd2e10e666f394780f","2025-07-09T09:20:27.363Z","","","","","","","","","","","","","","","","","","","","","","","","","","","","","","","","","","","","","","","","","","","",""
"5177","","","{""age"":""28""}","survey-text","5","450339","0.0-6.0-0.0","180","1","2025-07-09 09:13:00","7701e855f2ef39aa3fd6c71abdc6918a","105.245.180.43","Mozilla/5.0 (Windows NT 10.0; Win64; x64) AppleWebKit/537.36 (KHTML, like Gecko) Chrome/138.0.0.0 Safari/537.36 Edg/138.0.0.0","WebKit","Edge","138.0.0.0","Windows","10.0","https://app.prolific.com/","en-US,en;q=0.9","673e5bdd2e10e666f394780f","686d226cabeef709c732f8e1","686e3132b93feb81aca89863","673e5bdd2e10e666f394780f","","","","","","0","demographics","","","","","","","","","","","","","","","","","","","","","","","","","","","","","","","","","","","","","",""
"5909","","","{""gender_identity"":""female/woman""}","survey-multi-choice","6","456250","0.0-6.0-1.0","180","1","2025-07-09 09:13:00","7701e855f2ef39aa3fd6c71abdc6918a","105.245.180.43","Mozilla/5.0 (Windows NT 10.0; Win64; x64) AppleWebKit/537.36 (KHTML, like Gecko) Chrome/138.0.0.0 Safari/537.36 Edg/138.0.0.0","WebKit","Edge","138.0.0.0","Windows","10.0","https://app.prolific.com/","en-US,en;q=0.9","673e5bdd2e10e666f394780f","686d226cabeef709c732f8e1","686e3132b93feb81aca89863","673e5bdd2e10e666f394780f","","","[0]","","","1","demographics","","","","","","","","","","","","","","","","","","","","","","","","","","","","","","","","","","","","","",""
"5521","","","{""assigned_sex"":""female""}","survey-multi-choice","7","461772","0.0-6.0-2.0","180","1","2025-07-09 09:13:00","7701e855f2ef39aa3fd6c71abdc6918a","105.245.180.43","Mozilla/5.0 (Windows NT 10.0; Win64; x64) AppleWebKit/537.36 (KHTML, like Gecko) Chrome/138.0.0.0 Safari/537.36 Edg/138.0.0.0","WebKit","Edge","138.0.0.0","Windows","10.0","https://app.prolific.com/","en-US,en;q=0.9","673e5bdd2e10e666f394780f","686d226cabeef709c732f8e1","686e3132b93feb81aca89863","673e5bdd2e10e666f394780f","","","[0]","","","2","demographics","","","","","","","","","","","","","","","","","","","","","","","","","","","","","","","","","","","","","",""
"5363","","","{""menstrual_cycle"":""Yes""}","survey-multi-choice","8","467137","0.0-6.0-3.0","180","1","2025-07-09 09:13:00","7701e855f2ef39aa3fd6c71abdc6918a","105.245.180.43","Mozilla/5.0 (Windows NT 10.0; Win64; x64) AppleWebKit/537.36 (KHTML, like Gecko) Chrome/138.0.0.0 Safari/537.36 Edg/138.0.0.0","WebKit","Edge","138.0.0.0","Windows","10.0","https://app.prolific.com/","en-US,en;q=0.9","673e5bdd2e10e666f394780f","686d226cabeef709c732f8e1","686e3132b93feb81aca89863","673e5bdd2e10e666f394780f","","","[0]","","","4","demographics","","","","","","","","","","","","","","","","","","","","","","","","","","","","","","","","","","","","","",""
"5180","","","{""education"":""Master's Degree (e.g., MSc)""}","survey-multi-choice","9","472320","0.0-6.0-4.0","180","1","2025-07-09 09:13:00","7701e855f2ef39aa3fd6c71abdc6918a","105.245.180.43","Mozilla/5.0 (Windows NT 10.0; Win64; x64) AppleWebKit/537.36 (KHTML, like Gecko) Chrome/138.0.0.0 Safari/537.36 Edg/138.0.0.0","WebKit","Edge","138.0.0.0","Windows","10.0","https://app.prolific.com/","en-US,en;q=0.9","673e5bdd2e10e666f394780f","686d226cabeef709c732f8e1","686e3132b93feb81aca89863","673e5bdd2e10e666f394780f","","","[0]","","","5","demographics","","","","","","","","","","","","","","","","","","","","","","","","","","","","","","","","","","","","","",""
"21283","","","{""education"":""Higher National Certificate""}","survey-multi-choice","10","493605","0.0-6.0-5.0","180","1","2025-07-09 09:13:00","7701e855f2ef39aa3fd6c71abdc6918a","105.245.180.43","Mozilla/5.0 (Windows NT 10.0; Win64; x64) AppleWebKit/537.36 (KHTML, like Gecko) Chrome/138.0.0.0 Safari/537.36 Edg/138.0.0.0","WebKit","Edge","138.0.0.0","Windows","10.0","https://app.prolific.com/","en-US,en;q=0.9","673e5bdd2e10e666f394780f","686d226cabeef709c732f8e1","686e3132b93feb81aca89863","673e5bdd2e10e666f394780f","2025-07-09T09:21:15.813Z","","[0]","","","6","demographics","","","","","","","","","","","","","","","","","","","","","","","","","","","","","","","","","","","","","",""
"22119","","","{""mental_health_condition"":""NO"",""mental_health_treatment"":""NO"",""psychiatric_medication"":""NO""}","survey-text","11","515729","0.0-7.0-0.0","180","1","2025-07-09 09:13:00","7701e855f2ef39aa3fd6c71abdc6918a","105.245.180.43","Mozilla/5.0 (Windows NT 10.0; Win64; x64) AppleWebKit/537.36 (KHTML, like Gecko) Chrome/138.0.0.0 Safari/537.36 Edg/138.0.0.0","WebKit","Edge","138.0.0.0","Windows","10.0","https://app.prolific.com/","en-US,en;q=0.9","673e5bdd2e10e666f394780f","686d226cabeef709c732f8e1","686e3132b93feb81aca89863","673e5bdd2e10e666f394780f","2025-07-09T09:21:37.937Z","","","","","1","mental_health","","","","","","","","","","","","","","","","","","","","","","","","","","","","","","","","","","","","","",""
"16085","","","{""depression_history"":[""Yes""]}","survey-multi-select","12","531819","0.0-7.0-1.0","180","1","2025-07-09 09:13:00","7701e855f2ef39aa3fd6c71abdc6918a","105.245.180.43","Mozilla/5.0 (Windows NT 10.0; Win64; x64) AppleWebKit/537.36 (KHTML, like Gecko) Chrome/138.0.0.0 Safari/537.36 Edg/138.0.0.0","WebKit","Edge","138.0.0.0","Windows","10.0","https://app.prolific.com/","en-US,en;q=0.9","673e5bdd2e10e666f394780f","686d226cabeef709c732f8e1","686e3132b93feb81aca89863","673e5bdd2e10e666f394780f","","","[0]","","","","mental_health","","","","","","","","","","","","","","","","","","","","","","","","","","","","","","","","","","","","","",""
"15200","","","{""depression_episodes"":""1-2"",""depression_recent"":""Within the past year""}","survey-multi-choice","13","547021","0.0-7.0-2.0-0.0","180","1","2025-07-09 09:13:00","7701e855f2ef39aa3fd6c71abdc6918a","105.245.180.43","Mozilla/5.0 (Windows NT 10.0; Win64; x64) AppleWebKit/537.36 (KHTML, like Gecko) Chrome/138.0.0.0 Safari/537.36 Edg/138.0.0.0","WebKit","Edge","138.0.0.0","Windows","10.0","https://app.prolific.com/","en-US,en;q=0.9","673e5bdd2e10e666f394780f","686d226cabeef709c732f8e1","686e3132b93feb81aca89863","673e5bdd2e10e666f394780f","2025-07-09T09:22:09.230Z","","[0,1]","","","3","mental_health","","","","","","","","","","","","","","","","","","","","","","","","","","","","","","","","","","","","","",""
"276666.30000019073","","","","survey-template","14","823694","0.0-7.0-3.0","180","1","2025-07-09 09:13:00","7701e855f2ef39aa3fd6c71abdc6918a","105.245.180.43","Mozilla/5.0 (Windows NT 10.0; Win64; x64) AppleWebKit/537.36 (KHTML, like Gecko) Chrome/138.0.0.0 Safari/537.36 Edg/138.0.0.0","WebKit","Edge","138.0.0.0","Windows","10.0","https://app.prolific.com/","en-US,en;q=0.9","673e5bdd2e10e666f394780f","686d226cabeef709c732f8e1","686e3132b93feb81aca89863","673e5bdd2e10e666f394780f","2025-07-09T09:26:45.902Z","","","","","","ius","{""Q01"":""1"",""Q02"":""2"",""Q03"":""2"",""Q04"":""3"",""Q05"":""2"",""Q06"":""0"",""Q07"":""0"",""Q08"":""0"",""Q09"":""2"",""Q10"":""0"",""Q11"":""0"",""Q12"":""3"",""Q13"":""1""}","[0,1,2,3,4,5,6,7,8,9,10,11,12]","[""Q01"",""Q02"",""Q03"",""Q04"",""Q05"",""Q05"",""Q06"",""Q06"",""Q07"",""Q08"",""Q09"",""Q10"",""Q11"",""Q12"",""Q13""]","[65264.60000014305,74140.10000014305,80901.30000019073,89521.40000009537,96901.60000014305,98493.90000009537,106397.20000004768,108282.30000019073,114409,125108.80000019073,136135.10000014305,239566.20000004768,243736.40000009537,252479.5,258631.20000004768]","[]","[65264.60000014305,74140.10000014305,80901.30000019073,89521.40000009537,96901.60000014305,98493.90000009537,106397.20000004768,108282.30000019073,114409,125108.80000019073,136135.10000014305,239566.20000004768,242703.5,243736.40000009537,252479.5,258631.20000004768,276663]","0.38461538461538464","0.25","0","","","","","","","","","","","","","","","","","","","","","","","","","","","","",""
"8735","1752053214639","<p style='font-size:1.1em;line-height:1.25'>In the following, we will ask you a few questions relating to your experiences over the past month.<br></p><p style='font-size:1.1em;line-height:1.25'>Press the <strong>Next</strong> button to continue.</p>","0","custom-html-button-response","15","832432","0.0-7.0-4.0","180","1","2025-07-09 09:13:00","7701e855f2ef39aa3fd6c71abdc6918a","105.245.180.43","Mozilla/5.0 (Windows NT 10.0; Win64; x64) AppleWebKit/537.36 (KHTML, like Gecko) Chrome/138.0.0.0 Safari/537.36 Edg/138.0.0.0","WebKit","Edge","138.0.0.0","Windows","10.0","https://app.prolific.com/","en-US,en;q=0.9","673e5bdd2e10e666f394780f","686d226cabeef709c732f8e1","686e3132b93feb81aca89863","673e5bdd2e10e666f394780f","2025-07-09T09:26:54.640Z","","","","","","","","","","","","","","","","","","","","","","","","","","","","","","","","","","","","","","","","","","","",""
"159080.69999980927","","","","survey-template","16","991517","0.0-7.0-5.0","180","1","2025-07-09 09:13:00","7701e855f2ef39aa3fd6c71abdc6918a","105.245.180.43","Mozilla/5.0 (Windows NT 10.0; Win64; x64) AppleWebKit/537.36 (KHTML, like Gecko) Chrome/138.0.0.0 Safari/537.36 Edg/138.0.0.0","WebKit","Edge","138.0.0.0","Windows","10.0","https://app.prolific.com/","en-US,en;q=0.9","673e5bdd2e10e666f394780f","686d226cabeef709c732f8e1","686e3132b93feb81aca89863","673e5bdd2e10e666f394780f","2025-07-09T09:29:33.725Z","","","","","","pss","{""Q01"":""2"",""Q02"":""2"",""Q03"":""3"",""Q04"":""3"",""Q05"":""3"",""Q06"":""2"",""Q07"":""3"",""Q08"":""3"",""Q09"":""4"",""Q10"":""4""}","[0,1,2,3,4,5,6,7,8,9]","[""Q01"",""Q02"",""Q03"",""Q04"",""Q05"",""Q06"",""Q07"",""Q08"",""Q08"",""Q09"",""Q09"",""Q10"",""Q10""]","[12754.199999809265,23442.799999952316,68013.19999980927,76976.19999980927,88163.89999985695,97151.09999990463,105371.29999995232,113275.89999985695,113470.79999995232,122762.5,142087.69999980927,152642.5,157726.39999985695]","[]","[0,12754.199999809265,21558.799999952316,23442.799999952316,68013.19999980927,76976.19999980927,88163.89999985695,97151.09999990463,105371.29999995232,113275.89999985695,113470.79999995232,122762.5,129888.79999995232,142087.69999980927,152642.5,156231.39999985695,157726.39999985695,159077]","0.4","0.3333333333333333","0","","","","","","","","","","","","","","","","","","","","","","","","","","","","",""
"32620","1752053406347","<p style='font-size:1.1em;line-height:1.25'>Thank you for your answers! Now we will ask you a few more questions relating to your feelings in the last 24 hours.<br></p><p style='font-size:1.1em;line-height:1.25'>Press the <strong>Next</strong> button to continue.</p>","0","custom-html-button-response","17","1024140","0.0-7.0-6.0","180","1","2025-07-09 09:13:00","7701e855f2ef39aa3fd6c71abdc6918a","105.245.180.43","Mozilla/5.0 (Windows NT 10.0; Win64; x64) AppleWebKit/537.36 (KHTML, like Gecko) Chrome/138.0.0.0 Safari/537.36 Edg/138.0.0.0","WebKit","Edge","138.0.0.0","Windows","10.0","https://app.prolific.com/","en-US,en;q=0.9","673e5bdd2e10e666f394780f","686d226cabeef709c732f8e1","686e3132b93feb81aca89863","673e5bdd2e10e666f394780f","2025-07-09T09:30:06.348Z","","","","","","","","","","","","","","","","","","","","","","","","","","","","","","","","","","","","","","","","","","","",""
"128130.90000009537","","","","survey-template","18","1152278","0.0-7.0-7.0","180","1","2025-07-09 09:13:00","7701e855f2ef39aa3fd6c71abdc6918a","105.245.180.43","Mozilla/5.0 (Windows NT 10.0; Win64; x64) AppleWebKit/537.36 (KHTML, like Gecko) Chrome/138.0.0.0 Safari/537.36 Edg/138.0.0.0","WebKit","Edge","138.0.0.0","Windows","10.0","https://app.prolific.com/","en-US,en;q=0.9","673e5bdd2e10e666f394780f","686d226cabeef709c732f8e1","686e3132b93feb81aca89863","673e5bdd2e10e666f394780f","2025-07-09T09:32:14.487Z","","","","","","drsp","{""Q01"":""1"",""Q02"":""0"",""Q03"":""0"",""Q04"":""0"",""Q05"":""1"",""Q06"":""1"",""Q07"":""1"",""Q08"":""0"",""Q09"":""1"",""Q10"":""1"",""Q11"":""1"",""Q12"":""3"",""Q13"":""2"",""Q14"":""1"",""Q15"":""2"",""Q16"":""3"",""Q17"":""1"",""Q18"":""1"",""Q19"":""2"",""Q20"":""1"",""Q21"":""1""}","[0,1,2,3,4,5,6,7,8,9,10,11,12,13,14,15,16,17,18,19,20]","[""Q01"",""Q02"",""Q03"",""Q04"",""Q05"",""Q06"",""Q06"",""Q07"",""Q08"",""Q09"",""Q10"",""Q11"",""Q12"",""Q13"",""Q14"",""Q15"",""Q15"",""Q16"",""Q17"",""Q18"",""Q19"",""Q20"",""Q21""]","[13164.100000143051,18977.10000014305,23525.300000190735,25969.400000095367,30456.200000047684,35259.300000190735,37678.90000009537,42932.300000190735,45340.700000047684,48416.800000190735,52308.90000009537,58218.200000047684,62035.5,64904.700000047684,72322.70000004768,78889.90000009537,80968.70000004768,86416.5,92824.10000014305,98673.80000019073,111538.5,119648.80000019073,126763.20000004768]","[]","[0,13164.100000143051,18977.10000014305,23525.300000190735,25969.400000095367,30456.200000047684,35259.300000190735,37678.90000009537,42932.300000190735,45340.700000047684,48416.800000190735,52308.90000009537,58218.200000047684,62035.5,64904.700000047684,72322.70000004768,78889.90000009537,80968.70000004768,86416.5,92824.10000014305,98673.80000019073,111538.5,119648.80000019073,126763.20000004768,128125.70000004768]","0.5714285714285714","0.5","0","","","","","","","","","","","","","","","","","","","","","","","","","","","","",""
"21525.799999952316","","","","survey-template","19","1173807","0.0-7.0-8.0","180","1","2025-07-09 09:13:00","7701e855f2ef39aa3fd6c71abdc6918a","105.245.180.43","Mozilla/5.0 (Windows NT 10.0; Win64; x64) AppleWebKit/537.36 (KHTML, like Gecko) Chrome/138.0.0.0 Safari/537.36 Edg/138.0.0.0","WebKit","Edge","138.0.0.0","Windows","10.0","https://app.prolific.com/","en-US,en;q=0.9","673e5bdd2e10e666f394780f","686d226cabeef709c732f8e1","686e3132b93feb81aca89863","673e5bdd2e10e666f394780f","2025-07-09T09:32:36.015Z","","","","","","stress","{""Q01"":""2"",""Q02"":""5"",""Q03"":""1""}","[0,1,2]","[""Q01"",""Q02"",""Q03""]","[5703.899999856949,10702.399999856949,19870.39999985695]","[]","[5703.899999856949,10702.399999856949,19870.39999985695,21524.5]","0.3333333333333333","0.5","0","","","","","","","","","","","","","","","","","","","","","","","","","","","","",""
"350251","","","","instructions","20","1524074","0.0-8.0-0.0","180","1","2025-07-09 09:13:00","7701e855f2ef39aa3fd6c71abdc6918a","105.245.180.43","Mozilla/5.0 (Windows NT 10.0; Win64; x64) AppleWebKit/537.36 (KHTML, like Gecko) Chrome/138.0.0.0 Safari/537.36 Edg/138.0.0.0","WebKit","Edge","138.0.0.0","Windows","10.0","https://app.prolific.com/","en-US,en;q=0.9","673e5bdd2e10e666f394780f","686d226cabeef709c732f8e1","686e3132b93feb81aca89863","673e5bdd2e10e666f394780f","","[{""page_index"":0,""viewing_time"":163184},{""page_index"":1,""viewing_time"":74663},{""page_index"":2,""viewing_time"":37132},{""page_index"":3,""viewing_time"":75272}]","","","","","","","","","","","","","","","","","","","","","","","","","","","","","","","","","","","","","","","","","","",""
"","","","","ctl-task-cpt","21","1546055","0.0-8.0-1.0","180","1","2025-07-09 09:13:00","7701e855f2ef39aa3fd6c71abdc6918a","105.245.180.43","Mozilla/5.0 (Windows NT 10.0; Win64; x64) AppleWebKit/537.36 (KHTML, like Gecko) Chrome/138.0.0.0 Safari/537.36 Edg/138.0.0.0","WebKit","Edge","138.0.0.0","Windows","10.0","https://app.prolific.com/","en-US,en;q=0.9","673e5bdd2e10e666f394780f","686d226cabeef709c732f8e1","686e3132b93feb81aca89863","673e5bdd2e10e666f394780f","","","","","","","","","","","","","","","","","win-only","1","g1:NE,g2:SW","1","0","1","1528092.3","9916.1","13917.9","18952","2","4","4","6","2","-4","-4","0","0","0","4001.6","4000","-3000","[""down"",""left""]","{""num_key_presses"":0,""num_perfect"":0,""num_errors"":0,""num_randdir"":0,""num_randdir_good_moves"":0,""num_whilered"":0,""num_whileblue"":0,""num_blue"":0,""num_good_moves"":0}","[296.22232142857143,296.12857142857143,14.4,296.22232142857143,296.12857142857143,100.3,296.22232142857143,296.12857142857143,200.3,296.22232142857143,296.12857142857143,305.1,296.22232142857143,296.12857142857143,406.6,296.22232142857143,296.12857142857143,510.3,296.22232142857143,296.12857142857143,610.7,296.22232142857143,294.12857142857143,710.7,305.22232142857143,276.12857142857143,816.2,325.22232142857143,255.12857142857143,916.3,344.22232142857143,240.12857142857143,1019.8,355.22232142857143,243.12857142857143,1119.9,357.22232142857143,255.12857142857143,1220.5,357.22232142857143,255.12857142857143,1320.5,358.22232142857143,255.12857142857143,1420.7,357.22232142857143,255.12857142857143,1526,356.22232142857143,256.12857142857143,1629.8,356.22232142857143,256.12857142857143,1730.5,356.22232142857143,256.12857142857143,1835,356.22232142857143,256.12857142857143,1935.9,355.22232142857143,256.12857142857143,2044.9,354.22232142857143,257.12857142857143,2144.9,354.22232142857143,257.12857142857143,2245,354.22232142857143,257.12857142857143,2345.5,354.22232142857143,257.12857142857143,2450.5,354.22232142857143,257.12857142857143,2550.9,354.22232142857143,257.12857142857143,2655.7,354.22232142857143,257.12857142857143,2760.7,354.22232142857143,257.12857142857143,2866.1,354.22232142857143,257.12857142857143,2971.5,354.22232142857143,257.12857142857143,3075.2,354.22232142857143,257.12857142857143,3175.8,354.22232142857143,257.12857142857143,3275.8,354.22232142857143,257.12857142857143,3380.1,354.22232142857143,257.12857142857143,3480.2,354.22232142857143,257.12857142857143,3581,354.22232142857143,257.12857142857143,3681.2,354.22232142857143,257.12857142857143,3784.7,354.22232142857143,257.12857142857143,3885.2,354.22232142857143,257.12857142857143,3990]","[]","",""
"35142","","","","instructions","22","1581198","0.0-8.0-2.0","180","1","2025-07-09 09:13:00","7701e855f2ef39aa3fd6c71abdc6918a","105.245.180.43","Mozilla/5.0 (Windows NT 10.0; Win64; x64) AppleWebKit/537.36 (KHTML, like Gecko) Chrome/138.0.0.0 Safari/537.36 Edg/138.0.0.0","WebKit","Edge","138.0.0.0","Windows","10.0","https://app.prolific.com/","en-US,en;q=0.9","673e5bdd2e10e666f394780f","686d226cabeef709c732f8e1","686e3132b93feb81aca89863","673e5bdd2e10e666f394780f","","[{""page_index"":0,""viewing_time"":35142}]","","","","","","","","","","","","","","","","","","","","","","","","","","","","","","","","","","","","","","","","","","",""
"","","","","ctl-task-cpt","23","1596377","0.0-8.0-3.0","180","1","2025-07-09 09:13:00","7701e855f2ef39aa3fd6c71abdc6918a","105.245.180.43","Mozilla/5.0 (Windows NT 10.0; Win64; x64) AppleWebKit/537.36 (KHTML, like Gecko) Chrome/138.0.0.0 Safari/537.36 Edg/138.0.0.0","WebKit","Edge","138.0.0.0","Windows","10.0","https://app.prolific.com/","en-US,en;q=0.9","673e5bdd2e10e666f394780f","686d226cabeef709c732f8e1","686e3132b93feb81aca89863","673e5bdd2e10e666f394780f","","","","","","","","","","","","","","","","","win-only","1","g1:NE,g2:SW","0.35","0","3","1585200.5","3118.1","7121.8","12157.1","2","4","8","6","2","-8","-8","0","0","0","4003.5","4000","-3015","[""down"",""left""]","{""num_key_presses"":0,""num_perfect"":0,""num_errors"":0,""num_randdir"":0,""num_randdir_good_moves"":0,""num_whilered"":0,""num_whileblue"":0,""num_blue"":0,""num_good_moves"":0}","[296.22232142857143,290.12857142857143,0.7,296.22232142857143,290.12857142857143,104.2,296.22232142857143,290.12857142857143,207.5,296.22232142857143,290.12857142857143,307.9,296.22232142857143,290.12857142857143,409.2,297.22232142857143,289.12857142857143,513.4,359.22232142857143,278.12857142857143,613.7,377.22232142857143,282.12857142857143,713.7,373.22232142857143,282.12857142857143,818.3,368.22232142857143,273.12857142857143,918.5,365.22232142857143,266.12857142857143,1018.6,365.22232142857143,266.12857142857143,1124.3,365.22232142857143,266.12857142857143,1229.4,365.22232142857143,266.12857142857143,1334.2,365.22232142857143,266.12857142857143,1434.5,363.22232142857143,264.12857142857143,1537.8,362.22232142857143,262.12857142857143,1642.7,361.22232142857143,261.12857142857143,1743.9,361.22232142857143,261.12857142857143,1848.8,361.22232142857143,261.12857142857143,1953.7,361.22232142857143,261.12857142857143,2054.4,361.22232142857143,261.12857142857143,2158.6,361.22232142857143,261.12857142857143,2262.9,361.22232142857143,261.12857142857143,2362.9,361.22232142857143,261.12857142857143,2463.2,361.22232142857143,261.12857142857143,2569,361.22232142857143,261.12857142857143,2672.6,361.22232142857143,261.12857142857143,2773.9,361.22232142857143,261.12857142857143,2877.7,361.22232142857143,261.12857142857143,2977.9,361.22232142857143,261.12857142857143,3083,361.22232142857143,261.12857142857143,3188.4,361.22232142857143,261.12857142857143,3289.1,361.22232142857143,261.12857142857143,3392.8,354.22232142857143,255.12857142857143,3494.8,352.22232142857143,250.12857142857143,3599.2,352.22232142857143,251.12857142857143,3703.1,352.22232142857143,251.12857142857143,3803.8,352.22232142857143,251.12857142857143,3904.4]","[]","",""
"78673","","","","instructions","24","1675051","0.0-8.0-4.0","180","1","2025-07-09 09:13:00","7701e855f2ef39aa3fd6c71abdc6918a","105.245.180.43","Mozilla/5.0 (Windows NT 10.0; Win64; x64) AppleWebKit/537.36 (KHTML, like Gecko) Chrome/138.0.0.0 Safari/537.36 Edg/138.0.0.0","WebKit","Edge","138.0.0.0","Windows","10.0","https://app.prolific.com/","en-US,en;q=0.9","673e5bdd2e10e666f394780f","686d226cabeef709c732f8e1","686e3132b93feb81aca89863","673e5bdd2e10e666f394780f","","[{""page_index"":0,""viewing_time"":18599},{""page_index"":1,""viewing_time"":60073}]","","","","","","","","","","","","","","","","","","","","","","","","","","","","","","","","","","","","","","","","","","",""
"40152","","","{""green_ball"":[""Ball sometimes shakes and moves in a random direction""]}","survey-multi-select","25","1715208","0.0-8.0-5.0-0.0","180","1","2025-07-09 09:13:00","7701e855f2ef39aa3fd6c71abdc6918a","105.245.180.43","Mozilla/5.0 (Windows NT 10.0; Win64; x64) AppleWebKit/537.36 (KHTML, like Gecko) Chrome/138.0.0.0 Safari/537.36 Edg/138.0.0.0","WebKit","Edge","138.0.0.0","Windows","10.0","https://app.prolific.com/","en-US,en;q=0.9","673e5bdd2e10e666f394780f","686d226cabeef709c732f8e1","686e3132b93feb81aca89863","673e5bdd2e10e666f394780f","","","[0]","","","","quiz","","","","","","","","","","","","","","","","","","","","","","","","","","","","","","","","","","","","","true",""
"16738","","<p align='center'><b>CORRECT!</b> Indeed, the green ball may sometimes shake and move in a random direction.</p>","0","html-button-response","26","1731950","0.0-8.0-5.0-1.0","180","1","2025-07-09 09:13:00","7701e855f2ef39aa3fd6c71abdc6918a","105.245.180.43","Mozilla/5.0 (Windows NT 10.0; Win64; x64) AppleWebKit/537.36 (KHTML, like Gecko) Chrome/138.0.0.0 Safari/537.36 Edg/138.0.0.0","WebKit","Edge","138.0.0.0","Windows","10.0","https://app.prolific.com/","en-US,en;q=0.9","673e5bdd2e10e666f394780f","686d226cabeef709c732f8e1","686e3132b93feb81aca89863","673e5bdd2e10e666f394780f","","","","","","","","","","","","","","","","","","","","","","","","","","","","","","","","","","","","","","","","","","","","",""
"11904","","","{""yellow_ball"":[""Ball doesn‘t move and I get -1 penalty point""]}","survey-multi-select","27","1743858","0.0-8.0-6.0-0.0","180","1","2025-07-09 09:13:00","7701e855f2ef39aa3fd6c71abdc6918a","105.245.180.43","Mozilla/5.0 (Windows NT 10.0; Win64; x64) AppleWebKit/537.36 (KHTML, like Gecko) Chrome/138.0.0.0 Safari/537.36 Edg/138.0.0.0","WebKit","Edge","138.0.0.0","Windows","10.0","https://app.prolific.com/","en-US,en;q=0.9","673e5bdd2e10e666f394780f","686d226cabeef709c732f8e1","686e3132b93feb81aca89863","673e5bdd2e10e666f394780f","","","[0]","","","","quiz","","","","","","","","","","","","","","","","","","","","","","","","","","","","","","","","","","","","","true",""
"7366","","<p align='center'><b>CORRECT!</b> Indeed, the yellow ball never moves and you receive a penalty.</p>","0","html-button-response","28","1751227","0.0-8.0-6.0-1.0","180","1","2025-07-09 09:13:00","7701e855f2ef39aa3fd6c71abdc6918a","105.245.180.43","Mozilla/5.0 (Windows NT 10.0; Win64; x64) AppleWebKit/537.36 (KHTML, like Gecko) Chrome/138.0.0.0 Safari/537.36 Edg/138.0.0.0","WebKit","Edge","138.0.0.0","Windows","10.0","https://app.prolific.com/","en-US,en;q=0.9","673e5bdd2e10e666f394780f","686d226cabeef709c732f8e1","686e3132b93feb81aca89863","673e5bdd2e10e666f394780f","","","","","","","","","","","","","","","","","","","","","","","","","","","","","","","","","","","","","","","","","","","","",""
"11682","","","{""blue_ball"":[""Ball always shakes and moves in a random direction""]}","survey-multi-select","29","1762913","0.0-8.0-7.0-0.0","180","1","2025-07-09 09:13:00","7701e855f2ef39aa3fd6c71abdc6918a","105.245.180.43","Mozilla/5.0 (Windows NT 10.0; Win64; x64) AppleWebKit/537.36 (KHTML, like Gecko) Chrome/138.0.0.0 Safari/537.36 Edg/138.0.0.0","WebKit","Edge","138.0.0.0","Windows","10.0","https://app.prolific.com/","en-US,en;q=0.9","673e5bdd2e10e666f394780f","686d226cabeef709c732f8e1","686e3132b93feb81aca89863","673e5bdd2e10e666f394780f","","","[0]","","","","quiz","","","","","","","","","","","","","","","","","","","","","","","","","","","","","","","","","","","","","true",""
"1627","","<p align='center'><b>CORRECT!</b> Indeed, the blue ball always shakes and moves in a random direction. Also there is a penalty of -1 point.</p>","0","html-button-response","30","1764542","0.0-8.0-7.0-1.0","180","1","2025-07-09 09:13:00","7701e855f2ef39aa3fd6c71abdc6918a","105.245.180.43","Mozilla/5.0 (Windows NT 10.0; Win64; x64) AppleWebKit/537.36 (KHTML, like Gecko) Chrome/138.0.0.0 Safari/537.36 Edg/138.0.0.0","WebKit","Edge","138.0.0.0","Windows","10.0","https://app.prolific.com/","en-US,en;q=0.9","673e5bdd2e10e666f394780f","686d226cabeef709c732f8e1","686e3132b93feb81aca89863","673e5bdd2e10e666f394780f","","","","","","","","","","","","","","","","","","","","","","","","","","","","","","","","","","","","","","","","","","","","",""
"10721","","","{""bonus"":[""When I reach 50% of points""]}","survey-multi-select","31","1775266","0.0-8.0-8.0-0.0","180","1","2025-07-09 09:13:00","7701e855f2ef39aa3fd6c71abdc6918a","105.245.180.43","Mozilla/5.0 (Windows NT 10.0; Win64; x64) AppleWebKit/537.36 (KHTML, like Gecko) Chrome/138.0.0.0 Safari/537.36 Edg/138.0.0.0","WebKit","Edge","138.0.0.0","Windows","10.0","https://app.prolific.com/","en-US,en;q=0.9","673e5bdd2e10e666f394780f","686d226cabeef709c732f8e1","686e3132b93feb81aca89863","673e5bdd2e10e666f394780f","","","[0]","","","","quiz","","","","","","","","","","","","","","","","","","","","","","","","","","","","","","","","","","","","","true",""
"2345","","<p align='center'><b>CORRECT!</b> Indeed, you receive 2 pounds extra when you reach 50% of points.</p>","0","html-button-response","32","1777614","0.0-8.0-8.0-1.0","180","1","2025-07-09 09:13:00","7701e855f2ef39aa3fd6c71abdc6918a","105.245.180.43","Mozilla/5.0 (Windows NT 10.0; Win64; x64) AppleWebKit/537.36 (KHTML, like Gecko) Chrome/138.0.0.0 Safari/537.36 Edg/138.0.0.0","WebKit","Edge","138.0.0.0","Windows","10.0","https://app.prolific.com/","en-US,en;q=0.9","673e5bdd2e10e666f394780f","686d226cabeef709c732f8e1","686e3132b93feb81aca89863","673e5bdd2e10e666f394780f","","","","","","","","","","","","","","","","","","","","","","","","","","","","","","","","","","","","","","","","","","","","",""
"4024","","","","instructions","33","1781639","0.0-8.0-9.0","180","1","2025-07-09 09:13:00","7701e855f2ef39aa3fd6c71abdc6918a","105.245.180.43","Mozilla/5.0 (Windows NT 10.0; Win64; x64) AppleWebKit/537.36 (KHTML, like Gecko) Chrome/138.0.0.0 Safari/537.36 Edg/138.0.0.0","WebKit","Edge","138.0.0.0","Windows","10.0","https://app.prolific.com/","en-US,en;q=0.9","673e5bdd2e10e666f394780f","686d226cabeef709c732f8e1","686e3132b93feb81aca89863","673e5bdd2e10e666f394780f","","[{""page_index"":0,""viewing_time"":4023}]","","","","","","","","","","","","","","","","","","","","","","","","","","","","","","","","","","","","","","","","","","",""
"17432","","<p>Before you start with this game please answer the following three questions yourself. </p>
  <p>Through this game, we measure several aspects of your cognitive performance, such as reaction times, multi-tasking capabilities </p>
  <p>and the ability to assess the situation you are in.</p>
  <p></p>
  <p><b>How good do you usually are in such tasks?</b></p>","97","html-slider-response","34","1799089","0.0-9.0-0.0","180","1","2025-07-09 09:13:00","7701e855f2ef39aa3fd6c71abdc6918a","105.245.180.43","Mozilla/5.0 (Windows NT 10.0; Win64; x64) AppleWebKit/537.36 (KHTML, like Gecko) Chrome/138.0.0.0 Safari/537.36 Edg/138.0.0.0","WebKit","Edge","138.0.0.0","Windows","10.0","https://app.prolific.com/","en-US,en;q=0.9","673e5bdd2e10e666f394780f","686d226cabeef709c732f8e1","686e3132b93feb81aca89863","673e5bdd2e10e666f394780f","2025-07-09T09:43:01.298Z","","","","","","PreSkillQ","","","","","","","","","","","","","","","","","","","","","","","","","","","","","","","","","","","","","","50"
"6502","","<div style=""width:500px;"">
  <p>How well do you think you will perform in this task compared to other participants?</p>
  </div>","50","html-slider-response","35","1805594","0.0-9.0-1.0","180","1","2025-07-09 09:13:00","7701e855f2ef39aa3fd6c71abdc6918a","105.245.180.43","Mozilla/5.0 (Windows NT 10.0; Win64; x64) AppleWebKit/537.36 (KHTML, like Gecko) Chrome/138.0.0.0 Safari/537.36 Edg/138.0.0.0","WebKit","Edge","138.0.0.0","Windows","10.0","https://app.prolific.com/","en-US,en;q=0.9","673e5bdd2e10e666f394780f","686d226cabeef709c732f8e1","686e3132b93feb81aca89863","673e5bdd2e10e666f394780f","2025-07-09T09:43:07.802Z","","","","","","PrePerfQ","","","","","","","","","","","","","","","","","","","","","","","","","","","","","","","","","","","","","","50"
"4425","","<div style=""width:500px;"">
  <p>What best describes how you currently feel?</p>
  </div>","89","html-slider-response","36","1810020","0.0-9.0-2.0","180","1","2025-07-09 09:13:00","7701e855f2ef39aa3fd6c71abdc6918a","105.245.180.43","Mozilla/5.0 (Windows NT 10.0; Win64; x64) AppleWebKit/537.36 (KHTML, like Gecko) Chrome/138.0.0.0 Safari/537.36 Edg/138.0.0.0","WebKit","Edge","138.0.0.0","Windows","10.0","https://app.prolific.com/","en-US,en;q=0.9","673e5bdd2e10e666f394780f","686d226cabeef709c732f8e1","686e3132b93feb81aca89863","673e5bdd2e10e666f394780f","2025-07-09T09:43:12.228Z","","","","","","PreMotivationQ","","","","","","","","","","","","","","","","","","","","","","","","","","","","","","","","","","","","","","50"
"","","","","ctl-task-cpt","37","1857301","0.0-10.0-0.0","180","1","2025-07-09 09:13:00","7701e855f2ef39aa3fd6c71abdc6918a","105.245.180.43","Mozilla/5.0 (Windows NT 10.0; Win64; x64) AppleWebKit/537.36 (KHTML, like Gecko) Chrome/138.0.0.0 Safari/537.36 Edg/138.0.0.0","WebKit","Edge","138.0.0.0","Windows","10.0","https://app.prolific.com/","en-US,en;q=0.9","673e5bdd2e10e666f394780f","686d226cabeef709c732f8e1","686e3132b93feb81aca89863","673e5bdd2e10e666f394780f","2025-07-09T09:43:59.509Z","","","","","","","","","","","","","","","","win-only","2","g1:SE,g2:NW","1","1","0","1814021.7","5164.6","10169.7","44263.8","1","4","4","6","2","-4","-13","0","0","0","5005.1","3000","-2930","[""left"",""up""]","{""num_key_presses"":20,""num_perfect"":4,""num_errors"":9,""num_randdir"":0,""num_randdir_good_moves"":0,""num_whilered"":7,""num_whileblue"":0,""num_blue"":1,""num_good_moves"":2}","[299.22232142857143,294.12857142857143,0.7,299.22232142857143,294.12857142857143,102.2,299.22232142857143,294.12857142857143,207.8,299.22232142857143,294.12857142857143,312.2,299.22232142857143,294.12857142857143,414.5,299.22232142857143,294.12857142857143,514.6,299.22232142857143,294.12857142857143,617.7,299.22232142857143,294.12857142857143,718.7,299.22232142857143,294.12857142857143,822.7,299.22232142857143,294.12857142857143,924.3,299.22232142857143,294.12857142857143,1024.3,301.22232142857143,294.12857142857143,1128,318.22232142857143,317.12857142857143,1228.3,334.22232142857143,345.12857142857143,1328.5,340.22232142857143,352.12857142857143,1432.2,340.22232142857143,351.12857142857143,1538.8,340.22232142857143,350.12857142857143,1642.6,340.22232142857143,350.12857142857143,1743.3,340.22232142857143,350.12857142857143,1843.7,340.22232142857143,350.12857142857143,1947.6,340.22232142857143,350.12857142857143,2047.7,340.22232142857143,350.12857142857143,2152.8,340.22232142857143,350.12857142857143,2253,340.22232142857143,350.12857142857143,2354.8,340.22232142857143,350.12857142857143,2458.8,340.22232142857143,350.12857142857143,2563.7,340.22232142857143,350.12857142857143,2667.6,340.22232142857143,350.12857142857143,2768.1,340.22232142857143,350.12857142857143,2870.3,340.22232142857143,350.12857142857143,2972,340.22232142857143,350.12857142857143,3076.6,340.22232142857143,350.12857142857143,3177.2,340.22232142857143,350.12857142857143,3281.1,340.22232142857143,350.12857142857143,3383.1,340.22232142857143,350.12857142857143,3484.5,340.22232142857143,350.12857142857143,3587.5,340.22232142857143,350.12857142857143,3688.8,340.22232142857143,350.12857142857143,3791.6,340.22232142857143,350.12857142857143,3891.7,340.22232142857143,350.12857142857143,3993.5,340.22232142857143,350.12857142857143,4093.7,340.22232142857143,350.12857142857143,4196.8,340.22232142857143,350.12857142857143,4297.4,340.22232142857143,350.12857142857143,4403.1,340.22232142857143,350.12857142857143,4507.8,340.22232142857143,350.12857142857143,4611.6,340.22232142857143,350.12857142857143,4717.3,340.22232142857143,350.12857142857143,4822,340.22232142857143,350.12857142857143,4925.9]","[2014.2,2014.2,1000,0,1014.2,""smooth"",""right"",""right"",""bad_move"",2799.3,783.7,2186.6,2015.7,-1402.9,""error"",""-"",""-"",""no_move"",3020.5,220.7,2186.6,2015.7,-1181.8,""while_red"",""-"",""-"",""no_move"",3172.3,372.5,2186.6,2015.7,-1030,""while_red"",""-"",""-"",""no_move"",3345.4,545.6,2186.6,2015.7,-856.9,""while_red"",""-"",""-"",""no_move"",3537.5,737.7,2186.6,2015.7,-664.8,""while_red"",""-"",""-"",""no_move"",3835.8,1036,2410.7,3803.8,-2378.7,""error"",""-"",""-"",""no_move"",8618.8,4782.5,2719.3,4837.8,1061.7,""smooth"",""right"",""right"",""bad_move"",9964.5,1345.3,2567.7,8619.3,-1222.4,""error"",""-"",""-"",""no_move"",12231.9,2266.9,2949.5,10967,-1684.5,""error"",""-"",""-"",""no_move"",15736.4,3503.7,2101.6,13234.2,400.6,""smooth"",""left"",""left"",""good_move"",15922.4,185.1,2458.9,15737.3,-2273.8,""error"",""-"",""-"",""no_move"",16046,122.9,2458.9,15737.3,-2150.2,""while_red"",""-"",""-"",""no_move"",16173.1,250,2458.9,15737.3,-2023.1,""while_red"",""-"",""-"",""no_move"",16320.4,397.3,2458.9,15737.3,-1875.7,""while_red"",""-"",""-"",""no_move"",17633.2,1710.2,2441.7,16923.8,-1732.2,""error"",""-"",""-"",""no_move"",23667.2,6033.4,3095.6,22372.3,-1800.6,""error"",""-"",""-"",""no_move"",25332.4,1664.7,2274.3,24667.9,-1609.8,""error"",""-"",""-"",""no_move"",29393.1,4059.8,2652.2,26333.7,407.2,""smooth"",""left"",""left"",""good_move"",29824.7,431,2413.8,29393.7,-1982.8,""error"",""-"",""-"",""no_move""]","",""
"7801","","<div style=""width:500px;"">
  <p>What determined the result of this run?</p>
  </div>","93","html-slider-response","38","1865105","0.0-10.0-1.0","180","1","2025-07-09 09:13:00","7701e855f2ef39aa3fd6c71abdc6918a","105.245.180.43","Mozilla/5.0 (Windows NT 10.0; Win64; x64) AppleWebKit/537.36 (KHTML, like Gecko) Chrome/138.0.0.0 Safari/537.36 Edg/138.0.0.0","WebKit","Edge","138.0.0.0","Windows","10.0","https://app.prolific.com/","en-US,en;q=0.9","673e5bdd2e10e666f394780f","686d226cabeef709c732f8e1","686e3132b93feb81aca89863","673e5bdd2e10e666f394780f","2025-07-09T09:44:07.313Z","","","","","","AttribQ","","","","","","","","","","","","","","","","","","","","","","","","","","","","","","","","","","","","","","50"
"5326","","<div style=""width:500px;"">
  <p>How much control did you have over the ball?</p>
  </div>","7","html-slider-response","39","1870433","0.0-10.0-2.0","180","1","2025-07-09 09:13:00","7701e855f2ef39aa3fd6c71abdc6918a","105.245.180.43","Mozilla/5.0 (Windows NT 10.0; Win64; x64) AppleWebKit/537.36 (KHTML, like Gecko) Chrome/138.0.0.0 Safari/537.36 Edg/138.0.0.0","WebKit","Edge","138.0.0.0","Windows","10.0","https://app.prolific.com/","en-US,en;q=0.9","673e5bdd2e10e666f394780f","686d226cabeef709c732f8e1","686e3132b93feb81aca89863","673e5bdd2e10e666f394780f","2025-07-09T09:44:12.641Z","","","","","","ControlQ","","","","","","","","","","","","","","","","","","","","","","","","","","","","","","","","","","","","","","50"
"6481","","<div style=""width:500px;"">
  <p>How would you describe your current emotional state?</p>
  </div>","76","html-slider-response","40","1876916","0.0-10.0-3.0","180","1","2025-07-09 09:13:00","7701e855f2ef39aa3fd6c71abdc6918a","105.245.180.43","Mozilla/5.0 (Windows NT 10.0; Win64; x64) AppleWebKit/537.36 (KHTML, like Gecko) Chrome/138.0.0.0 Safari/537.36 Edg/138.0.0.0","WebKit","Edge","138.0.0.0","Windows","10.0","https://app.prolific.com/","en-US,en;q=0.9","673e5bdd2e10e666f394780f","686d226cabeef709c732f8e1","686e3132b93feb81aca89863","673e5bdd2e10e666f394780f","2025-07-09T09:44:19.124Z","","","","","","StressQ","","","","","","","","","","","","","","","","","","","","","","","","","","","","","","","","","","","","","","50"
"5095","","<div style=""width:500px;"">
  <p>What best describes how you currently feel?</p>
  </div>","82","html-slider-response","41","1882013","0.0-10.0-4.0","180","1","2025-07-09 09:13:00","7701e855f2ef39aa3fd6c71abdc6918a","105.245.180.43","Mozilla/5.0 (Windows NT 10.0; Win64; x64) AppleWebKit/537.36 (KHTML, like Gecko) Chrome/138.0.0.0 Safari/537.36 Edg/138.0.0.0","WebKit","Edge","138.0.0.0","Windows","10.0","https://app.prolific.com/","en-US,en;q=0.9","673e5bdd2e10e666f394780f","686d226cabeef709c732f8e1","686e3132b93feb81aca89863","673e5bdd2e10e666f394780f","2025-07-09T09:44:24.221Z","","","","","","MotivationQ","","","","","","","","","","","","","","","","","","","","","","","","","","","","","","","","","","","","","","50"
"","","","","ctl-task-cpt","42","1911094","0.0-10.0-0.1","180","1","2025-07-09 09:13:00","7701e855f2ef39aa3fd6c71abdc6918a","105.245.180.43","Mozilla/5.0 (Windows NT 10.0; Win64; x64) AppleWebKit/537.36 (KHTML, like Gecko) Chrome/138.0.0.0 Safari/537.36 Edg/138.0.0.0","WebKit","Edge","138.0.0.0","Windows","10.0","https://app.prolific.com/","en-US,en;q=0.9","673e5bdd2e10e666f394780f","686d226cabeef709c732f8e1","686e3132b93feb81aca89863","673e5bdd2e10e666f394780f","2025-07-09T09:44:53.302Z","","","","","","","","","","","","","","","","win-only","3","g1:SW,g2:NE","0.9","2","0","1886013.6","1639","6644.9","26068.6","1","4","8","6","1","1","1","1","0","0.007575757575757576","5005.8","3000","995","[""down"",""left""]","{""num_key_presses"":6,""num_perfect"":5,""num_errors"":0,""num_randdir"":1,""num_randdir_good_moves"":1,""num_whilered"":0,""num_whileblue"":0,""num_blue"":1,""num_good_moves"":5}","[298.22232142857143,293.12857142857143,1,298.22232142857143,293.12857142857143,103.2,298.22232142857143,293.12857142857143,203.5,298.22232142857143,293.12857142857143,307.3,298.22232142857143,293.12857142857143,409.4,298.22232142857143,293.12857142857143,515.7,298.22232142857143,293.12857142857143,616.6,298.22232142857143,293.12857142857143,720.2,298.22232142857143,293.12857142857143,820.7,298.22232142857143,293.12857142857143,921.3,298.22232142857143,293.12857142857143,1025.6,298.22232142857143,293.12857142857143,1126.5,298.22232142857143,293.12857142857143,1231.6,298.22232142857143,293.12857142857143,1332.5,298.22232142857143,293.12857142857143,1435.6,298.22232142857143,293.12857142857143,1537.7,298.22232142857143,293.12857142857143,1639.2,298.22232142857143,293.12857142857143,1744,298.22232142857143,293.12857142857143,1846.8,298.22232142857143,293.12857142857143,1948.8,298.22232142857143,293.12857142857143,2053.9,298.22232142857143,293.12857142857143,2155.3,298.22232142857143,293.12857142857143,2260.2,298.22232142857143,293.12857142857143,2361.1,298.22232142857143,293.12857142857143,2466.8,298.22232142857143,293.12857142857143,2568.7,298.22232142857143,293.12857142857143,2670.3,298.22232142857143,293.12857142857143,2772,298.22232142857143,293.12857142857143,2876.9,298.22232142857143,293.12857142857143,2980.5,298.22232142857143,293.12857142857143,3080.8,298.22232142857143,293.12857142857143,3183.4,298.22232142857143,293.12857142857143,3284.6,298.22232142857143,293.12857142857143,3385.4,298.22232142857143,293.12857142857143,3491.8,298.22232142857143,293.12857142857143,3593.1,298.22232142857143,293.12857142857143,3696.3,298.22232142857143,293.12857142857143,3798.9,298.22232142857143,293.12857142857143,3901,298.22232142857143,293.12857142857143,4003.6,298.22232142857143,293.12857142857143,4105.7,298.22232142857143,293.12857142857143,4206.2,298.22232142857143,293.12857142857143,4307,298.22232142857143,293.12857142857143,4412.5,298.22232142857143,293.12857142857143,4516.3,298.22232142857143,293.12857142857143,4616.7,298.22232142857143,293.12857142857143,4716.8,298.22232142857143,293.12857142857143,4819.5,298.22232142857143,293.12857142857143,4919.5]","[1401.3,1401.3,1000,0,401.3,""smooth"",""right"",""right"",""bad_move"",7881.5,6479.2,2423,5081.7,376.9,""smooth"",""left"",""left"",""good_move"",11449.8,3567.5,3001.5,7882.3,566,""smooth"",""left"",""left"",""good_move"",14060.2,2609.6,2013,11450.6,596.7,""oops"",""down"",""left"",""good_move"",16755.7,2695.1,2354.8,14060.6,340.4,""smooth"",""down"",""down"",""good_move"",19293.6,2537.1,2148.1,16756.5,389,""smooth"",""down"",""down"",""good_move""]","",""
"3966","","<div style=""width:500px;"">
  <p>What determined the result of this run?</p>
  </div>","98","html-slider-response","43","1915063","0.0-10.0-1.1","180","1","2025-07-09 09:13:00","7701e855f2ef39aa3fd6c71abdc6918a","105.245.180.43","Mozilla/5.0 (Windows NT 10.0; Win64; x64) AppleWebKit/537.36 (KHTML, like Gecko) Chrome/138.0.0.0 Safari/537.36 Edg/138.0.0.0","WebKit","Edge","138.0.0.0","Windows","10.0","https://app.prolific.com/","en-US,en;q=0.9","673e5bdd2e10e666f394780f","686d226cabeef709c732f8e1","686e3132b93feb81aca89863","673e5bdd2e10e666f394780f","2025-07-09T09:44:57.271Z","","","","","","AttribQ","","","","","","","","","","","","","","","","","","","","","","","","","","","","","","","","","","","","","","50"
"3428","","<div style=""width:500px;"">
  <p>How much control did you have over the ball?</p>
  </div>","99","html-slider-response","44","1918493","0.0-10.0-2.1","180","1","2025-07-09 09:13:00","7701e855f2ef39aa3fd6c71abdc6918a","105.245.180.43","Mozilla/5.0 (Windows NT 10.0; Win64; x64) AppleWebKit/537.36 (KHTML, like Gecko) Chrome/138.0.0.0 Safari/537.36 Edg/138.0.0.0","WebKit","Edge","138.0.0.0","Windows","10.0","https://app.prolific.com/","en-US,en;q=0.9","673e5bdd2e10e666f394780f","686d226cabeef709c732f8e1","686e3132b93feb81aca89863","673e5bdd2e10e666f394780f","2025-07-09T09:45:00.701Z","","","","","","ControlQ","","","","","","","","","","","","","","","","","","","","","","","","","","","","","","","","","","","","","","50"
"4984","","<div style=""width:500px;"">
  <p>How would you describe your current emotional state?</p>
  </div>","25","html-slider-response","45","1923479","0.0-10.0-3.1","180","1","2025-07-09 09:13:00","7701e855f2ef39aa3fd6c71abdc6918a","105.245.180.43","Mozilla/5.0 (Windows NT 10.0; Win64; x64) AppleWebKit/537.36 (KHTML, like Gecko) Chrome/138.0.0.0 Safari/537.36 Edg/138.0.0.0","WebKit","Edge","138.0.0.0","Windows","10.0","https://app.prolific.com/","en-US,en;q=0.9","673e5bdd2e10e666f394780f","686d226cabeef709c732f8e1","686e3132b93feb81aca89863","673e5bdd2e10e666f394780f","2025-07-09T09:45:05.687Z","","","","","","StressQ","","","","","","","","","","","","","","","","","","","","","","","","","","","","","","","","","","","","","","50"
"3928","","<div style=""width:500px;"">
  <p>What best describes how you currently feel?</p>
  </div>","87","html-slider-response","46","1927409","0.0-10.0-4.1","180","1","2025-07-09 09:13:00","7701e855f2ef39aa3fd6c71abdc6918a","105.245.180.43","Mozilla/5.0 (Windows NT 10.0; Win64; x64) AppleWebKit/537.36 (KHTML, like Gecko) Chrome/138.0.0.0 Safari/537.36 Edg/138.0.0.0","WebKit","Edge","138.0.0.0","Windows","10.0","https://app.prolific.com/","en-US,en;q=0.9","673e5bdd2e10e666f394780f","686d226cabeef709c732f8e1","686e3132b93feb81aca89863","673e5bdd2e10e666f394780f","2025-07-09T09:45:09.617Z","","","","","","MotivationQ","","","","","","","","","","","","","","","","","","","","","","","","","","","","","","","","","","","","","","50"
"","","","","ctl-task-cpt","47","1954270","0.0-10.0-0.2","180","1","2025-07-09 09:13:00","7701e855f2ef39aa3fd6c71abdc6918a","105.245.180.43","Mozilla/5.0 (Windows NT 10.0; Win64; x64) AppleWebKit/537.36 (KHTML, like Gecko) Chrome/138.0.0.0 Safari/537.36 Edg/138.0.0.0","WebKit","Edge","138.0.0.0","Windows","10.0","https://app.prolific.com/","en-US,en;q=0.9","673e5bdd2e10e666f394780f","686d226cabeef709c732f8e1","686e3132b93feb81aca89863","673e5bdd2e10e666f394780f","2025-07-09T09:45:36.478Z","","","","","","","","","","","","","","","","win-only","1","g1:NE,g2:SW","0.8","3","0","1931410.9","1579.4","6584.8","23831","1","4","4","6","1","1","0","1","1","0.007575757575757576","5005.4","3000","1385","[""up"",""right""]","{""num_key_presses"":7,""num_perfect"":6,""num_errors"":1,""num_randdir"":0,""num_randdir_good_moves"":0,""num_whilered"":0,""num_whileblue"":0,""num_blue"":0,""num_good_moves"":5}","[295.22232142857143,299.12857142857143,0.9,295.22232142857143,299.12857142857143,107.2,295.22232142857143,299.12857142857143,211.9,295.22232142857143,299.12857142857143,319.4,295.22232142857143,299.12857142857143,424.8,295.22232142857143,299.12857142857143,532.5,295.22232142857143,299.12857142857143,635.5,295.22232142857143,299.12857142857143,741.9,295.22232142857143,299.12857142857143,846.2,295.22232142857143,299.12857142857143,948.9,295.22232142857143,299.12857142857143,1056.1,295.22232142857143,299.12857142857143,1158.6,295.22232142857143,299.12857142857143,1265.2,295.22232142857143,299.12857142857143,1371.7,295.22232142857143,299.12857142857143,1473.6,295.22232142857143,299.12857142857143,1576.1,295.22232142857143,299.12857142857143,1677.4,295.22232142857143,299.12857142857143,1783,295.22232142857143,299.12857142857143,1885.9,295.22232142857143,299.12857142857143,1987.7,295.22232142857143,299.12857142857143,2089,295.22232142857143,299.12857142857143,2195.5,295.22232142857143,299.12857142857143,2302.3,295.22232142857143,299.12857142857143,2402.9,295.22232142857143,299.12857142857143,2510.3,295.22232142857143,299.12857142857143,2611.1,295.22232142857143,299.12857142857143,2714.8,295.22232142857143,299.12857142857143,2816.5,295.22232142857143,299.12857142857143,2922.3,295.22232142857143,299.12857142857143,3030.3,295.22232142857143,299.12857142857143,3132.2,295.22232142857143,299.12857142857143,3232.5,295.22232142857143,299.12857142857143,3336.5,295.22232142857143,299.12857142857143,3436.5,295.22232142857143,299.12857142857143,3537.5,295.22232142857143,299.12857142857143,3639.5,295.22232142857143,299.12857142857143,3745.8,295.22232142857143,299.12857142857143,3854.7,295.22232142857143,299.12857142857143,3956.9,295.22232142857143,299.12857142857143,4059.9,295.22232142857143,299.12857142857143,4161.6,295.22232142857143,299.12857142857143,4262.2,295.22232142857143,299.12857142857143,4369.8,295.22232142857143,299.12857142857143,4474.2,295.22232142857143,299.12857142857143,4579.6,295.22232142857143,299.12857142857143,4682.2,295.22232142857143,299.12857142857143,4784.7,295.22232142857143,299.12857142857143,4890.4,295.22232142857143,299.12857142857143,4997.4]","[1437.7,1437.7,1000,0,437.7,""smooth"",""down"",""down"",""bad_move"",2443.4,1004.8,2909.5,1438.7,-1904.8,""error"",""-"",""-"",""no_move"",5892.2,3448.3,1908.5,3444.6,539.1,""smooth"",""right"",""right"",""good_move"",8598.9,2705.6,2246.5,5893.4,459.1,""smooth"",""right"",""right"",""good_move"",11125.2,2525.9,1778.2,8599.3,747.7,""smooth"",""up"",""up"",""good_move"",13511.9,2385.6,1712.7,11126.3,673,""smooth"",""up"",""up"",""good_move"",17088.2,3575.1,3159.4,13513.2,415.7,""smooth"",""up"",""up"",""good_move""]","",""
"5597","","<div style=""width:500px;"">
  <p>What determined the result of this run?</p>
  </div>","100","html-slider-response","48","1959868","0.0-10.0-1.2","180","1","2025-07-09 09:13:00","7701e855f2ef39aa3fd6c71abdc6918a","105.245.180.43","Mozilla/5.0 (Windows NT 10.0; Win64; x64) AppleWebKit/537.36 (KHTML, like Gecko) Chrome/138.0.0.0 Safari/537.36 Edg/138.0.0.0","WebKit","Edge","138.0.0.0","Windows","10.0","https://app.prolific.com/","en-US,en;q=0.9","673e5bdd2e10e666f394780f","686d226cabeef709c732f8e1","686e3132b93feb81aca89863","673e5bdd2e10e666f394780f","2025-07-09T09:45:42.077Z","","","","","","AttribQ","","","","","","","","","","","","","","","","","","","","","","","","","","","","","","","","","","","","","","50"
"3173","","<div style=""width:500px;"">
  <p>How much control did you have over the ball?</p>
  </div>","96","html-slider-response","49","1963043","0.0-10.0-2.2","180","1","2025-07-09 09:13:00","7701e855f2ef39aa3fd6c71abdc6918a","105.245.180.43","Mozilla/5.0 (Windows NT 10.0; Win64; x64) AppleWebKit/537.36 (KHTML, like Gecko) Chrome/138.0.0.0 Safari/537.36 Edg/138.0.0.0","WebKit","Edge","138.0.0.0","Windows","10.0","https://app.prolific.com/","en-US,en;q=0.9","673e5bdd2e10e666f394780f","686d226cabeef709c732f8e1","686e3132b93feb81aca89863","673e5bdd2e10e666f394780f","2025-07-09T09:45:45.252Z","","","","","","ControlQ","","","","","","","","","","","","","","","","","","","","","","","","","","","","","","","","","","","","","","50"
"4742","","<div style=""width:500px;"">
  <p>How would you describe your current emotional state?</p>
  </div>","34","html-slider-response","50","1967788","0.0-10.0-3.2","180","1","2025-07-09 09:13:00","7701e855f2ef39aa3fd6c71abdc6918a","105.245.180.43","Mozilla/5.0 (Windows NT 10.0; Win64; x64) AppleWebKit/537.36 (KHTML, like Gecko) Chrome/138.0.0.0 Safari/537.36 Edg/138.0.0.0","WebKit","Edge","138.0.0.0","Windows","10.0","https://app.prolific.com/","en-US,en;q=0.9","673e5bdd2e10e666f394780f","686d226cabeef709c732f8e1","686e3132b93feb81aca89863","673e5bdd2e10e666f394780f","2025-07-09T09:45:49.996Z","","","","","","StressQ","","","","","","","","","","","","","","","","","","","","","","","","","","","","","","","","","","","","","","50"
"4876","","<div style=""width:500px;"">
  <p>What best describes how you currently feel?</p>
  </div>","78","html-slider-response","51","1972667","0.0-10.0-4.2","180","1","2025-07-09 09:13:00","7701e855f2ef39aa3fd6c71abdc6918a","105.245.180.43","Mozilla/5.0 (Windows NT 10.0; Win64; x64) AppleWebKit/537.36 (KHTML, like Gecko) Chrome/138.0.0.0 Safari/537.36 Edg/138.0.0.0","WebKit","Edge","138.0.0.0","Windows","10.0","https://app.prolific.com/","en-US,en;q=0.9","673e5bdd2e10e666f394780f","686d226cabeef709c732f8e1","686e3132b93feb81aca89863","673e5bdd2e10e666f394780f","2025-07-09T09:45:54.875Z","","","","","","MotivationQ","","","","","","","","","","","","","","","","","","","","","","","","","","","","","","","","","","","","","","50"
"","","","","ctl-task-cpt","52","2003554","0.0-10.0-0.3","180","1","2025-07-09 09:13:00","7701e855f2ef39aa3fd6c71abdc6918a","105.245.180.43","Mozilla/5.0 (Windows NT 10.0; Win64; x64) AppleWebKit/537.36 (KHTML, like Gecko) Chrome/138.0.0.0 Safari/537.36 Edg/138.0.0.0","WebKit","Edge","138.0.0.0","Windows","10.0","https://app.prolific.com/","en-US,en;q=0.9","673e5bdd2e10e666f394780f","686d226cabeef709c732f8e1","686e3132b93feb81aca89863","673e5bdd2e10e666f394780f","2025-07-09T09:46:25.762Z","","","","","","","","","","","","","","","","win-only","0","g1:NW,g2:SE","0.7","4","0","1976669.7","1298.9","6303.7","27851.1","1","4","8","6","2","8","8","9","1","0.06818181818181818","5004.8","3000","2200","[""down"",""right""]","{""num_key_presses"":6,""num_perfect"":4,""num_errors"":0,""num_randdir"":2,""num_randdir_good_moves"":2,""num_whilered"":0,""num_whileblue"":0,""num_blue"":1,""num_good_moves"":6}","[294.22232142857143,300.12857142857143,1,294.22232142857143,300.12857142857143,101.1,294.22232142857143,300.12857142857143,211.4,294.22232142857143,300.12857142857143,318.5,294.22232142857143,300.12857142857143,426.1,294.22232142857143,300.12857142857143,532.1,294.22232142857143,300.12857142857143,643.6,294.22232142857143,300.12857142857143,747.6,294.22232142857143,300.12857142857143,855.3,294.22232142857143,300.12857142857143,963.2,294.22232142857143,300.12857142857143,1071,294.22232142857143,300.12857142857143,1175.5,294.22232142857143,300.12857142857143,1286.7,294.22232142857143,300.12857142857143,1395.1,294.22232142857143,300.12857142857143,1505.4,294.22232142857143,300.12857142857143,1611.8,294.22232142857143,300.12857142857143,1715.4,294.22232142857143,300.12857142857143,1818.9,294.22232142857143,300.12857142857143,1923.4,294.22232142857143,300.12857142857143,2027,294.22232142857143,300.12857142857143,2132.2,294.22232142857143,300.12857142857143,2237.9,294.22232142857143,300.12857142857143,2342.8,294.22232142857143,300.12857142857143,2450.6,294.22232142857143,300.12857142857143,2555.9,294.22232142857143,300.12857142857143,2666.6,294.22232142857143,300.12857142857143,2770.1,294.22232142857143,300.12857142857143,2873.8,294.22232142857143,300.12857142857143,2980.8,294.22232142857143,300.12857142857143,3088.9,294.22232142857143,300.12857142857143,3192.4,294.22232142857143,300.12857142857143,3297.5,294.22232142857143,300.12857142857143,3401.3,294.22232142857143,300.12857142857143,3504.1,294.22232142857143,300.12857142857143,3613.5,294.22232142857143,300.12857142857143,3723,294.22232142857143,300.12857142857143,3831,294.22232142857143,300.12857142857143,3946.6,294.22232142857143,300.12857142857143,4049.1,294.22232142857143,300.12857142857143,4149.1,294.22232142857143,300.12857142857143,4254.3,294.22232142857143,300.12857142857143,4360.7,294.22232142857143,300.12857142857143,4467,294.22232142857143,300.12857142857143,4575.2,294.22232142857143,300.12857142857143,4681.8,294.22232142857143,300.12857142857143,4785.4,294.22232142857143,300.12857142857143,4892.1]","[1754.9,1754.9,1000,0,754.9,""smooth"",""right"",""right"",""good_move"",4980.1,3224.4,2672.1,1755.8,552.2,""smooth"",""down"",""down"",""good_move"",8152.5,3171.4,2671.7,4981.2,499.6,""oops"",""right"",""down"",""good_move"",11428.2,3275.2,2794.4,8153,480.8,""smooth"",""right"",""right"",""good_move"",17819,6390.2,2202.2,15184.9,431.9,""oops"",""down"",""down"",""good_move"",21085.4,3266,2494.1,17819.4,771.9,""smooth"",""right"",""right"",""good_move""]","",""
"22309","","<div style=""width:500px;"">
  <p>What determined the result of this run?</p>
  </div>","96","html-slider-response","53","2025867","0.0-10.0-1.3","180","1","2025-07-09 09:13:00","7701e855f2ef39aa3fd6c71abdc6918a","105.245.180.43","Mozilla/5.0 (Windows NT 10.0; Win64; x64) AppleWebKit/537.36 (KHTML, like Gecko) Chrome/138.0.0.0 Safari/537.36 Edg/138.0.0.0","WebKit","Edge","138.0.0.0","Windows","10.0","https://app.prolific.com/","en-US,en;q=0.9","673e5bdd2e10e666f394780f","686d226cabeef709c732f8e1","686e3132b93feb81aca89863","673e5bdd2e10e666f394780f","2025-07-09T09:46:48.075Z","","","","","","AttribQ","","","","","","","","","","","","","","","","","","","","","","","","","","","","","","","","","","","","","","50"
"3317","","<div style=""width:500px;"">
  <p>How much control did you have over the ball?</p>
  </div>","94","html-slider-response","54","2029188","0.0-10.0-2.3","180","1","2025-07-09 09:13:00","7701e855f2ef39aa3fd6c71abdc6918a","105.245.180.43","Mozilla/5.0 (Windows NT 10.0; Win64; x64) AppleWebKit/537.36 (KHTML, like Gecko) Chrome/138.0.0.0 Safari/537.36 Edg/138.0.0.0","WebKit","Edge","138.0.0.0","Windows","10.0","https://app.prolific.com/","en-US,en;q=0.9","673e5bdd2e10e666f394780f","686d226cabeef709c732f8e1","686e3132b93feb81aca89863","673e5bdd2e10e666f394780f","2025-07-09T09:46:51.396Z","","","","","","ControlQ","","","","","","","","","","","","","","","","","","","","","","","","","","","","","","","","","","","","","","50"
"5716","","<div style=""width:500px;"">
  <p>How would you describe your current emotional state?</p>
  </div>","19","html-slider-response","55","2034909","0.0-10.0-3.3","180","1","2025-07-09 09:13:00","7701e855f2ef39aa3fd6c71abdc6918a","105.245.180.43","Mozilla/5.0 (Windows NT 10.0; Win64; x64) AppleWebKit/537.36 (KHTML, like Gecko) Chrome/138.0.0.0 Safari/537.36 Edg/138.0.0.0","WebKit","Edge","138.0.0.0","Windows","10.0","https://app.prolific.com/","en-US,en;q=0.9","673e5bdd2e10e666f394780f","686d226cabeef709c732f8e1","686e3132b93feb81aca89863","673e5bdd2e10e666f394780f","2025-07-09T09:46:57.117Z","","","","","","StressQ","","","","","","","","","","","","","","","","","","","","","","","","","","","","","","","","","","","","","","50"
"3159","","<div style=""width:500px;"">
  <p>What best describes how you currently feel?</p>
  </div>","81","html-slider-response","56","2038072","0.0-10.0-4.3","180","1","2025-07-09 09:13:00","7701e855f2ef39aa3fd6c71abdc6918a","105.245.180.43","Mozilla/5.0 (Windows NT 10.0; Win64; x64) AppleWebKit/537.36 (KHTML, like Gecko) Chrome/138.0.0.0 Safari/537.36 Edg/138.0.0.0","WebKit","Edge","138.0.0.0","Windows","10.0","https://app.prolific.com/","en-US,en;q=0.9","673e5bdd2e10e666f394780f","686d226cabeef709c732f8e1","686e3132b93feb81aca89863","673e5bdd2e10e666f394780f","2025-07-09T09:47:00.281Z","","","","","","MotivationQ","","","","","","","","","","","","","","","","","","","","","","","","","","","","","","","","","","","","","","50"
"","","","","ctl-task-cpt","57","2079722","0.0-10.0-0.4","180","1","2025-07-09 09:13:00","7701e855f2ef39aa3fd6c71abdc6918a","105.245.180.43","Mozilla/5.0 (Windows NT 10.0; Win64; x64) AppleWebKit/537.36 (KHTML, like Gecko) Chrome/138.0.0.0 Safari/537.36 Edg/138.0.0.0","WebKit","Edge","138.0.0.0","Windows","10.0","https://app.prolific.com/","en-US,en;q=0.9","673e5bdd2e10e666f394780f","686d226cabeef709c732f8e1","686e3132b93feb81aca89863","673e5bdd2e10e666f394780f","2025-07-09T09:47:41.931Z","","","","","","","","","","","","","","","","win-only","3","g1:SW,g2:NE","0.6","5","0","2042075.9","1990.6","6995.2","38590.8","1","4","8","6","2","8","7","16","9","0.12121212121212122","5004.6","3000","2550","[""up"",""right""]","{""num_key_presses"":7,""num_perfect"":4,""num_errors"":1,""num_randdir"":2,""num_randdir_good_moves"":2,""num_whilered"":0,""num_whileblue"":0,""num_blue"":1,""num_good_moves"":6}","[301.22232142857143,297.12857142857143,0.3,301.22232142857143,297.12857142857143,108.9,301.22232142857143,297.12857142857143,233.8,301.22232142857143,297.12857142857143,357.2,301.22232142857143,297.12857142857143,487.8,301.22232142857143,297.12857142857143,615.6,301.22232142857143,297.12857142857143,741.3,301.22232142857143,297.12857142857143,864.7,301.22232142857143,297.12857142857143,986.3,301.22232142857143,297.12857142857143,1112.8,301.22232142857143,297.12857142857143,1239.6,301.22232142857143,297.12857142857143,1365.7,301.22232142857143,297.12857142857143,1489.3,301.22232142857143,297.12857142857143,1614.7,301.22232142857143,297.12857142857143,1735.9,301.22232142857143,297.12857142857143,1862.7,301.22232142857143,297.12857142857143,1983.5,301.22232142857143,297.12857142857143,2110.3,301.22232142857143,297.12857142857143,2232.5,301.22232142857143,297.12857142857143,2357,301.22232142857143,297.12857142857143,2482.3,301.22232142857143,297.12857142857143,2608.1,301.22232142857143,297.12857142857143,2734,301.22232142857143,297.12857142857143,2857.5,301.22232142857143,297.12857142857143,2978.9,301.22232142857143,297.12857142857143,3104,301.22232142857143,297.12857142857143,3227.6,301.22232142857143,297.12857142857143,3349.3,301.22232142857143,297.12857142857143,3472.5,301.22232142857143,297.12857142857143,3598,301.22232142857143,297.12857142857143,3728.5,301.22232142857143,297.12857142857143,3851.8,301.22232142857143,297.12857142857143,3978.3,301.22232142857143,297.12857142857143,4101.1,301.22232142857143,297.12857142857143,4225.8,301.22232142857143,297.12857142857143,4347.2,301.22232142857143,297.12857142857143,4468,301.22232142857143,297.12857142857143,4594.7,301.22232142857143,297.12857142857143,4716.4,301.22232142857143,297.12857142857143,4843.4,301.22232142857143,297.12857142857143,4971.1]","[1468.7,1468.7,1000,0,468.7,""oops"",""right"",""right"",""good_move"",4475.7,3006.5,2478.7,1469.2,527.8,""smooth"",""right"",""right"",""good_move"",7035.3,2559.1,2053.6,4476.2,505.5,""smooth"",""right"",""right"",""good_move"",9566.1,2530.1,1911.6,7036,618.5,""smooth"",""up"",""up"",""good_move"",14959,5392.3,4001.4,9566.7,1390.9,""error"",""-"",""-"",""no_move"",18858.3,3898.8,2344.2,15965.7,548.4,""smooth"",""up"",""up"",""good_move"",30822.8,11964,2713.3,27392.6,716.9,""oops"",""up"",""up"",""good_move""]","",""
"4846","","<div style=""width:500px;"">
  <p>What determined the result of this run?</p>
  </div>","91","html-slider-response","58","2084575","0.0-10.0-1.4","180","1","2025-07-09 09:13:00","7701e855f2ef39aa3fd6c71abdc6918a","105.245.180.43","Mozilla/5.0 (Windows NT 10.0; Win64; x64) AppleWebKit/537.36 (KHTML, like Gecko) Chrome/138.0.0.0 Safari/537.36 Edg/138.0.0.0","WebKit","Edge","138.0.0.0","Windows","10.0","https://app.prolific.com/","en-US,en;q=0.9","673e5bdd2e10e666f394780f","686d226cabeef709c732f8e1","686e3132b93feb81aca89863","673e5bdd2e10e666f394780f","2025-07-09T09:47:46.783Z","","","","","","AttribQ","","","","","","","","","","","","","","","","","","","","","","","","","","","","","","","","","","","","","","50"
"6442","","<div style=""width:500px;"">
  <p>How much control did you have over the ball?</p>
  </div>","90","html-slider-response","59","2091037","0.0-10.0-2.4","180","1","2025-07-09 09:13:00","7701e855f2ef39aa3fd6c71abdc6918a","105.245.180.43","Mozilla/5.0 (Windows NT 10.0; Win64; x64) AppleWebKit/537.36 (KHTML, like Gecko) Chrome/138.0.0.0 Safari/537.36 Edg/138.0.0.0","WebKit","Edge","138.0.0.0","Windows","10.0","https://app.prolific.com/","en-US,en;q=0.9","673e5bdd2e10e666f394780f","686d226cabeef709c732f8e1","686e3132b93feb81aca89863","673e5bdd2e10e666f394780f","2025-07-09T09:47:53.245Z","","","","","","ControlQ","","","","","","","","","","","","","","","","","","","","","","","","","","","","","","","","","","","","","","50"
"8107","","<div style=""width:500px;"">
  <p>How would you describe your current emotional state?</p>
  </div>","30","html-slider-response","60","2099151","0.0-10.0-3.4","180","1","2025-07-09 09:13:00","7701e855f2ef39aa3fd6c71abdc6918a","105.245.180.43","Mozilla/5.0 (Windows NT 10.0; Win64; x64) AppleWebKit/537.36 (KHTML, like Gecko) Chrome/138.0.0.0 Safari/537.36 Edg/138.0.0.0","WebKit","Edge","138.0.0.0","Windows","10.0","https://app.prolific.com/","en-US,en;q=0.9","673e5bdd2e10e666f394780f","686d226cabeef709c732f8e1","686e3132b93feb81aca89863","673e5bdd2e10e666f394780f","2025-07-09T09:48:01.359Z","","","","","","StressQ","","","","","","","","","","","","","","","","","","","","","","","","","","","","","","","","","","","","","","50"
"16004","","<div style=""width:500px;"">
  <p>What best describes how you currently feel?</p>
  </div>","90","html-slider-response","61","2115162","0.0-10.0-4.4","180","1","2025-07-09 09:13:00","7701e855f2ef39aa3fd6c71abdc6918a","105.245.180.43","Mozilla/5.0 (Windows NT 10.0; Win64; x64) AppleWebKit/537.36 (KHTML, like Gecko) Chrome/138.0.0.0 Safari/537.36 Edg/138.0.0.0","WebKit","Edge","138.0.0.0","Windows","10.0","https://app.prolific.com/","en-US,en;q=0.9","673e5bdd2e10e666f394780f","686d226cabeef709c732f8e1","686e3132b93feb81aca89863","673e5bdd2e10e666f394780f","2025-07-09T09:48:17.370Z","","","","","","MotivationQ","","","","","","","","","","","","","","","","","","","","","","","","","","","","","","","","","","","","","","50"
"","","","","ctl-task-cpt","62","2191743","0.0-10.0-0.5","180","1","2025-07-09 09:13:00","7701e855f2ef39aa3fd6c71abdc6918a","105.245.180.43","Mozilla/5.0 (Windows NT 10.0; Win64; x64) AppleWebKit/537.36 (KHTML, like Gecko) Chrome/138.0.0.0 Safari/537.36 Edg/138.0.0.0","WebKit","Edge","138.0.0.0","Windows","10.0","https://app.prolific.com/","en-US,en;q=0.9","673e5bdd2e10e666f394780f","686d226cabeef709c732f8e1","686e3132b93feb81aca89863","673e5bdd2e10e666f394780f","2025-07-09T09:49:33.951Z","","","","","","","","","","","","","","","","win-only","1","g1:NE,g2:SW","0.5","6","0","2119166.2","1976","6985.4","73505.6","1","4","4","6","2","4","4","20","16","0.15151515151515152","5009.4","3000","2350","[""down"",""left""]","{""num_key_presses"":10,""num_perfect"":5,""num_errors"":0,""num_randdir"":5,""num_randdir_good_moves"":3,""num_whilered"":0,""num_whileblue"":0,""num_blue"":2,""num_good_moves"":8}","[291.22232142857143,294.12857142857143,0.4,291.22232142857143,294.12857142857143,107.8,291.22232142857143,294.12857142857143,217.8,291.22232142857143,294.12857142857143,325.5,291.22232142857143,294.12857142857143,434.4,291.22232142857143,294.12857142857143,545.8,291.22232142857143,294.12857142857143,656.6,291.22232142857143,294.12857142857143,764.2,291.22232142857143,294.12857142857143,872.5,291.22232142857143,294.12857142857143,978.8,291.22232142857143,294.12857142857143,1084.2,291.22232142857143,294.12857142857143,1192.7,291.22232142857143,294.12857142857143,1297.1,291.22232142857143,294.12857142857143,1404,291.22232142857143,294.12857142857143,1512.1,291.22232142857143,294.12857142857143,1618.4,291.22232142857143,294.12857142857143,1723.7,291.22232142857143,294.12857142857143,1828.1,291.22232142857143,294.12857142857143,1935.9,291.22232142857143,294.12857142857143,2040.4,291.22232142857143,294.12857142857143,2153.6,291.22232142857143,294.12857142857143,2257.3,291.22232142857143,294.12857142857143,2359.3,291.22232142857143,294.12857142857143,2463.5,291.22232142857143,294.12857142857143,2568.9,291.22232142857143,294.12857142857143,2675.7,291.22232142857143,294.12857142857143,2783,291.22232142857143,294.12857142857143,2886.1,291.22232142857143,294.12857142857143,2992,291.22232142857143,294.12857142857143,3094.6,291.22232142857143,294.12857142857143,3206.8,291.22232142857143,294.12857142857143,3309.9,291.22232142857143,294.12857142857143,3416.4,291.22232142857143,294.12857142857143,3524.3,291.22232142857143,294.12857142857143,3631.8,291.22232142857143,294.12857142857143,3736.8,291.22232142857143,294.12857142857143,3845,291.22232142857143,294.12857142857143,3949.9,291.22232142857143,294.12857142857143,4055.8,291.22232142857143,294.12857142857143,4162.4,291.22232142857143,294.12857142857143,4269.4,291.22232142857143,294.12857142857143,4467.5,291.22232142857143,294.12857142857143,4572,291.22232142857143,294.12857142857143,4683.2,291.22232142857143,294.12857142857143,4793.1,291.22232142857143,294.12857142857143,4900.8]","[1679.9,1679.9,1000,0,679.9,""oops"",""down"",""right"",""bad_move"",4995.7,3315.3,2340,1680.4,975.3,""oops"",""left"",""left"",""good_move"",14711.3,9714.9,2312.6,4996.4,7402.3,""oops"",""left"",""up"",""bad_move"",27637.2,12925.5,2045.6,25024.4,567.2,""oops"",""down"",""left"",""good_move"",37660.9,10023.3,3419.2,27637.6,6604.1,""smooth"",""down"",""down"",""good_move"",41529.2,3867.5,3243.7,37661.7,623.8,""smooth"",""down"",""down"",""good_move"",48507.6,6978,2790.8,45173.8,543,""smooth"",""down"",""down"",""good_move"",52492.5,3984.4,2057.9,48508.1,1926.5,""smooth"",""down"",""down"",""good_move"",55513.4,3020.4,2414.2,52493.1,606.1,""oops"",""left"",""left"",""good_move"",65680.7,10166.8,2390.7,55513.9,7776.1,""smooth"",""left"",""left"",""good_move""]","",""
"4939","","<div style=""width:500px;"">
  <p>What determined the result of this run?</p>
  </div>","91","html-slider-response","63","2196688","0.0-10.0-1.5","180","1","2025-07-09 09:13:00","7701e855f2ef39aa3fd6c71abdc6918a","105.245.180.43","Mozilla/5.0 (Windows NT 10.0; Win64; x64) AppleWebKit/537.36 (KHTML, like Gecko) Chrome/138.0.0.0 Safari/537.36 Edg/138.0.0.0","WebKit","Edge","138.0.0.0","Windows","10.0","https://app.prolific.com/","en-US,en;q=0.9","673e5bdd2e10e666f394780f","686d226cabeef709c732f8e1","686e3132b93feb81aca89863","673e5bdd2e10e666f394780f","2025-07-09T09:49:38.896Z","","","","","","AttribQ","","","","","","","","","","","","","","","","","","","","","","","","","","","","","","","","","","","","","","50"
"2767","","<div style=""width:500px;"">
  <p>How much control did you have over the ball?</p>
  </div>","85","html-slider-response","64","2199463","0.0-10.0-2.5","180","1","2025-07-09 09:13:00","7701e855f2ef39aa3fd6c71abdc6918a","105.245.180.43","Mozilla/5.0 (Windows NT 10.0; Win64; x64) AppleWebKit/537.36 (KHTML, like Gecko) Chrome/138.0.0.0 Safari/537.36 Edg/138.0.0.0","WebKit","Edge","138.0.0.0","Windows","10.0","https://app.prolific.com/","en-US,en;q=0.9","673e5bdd2e10e666f394780f","686d226cabeef709c732f8e1","686e3132b93feb81aca89863","673e5bdd2e10e666f394780f","2025-07-09T09:49:41.671Z","","","","","","ControlQ","","","","","","","","","","","","","","","","","","","","","","","","","","","","","","","","","","","","","","50"
"4163","","<div style=""width:500px;"">
  <p>How would you describe your current emotional state?</p>
  </div>","20","html-slider-response","65","2203633","0.0-10.0-3.5","180","1","2025-07-09 09:13:00","7701e855f2ef39aa3fd6c71abdc6918a","105.245.180.43","Mozilla/5.0 (Windows NT 10.0; Win64; x64) AppleWebKit/537.36 (KHTML, like Gecko) Chrome/138.0.0.0 Safari/537.36 Edg/138.0.0.0","WebKit","Edge","138.0.0.0","Windows","10.0","https://app.prolific.com/","en-US,en;q=0.9","673e5bdd2e10e666f394780f","686d226cabeef709c732f8e1","686e3132b93feb81aca89863","673e5bdd2e10e666f394780f","2025-07-09T09:49:45.841Z","","","","","","StressQ","","","","","","","","","","","","","","","","","","","","","","","","","","","","","","","","","","","","","","50"
"4011","","<div style=""width:500px;"">
  <p>What best describes how you currently feel?</p>
  </div>","84","html-slider-response","66","2207651","0.0-10.0-4.5","180","1","2025-07-09 09:13:00","7701e855f2ef39aa3fd6c71abdc6918a","105.245.180.43","Mozilla/5.0 (Windows NT 10.0; Win64; x64) AppleWebKit/537.36 (KHTML, like Gecko) Chrome/138.0.0.0 Safari/537.36 Edg/138.0.0.0","WebKit","Edge","138.0.0.0","Windows","10.0","https://app.prolific.com/","en-US,en;q=0.9","673e5bdd2e10e666f394780f","686d226cabeef709c732f8e1","686e3132b93feb81aca89863","673e5bdd2e10e666f394780f","2025-07-09T09:49:49.859Z","","","","","","MotivationQ","","","","","","","","","","","","","","","","","","","","","","","","","","","","","","","","","","","","","","50"
"","","","","ctl-task-cpt","67","2285828","0.0-10.0-0.6","180","1","2025-07-09 09:13:00","7701e855f2ef39aa3fd6c71abdc6918a","105.245.180.43","Mozilla/5.0 (Windows NT 10.0; Win64; x64) AppleWebKit/537.36 (KHTML, like Gecko) Chrome/138.0.0.0 Safari/537.36 Edg/138.0.0.0","WebKit","Edge","138.0.0.0","Windows","10.0","https://app.prolific.com/","en-US,en;q=0.9","673e5bdd2e10e666f394780f","686d226cabeef709c732f8e1","686e3132b93feb81aca89863","673e5bdd2e10e666f394780f","2025-07-09T09:51:08.036Z","","","","","","","","","","","","","","","","win-only","1","g1:NE,g2:SW","0.4","7","0","2211655.7","1561.2","6608.3","75099.5","1","4","4","6","1","1","0","20","20","0.15151515151515152","5047.1","3000","2525","[""up"",""right""]","{""num_key_presses"":9,""num_perfect"":4,""num_errors"":1,""num_randdir"":4,""num_randdir_good_moves"":2,""num_whilered"":0,""num_whileblue"":0,""num_blue"":1,""num_good_moves"":6}","[294.22232142857143,301.12857142857143,1,294.22232142857143,301.12857142857143,156.7,294.22232142857143,301.12857142857143,286.6,294.22232142857143,301.12857142857143,419,294.22232142857143,301.12857142857143,550.4,294.22232142857143,301.12857142857143,679.6,294.22232142857143,301.12857142857143,810.2,294.22232142857143,301.12857142857143,938.4,294.22232142857143,301.12857142857143,1065.1,294.22232142857143,301.12857142857143,1193.7,294.22232142857143,301.12857142857143,1321.6,294.22232142857143,301.12857142857143,1450.3,294.22232142857143,301.12857142857143,1573.9,294.22232142857143,301.12857142857143,1702.5,294.22232142857143,301.12857142857143,1830,294.22232142857143,301.12857142857143,1956.5,294.22232142857143,301.12857142857143,2085.2,294.22232142857143,301.12857142857143,2217.6,294.22232142857143,301.12857142857143,2343.9,294.22232142857143,301.12857142857143,2472.4,294.22232142857143,301.12857142857143,2600.1,294.22232142857143,301.12857142857143,2730.1,294.22232142857143,301.12857142857143,2857.5,294.22232142857143,301.12857142857143,2988.8,294.22232142857143,301.12857142857143,3118.8,294.22232142857143,301.12857142857143,3254.3,294.22232142857143,301.12857142857143,3382.4,294.22232142857143,301.12857142857143,3508.1,294.22232142857143,301.12857142857143,3633.7,294.22232142857143,301.12857142857143,3762.5,294.22232142857143,301.12857142857143,3891.5,294.22232142857143,301.12857142857143,4019.6,294.22232142857143,301.12857142857143,4149.1,294.22232142857143,301.12857142857143,4279.8,294.22232142857143,301.12857142857143,4409.6,294.22232142857143,301.12857142857143,4536.6,294.22232142857143,301.12857142857143,4661.9,294.22232142857143,301.12857142857143,4789.3,294.22232142857143,301.12857142857143,4919.3]","[523.1,523.1,1000,0,-476.9,""error"",""-"",""-"",""no_move"",4530.6,4007,2251.1,1567.8,711.7,""oops"",""right"",""down"",""bad_move"",7579.2,3048.2,2028.2,4531,1020,""oops"",""right"",""right"",""good_move"",12309.8,4730.1,2949.8,7579.7,1780.3,""smooth"",""up"",""up"",""good_move"",27358.7,15048.3,2173.8,24514.3,670.7,""oops"",""right"",""up"",""good_move"",39230.6,11871.3,2113,27359.3,9758.4,""smooth"",""right"",""right"",""good_move"",42032.8,2801.6,2161.2,39231.4,640.3,""oops"",""up"",""left"",""bad_move"",54201.6,12168.1,1921.5,42033.5,10246.6,""smooth"",""up"",""up"",""good_move"",66067.2,11865.2,2644.4,54202,9220.8,""smooth"",""right"",""right"",""good_move""]","",""
"3349","","<div style=""width:500px;"">
  <p>What determined the result of this run?</p>
  </div>","89","html-slider-response","68","2289184","0.0-10.0-1.6","180","1","2025-07-09 09:13:00","7701e855f2ef39aa3fd6c71abdc6918a","105.245.180.43","Mozilla/5.0 (Windows NT 10.0; Win64; x64) AppleWebKit/537.36 (KHTML, like Gecko) Chrome/138.0.0.0 Safari/537.36 Edg/138.0.0.0","WebKit","Edge","138.0.0.0","Windows","10.0","https://app.prolific.com/","en-US,en;q=0.9","673e5bdd2e10e666f394780f","686d226cabeef709c732f8e1","686e3132b93feb81aca89863","673e5bdd2e10e666f394780f","2025-07-09T09:51:11.393Z","","","","","","AttribQ","","","","","","","","","","","","","","","","","","","","","","","","","","","","","","","","","","","","","","50"
"2450","","<div style=""width:500px;"">
  <p>How much control did you have over the ball?</p>
  </div>","75","html-slider-response","69","2291643","0.0-10.0-2.6","180","1","2025-07-09 09:13:00","7701e855f2ef39aa3fd6c71abdc6918a","105.245.180.43","Mozilla/5.0 (Windows NT 10.0; Win64; x64) AppleWebKit/537.36 (KHTML, like Gecko) Chrome/138.0.0.0 Safari/537.36 Edg/138.0.0.0","WebKit","Edge","138.0.0.0","Windows","10.0","https://app.prolific.com/","en-US,en;q=0.9","673e5bdd2e10e666f394780f","686d226cabeef709c732f8e1","686e3132b93feb81aca89863","673e5bdd2e10e666f394780f","2025-07-09T09:51:13.851Z","","","","","","ControlQ","","","","","","","","","","","","","","","","","","","","","","","","","","","","","","","","","","","","","","50"
"4924","","<div style=""width:500px;"">
  <p>How would you describe your current emotional state?</p>
  </div>","44","html-slider-response","70","2296574","0.0-10.0-3.6","180","1","2025-07-09 09:13:00","7701e855f2ef39aa3fd6c71abdc6918a","105.245.180.43","Mozilla/5.0 (Windows NT 10.0; Win64; x64) AppleWebKit/537.36 (KHTML, like Gecko) Chrome/138.0.0.0 Safari/537.36 Edg/138.0.0.0","WebKit","Edge","138.0.0.0","Windows","10.0","https://app.prolific.com/","en-US,en;q=0.9","673e5bdd2e10e666f394780f","686d226cabeef709c732f8e1","686e3132b93feb81aca89863","673e5bdd2e10e666f394780f","2025-07-09T09:51:18.783Z","","","","","","StressQ","","","","","","","","","","","","","","","","","","","","","","","","","","","","","","","","","","","","","","50"
"5534","","<div style=""width:500px;"">
  <p>What best describes how you currently feel?</p>
  </div>","78","html-slider-response","71","2302116","0.0-10.0-4.6","180","1","2025-07-09 09:13:00","7701e855f2ef39aa3fd6c71abdc6918a","105.245.180.43","Mozilla/5.0 (Windows NT 10.0; Win64; x64) AppleWebKit/537.36 (KHTML, like Gecko) Chrome/138.0.0.0 Safari/537.36 Edg/138.0.0.0","WebKit","Edge","138.0.0.0","Windows","10.0","https://app.prolific.com/","en-US,en;q=0.9","673e5bdd2e10e666f394780f","686d226cabeef709c732f8e1","686e3132b93feb81aca89863","673e5bdd2e10e666f394780f","2025-07-09T09:51:24.324Z","","","","","","MotivationQ","","","","","","","","","","","","","","","","","","","","","","","","","","","","","","","","","","","","","","50"
"","","","","ctl-task-cpt","72","2625063","0.0-10.0-0.7","180","1","2025-07-09 09:13:00","7701e855f2ef39aa3fd6c71abdc6918a","105.245.180.43","Mozilla/5.0 (Windows NT 10.0; Win64; x64) AppleWebKit/537.36 (KHTML, like Gecko) Chrome/138.0.0.0 Safari/537.36 Edg/138.0.0.0","WebKit","Edge","138.0.0.0","Windows","10.0","https://app.prolific.com/","en-US,en;q=0.9","673e5bdd2e10e666f394780f","686d226cabeef709c732f8e1","686e3132b93feb81aca89863","673e5bdd2e10e666f394780f","2025-07-09T09:56:47.272Z","","","","","","","","","","","","","","","","win-only","0","g1:NW,g2:SE","0.3","8","0","2306121.6","1961.1","7016.4","319812.9","1","4","8","6","1","1","-7","13","20","0.09848484848484848","5055.3","3000","2090","[""left"",""up""]","{""num_key_presses"":31,""num_perfect"":8,""num_errors"":8,""num_randdir"":15,""num_randdir_good_moves"":5,""num_whilered"":0,""num_whileblue"":1,""num_blue"":7,""num_good_moves"":13}","[294.22232142857143,291.12857142857143,1.5,294.22232142857143,291.12857142857143,161.2,294.22232142857143,291.12857142857143,314.7,294.22232142857143,291.12857142857143,467,425.22232142857143,382.12857142857143,628.8,425.22232142857143,395.12857142857143,784.5,425.22232142857143,395.12857142857143,938,425.22232142857143,395.12857142857143,1090.3,425.22232142857143,395.12857142857143,1242.7,425.22232142857143,395.12857142857143,1397.4,425.22232142857143,395.12857142857143,1554.9,425.22232142857143,395.12857142857143,1706.9,425.22232142857143,395.12857142857143,1856.7,425.22232142857143,395.12857142857143,2010.7,425.22232142857143,395.12857142857143,2164.4,425.22232142857143,395.12857142857143,2316.1,425.22232142857143,395.12857142857143,2467.8,425.22232142857143,395.12857142857143,2621.8,425.22232142857143,395.12857142857143,2774.2,425.22232142857143,395.12857142857143,2926.5,425.22232142857143,395.12857142857143,3078.9,425.22232142857143,395.12857142857143,3234.5,425.22232142857143,395.12857142857143,3390.5,425.22232142857143,395.12857142857143,3544.5,425.22232142857143,395.12857142857143,3693.6,425.22232142857143,395.12857142857143,3841,425.22232142857143,395.12857142857143,3991.9,425.22232142857143,395.12857142857143,4145,425.22232142857143,395.12857142857143,4301.6,425.22232142857143,395.12857142857143,4453,425.22232142857143,395.12857142857143,4603,425.22232142857143,395.12857142857143,4755.8,425.22232142857143,395.12857142857143,4905.4]","[9527.7,9527.8,2547,6385.9,594.9,""oops"",""left"",""left"",""good_move"",24182.3,14654.1,1836.8,9528.2,12817.3,""oops"",""left"",""right"",""bad_move"",29550.7,5368,2718.1,24182.7,2649.9,""oops"",""left"",""right"",""bad_move"",34645,5093.8,2251,32406,-12,""error"",""-"",""-"",""no_move"",39072.6,4426.8,2630.2,35713.7,728.7,""oops"",""up"",""down"",""bad_move"",42466.5,3393.1,2566.7,39073.4,826.4,""smooth"",""up"",""up"",""good_move"",62039.1,19572.1,2983.3,42467,16588.8,""oops"",""left"",""left"",""good_move"",81819.5,19780,2634.3,62039.5,17145.7,""smooth"",""left"",""left"",""good_move"",101881,20060.6,2796.1,81820.4,17264.5,""smooth"",""left"",""left"",""good_move"",121501,19619.4,2039.4,101881.6,17580,""oops"",""up"",""up"",""good_move"",142101.8,20600.2,2648.1,121501.6,17952.1,""oops"",""up"",""right"",""bad_move"",144909.5,2807.1,1517.9,142102.4,1289.2,""oops"",""up"",""down"",""bad_move"",145967.7,1057.7,2257,144910.1,-1199.4,""error"",""-"",""-"",""no_move"",150261.9,4293.8,2489.3,147030.1,742.5,""oops"",""up"",""right"",""bad_move"",153727.1,3464.8,2750.2,150262.3,714.6,""oops"",""left"",""down"",""bad_move"",157718.8,3991.3,3035,153727.5,956.3,""smooth"",""left"",""left"",""good_move"",181355.3,23635.9,2598.6,178053.8,702.9,""smooth"",""up"",""up"",""good_move"",205185.8,23830.1,2519.8,202083.2,582.8,""oops"",""up"",""down"",""bad_move"",208192.4,3005.9,2328,205186.5,677.9,""oops"",""up"",""right"",""bad_move"",208804.8,611.9,2759,208192.9,-2147.1,""error"",""-"",""-"",""no_move"",211274,2468.6,1785.6,209810.3,-321.9,""error"",""-"",""-"",""no_move"",215975.1,4700.4,2827.7,212281.7,865.7,""while_blue"",""up"",""right"",""bad_move"",219117.7,3142,2228.7,215975.7,913.4,""smooth"",""up"",""up"",""good_move"",239967,20848.8,2061.8,219118.2,18787,""oops"",""up"",""left"",""good_move"",251704.7,11737.3,2509,239967.5,9228.2,""error"",""-"",""-"",""no_move"",263359.9,11654.6,2276.9,252743,8340.1,""oops"",""up"",""down"",""bad_move"",266523.8,3163.4,2345.2,263360.4,818.2,""oops"",""up"",""up"",""good_move"",268090.6,1566.2,2640,266524.4,-1073.8,""error"",""-"",""-"",""no_move"",269970.3,1879.3,2619,269096.2,-1744.9,""error"",""-"",""-"",""no_move"",291021.6,21050.8,2656.5,287782.1,583,""smooth"",""up"",""up"",""good_move"",311702.1,20680,2203,291022.1,18477.1,""smooth"",""left"",""left"",""good_move""]","",""
"7344","","<div style=""width:500px;"">
  <p>What determined the result of this run?</p>
  </div>","67","html-slider-response","73","2632419","0.0-10.0-1.7","180","1","2025-07-09 09:13:00","7701e855f2ef39aa3fd6c71abdc6918a","105.245.180.43","Mozilla/5.0 (Windows NT 10.0; Win64; x64) AppleWebKit/537.36 (KHTML, like Gecko) Chrome/138.0.0.0 Safari/537.36 Edg/138.0.0.0","WebKit","Edge","138.0.0.0","Windows","10.0","https://app.prolific.com/","en-US,en;q=0.9","673e5bdd2e10e666f394780f","686d226cabeef709c732f8e1","686e3132b93feb81aca89863","673e5bdd2e10e666f394780f","2025-07-09T09:56:54.627Z","","","","","","AttribQ","","","","","","","","","","","","","","","","","","","","","","","","","","","","","","","","","","","","","","50"
"3746","","<div style=""width:500px;"">
  <p>How much control did you have over the ball?</p>
  </div>","7","html-slider-response","74","2636177","0.0-10.0-2.7","180","1","2025-07-09 09:13:00","7701e855f2ef39aa3fd6c71abdc6918a","105.245.180.43","Mozilla/5.0 (Windows NT 10.0; Win64; x64) AppleWebKit/537.36 (KHTML, like Gecko) Chrome/138.0.0.0 Safari/537.36 Edg/138.0.0.0","WebKit","Edge","138.0.0.0","Windows","10.0","https://app.prolific.com/","en-US,en;q=0.9","673e5bdd2e10e666f394780f","686d226cabeef709c732f8e1","686e3132b93feb81aca89863","673e5bdd2e10e666f394780f","2025-07-09T09:56:58.385Z","","","","","","ControlQ","","","","","","","","","","","","","","","","","","","","","","","","","","","","","","","","","","","","","","50"
"3022","","<div style=""width:500px;"">
  <p>How would you describe your current emotional state?</p>
  </div>","91","html-slider-response","75","2639212","0.0-10.0-3.7","180","1","2025-07-09 09:13:00","7701e855f2ef39aa3fd6c71abdc6918a","105.245.180.43","Mozilla/5.0 (Windows NT 10.0; Win64; x64) AppleWebKit/537.36 (KHTML, like Gecko) Chrome/138.0.0.0 Safari/537.36 Edg/138.0.0.0","WebKit","Edge","138.0.0.0","Windows","10.0","https://app.prolific.com/","en-US,en;q=0.9","673e5bdd2e10e666f394780f","686d226cabeef709c732f8e1","686e3132b93feb81aca89863","673e5bdd2e10e666f394780f","2025-07-09T09:57:01.420Z","","","","","","StressQ","","","","","","","","","","","","","","","","","","","","","","","","","","","","","","","","","","","","","","50"
"3636","","<div style=""width:500px;"">
  <p>What best describes how you currently feel?</p>
  </div>","34","html-slider-response","76","2642861","0.0-10.0-4.7","180","1","2025-07-09 09:13:00","7701e855f2ef39aa3fd6c71abdc6918a","105.245.180.43","Mozilla/5.0 (Windows NT 10.0; Win64; x64) AppleWebKit/537.36 (KHTML, like Gecko) Chrome/138.0.0.0 Safari/537.36 Edg/138.0.0.0","WebKit","Edge","138.0.0.0","Windows","10.0","https://app.prolific.com/","en-US,en;q=0.9","673e5bdd2e10e666f394780f","686d226cabeef709c732f8e1","686e3132b93feb81aca89863","673e5bdd2e10e666f394780f","2025-07-09T09:57:05.069Z","","","","","","MotivationQ","","","","","","","","","","","","","","","","","","","","","","","","","","","","","","","","","","","","","","50"
"","","","","ctl-task-cpt","77","3244244","0.0-10.0-0.8","180","1","2025-07-09 09:13:00","7701e855f2ef39aa3fd6c71abdc6918a","105.245.180.43","Mozilla/5.0 (Windows NT 10.0; Win64; x64) AppleWebKit/537.36 (KHTML, like Gecko) Chrome/138.0.0.0 Safari/537.36 Edg/138.0.0.0","WebKit","Edge","138.0.0.0","Windows","10.0","https://app.prolific.com/","en-US,en;q=0.9","673e5bdd2e10e666f394780f","686d226cabeef709c732f8e1","686e3132b93feb81aca89863","673e5bdd2e10e666f394780f","2025-07-09T10:07:06.453Z","","","","","","","","","","","","","","","","win-only","2","g1:SE,g2:NW","0.2","9","0","2646872.4","15640.5","20687.8","596827","1","4","4","6","2","4","3","16","13","0.12121212121212122","5047.3","3000","1450","[""left"",""up""]","{""num_key_presses"":39,""num_perfect"":8,""num_errors"":1,""num_randdir"":30,""num_randdir_good_moves"":15,""num_whilered"":0,""num_whileblue"":0,""num_blue"":10,""num_good_moves"":19}","[297.22232142857143,296.12857142857143,0.5,297.22232142857143,296.12857142857143,172,297.22232142857143,296.12857142857143,307,297.22232142857143,296.12857142857143,445.8,303.22232142857143,296.12857142857143,585.1,361.22232142857143,313.12857142857143,724.2,456.22232142857143,473.12857142857143,865.2,415.22232142857143,417.12857142857143,1003.8,339.22232142857143,328.12857142857143,1142.2,331.22232142857143,338.12857142857143,1278.3,331.22232142857143,338.12857142857143,1412.3,331.22232142857143,338.12857142857143,1549,331.22232142857143,338.12857142857143,1685.6,331.22232142857143,338.12857142857143,1818.5,331.22232142857143,338.12857142857143,1955.6,331.22232142857143,338.12857142857143,2093.3,331.22232142857143,338.12857142857143,2230.8,331.22232142857143,338.12857142857143,2368.4,331.22232142857143,338.12857142857143,2499.2,331.22232142857143,338.12857142857143,2641.5,331.22232142857143,338.12857142857143,2778,331.22232142857143,338.12857142857143,2912.4,331.22232142857143,338.12857142857143,3044.6,331.22232142857143,338.12857142857143,3179.3,331.22232142857143,338.12857142857143,3310.6,331.22232142857143,338.12857142857143,3444.6,331.22232142857143,338.12857142857143,3578,331.22232142857143,338.12857142857143,3711.6,331.22232142857143,338.12857142857143,3846.3,331.22232142857143,338.12857142857143,3980,331.22232142857143,338.12857142857143,4113.9,331.22232142857143,338.12857142857143,4246.2,331.22232142857143,338.12857142857143,4380.1,331.22232142857143,338.12857142857143,4515.4,331.22232142857143,338.12857142857143,4649.9,331.22232142857143,338.12857142857143,4781.7,331.22232142857143,338.12857142857143,4914.7]","[7211.9,7211.9,1000,0,6211.9,""smooth"",""left"",""left"",""good_move"",30689.6,23477.2,2580.9,7212.4,20896.3,""oops"",""up"",""right"",""bad_move"",35857.7,5167.5,3344.3,30690.2,1823.2,""oops"",""up"",""down"",""bad_move"",39869.5,4011.3,2112.5,35858.2,1898.8,""smooth"",""right"",""right"",""bad_move"",43715,3845,2845.6,39870,999.4,""oops"",""down"",""right"",""bad_move"",47001,3285.5,2645,43715.5,640.5,""oops"",""up"",""left"",""good_move"",74312.9,27311.5,2644.9,70897.8,770.2,""oops"",""right"",""left"",""good_move"",99194.3,24880.8,1951,74313.6,22929.8,""oops"",""up"",""down"",""bad_move"",103461.6,4266.6,2567.5,99195.1,1699,""oops"",""up"",""down"",""bad_move"",110894.9,7432.6,2849.9,106746.3,1298.7,""oops"",""down"",""right"",""bad_move"",114362.1,3466.7,2693,110895.4,773.7,""oops"",""up"",""left"",""good_move"",138826.3,24463.6,2465.9,114362.7,21997.7,""oops"",""up"",""up"",""good_move"",163442.7,24615.9,2065.7,138826.8,22550.2,""oops"",""up"",""right"",""bad_move"",167155,3711.7,2938.4,163443.3,773.3,""oops"",""right"",""down"",""bad_move"",170129.2,2973.8,2252.3,167155.5,721.4,""oops"",""down"",""up"",""good_move"",194800.3,24670.6,2629.5,170129.7,22041.1,""oops"",""up"",""right"",""bad_move"",198076.9,3276,1858.3,194800.9,1417.7,""smooth"",""up"",""up"",""good_move"",222648.2,24570.9,2005.6,198077.3,22565.3,""oops"",""up"",""left"",""good_move"",248072.5,25423.8,2109.5,222648.7,23314.3,""smooth"",""right"",""right"",""bad_move"",252170.1,4097,2529.1,252140.5,-2499.5,""error"",""-"",""-"",""no_move"",256719.3,4548.6,2437.7,253312.7,968.9,""oops"",""left"",""down"",""bad_move"",260946.5,4226.6,3566.1,256719.9,660.5,""oops"",""left"",""left"",""good_move"",285891.3,24944.1,2743,260947.3,22201.1,""oops"",""left"",""down"",""bad_move"",288900.5,3008.7,1730,285891.8,1278.7,""oops"",""up"",""down"",""bad_move"",292070,3169.1,2237.5,288900.9,931.6,""oops"",""down"",""up"",""good_move"",322063.6,29992.9,2169.4,317616.3,2277.9,""oops"",""up"",""right"",""bad_move"",325100,3035.4,2202.8,322064.6,832.6,""oops"",""up"",""down"",""bad_move"",328596.2,3495.7,2695.6,325100.5,800.1,""smooth"",""up"",""up"",""good_move"",361407.4,32810.7,2411.3,358021.8,974.4,""smooth"",""up"",""up"",""good_move"",386925.6,25517.7,1722.8,361407.9,23794.9,""oops"",""up"",""left"",""good_move"",416307.5,29381.1,2826.9,412711.6,769,""oops"",""up"",""up"",""good_move"",442555.1,26246.8,3258.2,416308.3,22988.6,""oops"",""up"",""left"",""good_move"",469594,27038,2178.7,442556.1,24859.3,""smooth"",""right"",""right"",""bad_move"",476972.5,7378,2426.9,473231.5,1314.2,""oops"",""up"",""left"",""good_move"",508812.8,31839.9,3480.3,503741.4,1591.2,""oops"",""up"",""down"",""bad_move"",514370,5556.8,1643.7,511951.3,775.1,""smooth"",""right"",""right"",""bad_move"",518876.5,4505.7,3073.1,514370.9,1432.6,""oops"",""up"",""up"",""good_move"",545137.3,26260.2,1964.2,518877.1,24296,""oops"",""right"",""left"",""good_move"",572441.6,27303.8,3161.6,545137.8,24142.2,""oops"",""down"",""up"",""good_move""]","",""
"6834","","<div style=""width:500px;"">
  <p>What determined the result of this run?</p>
  </div>","68","html-slider-response","78","3251092","0.0-10.0-1.8","180","1","2025-07-09 09:13:00","7701e855f2ef39aa3fd6c71abdc6918a","105.245.180.43","Mozilla/5.0 (Windows NT 10.0; Win64; x64) AppleWebKit/537.36 (KHTML, like Gecko) Chrome/138.0.0.0 Safari/537.36 Edg/138.0.0.0","WebKit","Edge","138.0.0.0","Windows","10.0","https://app.prolific.com/","en-US,en;q=0.9","673e5bdd2e10e666f394780f","686d226cabeef709c732f8e1","686e3132b93feb81aca89863","673e5bdd2e10e666f394780f","2025-07-09T10:07:13.301Z","","","","","","AttribQ","","","","","","","","","","","","","","","","","","","","","","","","","","","","","","","","","","","","","","50"
"3861","","<div style=""width:500px;"">
  <p>How much control did you have over the ball?</p>
  </div>","13","html-slider-response","79","3254968","0.0-10.0-2.8","180","1","2025-07-09 09:13:00","7701e855f2ef39aa3fd6c71abdc6918a","105.245.180.43","Mozilla/5.0 (Windows NT 10.0; Win64; x64) AppleWebKit/537.36 (KHTML, like Gecko) Chrome/138.0.0.0 Safari/537.36 Edg/138.0.0.0","WebKit","Edge","138.0.0.0","Windows","10.0","https://app.prolific.com/","en-US,en;q=0.9","673e5bdd2e10e666f394780f","686d226cabeef709c732f8e1","686e3132b93feb81aca89863","673e5bdd2e10e666f394780f","2025-07-09T10:07:17.176Z","","","","","","ControlQ","","","","","","","","","","","","","","","","","","","","","","","","","","","","","","","","","","","","","","50"
"3550","","<div style=""width:500px;"">
  <p>How would you describe your current emotional state?</p>
  </div>","77","html-slider-response","80","3258533","0.0-10.0-3.8","180","1","2025-07-09 09:13:00","7701e855f2ef39aa3fd6c71abdc6918a","105.245.180.43","Mozilla/5.0 (Windows NT 10.0; Win64; x64) AppleWebKit/537.36 (KHTML, like Gecko) Chrome/138.0.0.0 Safari/537.36 Edg/138.0.0.0","WebKit","Edge","138.0.0.0","Windows","10.0","https://app.prolific.com/","en-US,en;q=0.9","673e5bdd2e10e666f394780f","686d226cabeef709c732f8e1","686e3132b93feb81aca89863","673e5bdd2e10e666f394780f","2025-07-09T10:07:20.741Z","","","","","","StressQ","","","","","","","","","","","","","","","","","","","","","","","","","","","","","","","","","","","","","","50"
"3922","","<div style=""width:500px;"">
  <p>What best describes how you currently feel?</p>
  </div>","27","html-slider-response","81","3262470","0.0-10.0-4.8","180","1","2025-07-09 09:13:00","7701e855f2ef39aa3fd6c71abdc6918a","105.245.180.43","Mozilla/5.0 (Windows NT 10.0; Win64; x64) AppleWebKit/537.36 (KHTML, like Gecko) Chrome/138.0.0.0 Safari/537.36 Edg/138.0.0.0","WebKit","Edge","138.0.0.0","Windows","10.0","https://app.prolific.com/","en-US,en;q=0.9","673e5bdd2e10e666f394780f","686d226cabeef709c732f8e1","686e3132b93feb81aca89863","673e5bdd2e10e666f394780f","2025-07-09T10:07:24.678Z","","","","","","MotivationQ","","","","","","","","","","","","","","","","","","","","","","","","","","","","","","","","","","","","","","50"
