"rt","response_timestamp","stimulus","response","trial_type","trial_index","time_elapsed","internal_node_id","run_id","condition","recorded_at","source_code_version","ip","user_agent","device","browser","browser_version","platform","platform_version","referer","accept_language","PROLIFIC_PID","STUDY_ID","SESSION_ID","prolific_id","realtime","view_history","question_order","consent","success","question_id","eventType","responses","item_order","radio_event_ids","radio_event_times","key_event_times","mouse_event_times","straightlining","zigzagging","honeypot","which_type","canvas_config","goals_layout","control_level","trial_number","tutorial_trial_number","trial_start_time","phase1_start_time","phase2_start_time","phase3_start_time","goal_1_value","goal_1_distance","goal_2_value","goal_2_distance","goal_selected","outcome","outcome_total","participant_final_score","participant_initial_score","participant_final_score_prop","goal_choice_rt","allocated_time","allocated_time_remaining","goal_direction","counts","mouse_movements","key_presses","correct","slider_start"
"52160","1752052266423","<p style='font-size:40px;line-height:1.25'><strong>Welcome to the experiment!</strong></p><p style='font-size:1.1em;line-height:1.25'>Thank you for your interest in our experiment! Before you begin, it is important that we obtain your informed consent to participate in the study.</p><p style='font-size:1.1em;line-height:1.25'>On the next screen will be an <strong>information sheet</strong> for you to read. To participate in the study we need you to read this information sheet and the following consent form carefully. If you agree with all the statements, please click the <strong>I agree</strong> button.</p><p style='font-size:1.1em;line-height:1.25'>Press <strong>Next</strong> to read the information sheet.</p>","0","custom-html-button-response","0","52166","0.0-0.0","154","1","2025-07-09 09:10:09","7701e855f2ef39aa3fd6c71abdc6918a","62.164.249.91","Mozilla/5.0 (Windows NT 10.0; Win64; x64) AppleWebKit/537.36 (KHTML, like Gecko) Chrome/132.0.0.0 Safari/537.36","WebKit","Chrome","132.0.0.0","Windows","10.0","https://app.prolific.com/","en-US,en;q=0.9","6792a60bf1238ae52e645ecb","686d226cabeef709c732f8e1","686e3139b2d537397cf142d8","6792a60bf1238ae52e645ecb","2025-07-09T09:11:06.424Z","","","","","","","","","","","","","","","","","","","","","","","","","","","","","","","","","","","","","","","","","","","",""
"1086038","","","","instructions","1","1138205","0.0-1.0","154","1","2025-07-09 09:10:09","7701e855f2ef39aa3fd6c71abdc6918a","62.164.249.91","Mozilla/5.0 (Windows NT 10.0; Win64; x64) AppleWebKit/537.36 (KHTML, like Gecko) Chrome/132.0.0.0 Safari/537.36","WebKit","Chrome","132.0.0.0","Windows","10.0","https://app.prolific.com/","en-US,en;q=0.9","6792a60bf1238ae52e645ecb","686d226cabeef709c732f8e1","686e3139b2d537397cf142d8","6792a60bf1238ae52e645ecb","","[{""page_index"":0,""viewing_time"":1051027},{""page_index"":1,""viewing_time"":35010}]","","","","","","","","","","","","","","","","","","","","","","","","","","","","","","","","","","","","","","","","","","",""
"26034","","","{""Q0"":"""",""Q1"":"""",""Q2"":"""",""Q3"":"""",""Q4"":"""",""Q5"":"""",""Q6"":""I agree""}","survey-multi-choice","2","1164241","0.0-2.0","154","1","2025-07-09 09:10:09","7701e855f2ef39aa3fd6c71abdc6918a","62.164.249.91","Mozilla/5.0 (Windows NT 10.0; Win64; x64) AppleWebKit/537.36 (KHTML, like Gecko) Chrome/132.0.0.0 Safari/537.36","WebKit","Chrome","132.0.0.0","Windows","10.0","https://app.prolific.com/","en-US,en;q=0.9","6792a60bf1238ae52e645ecb","686d226cabeef709c732f8e1","686e3139b2d537397cf142d8","6792a60bf1238ae52e645ecb","","","[0,1,2,3,4,5,6]","true","","","","","","","","","","","","","","","","","","","","","","","","","","","","","","","","","","","","","","","","",""
"17543","","","","fullscreen","3","1182787","0.0-4.0","154","1","2025-07-09 09:10:09","7701e855f2ef39aa3fd6c71abdc6918a","62.164.249.91","Mozilla/5.0 (Windows NT 10.0; Win64; x64) AppleWebKit/537.36 (KHTML, like Gecko) Chrome/132.0.0.0 Safari/537.36","WebKit","Chrome","132.0.0.0","Windows","10.0","https://app.prolific.com/","en-US,en;q=0.9","6792a60bf1238ae52e645ecb","686d226cabeef709c732f8e1","686e3139b2d537397cf142d8","6792a60bf1238ae52e645ecb","","","","","true","","","","","","","","","","","","","","","","","","","","","","","","","","","","","","","","","","","","","","","",""
"11374","1752053408420"," <p style='font-size:1.1em;line-height:1.25'>Thank you for completing the consent form and closing all other tabs.</p><p style='font-size:1.1em;line-height:1.25'>We will now invite you to fill in some demographic information and questionnaires, before starting the game.<br>This will take about 5 minutes.<br></p><p style='font-size:1.1em;line-height:1.25'>Press the <strong>Next</strong> button to continue.</p>","0","custom-html-button-response","4","1194162","0.0-5.0","154","1","2025-07-09 09:10:09","7701e855f2ef39aa3fd6c71abdc6918a","62.164.249.91","Mozilla/5.0 (Windows NT 10.0; Win64; x64) AppleWebKit/537.36 (KHTML, like Gecko) Chrome/132.0.0.0 Safari/537.36","WebKit","Chrome","132.0.0.0","Windows","10.0","https://app.prolific.com/","en-US,en;q=0.9","6792a60bf1238ae52e645ecb","686d226cabeef709c732f8e1","686e3139b2d537397cf142d8","6792a60bf1238ae52e645ecb","2025-07-09T09:30:08.421Z","","","","","","","","","","","","","","","","","","","","","","","","","","","","","","","","","","","","","","","","","","","",""
"4799","","","{""age"":""26""}","survey-text","5","1198964","0.0-6.0-0.0","154","1","2025-07-09 09:10:09","7701e855f2ef39aa3fd6c71abdc6918a","62.164.249.91","Mozilla/5.0 (Windows NT 10.0; Win64; x64) AppleWebKit/537.36 (KHTML, like Gecko) Chrome/132.0.0.0 Safari/537.36","WebKit","Chrome","132.0.0.0","Windows","10.0","https://app.prolific.com/","en-US,en;q=0.9","6792a60bf1238ae52e645ecb","686d226cabeef709c732f8e1","686e3139b2d537397cf142d8","6792a60bf1238ae52e645ecb","","","","","","0","demographics","","","","","","","","","","","","","","","","","","","","","","","","","","","","","","","","","","","","","",""
"9876","","","{""gender_identity"":""female/woman""}","survey-multi-choice","6","1208841","0.0-6.0-1.0","154","1","2025-07-09 09:10:09","7701e855f2ef39aa3fd6c71abdc6918a","62.164.249.91","Mozilla/5.0 (Windows NT 10.0; Win64; x64) AppleWebKit/537.36 (KHTML, like Gecko) Chrome/132.0.0.0 Safari/537.36","WebKit","Chrome","132.0.0.0","Windows","10.0","https://app.prolific.com/","en-US,en;q=0.9","6792a60bf1238ae52e645ecb","686d226cabeef709c732f8e1","686e3139b2d537397cf142d8","6792a60bf1238ae52e645ecb","","","[0]","","","1","demographics","","","","","","","","","","","","","","","","","","","","","","","","","","","","","","","","","","","","","",""
"6770","","","{""assigned_sex"":""female""}","survey-multi-choice","7","1215612","0.0-6.0-2.0","154","1","2025-07-09 09:10:09","7701e855f2ef39aa3fd6c71abdc6918a","62.164.249.91","Mozilla/5.0 (Windows NT 10.0; Win64; x64) AppleWebKit/537.36 (KHTML, like Gecko) Chrome/132.0.0.0 Safari/537.36","WebKit","Chrome","132.0.0.0","Windows","10.0","https://app.prolific.com/","en-US,en;q=0.9","6792a60bf1238ae52e645ecb","686d226cabeef709c732f8e1","686e3139b2d537397cf142d8","6792a60bf1238ae52e645ecb","","","[0]","","","2","demographics","","","","","","","","","","","","","","","","","","","","","","","","","","","","","","","","","","","","","",""
"4265","","","{""menstrual_cycle"":""Yes""}","survey-multi-choice","8","1219878","0.0-6.0-3.0","154","1","2025-07-09 09:10:09","7701e855f2ef39aa3fd6c71abdc6918a","62.164.249.91","Mozilla/5.0 (Windows NT 10.0; Win64; x64) AppleWebKit/537.36 (KHTML, like Gecko) Chrome/132.0.0.0 Safari/537.36","WebKit","Chrome","132.0.0.0","Windows","10.0","https://app.prolific.com/","en-US,en;q=0.9","6792a60bf1238ae52e645ecb","686d226cabeef709c732f8e1","686e3139b2d537397cf142d8","6792a60bf1238ae52e645ecb","","","[0]","","","4","demographics","","","","","","","","","","","","","","","","","","","","","","","","","","","","","","","","","","","","","",""
"9335","","","{""education"":""Master's Degree (e.g., MSc)""}","survey-multi-choice","9","1229215","0.0-6.0-4.0","154","1","2025-07-09 09:10:09","7701e855f2ef39aa3fd6c71abdc6918a","62.164.249.91","Mozilla/5.0 (Windows NT 10.0; Win64; x64) AppleWebKit/537.36 (KHTML, like Gecko) Chrome/132.0.0.0 Safari/537.36","WebKit","Chrome","132.0.0.0","Windows","10.0","https://app.prolific.com/","en-US,en;q=0.9","6792a60bf1238ae52e645ecb","686d226cabeef709c732f8e1","686e3139b2d537397cf142d8","6792a60bf1238ae52e645ecb","","","[0]","","","5","demographics","","","","","","","","","","","","","","","","","","","","","","","","","","","","","","","","","","","","","",""
"10618","","","{""education"":""Master's Degree (e.g., MSc)""}","survey-multi-choice","10","1239835","0.0-6.0-5.0","154","1","2025-07-09 09:10:09","7701e855f2ef39aa3fd6c71abdc6918a","62.164.249.91","Mozilla/5.0 (Windows NT 10.0; Win64; x64) AppleWebKit/537.36 (KHTML, like Gecko) Chrome/132.0.0.0 Safari/537.36","WebKit","Chrome","132.0.0.0","Windows","10.0","https://app.prolific.com/","en-US,en;q=0.9","6792a60bf1238ae52e645ecb","686d226cabeef709c732f8e1","686e3139b2d537397cf142d8","6792a60bf1238ae52e645ecb","2025-07-09T09:30:54.093Z","","[0]","","","6","demographics","","","","","","","","","","","","","","","","","","","","","","","","","","","","","","","","","","","","","",""
"12139","","","{""mental_health_condition"":""no"",""mental_health_treatment"":""no"",""psychiatric_medication"":""no""}","survey-text","11","1251976","0.0-7.0-0.0","154","1","2025-07-09 09:10:09","7701e855f2ef39aa3fd6c71abdc6918a","62.164.249.91","Mozilla/5.0 (Windows NT 10.0; Win64; x64) AppleWebKit/537.36 (KHTML, like Gecko) Chrome/132.0.0.0 Safari/537.36","WebKit","Chrome","132.0.0.0","Windows","10.0","https://app.prolific.com/","en-US,en;q=0.9","6792a60bf1238ae52e645ecb","686d226cabeef709c732f8e1","686e3139b2d537397cf142d8","6792a60bf1238ae52e645ecb","2025-07-09T09:31:06.234Z","","","","","1","mental_health","","","","","","","","","","","","","","","","","","","","","","","","","","","","","","","","","","","","","",""
"12311","","","{""depression_history"":[""Yes""]}","survey-multi-select","12","1264290","0.0-7.0-1.0","154","1","2025-07-09 09:10:09","7701e855f2ef39aa3fd6c71abdc6918a","62.164.249.91","Mozilla/5.0 (Windows NT 10.0; Win64; x64) AppleWebKit/537.36 (KHTML, like Gecko) Chrome/132.0.0.0 Safari/537.36","WebKit","Chrome","132.0.0.0","Windows","10.0","https://app.prolific.com/","en-US,en;q=0.9","6792a60bf1238ae52e645ecb","686d226cabeef709c732f8e1","686e3139b2d537397cf142d8","6792a60bf1238ae52e645ecb","","","[0]","","","","mental_health","","","","","","","","","","","","","","","","","","","","","","","","","","","","","","","","","","","","","",""
"8692","","","{""depression_episodes"":""1-2"",""depression_recent"":""More than 1 year ago""}","survey-multi-choice","13","1272984","0.0-7.0-2.0-0.0","154","1","2025-07-09 09:10:09","7701e855f2ef39aa3fd6c71abdc6918a","62.164.249.91","Mozilla/5.0 (Windows NT 10.0; Win64; x64) AppleWebKit/537.36 (KHTML, like Gecko) Chrome/132.0.0.0 Safari/537.36","WebKit","Chrome","132.0.0.0","Windows","10.0","https://app.prolific.com/","en-US,en;q=0.9","6792a60bf1238ae52e645ecb","686d226cabeef709c732f8e1","686e3139b2d537397cf142d8","6792a60bf1238ae52e645ecb","2025-07-09T09:31:27.242Z","","[0,1]","","","3","mental_health","","","","","","","","","","","","","","","","","","","","","","","","","","","","","","","","","","","","","",""
"205974.29999995232","","","","survey-template","14","1478962","0.0-7.0-3.0","154","1","2025-07-09 09:10:09","7701e855f2ef39aa3fd6c71abdc6918a","62.164.249.91","Mozilla/5.0 (Windows NT 10.0; Win64; x64) AppleWebKit/537.36 (KHTML, like Gecko) Chrome/132.0.0.0 Safari/537.36","WebKit","Chrome","132.0.0.0","Windows","10.0","https://app.prolific.com/","en-US,en;q=0.9","6792a60bf1238ae52e645ecb","686d226cabeef709c732f8e1","686e3139b2d537397cf142d8","6792a60bf1238ae52e645ecb","2025-07-09T09:34:53.220Z","","","","","","ius","{""Q01"":""1"",""Q02"":""3"",""Q03"":""3"",""Q04"":""4"",""Q05"":""4"",""Q06"":""4"",""Q07"":""3"",""Q08"":""0"",""Q09"":""1"",""Q10"":""2"",""Q11"":""0"",""Q12"":""3"",""Q13"":""1""}","[0,1,2,3,4,5,6,7,8,9,10,11,12]","[""Q01"",""Q02"",""Q03"",""Q04"",""Q05"",""Q06"",""Q07"",""Q08"",""Q09"",""Q10"",""Q11"",""Q12"",""Q13""]","[77690.19999992847,81098.19999992847,86761.09999990463,90081.39999997616,95193.69999992847,113590.79999995232,122312.5,124610.79999995232,182536.39999997616,188192.5,193408.19999992847,199175.09999990463,204472.69999992847]","[]","[77690.19999992847,81098.19999992847,86761.09999990463,90081.39999997616,95193.69999992847,113590.79999995232,118710,120727.09999990463,122312.5,124610.79999995232,182536.39999997616,188192.5,193408.19999992847,199175.09999990463,203473.09999990463,204472.69999992847,205972.59999990463]","0.3076923076923077","0.3333333333333333","0","","","","","","","","","","","","","","","","","","","","","","","","","","","","",""
"7015","1752053700235","<p style='font-size:1.1em;line-height:1.25'>In the following, we will ask you a few questions relating to your experiences over the past month.<br></p><p style='font-size:1.1em;line-height:1.25'>Press the <strong>Next</strong> button to continue.</p>","0","custom-html-button-response","15","1485978","0.0-7.0-4.0","154","1","2025-07-09 09:10:09","7701e855f2ef39aa3fd6c71abdc6918a","62.164.249.91","Mozilla/5.0 (Windows NT 10.0; Win64; x64) AppleWebKit/537.36 (KHTML, like Gecko) Chrome/132.0.0.0 Safari/537.36","WebKit","Chrome","132.0.0.0","Windows","10.0","https://app.prolific.com/","en-US,en;q=0.9","6792a60bf1238ae52e645ecb","686d226cabeef709c732f8e1","686e3139b2d537397cf142d8","6792a60bf1238ae52e645ecb","2025-07-09T09:35:00.236Z","","","","","","","","","","","","","","","","","","","","","","","","","","","","","","","","","","","","","","","","","","","",""
"142824.60000002384","","","","survey-template","16","1628808","0.0-7.0-5.0","154","1","2025-07-09 09:10:09","7701e855f2ef39aa3fd6c71abdc6918a","62.164.249.91","Mozilla/5.0 (Windows NT 10.0; Win64; x64) AppleWebKit/537.36 (KHTML, like Gecko) Chrome/132.0.0.0 Safari/537.36","WebKit","Chrome","132.0.0.0","Windows","10.0","https://app.prolific.com/","en-US,en;q=0.9","6792a60bf1238ae52e645ecb","686d226cabeef709c732f8e1","686e3139b2d537397cf142d8","6792a60bf1238ae52e645ecb","2025-07-09T09:37:23.066Z","","","","","","pss","{""Q01"":""1"",""Q02"":""3"",""Q03"":""3"",""Q04"":""1"",""Q05"":""2"",""Q06"":""3"",""Q07"":""1"",""Q08"":""2"",""Q09"":""3"",""Q10"":""2""}","[0,1,2,3,4,5,6,7,8,9]","[""Q01"",""Q02"",""Q03"",""Q04"",""Q05"",""Q05"",""Q06"",""Q07"",""Q08"",""Q09"",""Q08"",""Q10""]","[82001.10000002384,85933.89999997616,91086,95239.10000002384,97354.29999995232,101088.5,107840.10000002384,111740.39999997616,113871.19999992847,120540.10000002384,124745.19999992847,141357.19999992847]","[]","[0.10000002384185791,82001.10000002384,85933.89999997616,91086,95239.10000002384,97354.29999995232,101088.5,107840.10000002384,110587.60000002384,111740.39999997616,113871.19999992847,115335.89999997616,120540.10000002384,123584.69999992847,124745.19999992847,139166.29999995232,140477.69999992847,141357.19999992847,142823.19999992847]","0.6","0.5555555555555556","0","","","","","","","","","","","","","","","","","","","","","","","","","","","","",""
"8415","1752053851482","<p style='font-size:1.1em;line-height:1.25'>Thank you for your answers! Now we will ask you a few more questions relating to your feelings in the last 24 hours.<br></p><p style='font-size:1.1em;line-height:1.25'>Press the <strong>Next</strong> button to continue.</p>","0","custom-html-button-response","17","1637225","0.0-7.0-6.0","154","1","2025-07-09 09:10:09","7701e855f2ef39aa3fd6c71abdc6918a","62.164.249.91","Mozilla/5.0 (Windows NT 10.0; Win64; x64) AppleWebKit/537.36 (KHTML, like Gecko) Chrome/132.0.0.0 Safari/537.36","WebKit","Chrome","132.0.0.0","Windows","10.0","https://app.prolific.com/","en-US,en;q=0.9","6792a60bf1238ae52e645ecb","686d226cabeef709c732f8e1","686e3139b2d537397cf142d8","6792a60bf1238ae52e645ecb","2025-07-09T09:37:31.483Z","","","","","","","","","","","","","","","","","","","","","","","","","","","","","","","","","","","","","","","","","","","",""
"202982.70000004768","","","","survey-template","18","1840215","0.0-7.0-7.0","154","1","2025-07-09 09:10:09","7701e855f2ef39aa3fd6c71abdc6918a","62.164.249.91","Mozilla/5.0 (Windows NT 10.0; Win64; x64) AppleWebKit/537.36 (KHTML, like Gecko) Chrome/132.0.0.0 Safari/537.36","WebKit","Chrome","132.0.0.0","Windows","10.0","https://app.prolific.com/","en-US,en;q=0.9","6792a60bf1238ae52e645ecb","686d226cabeef709c732f8e1","686e3139b2d537397cf142d8","6792a60bf1238ae52e645ecb","2025-07-09T09:40:54.473Z","","","","","","drsp","{""Q01"":""0"",""Q02"":""0"",""Q03"":""0"",""Q04"":""0"",""Q05"":""0"",""Q06"":""0"",""Q07"":""0"",""Q08"":""0"",""Q09"":""0"",""Q10"":""2"",""Q11"":""0"",""Q12"":""3"",""Q13"":""3"",""Q14"":""2"",""Q15"":""2"",""Q16"":""2"",""Q17"":""1"",""Q18"":""1"",""Q19"":""1"",""Q20"":""1"",""Q21"":""1""}","[0,1,2,3,4,5,6,7,8,9,10,11,12,13,14,15,16,17,18,19,20]","[""Q01"",""Q01"",""Q02"",""Q03"",""Q05"",""Q04"",""Q06"",""Q07"",""Q08"",""Q09"",""Q10"",""Q11"",""Q12"",""Q13"",""Q14"",""Q15"",""Q16"",""Q17"",""Q17"",""Q18"",""Q19"",""Q20"",""Q21""]","[2793.100000023842,3810.5,6006.200000047684,7132,13165,14902.200000047684,17286.900000095367,21611,24569.300000071526,87525.70000004768,90482.90000009537,94902.5,99607.30000007153,102104.40000009537,105759.10000002384,109670.40000009537,144335.10000002384,145981.10000002384,148432,161101.5,195065.80000007153,198166.90000009537,200712.5]","[]","[0,2793.100000023842,3810.5,4882.700000047684,6006.200000047684,7132,11292.600000023842,12089.600000023842,13165,14902.200000047684,17286.900000095367,21611,24569.300000071526,86345.30000007153,87525.70000004768,89120.30000007153,90482.90000009537,94902.5,99607.30000007153,100976.10000002384,102104.40000009537,105759.10000002384,109670.40000009537,142910.5,143136.90000009537,144335.10000002384,145981.10000002384,148432,161101.5,195065.80000007153,196946.10000002384,198166.90000009537,200712.5,202979.60000002384]","0.47619047619047616","0.1","0","","","","","","","","","","","","","","","","","","","","","","","","","","","","",""
"42180.200000047684","","","","survey-template","19","1882397","0.0-7.0-8.0","154","1","2025-07-09 09:10:09","7701e855f2ef39aa3fd6c71abdc6918a","62.164.249.91","Mozilla/5.0 (Windows NT 10.0; Win64; x64) AppleWebKit/537.36 (KHTML, like Gecko) Chrome/132.0.0.0 Safari/537.36","WebKit","Chrome","132.0.0.0","Windows","10.0","https://app.prolific.com/","en-US,en;q=0.9","6792a60bf1238ae52e645ecb","686d226cabeef709c732f8e1","686e3139b2d537397cf142d8","6792a60bf1238ae52e645ecb","2025-07-09T09:41:36.655Z","","","","","","stress","{""Q01"":""0"",""Q02"":""2"",""Q03"":""2""}","[0,1,2]","[""Q01"",""Q02"",""Q03""]","[21007.100000023842,26806.900000095367,40461.5]","[]","[19807.600000023842,21007.100000023842,26806.900000095367,40461.5,42179.5]","0.3333333333333333","0.5","0","","","","","","","","","","","","","","","","","","","","","","","","","","","","",""
"271262","","","","instructions","20","2153660","0.0-8.0-0.0","154","1","2025-07-09 09:10:09","7701e855f2ef39aa3fd6c71abdc6918a","62.164.249.91","Mozilla/5.0 (Windows NT 10.0; Win64; x64) AppleWebKit/537.36 (KHTML, like Gecko) Chrome/132.0.0.0 Safari/537.36","WebKit","Chrome","132.0.0.0","Windows","10.0","https://app.prolific.com/","en-US,en;q=0.9","6792a60bf1238ae52e645ecb","686d226cabeef709c732f8e1","686e3139b2d537397cf142d8","6792a60bf1238ae52e645ecb","","[{""page_index"":0,""viewing_time"":119807},{""page_index"":1,""viewing_time"":26503},{""page_index"":2,""viewing_time"":97889},{""page_index"":3,""viewing_time"":27062}]","","","","","","","","","","","","","","","","","","","","","","","","","","","","","","","","","","","","","","","","","","",""
"","","","","ctl-task-cpt","21","2179659","0.0-8.0-1.0","154","1","2025-07-09 09:10:09","7701e855f2ef39aa3fd6c71abdc6918a","62.164.249.91","Mozilla/5.0 (Windows NT 10.0; Win64; x64) AppleWebKit/537.36 (KHTML, like Gecko) Chrome/132.0.0.0 Safari/537.36","WebKit","Chrome","132.0.0.0","Windows","10.0","https://app.prolific.com/","en-US,en;q=0.9","6792a60bf1238ae52e645ecb","686d226cabeef709c732f8e1","686e3139b2d537397cf142d8","6792a60bf1238ae52e645ecb","","","","","","","","","","","","","","","","","win-only","1","g1:NE,g2:SW","1","0","1","2159521.6","2359.3","6361.5","22992.7","2","4","4","6","1","2","0","0","0","0","2248.7","4000","1865","[""up"",""right""]","{""num_key_presses"":8,""num_perfect"":4,""num_errors"":2,""num_randdir"":0,""num_randdir_good_moves"":0,""num_whilered"":2,""num_whileblue"":0,""num_blue"":1,""num_good_moves"":4}","[415.3214133126395,416.57142761775424,0.2,415.3214133126395,416.57142761775424,102.5,415.3214133126395,416.57142761775424,202.7,415.3214133126395,416.57142761775424,306.7,415.3214133126395,416.57142761775424,412.8,415.3214133126395,416.57142761775424,516.3,415.3214133126395,416.57142761775424,616.6,427.8214133126395,401.57142761775424,721.8,460.3214133126395,365.32142761775424,827.7,487.8214133126395,356.57142761775424,931.7,492.8214133126395,361.57142761775424,1170.4,492.8214133126395,425.32142761775424,1271.3,491.5714133126395,431.57142761775424,1371.6,497.8214133126395,432.82142761775424,1476.5,674.0714133126395,251.57142761775424,1576.7,707.8214133126395,164.07142761775424,1677.1,704.0714133126395,142.82142761775424,1781.2,710.3214133126395,106.57142761775425,1882.7,735.3214133126395,81.57142761775425,1987.1,741.5714133126395,79.07142761775425,2092.8,741.5714133126395,79.07142761775425,2196.6,741.5714133126395,79.07142761775425,2377.9,741.5714133126395,79.07142761775425,2481.8,741.5714133126395,79.07142761775425,2581.9,741.5714133126395,79.07142761775425,2682.2,699.0714133126395,151.57142761775424,2832.5,457.8214133126395,462.82142761775424,2938.4,435.3214133126395,477.82142761775424,3041.8,490.3214133126395,416.57142761775424,3146.5,495.3214133126395,411.57142761775424,3253.1,499.0714133126395,404.07142761775424,3357.2,496.5714133126395,374.07142761775424,3461.5,492.8214133126395,366.57142761775424,3561.7,492.8214133126395,365.32142761775424,3662.3,492.8214133126395,365.32142761775424,3762.9,492.8214133126395,365.32142761775424,3866.7,492.8214133126395,365.32142761775424,3971.2]","[1117.7,1117.7,1000,0,117.7,""smooth"",""right"",""right"",""good_move"",1316.1,197.9,2663.2,1118.3,-2465.4,""error"",""-"",""-"",""no_move"",1490.8,174.5,2663.2,1118.3,-2290.7,""while_red"",""-"",""-"",""no_move"",1769.4,453.1,2663.2,1118.3,-2012.1,""while_red"",""-"",""-"",""no_move"",8925.3,7609,2345.1,6134.5,445.7,""smooth"",""right"",""right"",""good_move"",12742,3816.5,2655.3,8925.5,1161.2,""smooth"",""up"",""up"",""good_move"",13127.6,385.4,2429.2,12742.3,-2043.8,""error"",""-"",""-"",""no_move"",16542,3414.1,1886.3,14129.2,526.5,""smooth"",""up"",""up"",""good_move""]","",""
"15237","","","","instructions","22","2194896","0.0-8.0-2.0","154","1","2025-07-09 09:10:09","7701e855f2ef39aa3fd6c71abdc6918a","62.164.249.91","Mozilla/5.0 (Windows NT 10.0; Win64; x64) AppleWebKit/537.36 (KHTML, like Gecko) Chrome/132.0.0.0 Safari/537.36","WebKit","Chrome","132.0.0.0","Windows","10.0","https://app.prolific.com/","en-US,en;q=0.9","6792a60bf1238ae52e645ecb","686d226cabeef709c732f8e1","686e3139b2d537397cf142d8","6792a60bf1238ae52e645ecb","","[{""page_index"":0,""viewing_time"":15237}]","","","","","","","","","","","","","","","","","","","","","","","","","","","","","","","","","","","","","","","","","","",""
"","","","","ctl-task-cpt","23","2247083","0.0-8.0-3.0","154","1","2025-07-09 09:10:09","7701e855f2ef39aa3fd6c71abdc6918a","62.164.249.91","Mozilla/5.0 (Windows NT 10.0; Win64; x64) AppleWebKit/537.36 (KHTML, like Gecko) Chrome/132.0.0.0 Safari/537.36","WebKit","Chrome","132.0.0.0","Windows","10.0","https://app.prolific.com/","en-US,en;q=0.9","6792a60bf1238ae52e645ecb","686d226cabeef709c732f8e1","686e3139b2d537397cf142d8","6792a60bf1238ae52e645ecb","","","","","","","","","","","","","","","","","win-only","1","g1:NE,g2:SW","0.35","0","3","2200756.1","1601.2","5605.6","49171.4","2","4","8","6","2","-8","-9","0","0","0","1434.2","4000","-2825","[""down"",""left""]","{""num_key_presses"":9,""num_perfect"":4,""num_errors"":1,""num_randdir"":4,""num_randdir_good_moves"":2,""num_whilered"":0,""num_whileblue"":1,""num_blue"":5,""num_good_moves"":7}","[409.0714133126395,421.57142761775424,0.3,409.0714133126395,421.57142761775424,100.1,409.0714133126395,421.57142761775424,207,409.0714133126395,421.57142761775424,309.1,409.0714133126395,421.57142761775424,409.3,521.5714133126395,496.57142761775424,509.6,531.5714133126395,590.3214276177542,614.2,351.5714133126395,721.5714276177542,714.7,226.5714133126395,766.5714276177542,814.8,166.5714133126395,765.3214276177542,919.2,134.0714133126395,760.3214276177542,1020,119.0714133126395,760.3214276177542,1120.3,111.5714133126395,760.3214276177542,1220.4,110.3214133126395,760.3214276177542,1324.5,110.3214133126395,760.3214276177542,1433.8,110.3214133126395,760.3214276177542,1534.5,110.3214133126395,760.3214276177542,1635.8,110.3214133126395,760.3214276177542,1739.4,59.07141331263951,601.5714276177542,1839.7,42.82141331263951,391.57142761775424,1944.1,34.07141331263951,276.57142761775424,2044.6,34.07141331263951,260.32142761775424,2145.7,34.07141331263951,260.32142761775424,2250.5,-38.42858668736049,129.07142761775424,2354.8,-70.9285866873605,91.57142761775425,2459.5,-78.4285866873605,86.57142761775425,2559.9,-78.4285866873605,86.57142761775425,2660,-78.4285866873605,86.57142761775425,2764.4,-78.4285866873605,86.57142761775425,2864.5,-78.4285866873605,86.57142761775425,2970.2,-78.4285866873605,86.57142761775425,3074.1,-78.4285866873605,86.57142761775425,3174.4,-78.4285866873605,86.57142761775425,3274.7,-78.4285866873605,86.57142761775425,3379.6,-78.4285866873605,86.57142761775425,3479.6,-78.4285866873605,86.57142761775425,3584.5,-78.4285866873605,86.57142761775425,3689.1,-78.4285866873605,86.57142761775425,3789.5,-78.4285866873605,86.57142761775425,3896.1,-78.4285866873605,86.57142761775425,3999.1]","[1424.4,1424.4,1000,0,424.4,""oops"",""down"",""up"",""bad_move"",4264.8,2840.2,2326.8,1424.6,513.4,""smooth"",""down"",""down"",""good_move"",7176.2,2911,2500.5,4265.2,410.5,""smooth"",""down"",""down"",""good_move"",9820.2,2643.6,2323.3,7176.6,320.3,""while_blue"",""left"",""down"",""good_move"",16297.9,6477.4,2383.2,13440.4,474.4,""smooth"",""left"",""left"",""good_move"",19393.8,3095.5,2606.4,16298.3,489.1,""smooth"",""left"",""left"",""good_move"",22495.8,3101.8,2515.3,19394,586.5,""oops"",""left"",""down"",""good_move"",33993.1,11497,3601.1,29930.6,461.4,""oops"",""left"",""right"",""bad_move"",40951.5,6958.1,2935,37604.7,411.8,""oops"",""left"",""left"",""good_move""]","",""
"30848","","","","instructions","24","2277932","0.0-8.0-4.0","154","1","2025-07-09 09:10:09","7701e855f2ef39aa3fd6c71abdc6918a","62.164.249.91","Mozilla/5.0 (Windows NT 10.0; Win64; x64) AppleWebKit/537.36 (KHTML, like Gecko) Chrome/132.0.0.0 Safari/537.36","WebKit","Chrome","132.0.0.0","Windows","10.0","https://app.prolific.com/","en-US,en;q=0.9","6792a60bf1238ae52e645ecb","686d226cabeef709c732f8e1","686e3139b2d537397cf142d8","6792a60bf1238ae52e645ecb","","[{""page_index"":0,""viewing_time"":11054},{""page_index"":1,""viewing_time"":19794}]","","","","","","","","","","","","","","","","","","","","","","","","","","","","","","","","","","","","","","","","","","",""
"12219","","","{""green_ball"":[""Ball sometimes shakes and moves in a random direction""]}","survey-multi-select","25","2290153","0.0-8.0-5.0-0.0","154","1","2025-07-09 09:10:09","7701e855f2ef39aa3fd6c71abdc6918a","62.164.249.91","Mozilla/5.0 (Windows NT 10.0; Win64; x64) AppleWebKit/537.36 (KHTML, like Gecko) Chrome/132.0.0.0 Safari/537.36","WebKit","Chrome","132.0.0.0","Windows","10.0","https://app.prolific.com/","en-US,en;q=0.9","6792a60bf1238ae52e645ecb","686d226cabeef709c732f8e1","686e3139b2d537397cf142d8","6792a60bf1238ae52e645ecb","","","[0]","","","","quiz","","","","","","","","","","","","","","","","","","","","","","","","","","","","","","","","","","","","","true",""
"2254","","<p align='center'><b>CORRECT!</b> Indeed, the green ball may sometimes shake and move in a random direction.</p>","0","html-button-response","26","2292408","0.0-8.0-5.0-1.0","154","1","2025-07-09 09:10:09","7701e855f2ef39aa3fd6c71abdc6918a","62.164.249.91","Mozilla/5.0 (Windows NT 10.0; Win64; x64) AppleWebKit/537.36 (KHTML, like Gecko) Chrome/132.0.0.0 Safari/537.36","WebKit","Chrome","132.0.0.0","Windows","10.0","https://app.prolific.com/","en-US,en;q=0.9","6792a60bf1238ae52e645ecb","686d226cabeef709c732f8e1","686e3139b2d537397cf142d8","6792a60bf1238ae52e645ecb","","","","","","","","","","","","","","","","","","","","","","","","","","","","","","","","","","","","","","","","","","","","",""
"15330","","","{""yellow_ball"":[""Ball doesn‘t move and I get -1 penalty point""]}","survey-multi-select","27","2307739","0.0-8.0-6.0-0.0","154","1","2025-07-09 09:10:09","7701e855f2ef39aa3fd6c71abdc6918a","62.164.249.91","Mozilla/5.0 (Windows NT 10.0; Win64; x64) AppleWebKit/537.36 (KHTML, like Gecko) Chrome/132.0.0.0 Safari/537.36","WebKit","Chrome","132.0.0.0","Windows","10.0","https://app.prolific.com/","en-US,en;q=0.9","6792a60bf1238ae52e645ecb","686d226cabeef709c732f8e1","686e3139b2d537397cf142d8","6792a60bf1238ae52e645ecb","","","[0]","","","","quiz","","","","","","","","","","","","","","","","","","","","","","","","","","","","","","","","","","","","","true",""
"1750","","<p align='center'><b>CORRECT!</b> Indeed, the yellow ball never moves and you receive a penalty.</p>","0","html-button-response","28","2309491","0.0-8.0-6.0-1.0","154","1","2025-07-09 09:10:09","7701e855f2ef39aa3fd6c71abdc6918a","62.164.249.91","Mozilla/5.0 (Windows NT 10.0; Win64; x64) AppleWebKit/537.36 (KHTML, like Gecko) Chrome/132.0.0.0 Safari/537.36","WebKit","Chrome","132.0.0.0","Windows","10.0","https://app.prolific.com/","en-US,en;q=0.9","6792a60bf1238ae52e645ecb","686d226cabeef709c732f8e1","686e3139b2d537397cf142d8","6792a60bf1238ae52e645ecb","","","","","","","","","","","","","","","","","","","","","","","","","","","","","","","","","","","","","","","","","","","","",""
"14387","","","{""blue_ball"":[""Ball doesn‘t move and I get -1 penalty point""]}","survey-multi-select","29","2323880","0.0-8.0-7.0-0.0","154","1","2025-07-09 09:10:09","7701e855f2ef39aa3fd6c71abdc6918a","62.164.249.91","Mozilla/5.0 (Windows NT 10.0; Win64; x64) AppleWebKit/537.36 (KHTML, like Gecko) Chrome/132.0.0.0 Safari/537.36","WebKit","Chrome","132.0.0.0","Windows","10.0","https://app.prolific.com/","en-US,en;q=0.9","6792a60bf1238ae52e645ecb","686d226cabeef709c732f8e1","686e3139b2d537397cf142d8","6792a60bf1238ae52e645ecb","","","[0]","","","","quiz","","","","","","","","","","","","","","","","","","","","","","","","","","","","","","","","","","","","","false",""
"4635","","<p align='center'><b>INCORRECT.</b> The blue ball always shakes and moves randomly.</p>","0","html-button-response","30","2328516","0.0-8.0-7.0-1.0","154","1","2025-07-09 09:10:09","7701e855f2ef39aa3fd6c71abdc6918a","62.164.249.91","Mozilla/5.0 (Windows NT 10.0; Win64; x64) AppleWebKit/537.36 (KHTML, like Gecko) Chrome/132.0.0.0 Safari/537.36","WebKit","Chrome","132.0.0.0","Windows","10.0","https://app.prolific.com/","en-US,en;q=0.9","6792a60bf1238ae52e645ecb","686d226cabeef709c732f8e1","686e3139b2d537397cf142d8","6792a60bf1238ae52e645ecb","","","","","","","","","","","","","","","","","","","","","","","","","","","","","","","","","","","","","","","","","","","","",""
"8845","","","{""blue_ball"":[""Ball always shakes and moves in a random direction""]}","survey-multi-select","31","2337363","0.0-8.0-7.1-0.1","154","1","2025-07-09 09:10:09","7701e855f2ef39aa3fd6c71abdc6918a","62.164.249.91","Mozilla/5.0 (Windows NT 10.0; Win64; x64) AppleWebKit/537.36 (KHTML, like Gecko) Chrome/132.0.0.0 Safari/537.36","WebKit","Chrome","132.0.0.0","Windows","10.0","https://app.prolific.com/","en-US,en;q=0.9","6792a60bf1238ae52e645ecb","686d226cabeef709c732f8e1","686e3139b2d537397cf142d8","6792a60bf1238ae52e645ecb","","","[0]","","","","quiz","","","","","","","","","","","","","","","","","","","","","","","","","","","","","","","","","","","","","true",""
"6388","","<p align='center'><b>CORRECT!</b> Indeed, the blue ball always shakes and moves in a random direction. Also there is a penalty of -1 point.</p>","0","html-button-response","32","2343751","0.0-8.0-7.1-1.1","154","1","2025-07-09 09:10:09","7701e855f2ef39aa3fd6c71abdc6918a","62.164.249.91","Mozilla/5.0 (Windows NT 10.0; Win64; x64) AppleWebKit/537.36 (KHTML, like Gecko) Chrome/132.0.0.0 Safari/537.36","WebKit","Chrome","132.0.0.0","Windows","10.0","https://app.prolific.com/","en-US,en;q=0.9","6792a60bf1238ae52e645ecb","686d226cabeef709c732f8e1","686e3139b2d537397cf142d8","6792a60bf1238ae52e645ecb","","","","","","","","","","","","","","","","","","","","","","","","","","","","","","","","","","","","","","","","","","","","",""
"4393","","","{""bonus"":[""When I reach 50% of points""]}","survey-multi-select","33","2348146","0.0-8.0-8.0-0.0","154","1","2025-07-09 09:10:09","7701e855f2ef39aa3fd6c71abdc6918a","62.164.249.91","Mozilla/5.0 (Windows NT 10.0; Win64; x64) AppleWebKit/537.36 (KHTML, like Gecko) Chrome/132.0.0.0 Safari/537.36","WebKit","Chrome","132.0.0.0","Windows","10.0","https://app.prolific.com/","en-US,en;q=0.9","6792a60bf1238ae52e645ecb","686d226cabeef709c732f8e1","686e3139b2d537397cf142d8","6792a60bf1238ae52e645ecb","","","[0]","","","","quiz","","","","","","","","","","","","","","","","","","","","","","","","","","","","","","","","","","","","","true",""
"42334","","<p align='center'><b>CORRECT!</b> Indeed, you receive 2 pounds extra when you reach 50% of points.</p>","0","html-button-response","34","2390481","0.0-8.0-8.0-1.0","154","1","2025-07-09 09:10:09","7701e855f2ef39aa3fd6c71abdc6918a","62.164.249.91","Mozilla/5.0 (Windows NT 10.0; Win64; x64) AppleWebKit/537.36 (KHTML, like Gecko) Chrome/132.0.0.0 Safari/537.36","WebKit","Chrome","132.0.0.0","Windows","10.0","https://app.prolific.com/","en-US,en;q=0.9","6792a60bf1238ae52e645ecb","686d226cabeef709c732f8e1","686e3139b2d537397cf142d8","6792a60bf1238ae52e645ecb","","","","","","","","","","","","","","","","","","","","","","","","","","","","","","","","","","","","","","","","","","","","",""
"10001","","","","instructions","35","2400483","0.0-8.0-9.0","154","1","2025-07-09 09:10:09","7701e855f2ef39aa3fd6c71abdc6918a","62.164.249.91","Mozilla/5.0 (Windows NT 10.0; Win64; x64) AppleWebKit/537.36 (KHTML, like Gecko) Chrome/132.0.0.0 Safari/537.36","WebKit","Chrome","132.0.0.0","Windows","10.0","https://app.prolific.com/","en-US,en;q=0.9","6792a60bf1238ae52e645ecb","686d226cabeef709c732f8e1","686e3139b2d537397cf142d8","6792a60bf1238ae52e645ecb","","[{""page_index"":0,""viewing_time"":10001}]","","","","","","","","","","","","","","","","","","","","","","","","","","","","","","","","","","","","","","","","","","",""
"12828","","<p>Before you start with this game please answer the following three questions yourself. </p>
  <p>Through this game, we measure several aspects of your cognitive performance, such as reaction times, multi-tasking capabilities </p>
  <p>and the ability to assess the situation you are in.</p>
  <p></p>
  <p><b>How good do you usually are in such tasks?</b></p>","83","html-slider-response","36","2413312","0.0-9.0-0.0","154","1","2025-07-09 09:10:09","7701e855f2ef39aa3fd6c71abdc6918a","62.164.249.91","Mozilla/5.0 (Windows NT 10.0; Win64; x64) AppleWebKit/537.36 (KHTML, like Gecko) Chrome/132.0.0.0 Safari/537.36","WebKit","Chrome","132.0.0.0","Windows","10.0","https://app.prolific.com/","en-US,en;q=0.9","6792a60bf1238ae52e645ecb","686d226cabeef709c732f8e1","686e3139b2d537397cf142d8","6792a60bf1238ae52e645ecb","2025-07-09T09:50:27.570Z","","","","","","PreSkillQ","","","","","","","","","","","","","","","","","","","","","","","","","","","","","","","","","","","","","","50"
"6724","","<div style=""width:500px;"">
  <p>How well do you think you will perform in this task compared to other participants?</p>
  </div>","84","html-slider-response","37","2420038","0.0-9.0-1.0","154","1","2025-07-09 09:10:09","7701e855f2ef39aa3fd6c71abdc6918a","62.164.249.91","Mozilla/5.0 (Windows NT 10.0; Win64; x64) AppleWebKit/537.36 (KHTML, like Gecko) Chrome/132.0.0.0 Safari/537.36","WebKit","Chrome","132.0.0.0","Windows","10.0","https://app.prolific.com/","en-US,en;q=0.9","6792a60bf1238ae52e645ecb","686d226cabeef709c732f8e1","686e3139b2d537397cf142d8","6792a60bf1238ae52e645ecb","2025-07-09T09:50:34.296Z","","","","","","PrePerfQ","","","","","","","","","","","","","","","","","","","","","","","","","","","","","","","","","","","","","","50"
"3437","","<div style=""width:500px;"">
  <p>What best describes how you currently feel?</p>
  </div>","100","html-slider-response","38","2423476","0.0-9.0-2.0","154","1","2025-07-09 09:10:09","7701e855f2ef39aa3fd6c71abdc6918a","62.164.249.91","Mozilla/5.0 (Windows NT 10.0; Win64; x64) AppleWebKit/537.36 (KHTML, like Gecko) Chrome/132.0.0.0 Safari/537.36","WebKit","Chrome","132.0.0.0","Windows","10.0","https://app.prolific.com/","en-US,en;q=0.9","6792a60bf1238ae52e645ecb","686d226cabeef709c732f8e1","686e3139b2d537397cf142d8","6792a60bf1238ae52e645ecb","2025-07-09T09:50:37.734Z","","","","","","PreMotivationQ","","","","","","","","","","","","","","","","","","","","","","","","","","","","","","","","","","","","","","50"
"","","","","ctl-task-cpt","39","2462915","0.0-10.0-0.0","154","1","2025-07-09 09:10:09","7701e855f2ef39aa3fd6c71abdc6918a","62.164.249.91","Mozilla/5.0 (Windows NT 10.0; Win64; x64) AppleWebKit/537.36 (KHTML, like Gecko) Chrome/132.0.0.0 Safari/537.36","WebKit","Chrome","132.0.0.0","Windows","10.0","https://app.prolific.com/","en-US,en;q=0.9","6792a60bf1238ae52e645ecb","686d226cabeef709c732f8e1","686e3139b2d537397cf142d8","6792a60bf1238ae52e645ecb","2025-07-09T09:51:17.173Z","","","","","","","","","","","","","","","","win-only","3","g1:SW,g2:NE","1","1","0","2429336.7","7773.2","12775.9","36431.1","1","4","8","6","2","8","8","8","0","0.06060606060606061","1540.7","3000","540","[""up"",""right""]","{""num_key_presses"":6,""num_perfect"":6,""num_errors"":0,""num_randdir"":0,""num_randdir_good_moves"":0,""num_whilered"":0,""num_whileblue"":0,""num_blue"":2,""num_good_moves"":6}","[421.5714133126395,421.57142761775424,0.3,421.5714133126395,421.57142761775424,103.4,421.5714133126395,421.57142761775424,203.5,421.5714133126395,421.57142761775424,303.5,421.5714133126395,421.57142761775424,407.7,421.5714133126395,421.57142761775424,512.5,421.5714133126395,421.57142761775424,613.3,307.8214133126395,461.57142761775424,717.4,311.5714133126395,449.07142761775424,817.9,549.0714133126395,237.82142761775424,918.2,642.8214133126395,101.57142761775425,1018.7,661.5714133126395,76.57142761775425,1122.3,664.0714133126395,76.57142761775425,1222.5,716.5714133126395,72.82142761775425,1322.6,721.5714133126395,74.07142761775425,1422.8,721.5714133126395,74.07142761775425,1527.6,721.5714133126395,74.07142761775425,1633,721.5714133126395,74.07142761775425,1733.7,721.5714133126395,74.07142761775425,1838.5,721.5714133126395,74.07142761775425,1943.6,605.3214133126395,226.57142761775424,2047.5,485.3214133126395,352.82142761775424,2147.7,442.8214133126395,401.57142761775424,2248.2,406.5714133126395,431.57142761775424,2353.6,189.0714133126395,411.57142761775424,2458.7,60.32141331263951,222.82142761775424,2653.3,82.8214133126395,161.57142761775424,2758.1,29.071413312639507,116.57142761775425,2863.5,-18.428586687360493,86.57142761775425,2967.2,-32.17858668736049,86.57142761775425,3067.5,-32.17858668736049,86.57142761775425,3167.7,-32.17858668736049,86.57142761775425,3267.7,-32.17858668736049,86.57142761775425,3368,-32.17858668736049,86.57142761775425,3468,-32.17858668736049,86.57142761775425,3572.9,-32.17858668736049,86.57142761775425,3678.2,-32.17858668736049,86.57142761775425,3783.8,-32.17858668736049,86.57142761775425,3887.8,-32.17858668736049,86.57142761775425,3987.9,-32.17858668736049,86.57142761775425,4093.4,-32.17858668736049,86.57142761775425,4193.5,-32.17858668736049,86.57142761775425,4297.7,-32.17858668736049,86.57142761775425,4403.3,-32.17858668736049,86.57142761775425,4507.8,-32.17858668736049,86.57142761775425,4612.3,-32.17858668736049,86.57142761775425,4712.9,-32.17858668736049,86.57142761775425,4813.5,-32.17858668736049,86.57142761775425,4917.8]","[1472.6,1472.6,1000,0,472.6,""smooth"",""right"",""right"",""good_move"",4544.9,3072,2626.5,1473,445.5,""smooth"",""right"",""right"",""good_move"",7959.5,3414.2,3008.5,4545.3,405.7,""smooth"",""up"",""up"",""good_move"",17349.9,9390.2,2788.2,14175.6,386.2,""smooth"",""up"",""up"",""good_move"",20079.2,2728.9,2228.9,17350.3,500,""smooth"",""right"",""right"",""good_move"",23569.4,3490,3096.5,20079.4,393.5,""smooth"",""up"",""up"",""good_move""]","",""
"4604","","<div style=""width:500px;"">
  <p>What determined the result of this run?</p>
  </div>","100","html-slider-response","40","2467520","0.0-10.0-1.0","154","1","2025-07-09 09:10:09","7701e855f2ef39aa3fd6c71abdc6918a","62.164.249.91","Mozilla/5.0 (Windows NT 10.0; Win64; x64) AppleWebKit/537.36 (KHTML, like Gecko) Chrome/132.0.0.0 Safari/537.36","WebKit","Chrome","132.0.0.0","Windows","10.0","https://app.prolific.com/","en-US,en;q=0.9","6792a60bf1238ae52e645ecb","686d226cabeef709c732f8e1","686e3139b2d537397cf142d8","6792a60bf1238ae52e645ecb","2025-07-09T09:51:21.778Z","","","","","","AttribQ","","","","","","","","","","","","","","","","","","","","","","","","","","","","","","","","","","","","","","50"
"3319","","<div style=""width:500px;"">
  <p>How much control did you have over the ball?</p>
  </div>","100","html-slider-response","41","2470840","0.0-10.0-2.0","154","1","2025-07-09 09:10:09","7701e855f2ef39aa3fd6c71abdc6918a","62.164.249.91","Mozilla/5.0 (Windows NT 10.0; Win64; x64) AppleWebKit/537.36 (KHTML, like Gecko) Chrome/132.0.0.0 Safari/537.36","WebKit","Chrome","132.0.0.0","Windows","10.0","https://app.prolific.com/","en-US,en;q=0.9","6792a60bf1238ae52e645ecb","686d226cabeef709c732f8e1","686e3139b2d537397cf142d8","6792a60bf1238ae52e645ecb","2025-07-09T09:51:25.098Z","","","","","","ControlQ","","","","","","","","","","","","","","","","","","","","","","","","","","","","","","","","","","","","","","50"
"3886","","<div style=""width:500px;"">
  <p>How would you describe your current emotional state?</p>
  </div>","0","html-slider-response","42","2474728","0.0-10.0-3.0","154","1","2025-07-09 09:10:09","7701e855f2ef39aa3fd6c71abdc6918a","62.164.249.91","Mozilla/5.0 (Windows NT 10.0; Win64; x64) AppleWebKit/537.36 (KHTML, like Gecko) Chrome/132.0.0.0 Safari/537.36","WebKit","Chrome","132.0.0.0","Windows","10.0","https://app.prolific.com/","en-US,en;q=0.9","6792a60bf1238ae52e645ecb","686d226cabeef709c732f8e1","686e3139b2d537397cf142d8","6792a60bf1238ae52e645ecb","2025-07-09T09:51:28.986Z","","","","","","StressQ","","","","","","","","","","","","","","","","","","","","","","","","","","","","","","","","","","","","","","50"
"4666","","<div style=""width:500px;"">
  <p>What best describes how you currently feel?</p>
  </div>","100","html-slider-response","43","2479395","0.0-10.0-4.0","154","1","2025-07-09 09:10:09","7701e855f2ef39aa3fd6c71abdc6918a","62.164.249.91","Mozilla/5.0 (Windows NT 10.0; Win64; x64) AppleWebKit/537.36 (KHTML, like Gecko) Chrome/132.0.0.0 Safari/537.36","WebKit","Chrome","132.0.0.0","Windows","10.0","https://app.prolific.com/","en-US,en;q=0.9","6792a60bf1238ae52e645ecb","686d226cabeef709c732f8e1","686e3139b2d537397cf142d8","6792a60bf1238ae52e645ecb","2025-07-09T09:51:33.653Z","","","","","","MotivationQ","","","","","","","","","","","","","","","","","","","","","","","","","","","","","","","","","","","","","","50"
"","","","","ctl-task-cpt","44","2524020","0.0-10.0-0.1","154","1","2025-07-09 09:10:09","7701e855f2ef39aa3fd6c71abdc6918a","62.164.249.91","Mozilla/5.0 (Windows NT 10.0; Win64; x64) AppleWebKit/537.36 (KHTML, like Gecko) Chrome/132.0.0.0 Safari/537.36","WebKit","Chrome","132.0.0.0","Windows","10.0","https://app.prolific.com/","en-US,en;q=0.9","6792a60bf1238ae52e645ecb","686d226cabeef709c732f8e1","686e3139b2d537397cf142d8","6792a60bf1238ae52e645ecb","2025-07-09T09:52:18.278Z","","","","","","","","","","","","","","","","win-only","2","g1:SE,g2:NW","0.9","2","0","2485256.6","2202.8","7205.6","41611.5","1","4","4","6","1","-1","-2","6","8","0.045454545454545456","3221","3000","-3005","[""down"",""right""]","{""num_key_presses"":7,""num_perfect"":5,""num_errors"":1,""num_randdir"":1,""num_randdir_good_moves"":0,""num_whilered"":0,""num_whileblue"":1,""num_blue"":4,""num_good_moves"":5}","[414.0714133126395,415.32142761775424,0.2,414.0714133126395,415.32142761775424,102.8,414.0714133126395,415.32142761775424,202.9,414.0714133126395,415.32142761775424,302.9,414.0714133126395,415.32142761775424,408,414.0714133126395,415.32142761775424,513.4,470.3214133126395,442.82142761775424,613.5,490.3214133126395,470.32142761775424,718.5,446.5714133126395,499.07142761775424,823.4,320.3214133126395,392.82142761775424,927.6,307.8214133126395,366.57142761775424,1027.8,336.5714133126395,311.57142761775424,1132.6,340.3214133126395,306.57142761775424,1233.1,465.3214133126395,369.07142761775424,1338.3,485.3214133126395,400.32142761775424,1443.2,514.0714133126395,466.57142761775424,1548.7,587.8214133126395,552.8214276177542,1648.9,679.0714133126395,681.5714276177542,1752.7,679.0714133126395,681.5714276177542,1852.7,581.5714133126395,601.5714276177542,1952.8,361.5714133126395,427.82142761775424,2057.7,359.0714133126395,426.57142761775424,2157.7,446.5714133126395,484.07142761775424,2257.9,626.5714133126395,609.0714276177542,2357.9,691.5714133126395,695.3214276177542,2457.9,706.5714133126395,715.3214276177542,2563.3,707.8214133126395,716.5714276177542,2668,714.0714133126395,731.5714276177542,2768.2,716.5714133126395,736.5714276177542,2873.8,716.5714133126395,736.5714276177542,2978.5,716.5714133126395,736.5714276177542,3078.8,716.5714133126395,736.5714276177542,3183,716.5714133126395,736.5714276177542,3288.4,716.5714133126395,736.5714276177542,3393.1,716.5714133126395,736.5714276177542,3494.3,299.0714133126395,460.32142761775424,3597.4,121.5714133126395,254.07142761775424,3699.1,121.5714133126395,254.07142761775424,3803.5,80.3214133126395,215.32142761775424,3907.8,-33.42858668736049,95.32142761775425,4007.9,-33.42858668736049,95.32142761775425,4113.4,-33.42858668736049,95.32142761775425,4213.6,-33.42858668736049,95.32142761775425,4317.9,-33.42858668736049,95.32142761775425,4423.5,-33.42858668736049,95.32142761775425,4523.7,-33.42858668736049,95.32142761775425,4628.9,-33.42858668736049,95.32142761775425,4728.9,-33.42858668736049,95.32142761775425,4832.7,-33.42858668736049,95.32142761775425,4933]","[1605.2,1605.2,1000,0,605.2,""smooth"",""down"",""down"",""good_move"",4841.7,3236.1,2810.7,1605.6,425.4,""smooth"",""down"",""down"",""good_move"",8374.3,3532.4,3103.1,4841.9,429.3,""while_blue"",""right"",""left"",""bad_move"",11130.2,2755.4,2322.3,8374.8,433.1,""oops"",""right"",""up"",""bad_move"",14819,3688.4,3230.1,11130.6,458.3,""smooth"",""right"",""right"",""good_move"",24032.3,9212.6,2384.6,21175.1,472.6,""smooth"",""down"",""down"",""good_move"",32187.5,8154.7,2839.2,28475.8,872.6,""smooth"",""right"",""right"",""good_move""]","",""
"77555","","<div style=""width:500px;"">
  <p>What determined the result of this run?</p>
  </div>","100","html-slider-response","45","2601576","0.0-10.0-1.1","154","1","2025-07-09 09:10:09","7701e855f2ef39aa3fd6c71abdc6918a","62.164.249.91","Mozilla/5.0 (Windows NT 10.0; Win64; x64) AppleWebKit/537.36 (KHTML, like Gecko) Chrome/132.0.0.0 Safari/537.36","WebKit","Chrome","132.0.0.0","Windows","10.0","https://app.prolific.com/","en-US,en;q=0.9","6792a60bf1238ae52e645ecb","686d226cabeef709c732f8e1","686e3139b2d537397cf142d8","6792a60bf1238ae52e645ecb","2025-07-09T09:53:35.834Z","","","","","","AttribQ","","","","","","","","","","","","","","","","","","","","","","","","","","","","","","","","","","","","","","50"
"9802","","<div style=""width:500px;"">
  <p>How much control did you have over the ball?</p>
  </div>","93","html-slider-response","46","2611379","0.0-10.0-2.1","154","1","2025-07-09 09:10:09","7701e855f2ef39aa3fd6c71abdc6918a","62.164.249.91","Mozilla/5.0 (Windows NT 10.0; Win64; x64) AppleWebKit/537.36 (KHTML, like Gecko) Chrome/132.0.0.0 Safari/537.36","WebKit","Chrome","132.0.0.0","Windows","10.0","https://app.prolific.com/","en-US,en;q=0.9","6792a60bf1238ae52e645ecb","686d226cabeef709c732f8e1","686e3139b2d537397cf142d8","6792a60bf1238ae52e645ecb","2025-07-09T09:53:45.637Z","","","","","","ControlQ","","","","","","","","","","","","","","","","","","","","","","","","","","","","","","","","","","","","","","50"
"5715","","<div style=""width:500px;"">
  <p>How would you describe your current emotional state?</p>
  </div>","2","html-slider-response","47","2617095","0.0-10.0-3.1","154","1","2025-07-09 09:10:09","7701e855f2ef39aa3fd6c71abdc6918a","62.164.249.91","Mozilla/5.0 (Windows NT 10.0; Win64; x64) AppleWebKit/537.36 (KHTML, like Gecko) Chrome/132.0.0.0 Safari/537.36","WebKit","Chrome","132.0.0.0","Windows","10.0","https://app.prolific.com/","en-US,en;q=0.9","6792a60bf1238ae52e645ecb","686d226cabeef709c732f8e1","686e3139b2d537397cf142d8","6792a60bf1238ae52e645ecb","2025-07-09T09:53:51.353Z","","","","","","StressQ","","","","","","","","","","","","","","","","","","","","","","","","","","","","","","","","","","","","","","50"
"3830","","<div style=""width:500px;"">
  <p>What best describes how you currently feel?</p>
  </div>","100","html-slider-response","48","2620928","0.0-10.0-4.1","154","1","2025-07-09 09:10:09","7701e855f2ef39aa3fd6c71abdc6918a","62.164.249.91","Mozilla/5.0 (Windows NT 10.0; Win64; x64) AppleWebKit/537.36 (KHTML, like Gecko) Chrome/132.0.0.0 Safari/537.36","WebKit","Chrome","132.0.0.0","Windows","10.0","https://app.prolific.com/","en-US,en;q=0.9","6792a60bf1238ae52e645ecb","686d226cabeef709c732f8e1","686e3139b2d537397cf142d8","6792a60bf1238ae52e645ecb","2025-07-09T09:53:55.186Z","","","","","","MotivationQ","","","","","","","","","","","","","","","","","","","","","","","","","","","","","","","","","","","","","","50"
"","","","","ctl-task-cpt","49","2651801","0.0-10.0-0.2","154","1","2025-07-09 09:10:09","7701e855f2ef39aa3fd6c71abdc6918a","62.164.249.91","Mozilla/5.0 (Windows NT 10.0; Win64; x64) AppleWebKit/537.36 (KHTML, like Gecko) Chrome/132.0.0.0 Safari/537.36","WebKit","Chrome","132.0.0.0","Windows","10.0","https://app.prolific.com/","en-US,en;q=0.9","6792a60bf1238ae52e645ecb","686d226cabeef709c732f8e1","686e3139b2d537397cf142d8","6792a60bf1238ae52e645ecb","2025-07-09T09:54:26.060Z","","","","","","","","","","","","","","","","win-only","1","g1:NE,g2:SW","0.8","3","0","2626792.5","1460.7","6461.7","27850.8","1","4","4","6","2","4","4","10","6","0.07575757575757576","2016.4","3000","85","[""down"",""left""]","{""num_key_presses"":6,""num_perfect"":6,""num_errors"":0,""num_randdir"":0,""num_randdir_good_moves"":0,""num_whilered"":0,""num_whileblue"":0,""num_blue"":1,""num_good_moves"":6}","[407.8214133126395,421.57142761775424,0.6,407.8214133126395,421.57142761775424,113.9,407.8214133126395,421.57142761775424,216.2,407.8214133126395,421.57142761775424,316.3,407.8214133126395,421.57142761775424,419.6,407.8214133126395,421.57142761775424,519.7,567.8214133126395,289.07142761775424,626.1,581.5714133126395,282.82142761775424,734.2,465.3214133126395,379.07142761775424,835.5,379.0714133126395,430.32142761775424,937.9,272.8214133126395,577.8214276177542,1044.5,224.0714133126395,624.0714276177542,1157.7,150.3214133126395,666.5714276177542,1257.8,120.3214133126395,696.5714276177542,1362.9,171.5714133126395,641.5714276177542,1463.6,146.5714133126395,700.3214276177542,1567.3,139.0714133126395,707.8214276177542,1669.3,127.8214133126395,717.8214276177542,1781.3,121.5714133126395,721.5714276177542,1882.6,121.5714133126395,721.5714276177542,1987.5,121.5714133126395,721.5714276177542,2090.4,121.5714133126395,721.5714276177542,2195.2,121.5714133126395,721.5714276177542,2297.1,121.5714133126395,721.5714276177542,2400.5,-12.178586687360493,391.57142761775424,2505.4,82.8214133126395,204.07142761775424,2607,82.8214133126395,204.07142761775424,2710.4,82.8214133126395,204.07142761775424,2812.5,51.57141331263951,126.57142761775425,2916.1,47.82141331263951,124.07142761775425,3021.1,-8.428586687360493,95.32142761775425,3121.2,-13.428586687360493,89.07142761775425,3227,-13.428586687360493,89.07142761775425,3327.5,-13.428586687360493,89.07142761775425,3429.7,-13.428586687360493,89.07142761775425,3530.1,-13.428586687360493,89.07142761775425,3630.8,-13.428586687360493,89.07142761775425,3731.8,-13.428586687360493,89.07142761775425,3838.3,-13.428586687360493,89.07142761775425,3940.9,-13.428586687360493,89.07142761775425,4045.2,-13.428586687360493,89.07142761775425,4149.8,-13.428586687360493,89.07142761775425,4251.1,-13.428586687360493,89.07142761775425,4356.3,-13.428586687360493,89.07142761775425,4463.1,-13.428586687360493,89.07142761775425,4565.3,-13.428586687360493,89.07142761775425,4671,-13.428586687360493,89.07142761775425,4776.6,-13.428586687360493,89.07142761775425,4880.5,-13.428586687360493,89.07142761775425,4984.5]","[1970.9,1970.9,1000,0,970.9,""smooth"",""down"",""down"",""good_move"",4474,2502.7,2033.6,1971.3,469.1,""smooth"",""left"",""left"",""good_move"",7452.8,2978.4,2573.8,4474.4,404.6,""smooth"",""down"",""down"",""good_move"",14679.6,7225.9,3163.2,11115.4,401.1,""smooth"",""left"",""left"",""good_move"",18166.8,3486.5,3071.8,14680.3,414.7,""smooth"",""down"",""down"",""good_move"",21303.8,3136.6,2760,18167.2,376.6,""smooth"",""left"",""left"",""good_move""]","",""
"5394","","<div style=""width:500px;"">
  <p>What determined the result of this run?</p>
  </div>","100","html-slider-response","50","2657197","0.0-10.0-1.2","154","1","2025-07-09 09:10:09","7701e855f2ef39aa3fd6c71abdc6918a","62.164.249.91","Mozilla/5.0 (Windows NT 10.0; Win64; x64) AppleWebKit/537.36 (KHTML, like Gecko) Chrome/132.0.0.0 Safari/537.36","WebKit","Chrome","132.0.0.0","Windows","10.0","https://app.prolific.com/","en-US,en;q=0.9","6792a60bf1238ae52e645ecb","686d226cabeef709c732f8e1","686e3139b2d537397cf142d8","6792a60bf1238ae52e645ecb","2025-07-09T09:54:31.456Z","","","","","","AttribQ","","","","","","","","","","","","","","","","","","","","","","","","","","","","","","","","","","","","","","50"
"4229","","<div style=""width:500px;"">
  <p>How much control did you have over the ball?</p>
  </div>","98","html-slider-response","51","2661429","0.0-10.0-2.2","154","1","2025-07-09 09:10:09","7701e855f2ef39aa3fd6c71abdc6918a","62.164.249.91","Mozilla/5.0 (Windows NT 10.0; Win64; x64) AppleWebKit/537.36 (KHTML, like Gecko) Chrome/132.0.0.0 Safari/537.36","WebKit","Chrome","132.0.0.0","Windows","10.0","https://app.prolific.com/","en-US,en;q=0.9","6792a60bf1238ae52e645ecb","686d226cabeef709c732f8e1","686e3139b2d537397cf142d8","6792a60bf1238ae52e645ecb","2025-07-09T09:54:35.687Z","","","","","","ControlQ","","","","","","","","","","","","","","","","","","","","","","","","","","","","","","","","","","","","","","50"
"3444","","<div style=""width:500px;"">
  <p>How would you describe your current emotional state?</p>
  </div>","0","html-slider-response","52","2664874","0.0-10.0-3.2","154","1","2025-07-09 09:10:09","7701e855f2ef39aa3fd6c71abdc6918a","62.164.249.91","Mozilla/5.0 (Windows NT 10.0; Win64; x64) AppleWebKit/537.36 (KHTML, like Gecko) Chrome/132.0.0.0 Safari/537.36","WebKit","Chrome","132.0.0.0","Windows","10.0","https://app.prolific.com/","en-US,en;q=0.9","6792a60bf1238ae52e645ecb","686d226cabeef709c732f8e1","686e3139b2d537397cf142d8","6792a60bf1238ae52e645ecb","2025-07-09T09:54:39.132Z","","","","","","StressQ","","","","","","","","","","","","","","","","","","","","","","","","","","","","","","","","","","","","","","50"
"7768","","<div style=""width:500px;"">
  <p>What best describes how you currently feel?</p>
  </div>","98","html-slider-response","53","2672644","0.0-10.0-4.2","154","1","2025-07-09 09:10:09","7701e855f2ef39aa3fd6c71abdc6918a","62.164.249.91","Mozilla/5.0 (Windows NT 10.0; Win64; x64) AppleWebKit/537.36 (KHTML, like Gecko) Chrome/132.0.0.0 Safari/537.36","WebKit","Chrome","132.0.0.0","Windows","10.0","https://app.prolific.com/","en-US,en;q=0.9","6792a60bf1238ae52e645ecb","686d226cabeef709c732f8e1","686e3139b2d537397cf142d8","6792a60bf1238ae52e645ecb","2025-07-09T09:54:46.903Z","","","","","","MotivationQ","","","","","","","","","","","","","","","","","","","","","","","","","","","","","","","","","","","","","","50"
"","","","","ctl-task-cpt","54","2707455","0.0-10.0-0.3","154","1","2025-07-09 09:10:09","7701e855f2ef39aa3fd6c71abdc6918a","62.164.249.91","Mozilla/5.0 (Windows NT 10.0; Win64; x64) AppleWebKit/537.36 (KHTML, like Gecko) Chrome/132.0.0.0 Safari/537.36","WebKit","Chrome","132.0.0.0","Windows","10.0","https://app.prolific.com/","en-US,en;q=0.9","6792a60bf1238ae52e645ecb","686d226cabeef709c732f8e1","686e3139b2d537397cf142d8","6792a60bf1238ae52e645ecb","2025-07-09T09:55:21.713Z","","","","","","","","","","","","","","","","win-only","2","g1:SE,g2:NW","0.7","4","0","2678506.3","8965.1","13967","31792.4","1","4","8","6","2","8","8","18","10","0.13636363636363635","2758.4","3000","320","[""left"",""up""]","{""num_key_presses"":6,""num_perfect"":4,""num_errors"":0,""num_randdir"":2,""num_randdir_good_moves"":2,""num_whilered"":0,""num_whileblue"":0,""num_blue"":0,""num_good_moves"":6}","[414.0714133126395,419.07142761775424,0.2,414.0714133126395,419.07142761775424,101.7,414.0714133126395,419.07142761775424,205.5,414.0714133126395,419.07142761775424,307.3,414.0714133126395,419.07142761775424,411.6,414.0714133126395,419.07142761775424,516.7,484.0714133126395,410.32142761775424,617.1,504.0714133126395,449.07142761775424,722,489.0714133126395,496.57142761775424,827,491.5714133126395,512.8214276177542,927.1,301.5714133126395,306.57142761775424,1027.3,191.5714133126395,162.82142761775424,1131.7,190.3214133126395,161.57142761775424,1236.1,190.3214133126395,161.57142761775424,1337.9,101.5714133126395,91.57142761775425,1442.1,101.5714133126395,91.57142761775425,1546.5,101.5714133126395,91.57142761775425,1646.7,101.5714133126395,91.57142761775425,1746.7,101.5714133126395,91.57142761775425,1851.4,101.5714133126395,91.57142761775425,1952.2,101.5714133126395,91.57142761775425,2056.8,101.5714133126395,91.57142761775425,2161.4,101.5714133126395,91.57142761775425,2266.4,101.5714133126395,91.57142761775425,2367.2,12.821413312639507,87.82142761775425,2471.5,12.821413312639507,87.82142761775425,2576.8,12.821413312639507,87.82142761775425,2676.9,12.821413312639507,87.82142761775425,2777.6,12.821413312639507,87.82142761775425,2881.8,12.821413312639507,87.82142761775425,2986.4,12.821413312639507,87.82142761775425,3087.6,12.821413312639507,87.82142761775425,3192.3,12.821413312639507,87.82142761775425,3305.4,12.821413312639507,87.82142761775425,3407.2,12.821413312639507,87.82142761775425,3507.6,12.821413312639507,87.82142761775425,3611.4,12.821413312639507,87.82142761775425,3720.1,12.821413312639507,87.82142761775425,3820.7,12.821413312639507,87.82142761775425,3922,12.821413312639507,87.82142761775425,4022.7,12.821413312639507,87.82142761775425,4122.8,12.821413312639507,87.82142761775425,4226.7,12.821413312639507,87.82142761775425,4327.4,12.821413312639507,87.82142761775425,4431.1,12.821413312639507,87.82142761775425,4531.3,12.821413312639507,87.82142761775425,4631.4,12.821413312639507,87.82142761775425,4734.5,12.821413312639507,87.82142761775425,4835.6,12.821413312639507,87.82142761775425,4936.1]","[1758.7,1758.7,1000,0,758.7,""smooth"",""up"",""up"",""good_move"",5593.7,3833.9,3429.9,1759.8,404,""smooth"",""up"",""up"",""good_move"",8995.9,3401.8,3041.7,5594.1,360.1,""smooth"",""left"",""left"",""good_move"",11661.3,2664.5,2250.9,8996.8,413.6,""oops"",""up"",""left"",""good_move"",14717,3054.9,2553.9,11662.1,501,""smooth"",""up"",""up"",""good_move"",17696.9,2979,2621.9,14717.9,357.1,""oops"",""left"",""left"",""good_move""]","",""
"8488","","<div style=""width:500px;"">
  <p>What determined the result of this run?</p>
  </div>","100","html-slider-response","55","2715944","0.0-10.0-1.3","154","1","2025-07-09 09:10:09","7701e855f2ef39aa3fd6c71abdc6918a","62.164.249.91","Mozilla/5.0 (Windows NT 10.0; Win64; x64) AppleWebKit/537.36 (KHTML, like Gecko) Chrome/132.0.0.0 Safari/537.36","WebKit","Chrome","132.0.0.0","Windows","10.0","https://app.prolific.com/","en-US,en;q=0.9","6792a60bf1238ae52e645ecb","686d226cabeef709c732f8e1","686e3139b2d537397cf142d8","6792a60bf1238ae52e645ecb","2025-07-09T09:55:30.202Z","","","","","","AttribQ","","","","","","","","","","","","","","","","","","","","","","","","","","","","","","","","","","","","","","50"
"3081","","<div style=""width:500px;"">
  <p>How much control did you have over the ball?</p>
  </div>","99","html-slider-response","56","2719027","0.0-10.0-2.3","154","1","2025-07-09 09:10:09","7701e855f2ef39aa3fd6c71abdc6918a","62.164.249.91","Mozilla/5.0 (Windows NT 10.0; Win64; x64) AppleWebKit/537.36 (KHTML, like Gecko) Chrome/132.0.0.0 Safari/537.36","WebKit","Chrome","132.0.0.0","Windows","10.0","https://app.prolific.com/","en-US,en;q=0.9","6792a60bf1238ae52e645ecb","686d226cabeef709c732f8e1","686e3139b2d537397cf142d8","6792a60bf1238ae52e645ecb","2025-07-09T09:55:33.285Z","","","","","","ControlQ","","","","","","","","","","","","","","","","","","","","","","","","","","","","","","","","","","","","","","50"
"5609","","<div style=""width:500px;"">
  <p>How would you describe your current emotional state?</p>
  </div>","0","html-slider-response","57","2724637","0.0-10.0-3.3","154","1","2025-07-09 09:10:09","7701e855f2ef39aa3fd6c71abdc6918a","62.164.249.91","Mozilla/5.0 (Windows NT 10.0; Win64; x64) AppleWebKit/537.36 (KHTML, like Gecko) Chrome/132.0.0.0 Safari/537.36","WebKit","Chrome","132.0.0.0","Windows","10.0","https://app.prolific.com/","en-US,en;q=0.9","6792a60bf1238ae52e645ecb","686d226cabeef709c732f8e1","686e3139b2d537397cf142d8","6792a60bf1238ae52e645ecb","2025-07-09T09:55:38.895Z","","","","","","StressQ","","","","","","","","","","","","","","","","","","","","","","","","","","","","","","","","","","","","","","50"
"5044","","<div style=""width:500px;"">
  <p>What best describes how you currently feel?</p>
  </div>","100","html-slider-response","58","2729682","0.0-10.0-4.3","154","1","2025-07-09 09:10:09","7701e855f2ef39aa3fd6c71abdc6918a","62.164.249.91","Mozilla/5.0 (Windows NT 10.0; Win64; x64) AppleWebKit/537.36 (KHTML, like Gecko) Chrome/132.0.0.0 Safari/537.36","WebKit","Chrome","132.0.0.0","Windows","10.0","https://app.prolific.com/","en-US,en;q=0.9","6792a60bf1238ae52e645ecb","686d226cabeef709c732f8e1","686e3139b2d537397cf142d8","6792a60bf1238ae52e645ecb","2025-07-09T09:55:43.940Z","","","","","","MotivationQ","","","","","","","","","","","","","","","","","","","","","","","","","","","","","","","","","","","","","","50"
"","","","","ctl-task-cpt","59","2770239","0.0-10.0-0.4","154","1","2025-07-09 09:10:09","7701e855f2ef39aa3fd6c71abdc6918a","62.164.249.91","Mozilla/5.0 (Windows NT 10.0; Win64; x64) AppleWebKit/537.36 (KHTML, like Gecko) Chrome/132.0.0.0 Safari/537.36","WebKit","Chrome","132.0.0.0","Windows","10.0","https://app.prolific.com/","en-US,en;q=0.9","6792a60bf1238ae52e645ecb","686d226cabeef709c732f8e1","686e3139b2d537397cf142d8","6792a60bf1238ae52e645ecb","2025-07-09T09:56:24.497Z","","","","","","","","","","","","","","","","win-only","3","g1:SW,g2:NE","0.6","5","0","2735542.8","1695.7","6696.5","37537.4","1","4","8","6","2","-8","-9","9","18","0.06818181818181818","1447.9","3000","-2870","[""up"",""right""]","{""num_key_presses"":8,""num_perfect"":4,""num_errors"":1,""num_randdir"":3,""num_randdir_good_moves"":2,""num_whilered"":0,""num_whileblue"":0,""num_blue"":2,""num_good_moves"":6}","[409.0714133126395,421.57142761775424,0.4,409.0714133126395,421.57142761775424,101.7,409.0714133126395,421.57142761775424,204.5,317.8214133126395,401.57142761775424,305.5,-29.678586687360493,241.57142761775424,406.3,-63.42858668736049,231.57142761775424,512.1,-65.9285866873605,231.57142761775424,613.8,0.3214133126395069,224.07142761775424,730.7,535.3214133126395,176.57142761775424,836.4,727.8214133126395,126.57142761775425,940.6,727.8214133126395,126.57142761775425,1042,727.8214133126395,126.57142761775425,1142.2,760.3214133126395,106.57142761775425,1247.1,761.5714133126395,106.57142761775425,1351.1,761.5714133126395,106.57142761775425,1454.8,761.5714133126395,106.57142761775425,1555.3,761.5714133126395,106.57142761775425,1656.6,761.5714133126395,106.57142761775425,1763.4,724.0714133126395,141.57142761775424,1866.2,586.5714133126395,266.57142761775424,1967.1,336.5714133126395,352.82142761775424,2068.5,192.8214133126395,356.57142761775424,2171.4,192.8214133126395,356.57142761775424,2275,192.8214133126395,356.57142761775424,2387.4,192.8214133126395,356.57142761775424,2490.1,192.8214133126395,356.57142761775424,2590.6,192.8214133126395,356.57142761775424,2695.9,192.8214133126395,356.57142761775424,2797.3,192.8214133126395,356.57142761775424,2902.7,192.8214133126395,356.57142761775424,3009.2,192.8214133126395,356.57142761775424,3110,192.8214133126395,356.57142761775424,3210.4,192.8214133126395,356.57142761775424,3313.2,192.8214133126395,356.57142761775424,3416.9,192.8214133126395,356.57142761775424,3517.3,192.8214133126395,356.57142761775424,3617.5,192.8214133126395,356.57142761775424,3722.1,192.8214133126395,356.57142761775424,3826.8,192.8214133126395,356.57142761775424,3931,192.8214133126395,356.57142761775424,4031.6,192.8214133126395,356.57142761775424,4137.3,192.8214133126395,356.57142761775424,4239.8,192.8214133126395,356.57142761775424,4341.3,192.8214133126395,356.57142761775424,4445.4,192.8214133126395,356.57142761775424,4547.4,192.8214133126395,356.57142761775424,4651.4,192.8214133126395,356.57142761775424,4758.8,192.8214133126395,356.57142761775424,4862.8,192.8214133126395,356.57142761775424,4965.6]","[1694.9,1694.9,1000,0,694.9,""smooth"",""right"",""right"",""good_move"",4484.7,2789,2382.5,1695.7,406.5,""oops"",""right"",""up"",""good_move"",7464.8,2979.7,2576.3,4485.1,403.4,""oops"",""right"",""right"",""good_move"",9870.5,2405.5,1998.2,7465,407.3,""smooth"",""up"",""up"",""good_move"",16589.1,6717.8,2770,13456.5,362.6,""smooth"",""right"",""right"",""good_move"",19348.8,2759,2344.4,16589.8,414.6,""oops"",""up"",""down"",""bad_move"",21852.6,2502.4,2025.2,19350.2,477.2,""smooth"",""up"",""up"",""good_move"",27152,5298.6,2505.2,25886.8,-1240,""error"",""-"",""-"",""no_move""]","",""
"4093","","<div style=""width:500px;"">
  <p>What determined the result of this run?</p>
  </div>","100","html-slider-response","60","2774334","0.0-10.0-1.4","154","1","2025-07-09 09:10:09","7701e855f2ef39aa3fd6c71abdc6918a","62.164.249.91","Mozilla/5.0 (Windows NT 10.0; Win64; x64) AppleWebKit/537.36 (KHTML, like Gecko) Chrome/132.0.0.0 Safari/537.36","WebKit","Chrome","132.0.0.0","Windows","10.0","https://app.prolific.com/","en-US,en;q=0.9","6792a60bf1238ae52e645ecb","686d226cabeef709c732f8e1","686e3139b2d537397cf142d8","6792a60bf1238ae52e645ecb","2025-07-09T09:56:28.592Z","","","","","","AttribQ","","","","","","","","","","","","","","","","","","","","","","","","","","","","","","","","","","","","","","50"
"2473","","<div style=""width:500px;"">
  <p>How much control did you have over the ball?</p>
  </div>","20","html-slider-response","61","2776809","0.0-10.0-2.4","154","1","2025-07-09 09:10:09","7701e855f2ef39aa3fd6c71abdc6918a","62.164.249.91","Mozilla/5.0 (Windows NT 10.0; Win64; x64) AppleWebKit/537.36 (KHTML, like Gecko) Chrome/132.0.0.0 Safari/537.36","WebKit","Chrome","132.0.0.0","Windows","10.0","https://app.prolific.com/","en-US,en;q=0.9","6792a60bf1238ae52e645ecb","686d226cabeef709c732f8e1","686e3139b2d537397cf142d8","6792a60bf1238ae52e645ecb","2025-07-09T09:56:31.067Z","","","","","","ControlQ","","","","","","","","","","","","","","","","","","","","","","","","","","","","","","","","","","","","","","50"
"7037","","<div style=""width:500px;"">
  <p>How would you describe your current emotional state?</p>
  </div>","82","html-slider-response","62","2783847","0.0-10.0-3.4","154","1","2025-07-09 09:10:09","7701e855f2ef39aa3fd6c71abdc6918a","62.164.249.91","Mozilla/5.0 (Windows NT 10.0; Win64; x64) AppleWebKit/537.36 (KHTML, like Gecko) Chrome/132.0.0.0 Safari/537.36","WebKit","Chrome","132.0.0.0","Windows","10.0","https://app.prolific.com/","en-US,en;q=0.9","6792a60bf1238ae52e645ecb","686d226cabeef709c732f8e1","686e3139b2d537397cf142d8","6792a60bf1238ae52e645ecb","2025-07-09T09:56:38.105Z","","","","","","StressQ","","","","","","","","","","","","","","","","","","","","","","","","","","","","","","","","","","","","","","50"
"9035","","<div style=""width:500px;"">
  <p>What best describes how you currently feel?</p>
  </div>","89","html-slider-response","63","2792883","0.0-10.0-4.4","154","1","2025-07-09 09:10:09","7701e855f2ef39aa3fd6c71abdc6918a","62.164.249.91","Mozilla/5.0 (Windows NT 10.0; Win64; x64) AppleWebKit/537.36 (KHTML, like Gecko) Chrome/132.0.0.0 Safari/537.36","WebKit","Chrome","132.0.0.0","Windows","10.0","https://app.prolific.com/","en-US,en;q=0.9","6792a60bf1238ae52e645ecb","686d226cabeef709c732f8e1","686e3139b2d537397cf142d8","6792a60bf1238ae52e645ecb","2025-07-09T09:56:47.141Z","","","","","","MotivationQ","","","","","","","","","","","","","","","","","","","","","","","","","","","","","","","","","","","","","","50"
"","","","","ctl-task-cpt","64","2826859","0.0-10.0-0.5","154","1","2025-07-09 09:10:09","7701e855f2ef39aa3fd6c71abdc6918a","62.164.249.91","Mozilla/5.0 (Windows NT 10.0; Win64; x64) AppleWebKit/537.36 (KHTML, like Gecko) Chrome/132.0.0.0 Safari/537.36","WebKit","Chrome","132.0.0.0","Windows","10.0","https://app.prolific.com/","en-US,en;q=0.9","6792a60bf1238ae52e645ecb","686d226cabeef709c732f8e1","686e3139b2d537397cf142d8","6792a60bf1238ae52e645ecb","2025-07-09T09:57:21.117Z","","","","","","","","","","","","","","","","win-only","1","g1:NE,g2:SW","0.5","6","0","2798744.1","2012.7","7016.8","30957","1","4","4","6","2","-4","-5","4","9","0.030303030303030304","1373.1","3000","-2975","[""down"",""left""]","{""num_key_presses"":8,""num_perfect"":2,""num_errors"":1,""num_randdir"":5,""num_randdir_good_moves"":1,""num_whilered"":0,""num_whileblue"":1,""num_blue"":1,""num_good_moves"":4}","[410.3214133126395,406.57142761775424,0.5,410.3214133126395,406.57142761775424,103.2,410.3214133126395,406.57142761775424,208.1,410.3214133126395,406.57142761775424,308.9,410.3214133126395,406.57142761775424,412.3,410.3214133126395,406.57142761775424,513.1,446.5714133126395,397.82142761775424,613.2,471.5714133126395,397.82142761775424,721.1,324.0714133126395,560.3214276177542,823.6,89.0714133126395,691.5714276177542,928.5,70.3214133126395,701.5714276177542,1034.4,61.57141331263951,711.5714276177542,1135.2,60.32141331263951,716.5714276177542,1236.3,60.32141331263951,716.5714276177542,1338.4,60.32141331263951,716.5714276177542,1440.5,60.32141331263951,716.5714276177542,1543,60.32141331263951,716.5714276177542,1645.2,60.32141331263951,716.5714276177542,1748.6,60.32141331263951,716.5714276177542,1848.8,151.5714133126395,656.5714276177542,1953.6,265.3214133126395,587.8214276177542,2053.6,270.3214133126395,586.5714276177542,2154,276.5714133126395,580.3214276177542,2258.2,359.0714133126395,515.3214276177542,2365.8,366.5714133126395,510.32142761775424,2472.5,366.5714133126395,509.07142761775424,2574,366.5714133126395,507.82142761775424,2681.2,366.5714133126395,507.82142761775424,2783.4,366.5714133126395,507.82142761775424,2890.3,366.5714133126395,507.82142761775424,2996.3,366.5714133126395,507.82142761775424,3100.2,371.5714133126395,506.57142761775424,3203.9,485.3214133126395,442.82142761775424,3309.2,254.0714133126395,442.82142761775424,3410.6,187.8214133126395,410.32142761775424,3513.4,187.8214133126395,410.32142761775424,3621.9,187.8214133126395,410.32142761775424,3728.4,187.8214133126395,410.32142761775424,3828.6,187.8214133126395,410.32142761775424,3931.8,187.8214133126395,410.32142761775424,4032.5,187.8214133126395,410.32142761775424,4138.2,187.8214133126395,410.32142761775424,4240,187.8214133126395,410.32142761775424,4345.5,187.8214133126395,410.32142761775424,4450.5,187.8214133126395,410.32142761775424,4552.8,187.8214133126395,410.32142761775424,4654.4,187.8214133126395,410.32142761775424,4755.4,187.8214133126395,410.32142761775424,4856.7,187.8214133126395,410.32142761775424,4957.7]","[1436.7,1436.7,1000,0,436.7,""smooth"",""down"",""down"",""good_move"",4019,2581.6,2147.5,1437.4,434.1,""oops"",""left"",""down"",""good_move"",7666,3646.6,3236.2,4019.4,410.4,""oops"",""left"",""right"",""bad_move"",10529.9,2863.4,2491,7666.5,372.4,""oops"",""left"",""up"",""bad_move"",13342.4,2811.9,2428,10530.5,383.9,""oops"",""down"",""up"",""bad_move"",16421.8,3079,2694.8,13342.8,384.2,""oops"",""down"",""right"",""bad_move"",19553,3130.4,2776.4,16422.6,354,""smooth"",""left"",""left"",""good_move"",21458,1904.5,1842.8,19553.5,61.7,""while_blue"",""left"",""left"",""good_move""]","",""
"47229","","<div style=""width:500px;"">
  <p>What determined the result of this run?</p>
  </div>","90","html-slider-response","65","2874090","0.0-10.0-1.5","154","1","2025-07-09 09:10:09","7701e855f2ef39aa3fd6c71abdc6918a","62.164.249.91","Mozilla/5.0 (Windows NT 10.0; Win64; x64) AppleWebKit/537.36 (KHTML, like Gecko) Chrome/132.0.0.0 Safari/537.36","WebKit","Chrome","132.0.0.0","Windows","10.0","https://app.prolific.com/","en-US,en;q=0.9","6792a60bf1238ae52e645ecb","686d226cabeef709c732f8e1","686e3139b2d537397cf142d8","6792a60bf1238ae52e645ecb","2025-07-09T09:58:08.348Z","","","","","","AttribQ","","","","","","","","","","","","","","","","","","","","","","","","","","","","","","","","","","","","","","50"
"3747","","<div style=""width:500px;"">
  <p>How much control did you have over the ball?</p>
  </div>","2","html-slider-response","66","2877839","0.0-10.0-2.5","154","1","2025-07-09 09:10:09","7701e855f2ef39aa3fd6c71abdc6918a","62.164.249.91","Mozilla/5.0 (Windows NT 10.0; Win64; x64) AppleWebKit/537.36 (KHTML, like Gecko) Chrome/132.0.0.0 Safari/537.36","WebKit","Chrome","132.0.0.0","Windows","10.0","https://app.prolific.com/","en-US,en;q=0.9","6792a60bf1238ae52e645ecb","686d226cabeef709c732f8e1","686e3139b2d537397cf142d8","6792a60bf1238ae52e645ecb","2025-07-09T09:58:12.097Z","","","","","","ControlQ","","","","","","","","","","","","","","","","","","","","","","","","","","","","","","","","","","","","","","50"
"4069","","<div style=""width:500px;"">
  <p>How would you describe your current emotional state?</p>
  </div>","48","html-slider-response","67","2881910","0.0-10.0-3.5","154","1","2025-07-09 09:10:09","7701e855f2ef39aa3fd6c71abdc6918a","62.164.249.91","Mozilla/5.0 (Windows NT 10.0; Win64; x64) AppleWebKit/537.36 (KHTML, like Gecko) Chrome/132.0.0.0 Safari/537.36","WebKit","Chrome","132.0.0.0","Windows","10.0","https://app.prolific.com/","en-US,en;q=0.9","6792a60bf1238ae52e645ecb","686d226cabeef709c732f8e1","686e3139b2d537397cf142d8","6792a60bf1238ae52e645ecb","2025-07-09T09:58:16.168Z","","","","","","StressQ","","","","","","","","","","","","","","","","","","","","","","","","","","","","","","","","","","","","","","50"
"19433","","<div style=""width:500px;"">
  <p>What best describes how you currently feel?</p>
  </div>","86","html-slider-response","68","2901345","0.0-10.0-4.5","154","1","2025-07-09 09:10:09","7701e855f2ef39aa3fd6c71abdc6918a","62.164.249.91","Mozilla/5.0 (Windows NT 10.0; Win64; x64) AppleWebKit/537.36 (KHTML, like Gecko) Chrome/132.0.0.0 Safari/537.36","WebKit","Chrome","132.0.0.0","Windows","10.0","https://app.prolific.com/","en-US,en;q=0.9","6792a60bf1238ae52e645ecb","686d226cabeef709c732f8e1","686e3139b2d537397cf142d8","6792a60bf1238ae52e645ecb","2025-07-09T09:58:35.604Z","","","","","","MotivationQ","","","","","","","","","","","","","","","","","","","","","","","","","","","","","","","","","","","","","","50"
"","","","","ctl-task-cpt","69","2939460","0.0-10.0-0.6","154","1","2025-07-09 09:10:09","7701e855f2ef39aa3fd6c71abdc6918a","62.164.249.91","Mozilla/5.0 (Windows NT 10.0; Win64; x64) AppleWebKit/537.36 (KHTML, like Gecko) Chrome/132.0.0.0 Safari/537.36","WebKit","Chrome","132.0.0.0","Windows","10.0","https://app.prolific.com/","en-US,en;q=0.9","6792a60bf1238ae52e645ecb","686d226cabeef709c732f8e1","686e3139b2d537397cf142d8","6792a60bf1238ae52e645ecb","2025-07-09T09:59:13.719Z","","","","","","","","","","","","","","","","win-only","3","g1:SW,g2:NE","0.4","7","0","2907210.2","1584.2","6587","35090.8","1","4","8","6","2","-8","-8","0","4","0","1307.1","3000","-2880","[""up"",""right""]","{""num_key_presses"":7,""num_perfect"":3,""num_errors"":0,""num_randdir"":4,""num_randdir_good_moves"":1,""num_whilered"":0,""num_whileblue"":0,""num_blue"":2,""num_good_moves"":4}","[412.8214133126395,416.57142761775424,0.5,412.8214133126395,416.57142761775424,101.5,412.8214133126395,416.57142761775424,201.7,412.8214133126395,416.57142761775424,303,412.8214133126395,416.57142761775424,406.6,412.8214133126395,416.57142761775424,507.2,651.5714133126395,187.82142761775424,611,666.5714133126395,176.57142761775424,713.2,669.0714133126395,176.57142761775424,816.4,710.3214133126395,149.07142761775424,919.6,744.0714133126395,117.82142761775425,1022.3,766.5714133126395,92.82142761775425,1123.1,766.5714133126395,92.82142761775425,1229.6,766.5714133126395,92.82142761775425,1332,766.5714133126395,92.82142761775425,1436.3,766.5714133126395,92.82142761775425,1543.9,766.5714133126395,92.82142761775425,1647.4,766.5714133126395,92.82142761775425,1747.9,667.8214133126395,176.57142761775424,1849.1,511.5714133126395,311.57142761775424,1949.3,382.8214133126395,421.57142761775424,2054.9,382.8214133126395,421.57142761775424,2157.5,382.8214133126395,421.57142761775424,2257.6,195.3214133126395,392.82142761775424,2363.2,195.3214133126395,392.82142761775424,2468,195.3214133126395,392.82142761775424,2573.4,195.3214133126395,392.82142761775424,2673.4,195.3214133126395,392.82142761775424,2773.7,195.3214133126395,392.82142761775424,2876.5,195.3214133126395,392.82142761775424,2988.5,195.3214133126395,392.82142761775424,3093.4,195.3214133126395,392.82142761775424,3199,195.3214133126395,392.82142761775424,3301.4,195.3214133126395,392.82142761775424,3402,195.3214133126395,392.82142761775424,3503.3,195.3214133126395,392.82142761775424,3607.8,195.3214133126395,392.82142761775424,3712.9,195.3214133126395,392.82142761775424,3816.7,195.3214133126395,392.82142761775424,3917,195.3214133126395,392.82142761775424,4017.2,195.3214133126395,392.82142761775424,4119.3,195.3214133126395,392.82142761775424,4222.3,195.3214133126395,392.82142761775424,4325.6,195.3214133126395,392.82142761775424,4426.9,195.3214133126395,392.82142761775424,4527.4,195.3214133126395,392.82142761775424,4628.4,195.3214133126395,392.82142761775424,4734.2,195.3214133126395,392.82142761775424,4836.3,195.3214133126395,392.82142761775424,4936.9]","[5650.5,5650.5,3236.6,2004.5,409.4,""smooth"",""right"",""right"",""good_move"",8147.4,2496.2,2049.7,5651.2,446.5,""oops"",""right"",""left"",""bad_move"",11009.3,2861.4,2466.9,8148.1,394.4,""smooth"",""right"",""right"",""good_move"",13616.5,2606.5,2230.9,11010.1,375.6,""smooth"",""right"",""right"",""good_move"",17030.4,3413.3,2985.7,13617.1,427.6,""oops"",""up"",""down"",""bad_move"",19196.8,2165.5,1724.1,17031.3,441.4,""oops"",""right"",""up"",""good_move"",25907,6709.3,3207.3,22298.4,401.3,""oops"",""right"",""down"",""bad_move""]","",""
"4670","","<div style=""width:500px;"">
  <p>What determined the result of this run?</p>
  </div>","97","html-slider-response","70","2944132","0.0-10.0-1.6","154","1","2025-07-09 09:10:09","7701e855f2ef39aa3fd6c71abdc6918a","62.164.249.91","Mozilla/5.0 (Windows NT 10.0; Win64; x64) AppleWebKit/537.36 (KHTML, like Gecko) Chrome/132.0.0.0 Safari/537.36","WebKit","Chrome","132.0.0.0","Windows","10.0","https://app.prolific.com/","en-US,en;q=0.9","6792a60bf1238ae52e645ecb","686d226cabeef709c732f8e1","686e3139b2d537397cf142d8","6792a60bf1238ae52e645ecb","2025-07-09T09:59:18.390Z","","","","","","AttribQ","","","","","","","","","","","","","","","","","","","","","","","","","","","","","","","","","","","","","","50"
"3156","","<div style=""width:500px;"">
  <p>How much control did you have over the ball?</p>
  </div>","13","html-slider-response","71","2947289","0.0-10.0-2.6","154","1","2025-07-09 09:10:09","7701e855f2ef39aa3fd6c71abdc6918a","62.164.249.91","Mozilla/5.0 (Windows NT 10.0; Win64; x64) AppleWebKit/537.36 (KHTML, like Gecko) Chrome/132.0.0.0 Safari/537.36","WebKit","Chrome","132.0.0.0","Windows","10.0","https://app.prolific.com/","en-US,en;q=0.9","6792a60bf1238ae52e645ecb","686d226cabeef709c732f8e1","686e3139b2d537397cf142d8","6792a60bf1238ae52e645ecb","2025-07-09T09:59:21.547Z","","","","","","ControlQ","","","","","","","","","","","","","","","","","","","","","","","","","","","","","","","","","","","","","","50"
"4470","","<div style=""width:500px;"">
  <p>How would you describe your current emotional state?</p>
  </div>","85","html-slider-response","72","2951760","0.0-10.0-3.6","154","1","2025-07-09 09:10:09","7701e855f2ef39aa3fd6c71abdc6918a","62.164.249.91","Mozilla/5.0 (Windows NT 10.0; Win64; x64) AppleWebKit/537.36 (KHTML, like Gecko) Chrome/132.0.0.0 Safari/537.36","WebKit","Chrome","132.0.0.0","Windows","10.0","https://app.prolific.com/","en-US,en;q=0.9","6792a60bf1238ae52e645ecb","686d226cabeef709c732f8e1","686e3139b2d537397cf142d8","6792a60bf1238ae52e645ecb","2025-07-09T09:59:26.018Z","","","","","","StressQ","","","","","","","","","","","","","","","","","","","","","","","","","","","","","","","","","","","","","","50"
"2556","","<div style=""width:500px;"">
  <p>What best describes how you currently feel?</p>
  </div>","84","html-slider-response","73","2954318","0.0-10.0-4.6","154","1","2025-07-09 09:10:09","7701e855f2ef39aa3fd6c71abdc6918a","62.164.249.91","Mozilla/5.0 (Windows NT 10.0; Win64; x64) AppleWebKit/537.36 (KHTML, like Gecko) Chrome/132.0.0.0 Safari/537.36","WebKit","Chrome","132.0.0.0","Windows","10.0","https://app.prolific.com/","en-US,en;q=0.9","6792a60bf1238ae52e645ecb","686d226cabeef709c732f8e1","686e3139b2d537397cf142d8","6792a60bf1238ae52e645ecb","2025-07-09T09:59:28.576Z","","","","","","MotivationQ","","","","","","","","","","","","","","","","","","","","","","","","","","","","","","","","","","","","","","50"
"","","","","ctl-task-cpt","74","2992241","0.0-10.0-0.7","154","1","2025-07-09 09:10:09","7701e855f2ef39aa3fd6c71abdc6918a","62.164.249.91","Mozilla/5.0 (Windows NT 10.0; Win64; x64) AppleWebKit/537.36 (KHTML, like Gecko) Chrome/132.0.0.0 Safari/537.36","WebKit","Chrome","132.0.0.0","Windows","10.0","https://app.prolific.com/","en-US,en;q=0.9","6792a60bf1238ae52e645ecb","686d226cabeef709c732f8e1","686e3139b2d537397cf142d8","6792a60bf1238ae52e645ecb","2025-07-09T10:00:06.499Z","","","","","","","","","","","","","","","","win-only","2","g1:SE,g2:NW","0.3","8","0","2960178.7","1313.6","6316","34903","1","4","4","6","2","-4","-4","0","0","0","1407.6","3000","-2880","[""left"",""up""]","{""num_key_presses"":8,""num_perfect"":2,""num_errors"":0,""num_randdir"":6,""num_randdir_good_moves"":4,""num_whilered"":0,""num_whileblue"":0,""num_blue"":1,""num_good_moves"":6}","[412.8214133126395,417.82142761775424,0.4,412.8214133126395,417.82142761775424,101.7,412.8214133126395,417.82142761775424,202.8,412.8214133126395,417.82142761775424,306.2,412.8214133126395,417.82142761775424,406.6,412.8214133126395,417.82142761775424,507.6,270.3214133126395,237.82142761775424,608,270.3214133126395,235.32142761775424,709.1,270.3214133126395,235.32142761775424,812.7,87.8214133126395,172.82142761775424,913.6,76.5714133126395,156.57142761775424,1014.1,71.5714133126395,131.57142761775424,1118.6,71.5714133126395,109.07142761775425,1222.5,71.5714133126395,107.82142761775425,1324.5,71.5714133126395,107.82142761775425,1429.7,71.5714133126395,107.82142761775425,1531.8,71.5714133126395,107.82142761775425,1632.5,71.5714133126395,107.82142761775425,1734.1,174.0714133126395,107.82142761775425,1836.9,276.5714133126395,156.57142761775424,1938.4,202.8214133126395,264.07142761775424,2044.5,202.8214133126395,264.07142761775424,2148.2,202.8214133126395,264.07142761775424,2248.6,202.8214133126395,264.07142761775424,2353,202.8214133126395,264.07142761775424,2454.3,202.8214133126395,264.07142761775424,2556.8,202.8214133126395,264.07142761775424,2656.8,202.8214133126395,264.07142761775424,2762,202.8214133126395,264.07142761775424,2862.7,202.8214133126395,264.07142761775424,2964.1,202.8214133126395,264.07142761775424,3068.1,202.8214133126395,264.07142761775424,3169.8,202.8214133126395,264.07142761775424,3272.6,202.8214133126395,264.07142761775424,3372.9,202.8214133126395,264.07142761775424,3478.2,202.8214133126395,264.07142761775424,3579.3,202.8214133126395,264.07142761775424,3681.8,202.8214133126395,264.07142761775424,3784.1,202.8214133126395,264.07142761775424,3888.5,202.8214133126395,264.07142761775424,3990.1,202.8214133126395,264.07142761775424,4093.4,202.8214133126395,264.07142761775424,4198,202.8214133126395,264.07142761775424,4299.5,202.8214133126395,264.07142761775424,4404.1,202.8214133126395,264.07142761775424,4508.4,202.8214133126395,264.07142761775424,4612.3,202.8214133126395,264.07142761775424,4718.4,202.8214133126395,264.07142761775424,4824,202.8214133126395,264.07142761775424,4928.8]","[1470.8,1470.8,1000,0,470.8,""oops"",""up"",""up"",""good_move"",4538.2,3066.4,2698.8,1471.9,367.5,""oops"",""left"",""down"",""bad_move"",7212,2673.3,2274.8,4538.7,398.5,""oops"",""up"",""up"",""good_move"",9648,2435.3,2057,7212.7,378.3,""smooth"",""up"",""up"",""good_move"",13156.3,3507.9,3109.4,9648.5,398.5,""oops"",""up"",""up"",""good_move"",16417.6,3260.8,2903.3,13156.8,357.5,""oops"",""left"",""right"",""bad_move"",21771.5,5353.4,1710.8,19620.1,440.6,""smooth"",""left"",""left"",""good_move"",25149.3,3376.8,3004.2,21772.5,372.6,""oops"",""left"",""left"",""good_move""]","",""
"5947","","<div style=""width:500px;"">
  <p>What determined the result of this run?</p>
  </div>","7","html-slider-response","75","2998189","0.0-10.0-1.7","154","1","2025-07-09 09:10:09","7701e855f2ef39aa3fd6c71abdc6918a","62.164.249.91","Mozilla/5.0 (Windows NT 10.0; Win64; x64) AppleWebKit/537.36 (KHTML, like Gecko) Chrome/132.0.0.0 Safari/537.36","WebKit","Chrome","132.0.0.0","Windows","10.0","https://app.prolific.com/","en-US,en;q=0.9","6792a60bf1238ae52e645ecb","686d226cabeef709c732f8e1","686e3139b2d537397cf142d8","6792a60bf1238ae52e645ecb","2025-07-09T10:00:12.447Z","","","","","","AttribQ","","","","","","","","","","","","","","","","","","","","","","","","","","","","","","","","","","","","","","50"
"6485","","<div style=""width:500px;"">
  <p>How much control did you have over the ball?</p>
  </div>","10","html-slider-response","76","3004676","0.0-10.0-2.7","154","1","2025-07-09 09:10:09","7701e855f2ef39aa3fd6c71abdc6918a","62.164.249.91","Mozilla/5.0 (Windows NT 10.0; Win64; x64) AppleWebKit/537.36 (KHTML, like Gecko) Chrome/132.0.0.0 Safari/537.36","WebKit","Chrome","132.0.0.0","Windows","10.0","https://app.prolific.com/","en-US,en;q=0.9","6792a60bf1238ae52e645ecb","686d226cabeef709c732f8e1","686e3139b2d537397cf142d8","6792a60bf1238ae52e645ecb","2025-07-09T10:00:18.934Z","","","","","","ControlQ","","","","","","","","","","","","","","","","","","","","","","","","","","","","","","","","","","","","","","50"
"4004","","<div style=""width:500px;"">
  <p>How would you describe your current emotional state?</p>
  </div>","18","html-slider-response","77","3008681","0.0-10.0-3.7","154","1","2025-07-09 09:10:09","7701e855f2ef39aa3fd6c71abdc6918a","62.164.249.91","Mozilla/5.0 (Windows NT 10.0; Win64; x64) AppleWebKit/537.36 (KHTML, like Gecko) Chrome/132.0.0.0 Safari/537.36","WebKit","Chrome","132.0.0.0","Windows","10.0","https://app.prolific.com/","en-US,en;q=0.9","6792a60bf1238ae52e645ecb","686d226cabeef709c732f8e1","686e3139b2d537397cf142d8","6792a60bf1238ae52e645ecb","2025-07-09T10:00:22.940Z","","","","","","StressQ","","","","","","","","","","","","","","","","","","","","","","","","","","","","","","","","","","","","","","50"
"2995","","<div style=""width:500px;"">
  <p>What best describes how you currently feel?</p>
  </div>","79","html-slider-response","78","3011678","0.0-10.0-4.7","154","1","2025-07-09 09:10:09","7701e855f2ef39aa3fd6c71abdc6918a","62.164.249.91","Mozilla/5.0 (Windows NT 10.0; Win64; x64) AppleWebKit/537.36 (KHTML, like Gecko) Chrome/132.0.0.0 Safari/537.36","WebKit","Chrome","132.0.0.0","Windows","10.0","https://app.prolific.com/","en-US,en;q=0.9","6792a60bf1238ae52e645ecb","686d226cabeef709c732f8e1","686e3139b2d537397cf142d8","6792a60bf1238ae52e645ecb","2025-07-09T10:00:25.936Z","","","","","","MotivationQ","","","","","","","","","","","","","","","","","","","","","","","","","","","","","","","","","","","","","","50"
"","","","","ctl-task-cpt","79","3060353","0.0-10.0-0.8","154","1","2025-07-09 09:10:09","7701e855f2ef39aa3fd6c71abdc6918a","62.164.249.91","Mozilla/5.0 (Windows NT 10.0; Win64; x64) AppleWebKit/537.36 (KHTML, like Gecko) Chrome/132.0.0.0 Safari/537.36","WebKit","Chrome","132.0.0.0","Windows","10.0","https://app.prolific.com/","en-US,en;q=0.9","6792a60bf1238ae52e645ecb","686d226cabeef709c732f8e1","686e3139b2d537397cf142d8","6792a60bf1238ae52e645ecb","2025-07-09T10:01:14.611Z","","","","","","","","","","","","","","","","win-only","2","g1:SE,g2:NW","0.2","9","0","3017540.2","1372.3","6377.4","45661.9","1","4","4","6","2","-4","-4","0","0","0","1616.6","3000","-2825","[""left"",""up""]","{""num_key_presses"":10,""num_perfect"":2,""num_errors"":0,""num_randdir"":8,""num_randdir_good_moves"":4,""num_whilered"":0,""num_whileblue"":0,""num_blue"":2,""num_good_moves"":6}","[416.5714133126395,420.32142761775424,0.5,416.5714133126395,420.32142761775424,106.5,416.5714133126395,420.32142761775424,208.5,416.5714133126395,420.32142761775424,309.7,416.5714133126395,420.32142761775424,414,416.5714133126395,420.32142761775424,514.9,386.5714133126395,410.32142761775424,619.1,342.8214133126395,396.57142761775424,720.5,341.5714133126395,394.07142761775424,821.3,335.3214133126395,389.07142761775424,923.2,132.8214133126395,184.07142761775424,1025.9,116.5714133126395,146.57142761775424,1131.4,111.5714133126395,134.07142761775424,1231.7,111.5714133126395,117.82142761775425,1338.3,111.5714133126395,115.32142761775425,1438.7,111.5714133126395,115.32142761775425,1546.4,111.5714133126395,115.32142761775425,1649.5,111.5714133126395,115.32142761775425,1749.7,111.5714133126395,115.32142761775425,1850.2,111.5714133126395,115.32142761775425,1953.9,111.5714133126395,115.32142761775425,2056,111.5714133126395,115.32142761775425,2158.5,111.5714133126395,115.32142761775425,2258.7,177.8214133126395,131.57142761775424,2365.7,292.8214133126395,217.82142761775424,2472.8,291.5714133126395,310.32142761775424,2574.9,187.8214133126395,339.07142761775424,2680.7,187.8214133126395,339.07142761775424,2786.6,187.8214133126395,339.07142761775424,2892,187.8214133126395,339.07142761775424,2995.4,187.8214133126395,339.07142761775424,3096.3,187.8214133126395,339.07142761775424,3200.7,187.8214133126395,339.07142761775424,3305.4,187.8214133126395,339.07142761775424,3405.9,187.8214133126395,339.07142761775424,3506.6,187.8214133126395,339.07142761775424,3610.2,187.8214133126395,339.07142761775424,3715.8,187.8214133126395,339.07142761775424,3819.6,187.8214133126395,339.07142761775424,3920.1,187.8214133126395,339.07142761775424,4020.1,187.8214133126395,339.07142761775424,4126.2,187.8214133126395,339.07142761775424,4228.3,187.8214133126395,339.07142761775424,4328.3,187.8214133126395,339.07142761775424,4429.8,187.8214133126395,339.07142761775424,4530.2,187.8214133126395,339.07142761775424,4631.3,187.8214133126395,339.07142761775424,4735.3,187.8214133126395,339.07142761775424,4839.1,187.8214133126395,339.07142761775424,4943.3]","[4591,4591,2158.8,2003.9,428.3,""smooth"",""up"",""up"",""good_move"",8182.3,3591,3185.1,4591.4,405.9,""oops"",""left"",""right"",""bad_move"",11751.5,3568.8,3194.4,8182.8,374.4,""smooth"",""up"",""up"",""good_move"",14984.1,3231.8,2846.6,11752.4,385.2,""oops"",""left"",""left"",""good_move"",17684.9,2699.4,2320.4,14985.5,379,""oops"",""left"",""up"",""good_move"",20595.1,2909.3,2561.4,17685.8,347.9,""oops"",""left"",""right"",""bad_move"",23430,2834.6,2506.5,20595.4,328.1,""oops"",""left"",""down"",""bad_move"",26494.6,3064.2,2633.6,23430.4,430.6,""oops"",""left"",""up"",""good_move"",33279.6,6784.5,2909.4,29925.3,444.9,""oops"",""left"",""left"",""good_move"",36168.9,2888.9,2511.5,33280,377.4,""oops"",""left"",""down"",""bad_move""]","",""
"11534","","<div style=""width:500px;"">
  <p>What determined the result of this run?</p>
  </div>","16","html-slider-response","80","3071889","0.0-10.0-1.8","154","1","2025-07-09 09:10:09","7701e855f2ef39aa3fd6c71abdc6918a","62.164.249.91","Mozilla/5.0 (Windows NT 10.0; Win64; x64) AppleWebKit/537.36 (KHTML, like Gecko) Chrome/132.0.0.0 Safari/537.36","WebKit","Chrome","132.0.0.0","Windows","10.0","https://app.prolific.com/","en-US,en;q=0.9","6792a60bf1238ae52e645ecb","686d226cabeef709c732f8e1","686e3139b2d537397cf142d8","6792a60bf1238ae52e645ecb","2025-07-09T10:01:26.147Z","","","","","","AttribQ","","","","","","","","","","","","","","","","","","","","","","","","","","","","","","","","","","","","","","50"
"7317","","<div style=""width:500px;"">
  <p>How much control did you have over the ball?</p>
  </div>","5","html-slider-response","81","3079209","0.0-10.0-2.8","154","1","2025-07-09 09:10:09","7701e855f2ef39aa3fd6c71abdc6918a","62.164.249.91","Mozilla/5.0 (Windows NT 10.0; Win64; x64) AppleWebKit/537.36 (KHTML, like Gecko) Chrome/132.0.0.0 Safari/537.36","WebKit","Chrome","132.0.0.0","Windows","10.0","https://app.prolific.com/","en-US,en;q=0.9","6792a60bf1238ae52e645ecb","686d226cabeef709c732f8e1","686e3139b2d537397cf142d8","6792a60bf1238ae52e645ecb","2025-07-09T10:01:33.467Z","","","","","","ControlQ","","","","","","","","","","","","","","","","","","","","","","","","","","","","","","","","","","","","","","50"
"7398","","<div style=""width:500px;"">
  <p>How would you describe your current emotional state?</p>
  </div>","78","html-slider-response","82","3086608","0.0-10.0-3.8","154","1","2025-07-09 09:10:09","7701e855f2ef39aa3fd6c71abdc6918a","62.164.249.91","Mozilla/5.0 (Windows NT 10.0; Win64; x64) AppleWebKit/537.36 (KHTML, like Gecko) Chrome/132.0.0.0 Safari/537.36","WebKit","Chrome","132.0.0.0","Windows","10.0","https://app.prolific.com/","en-US,en;q=0.9","6792a60bf1238ae52e645ecb","686d226cabeef709c732f8e1","686e3139b2d537397cf142d8","6792a60bf1238ae52e645ecb","2025-07-09T10:01:40.866Z","","","","","","StressQ","","","","","","","","","","","","","","","","","","","","","","","","","","","","","","","","","","","","","","50"
"22244","","<div style=""width:500px;"">
  <p>What best describes how you currently feel?</p>
  </div>","82","html-slider-response","83","3108853","0.0-10.0-4.8","154","1","2025-07-09 09:10:09","7701e855f2ef39aa3fd6c71abdc6918a","62.164.249.91","Mozilla/5.0 (Windows NT 10.0; Win64; x64) AppleWebKit/537.36 (KHTML, like Gecko) Chrome/132.0.0.0 Safari/537.36","WebKit","Chrome","132.0.0.0","Windows","10.0","https://app.prolific.com/","en-US,en;q=0.9","6792a60bf1238ae52e645ecb","686d226cabeef709c732f8e1","686e3139b2d537397cf142d8","6792a60bf1238ae52e645ecb","2025-07-09T10:02:03.111Z","","","","","","MotivationQ","","","","","","","","","","","","","","","","","","","","","","","","","","","","","","","","","","","","","","50"
"","","","","ctl-task-cpt","84","3151435","0.0-10.0-0.9","154","1","2025-07-09 09:10:09","7701e855f2ef39aa3fd6c71abdc6918a","62.164.249.91","Mozilla/5.0 (Windows NT 10.0; Win64; x64) AppleWebKit/537.36 (KHTML, like Gecko) Chrome/132.0.0.0 Safari/537.36","WebKit","Chrome","132.0.0.0","Windows","10.0","https://app.prolific.com/","en-US,en;q=0.9","6792a60bf1238ae52e645ecb","686d226cabeef709c732f8e1","686e3139b2d537397cf142d8","6792a60bf1238ae52e645ecb","2025-07-09T10:02:45.693Z","","","","","","","","","","","","","","","","win-only","0","g1:NW,g2:SE","0.4","10","0","3114714.4","1735.6","6742.1","39563.7","1","4","8","6","2","-8","-10","0","0","0","1983","3000","-2790","[""down"",""right""]","{""num_key_presses"":9,""num_perfect"":4,""num_errors"":2,""num_randdir"":3,""num_randdir_good_moves"":2,""num_whilered"":0,""num_whileblue"":1,""num_blue"":3,""num_good_moves"":6}","[415.3214133126395,417.82142761775424,0.7,415.3214133126395,417.82142761775424,109.5,415.3214133126395,417.82142761775424,220.5,415.3214133126395,417.82142761775424,325.8,415.3214133126395,417.82142761775424,425.9,415.3214133126395,417.82142761775424,530.3,470.3214133126395,446.57142761775424,630.3,515.3214133126395,476.57142761775424,732.9,522.8214133126395,486.57142761775424,835,521.5714133126395,490.32142761775424,936.3,561.5714133126395,530.3214276177542,1041.8,652.8214133126395,624.0714276177542,1150.3,677.8214133126395,660.3214276177542,1251.4,684.0714133126395,671.5714276177542,1353.7,691.5714133126395,682.8214276177542,1462.5,705.3214133126395,701.5714276177542,1566.7,731.5714133126395,725.3214276177542,1668.9,741.5714133126395,734.0714276177542,1779.6,746.5714133126395,736.5714276177542,1891.9,746.5714133126395,736.5714276177542,1995,746.5714133126395,736.5714276177542,2096,746.5714133126395,736.5714276177542,2198.6,746.5714133126395,736.5714276177542,2301.1,746.5714133126395,736.5714276177542,2405.2,746.5714133126395,736.5714276177542,2505.9,335.3214133126395,444.07142761775424,2606.4,200.3214133126395,371.57142761775424,2709.1,191.5714133126395,366.57142761775424,2811.3,191.5714133126395,366.57142761775424,2913,191.5714133126395,366.57142761775424,3019,191.5714133126395,366.57142761775424,3124.6,191.5714133126395,366.57142761775424,3225.2,191.5714133126395,366.57142761775424,3325.3,191.5714133126395,366.57142761775424,3426.9,191.5714133126395,366.57142761775424,3527.3,191.5714133126395,366.57142761775424,3631,191.5714133126395,366.57142761775424,3736.2,191.5714133126395,366.57142761775424,3839.1,191.5714133126395,366.57142761775424,3941.2,191.5714133126395,366.57142761775424,4046,191.5714133126395,366.57142761775424,4146,191.5714133126395,366.57142761775424,4248.3,191.5714133126395,366.57142761775424,4349.9,191.5714133126395,366.57142761775424,4450.3,191.5714133126395,366.57142761775424,4555.7,191.5714133126395,366.57142761775424,4658.6,191.5714133126395,366.57142761775424,4762.3,191.5714133126395,366.57142761775424,4868.6,191.5714133126395,366.57142761775424,4972.1]","[454.3,454.3,1000,0,-545.7,""error"",""-"",""-"",""no_move"",4869.9,4415.2,3043.4,1459.3,367.2,""oops"",""right"",""right"",""good_move"",9633.6,4763.1,1853.2,7369.7,410.7,""smooth"",""down"",""down"",""good_move"",12447.9,2813.8,2351.1,9634.1,462.7,""smooth"",""right"",""right"",""good_move"",15137.6,2689.2,2287.9,12448.5,401.3,""oops"",""right"",""down"",""good_move"",17844.5,2706.4,2295.6,15138.1,410.8,""smooth"",""right"",""right"",""good_move"",20402.5,2557.3,2203.2,17845.2,354.1,""oops"",""down"",""left"",""bad_move"",22946,2543.1,2187.2,20402.9,355.9,""while_blue"",""right"",""left"",""bad_move"",29672.8,6726.5,2940.8,26333.6,398.4,""smooth"",""right"",""right"",""good_move""]","",""
"5312","","<div style=""width:500px;"">
  <p>What determined the result of this run?</p>
