"rt","response_timestamp","stimulus","response","trial_type","trial_index","time_elapsed","internal_node_id","run_id","condition","recorded_at","source_code_version","ip","user_agent","device","browser","browser_version","platform","platform_version","referer","accept_language","PROLIFIC_PID","STUDY_ID","SESSION_ID","prolific_id","realtime","view_history","question_order","consent","success","question_id","eventType","responses","item_order","radio_event_ids","radio_event_times","key_event_times","mouse_event_times","straightlining","zigzagging","honeypot","which_type","canvas_config","goals_layout","control_level","trial_number","tutorial_trial_number","trial_start_time","phase1_start_time","phase2_start_time","phase3_start_time","goal_1_value","goal_1_distance","goal_2_value","goal_2_distance","goal_selected","outcome","outcome_total","participant_final_score","participant_initial_score","participant_final_score_prop","goal_choice_rt","allocated_time","allocated_time_remaining","goal_direction","counts","mouse_movements","key_presses","correct","slider_start"
"2765","1752052066062","<p style='font-size:40px;line-height:1.25'><strong>Welcome to the experiment!</strong></p><p style='font-size:1.1em;line-height:1.25'>Thank you for your interest in our experiment! Before you begin, it is important that we obtain your informed consent to participate in the study.</p><p style='font-size:1.1em;line-height:1.25'>On the next screen will be an <strong>information sheet</strong> for you to read. To participate in the study we need you to read this information sheet and the following consent form carefully. If you agree with all the statements, please click the <strong>I agree</strong> button.</p><p style='font-size:1.1em;line-height:1.25'>Press <strong>Next</strong> to read the information sheet.</p>","0","custom-html-button-response","0","2767","0.0-0.0","81","1","2025-07-09 09:07:33","7701e855f2ef39aa3fd6c71abdc6918a","86.144.141.5","Mozilla/5.0 (Windows NT 10.0; Win64; x64) AppleWebKit/537.36 (KHTML, like Gecko) Chrome/138.0.0.0 Safari/537.36 Edg/138.0.0.0","WebKit","Edge","138.0.0.0","Windows","10.0","https://app.prolific.com/","en-US,en;q=0.9,en-GB;q=0.8","676e882e8a97b91ee272efe4","686d226cabeef709c732f8e1","686e312f5a122ab89de5b461","676e882e8a97b91ee272efe4","2025-07-09T09:07:46.063Z","","","","","","","","","","","","","","","","","","","","","","","","","","","","","","","","","","","","","","","","","","","",""
"17742","","","","instructions","1","20510","0.0-1.0","81","1","2025-07-09 09:07:33","7701e855f2ef39aa3fd6c71abdc6918a","86.144.141.5","Mozilla/5.0 (Windows NT 10.0; Win64; x64) AppleWebKit/537.36 (KHTML, like Gecko) Chrome/138.0.0.0 Safari/537.36 Edg/138.0.0.0","WebKit","Edge","138.0.0.0","Windows","10.0","https://app.prolific.com/","en-US,en;q=0.9,en-GB;q=0.8","676e882e8a97b91ee272efe4","686d226cabeef709c732f8e1","686e312f5a122ab89de5b461","676e882e8a97b91ee272efe4","","[{""page_index"":0,""viewing_time"":14673},{""page_index"":1,""viewing_time"":3068}]","","","","","","","","","","","","","","","","","","","","","","","","","","","","","","","","","","","","","","","","","","",""
"7707","","","{""Q0"":"""",""Q1"":"""",""Q2"":"""",""Q3"":"""",""Q4"":"""",""Q5"":"""",""Q6"":""I agree""}","survey-multi-choice","2","28219","0.0-2.0","81","1","2025-07-09 09:07:33","7701e855f2ef39aa3fd6c71abdc6918a","86.144.141.5","Mozilla/5.0 (Windows NT 10.0; Win64; x64) AppleWebKit/537.36 (KHTML, like Gecko) Chrome/138.0.0.0 Safari/537.36 Edg/138.0.0.0","WebKit","Edge","138.0.0.0","Windows","10.0","https://app.prolific.com/","en-US,en;q=0.9,en-GB;q=0.8","676e882e8a97b91ee272efe4","686d226cabeef709c732f8e1","686e312f5a122ab89de5b461","676e882e8a97b91ee272efe4","","","[0,1,2,3,4,5,6]","true","","","","","","","","","","","","","","","","","","","","","","","","","","","","","","","","","","","","","","","","",""
"1737","","","","fullscreen","3","30974","0.0-4.0","81","1","2025-07-09 09:07:33","7701e855f2ef39aa3fd6c71abdc6918a","86.144.141.5","Mozilla/5.0 (Windows NT 10.0; Win64; x64) AppleWebKit/537.36 (KHTML, like Gecko) Chrome/138.0.0.0 Safari/537.36 Edg/138.0.0.0","WebKit","Edge","138.0.0.0","Windows","10.0","https://app.prolific.com/","en-US,en;q=0.9,en-GB;q=0.8","676e882e8a97b91ee272efe4","686d226cabeef709c732f8e1","686e312f5a122ab89de5b461","676e882e8a97b91ee272efe4","","","","","true","","","","","","","","","","","","","","","","","","","","","","","","","","","","","","","","","","","","","","","",""
"5726","1752052099996"," <p style='font-size:1.1em;line-height:1.25'>Thank you for completing the consent form and closing all other tabs.</p><p style='font-size:1.1em;line-height:1.25'>We will now invite you to fill in some demographic information and questionnaires, before starting the game.<br>This will take about 5 minutes.<br></p><p style='font-size:1.1em;line-height:1.25'>Press the <strong>Next</strong> button to continue.</p>","0","custom-html-button-response","4","36701","0.0-5.0","81","1","2025-07-09 09:07:33","7701e855f2ef39aa3fd6c71abdc6918a","86.144.141.5","Mozilla/5.0 (Windows NT 10.0; Win64; x64) AppleWebKit/537.36 (KHTML, like Gecko) Chrome/138.0.0.0 Safari/537.36 Edg/138.0.0.0","WebKit","Edge","138.0.0.0","Windows","10.0","https://app.prolific.com/","en-US,en;q=0.9,en-GB;q=0.8","676e882e8a97b91ee272efe4","686d226cabeef709c732f8e1","686e312f5a122ab89de5b461","676e882e8a97b91ee272efe4","2025-07-09T09:08:19.997Z","","","","","","","","","","","","","","","","","","","","","","","","","","","","","","","","","","","","","","","","","","","",""
"2633","","","{""age"":""29""}","survey-text","5","39337","0.0-6.0-0.0","81","1","2025-07-09 09:07:33","7701e855f2ef39aa3fd6c71abdc6918a","86.144.141.5","Mozilla/5.0 (Windows NT 10.0; Win64; x64) AppleWebKit/537.36 (KHTML, like Gecko) Chrome/138.0.0.0 Safari/537.36 Edg/138.0.0.0","WebKit","Edge","138.0.0.0","Windows","10.0","https://app.prolific.com/","en-US,en;q=0.9,en-GB;q=0.8","676e882e8a97b91ee272efe4","686d226cabeef709c732f8e1","686e312f5a122ab89de5b461","676e882e8a97b91ee272efe4","","","","","","0","demographics","","","","","","","","","","","","","","","","","","","","","","","","","","","","","","","","","","","","","",""
"1648","","","{""gender_identity"":""female/woman""}","survey-multi-choice","6","40986","0.0-6.0-1.0","81","1","2025-07-09 09:07:33","7701e855f2ef39aa3fd6c71abdc6918a","86.144.141.5","Mozilla/5.0 (Windows NT 10.0; Win64; x64) AppleWebKit/537.36 (KHTML, like Gecko) Chrome/138.0.0.0 Safari/537.36 Edg/138.0.0.0","WebKit","Edge","138.0.0.0","Windows","10.0","https://app.prolific.com/","en-US,en;q=0.9,en-GB;q=0.8","676e882e8a97b91ee272efe4","686d226cabeef709c732f8e1","686e312f5a122ab89de5b461","676e882e8a97b91ee272efe4","","","[0]","","","1","demographics","","","","","","","","","","","","","","","","","","","","","","","","","","","","","","","","","","","","","",""
"2227","","","{""assigned_sex"":""female""}","survey-multi-choice","7","43215","0.0-6.0-2.0","81","1","2025-07-09 09:07:33","7701e855f2ef39aa3fd6c71abdc6918a","86.144.141.5","Mozilla/5.0 (Windows NT 10.0; Win64; x64) AppleWebKit/537.36 (KHTML, like Gecko) Chrome/138.0.0.0 Safari/537.36 Edg/138.0.0.0","WebKit","Edge","138.0.0.0","Windows","10.0","https://app.prolific.com/","en-US,en;q=0.9,en-GB;q=0.8","676e882e8a97b91ee272efe4","686d226cabeef709c732f8e1","686e312f5a122ab89de5b461","676e882e8a97b91ee272efe4","","","[0]","","","2","demographics","","","","","","","","","","","","","","","","","","","","","","","","","","","","","","","","","","","","","",""
"3449","","","{""menstrual_cycle"":""Yes""}","survey-multi-choice","8","46665","0.0-6.0-3.0","81","1","2025-07-09 09:07:33","7701e855f2ef39aa3fd6c71abdc6918a","86.144.141.5","Mozilla/5.0 (Windows NT 10.0; Win64; x64) AppleWebKit/537.36 (KHTML, like Gecko) Chrome/138.0.0.0 Safari/537.36 Edg/138.0.0.0","WebKit","Edge","138.0.0.0","Windows","10.0","https://app.prolific.com/","en-US,en;q=0.9,en-GB;q=0.8","676e882e8a97b91ee272efe4","686d226cabeef709c732f8e1","686e312f5a122ab89de5b461","676e882e8a97b91ee272efe4","","","[0]","","","4","demographics","","","","","","","","","","","","","","","","","","","","","","","","","","","","","","","","","","","","","",""
"2663","","","{""education"":""Master's Degree (e.g., MSc)""}","survey-multi-choice","9","49329","0.0-6.0-4.0","81","1","2025-07-09 09:07:33","7701e855f2ef39aa3fd6c71abdc6918a","86.144.141.5","Mozilla/5.0 (Windows NT 10.0; Win64; x64) AppleWebKit/537.36 (KHTML, like Gecko) Chrome/138.0.0.0 Safari/537.36 Edg/138.0.0.0","WebKit","Edge","138.0.0.0","Windows","10.0","https://app.prolific.com/","en-US,en;q=0.9,en-GB;q=0.8","676e882e8a97b91ee272efe4","686d226cabeef709c732f8e1","686e312f5a122ab89de5b461","676e882e8a97b91ee272efe4","","","[0]","","","5","demographics","","","","","","","","","","","","","","","","","","","","","","","","","","","","","","","","","","","","","",""
"5469","","","{""education"":""GCSE/Standard Grades""}","survey-multi-choice","10","54800","0.0-6.0-5.0","81","1","2025-07-09 09:07:33","7701e855f2ef39aa3fd6c71abdc6918a","86.144.141.5","Mozilla/5.0 (Windows NT 10.0; Win64; x64) AppleWebKit/537.36 (KHTML, like Gecko) Chrome/138.0.0.0 Safari/537.36 Edg/138.0.0.0","WebKit","Edge","138.0.0.0","Windows","10.0","https://app.prolific.com/","en-US,en;q=0.9,en-GB;q=0.8","676e882e8a97b91ee272efe4","686d226cabeef709c732f8e1","686e312f5a122ab89de5b461","676e882e8a97b91ee272efe4","2025-07-09T09:08:38.096Z","","[0]","","","6","demographics","","","","","","","","","","","","","","","","","","","","","","","","","","","","","","","","","","","","","",""
"24532","","","{""mental_health_condition"":"""",""mental_health_treatment"":""Talking therapy"",""psychiatric_medication"":""""}","survey-text","11","79335","0.0-7.0-0.0","81","1","2025-07-09 09:07:33","7701e855f2ef39aa3fd6c71abdc6918a","86.144.141.5","Mozilla/5.0 (Windows NT 10.0; Win64; x64) AppleWebKit/537.36 (KHTML, like Gecko) Chrome/138.0.0.0 Safari/537.36 Edg/138.0.0.0","WebKit","Edge","138.0.0.0","Windows","10.0","https://app.prolific.com/","en-US,en;q=0.9,en-GB;q=0.8","676e882e8a97b91ee272efe4","686d226cabeef709c732f8e1","686e312f5a122ab89de5b461","676e882e8a97b91ee272efe4","2025-07-09T09:09:02.631Z","","","","","1","mental_health","","","","","","","","","","","","","","","","","","","","","","","","","","","","","","","","","","","","","",""
"4285","","","{""depression_history"":[""Yes""]}","survey-multi-select","12","83623","0.0-7.0-1.0","81","1","2025-07-09 09:07:33","7701e855f2ef39aa3fd6c71abdc6918a","86.144.141.5","Mozilla/5.0 (Windows NT 10.0; Win64; x64) AppleWebKit/537.36 (KHTML, like Gecko) Chrome/138.0.0.0 Safari/537.36 Edg/138.0.0.0","WebKit","Edge","138.0.0.0","Windows","10.0","https://app.prolific.com/","en-US,en;q=0.9,en-GB;q=0.8","676e882e8a97b91ee272efe4","686d226cabeef709c732f8e1","686e312f5a122ab89de5b461","676e882e8a97b91ee272efe4","","","[0]","","","","mental_health","","","","","","","","","","","","","","","","","","","","","","","","","","","","","","","","","","","","","",""
"13870","","","{""depression_episodes"":""3-5"",""depression_recent"":""Currently experiencing an episode""}","survey-multi-choice","13","97495","0.0-7.0-2.0-0.0","81","1","2025-07-09 09:07:33","7701e855f2ef39aa3fd6c71abdc6918a","86.144.141.5","Mozilla/5.0 (Windows NT 10.0; Win64; x64) AppleWebKit/537.36 (KHTML, like Gecko) Chrome/138.0.0.0 Safari/537.36 Edg/138.0.0.0","WebKit","Edge","138.0.0.0","Windows","10.0","https://app.prolific.com/","en-US,en;q=0.9,en-GB;q=0.8","676e882e8a97b91ee272efe4","686d226cabeef709c732f8e1","686e312f5a122ab89de5b461","676e882e8a97b91ee272efe4","2025-07-09T09:09:20.791Z","","[0,1]","","","3","mental_health","","","","","","","","","","","","","","","","","","","","","","","","","","","","","","","","","","","","","",""
"89029.80000001192","","","","survey-template","14","186530","0.0-7.0-3.0","81","1","2025-07-09 09:07:33","7701e855f2ef39aa3fd6c71abdc6918a","86.144.141.5","Mozilla/5.0 (Windows NT 10.0; Win64; x64) AppleWebKit/537.36 (KHTML, like Gecko) Chrome/138.0.0.0 Safari/537.36 Edg/138.0.0.0","WebKit","Edge","138.0.0.0","Windows","10.0","https://app.prolific.com/","en-US,en;q=0.9,en-GB;q=0.8","676e882e8a97b91ee272efe4","686d226cabeef709c732f8e1","686e312f5a122ab89de5b461","676e882e8a97b91ee272efe4","2025-07-09T09:10:49.826Z","","","","","","ius","{""Q01"":""4"",""Q02"":""3"",""Q03"":""1"",""Q04"":""2"",""Q05"":""3"",""Q06"":""3"",""Q07"":""4"",""Q08"":""0"",""Q09"":""4"",""Q10"":""2"",""Q11"":""2"",""Q12"":""4"",""Q13"":""4""}","[0,1,2,3,4,5,6,7,8,9,10,11,12]","[""Q01"",""Q02"",""Q03"",""Q03"",""Q04"",""Q05"",""Q06"",""Q07"",""Q08"",""Q10"",""Q11"",""Q12"",""Q13"",""Q09""]","[8663.699999988079,9667.699999988079,13100,16170,21507.80000001192,24867.69999998808,28938,33205.89999997616,35739.5,43090,46840,48955.80000001192,50595.89999997616,87512]","[]","[8663.699999988079,9667.699999988079,13100,16170,21507.80000001192,24867.69999998808,28938,33205.89999997616,35739.5,38731.19999998808,41582.19999998808,43090,46840,48955.80000001192,50595.89999997616,51031.39999997616,54758.09999996424,87512,89027.69999998808]","0.38461538461538464","0.5","0","","","","","","","","","","","","","","","","","","","","","","","","","","","","",""
"1543","1752052251370","<p style='font-size:1.1em;line-height:1.25'>In the following, we will ask you a few questions relating to your experiences over the past month.<br></p><p style='font-size:1.1em;line-height:1.25'>Press the <strong>Next</strong> button to continue.</p>","0","custom-html-button-response","15","188074","0.0-7.0-4.0","81","1","2025-07-09 09:07:33","7701e855f2ef39aa3fd6c71abdc6918a","86.144.141.5","Mozilla/5.0 (Windows NT 10.0; Win64; x64) AppleWebKit/537.36 (KHTML, like Gecko) Chrome/138.0.0.0 Safari/537.36 Edg/138.0.0.0","WebKit","Edge","138.0.0.0","Windows","10.0","https://app.prolific.com/","en-US,en;q=0.9,en-GB;q=0.8","676e882e8a97b91ee272efe4","686d226cabeef709c732f8e1","686e312f5a122ab89de5b461","676e882e8a97b91ee272efe4","2025-07-09T09:10:51.370Z","","","","","","","","","","","","","","","","","","","","","","","","","","","","","","","","","","","","","","","","","","","",""
"62179.69999998808","","","","survey-template","16","250257","0.0-7.0-5.0","81","1","2025-07-09 09:07:33","7701e855f2ef39aa3fd6c71abdc6918a","86.144.141.5","Mozilla/5.0 (Windows NT 10.0; Win64; x64) AppleWebKit/537.36 (KHTML, like Gecko) Chrome/138.0.0.0 Safari/537.36 Edg/138.0.0.0","WebKit","Edge","138.0.0.0","Windows","10.0","https://app.prolific.com/","en-US,en;q=0.9,en-GB;q=0.8","676e882e8a97b91ee272efe4","686d226cabeef709c732f8e1","686e312f5a122ab89de5b461","676e882e8a97b91ee272efe4","2025-07-09T09:11:53.553Z","","","","","","pss","{""Q01"":""4"",""Q02"":""4"",""Q03"":""4"",""Q04"":""3"",""Q05"":""2"",""Q06"":""2"",""Q07"":""0"",""Q08"":""3"",""Q09"":""3"",""Q10"":""4""}","[0,1,2,3,4,5,6,7,8,9]","[""Q01"",""Q02"",""Q02"",""Q02"",""Q03"",""Q04"",""Q04"",""Q05"",""Q06"",""Q07"",""Q07"",""Q08"",""Q09"",""Q10""]","[4528.299999952316,6876.599999964237,8056.699999988079,10946,15784.099999964237,24714.799999952316,28024.599999964237,34518.59999996424,40774.5,45764.299999952316,48902.59999996424,52974.69999998808,57464.69999998808,61462.299999952316]","[]","[0.5999999642372131,4528.299999952316,6876.599999964237,8056.699999988079,10946,14054,15784.099999964237,16648.69999998808,24714.799999952316,28024.599999964237,34518.59999996424,40774.5,45764.299999952316,48902.59999996424,52974.69999998808,57464.69999998808,60958.299999952316,61462.299999952316,62178]","0.5","0.2222222222222222","0","","","","","","","","","","","","","","","","","","","","","","","","","","","","",""
"1180","1752052314734","<p style='font-size:1.1em;line-height:1.25'>Thank you for your answers! Now we will ask you a few more questions relating to your feelings in the last 24 hours.<br></p><p style='font-size:1.1em;line-height:1.25'>Press the <strong>Next</strong> button to continue.</p>","0","custom-html-button-response","17","251438","0.0-7.0-6.0","81","1","2025-07-09 09:07:33","7701e855f2ef39aa3fd6c71abdc6918a","86.144.141.5","Mozilla/5.0 (Windows NT 10.0; Win64; x64) AppleWebKit/537.36 (KHTML, like Gecko) Chrome/138.0.0.0 Safari/537.36 Edg/138.0.0.0","WebKit","Edge","138.0.0.0","Windows","10.0","https://app.prolific.com/","en-US,en;q=0.9,en-GB;q=0.8","676e882e8a97b91ee272efe4","686d226cabeef709c732f8e1","686e312f5a122ab89de5b461","676e882e8a97b91ee272efe4","2025-07-09T09:11:54.734Z","","","","","","","","","","","","","","","","","","","","","","","","","","","","","","","","","","","","","","","","","","","",""
"68021","","","","survey-template","18","319464","0.0-7.0-7.0","81","1","2025-07-09 09:07:33","7701e855f2ef39aa3fd6c71abdc6918a","86.144.141.5","Mozilla/5.0 (Windows NT 10.0; Win64; x64) AppleWebKit/537.36 (KHTML, like Gecko) Chrome/138.0.0.0 Safari/537.36 Edg/138.0.0.0","WebKit","Edge","138.0.0.0","Windows","10.0","https://app.prolific.com/","en-US,en;q=0.9,en-GB;q=0.8","676e882e8a97b91ee272efe4","686d226cabeef709c732f8e1","686e312f5a122ab89de5b461","676e882e8a97b91ee272efe4","2025-07-09T09:13:02.760Z","","","","","","drsp","{""Q01"":""2"",""Q02"":""2"",""Q03"":""2"",""Q04"":""3"",""Q05"":""3"",""Q06"":""3"",""Q07"":""2"",""Q08"":""3"",""Q09"":""3"",""Q10"":""4"",""Q11"":""5"",""Q12"":""1"",""Q13"":""1"",""Q14"":""4"",""Q15"":""1"",""Q16"":""3"",""Q17"":""4"",""Q18"":""4"",""Q19"":""4"",""Q20"":""4"",""Q21"":""4""}","[0,1,2,3,4,5,6,7,8,9,10,11,12,13,14,15,16,17,18,19,20]","[""Q01"",""Q02"",""Q03"",""Q04"",""Q03"",""Q05"",""Q06"",""Q07"",""Q08"",""Q09"",""Q09"",""Q10"",""Q11"",""Q12"",""Q13"",""Q14"",""Q15"",""Q15"",""Q16"",""Q17"",""Q18"",""Q19"",""Q20"",""Q21""]","[4559.400000035763,9499.900000035763,11733.800000011921,15757.800000011921,16548,20432,22372,23777.700000047684,26429.900000035763,30755.5,34503.90000003576,35451.40000003576,37557.60000002384,39413.700000047684,41193.200000047684,43631.10000002384,47531.90000003576,49005.200000047684,50533.5,51957.90000003576,56199.60000002384,62249.80000001192,65046,67225.60000002384]","[]","[1.100000023841858,4559.400000035763,9499.900000035763,11733.800000011921,15757.800000011921,16548,20432,22372,23777.700000047684,26429.900000035763,30755.5,33060,34503.90000003576,35451.40000003576,37557.60000002384,39413.700000047684,41193.200000047684,43631.10000002384,47531.90000003576,49005.200000047684,50533.5,51957.90000003576,56199.60000002384,62249.80000001192,65046,67225.60000002384,68017.80000001192]","0.3333333333333333","0.3","0","","","","","","","","","","","","","","","","","","","","","","","","","","","","",""
"14248.100000023842","","","","survey-template","19","333714","0.0-7.0-8.0","81","1","2025-07-09 09:07:33","7701e855f2ef39aa3fd6c71abdc6918a","86.144.141.5","Mozilla/5.0 (Windows NT 10.0; Win64; x64) AppleWebKit/537.36 (KHTML, like Gecko) Chrome/138.0.0.0 Safari/537.36 Edg/138.0.0.0","WebKit","Edge","138.0.0.0","Windows","10.0","https://app.prolific.com/","en-US,en;q=0.9,en-GB;q=0.8","676e882e8a97b91ee272efe4","686d226cabeef709c732f8e1","686e312f5a122ab89de5b461","676e882e8a97b91ee272efe4","2025-07-09T09:13:17.010Z","","","","","","stress","{""Q01"":""4"",""Q02"":""4"",""Q03"":""3""}","[0,1,2]","[""Q01"",""Q02"",""Q02"",""Q03""]","[5138.5,8148.699999988079,10517.100000023842,13638.600000023842]","[]","[5138.5,8148.699999988079,9608.800000011921,10517.100000023842,13638.600000023842,14247.300000011921]","0.3333333333333333","0","0","","","","","","","","","","","","","","","","","","","","","","","","","","","","",""
"74375","","","","instructions","20","408090","0.0-8.0-0.0","81","1","2025-07-09 09:07:33","7701e855f2ef39aa3fd6c71abdc6918a","86.144.141.5","Mozilla/5.0 (Windows NT 10.0; Win64; x64) AppleWebKit/537.36 (KHTML, like Gecko) Chrome/138.0.0.0 Safari/537.36 Edg/138.0.0.0","WebKit","Edge","138.0.0.0","Windows","10.0","https://app.prolific.com/","en-US,en;q=0.9,en-GB;q=0.8","676e882e8a97b91ee272efe4","686d226cabeef709c732f8e1","686e312f5a122ab89de5b461","676e882e8a97b91ee272efe4","","[{""page_index"":0,""viewing_time"":21767},{""page_index"":1,""viewing_time"":25272},{""page_index"":2,""viewing_time"":3872},{""page_index"":3,""viewing_time"":23464}]","","","","","","","","","","","","","","","","","","","","","","","","","","","","","","","","","","","","","","","","","","",""
"","","","","ctl-task-cpt","21","438349","0.0-8.0-1.0","81","1","2025-07-09 09:07:33","7701e855f2ef39aa3fd6c71abdc6918a","86.144.141.5","Mozilla/5.0 (Windows NT 10.0; Win64; x64) AppleWebKit/537.36 (KHTML, like Gecko) Chrome/138.0.0.0 Safari/537.36 Edg/138.0.0.0","WebKit","Edge","138.0.0.0","Windows","10.0","https://app.prolific.com/","en-US,en;q=0.9,en-GB;q=0.8","676e882e8a97b91ee272efe4","686d226cabeef709c732f8e1","686e312f5a122ab89de5b461","676e882e8a97b91ee272efe4","","","","","","","","","","","","","","","","","win-only","1","g1:NE,g2:SW","1","0","1","418848.9","2911.3","6913.9","27247.8","2","4","4","6","1","2","0","0","0","0","4002.5","4000","1390","[""up"",""right""]","{""num_key_presses"":7,""num_perfect"":4,""num_errors"":2,""num_randdir"":0,""num_randdir_good_moves"":0,""num_whilered"":1,""num_whileblue"":0,""num_blue"":1,""num_good_moves"":4}","[299.22232142857143,296.12857142857143,0.2,299.22232142857143,296.12857142857143,100.1,299.22232142857143,296.12857142857143,200.3,299.22232142857143,296.12857142857143,300.5,299.22232142857143,296.12857142857143,404.3,300.22232142857143,296.12857142857143,504.9,300.22232142857143,296.12857142857143,604.9,300.22232142857143,296.12857142857143,705,312.22232142857143,293.12857142857143,805.1,327.22232142857143,284.12857142857143,909.2,350.22232142857143,272.12857142857143,1010.1,359.22232142857143,269.12857142857143,1117.2,359.22232142857143,269.12857142857143,1218.7,359.22232142857143,269.12857142857143,1320.5,359.22232142857143,269.12857142857143,1424.8,359.22232142857143,269.12857142857143,1525.7,359.22232142857143,269.12857142857143,1634.4,359.22232142857143,269.12857142857143,1739.7,359.22232142857143,269.12857142857143,1839.8,359.22232142857143,269.12857142857143,1939.8,359.22232142857143,269.12857142857143,2044.6,359.22232142857143,269.12857142857143,2144.7,359.22232142857143,269.12857142857143,2251,359.22232142857143,269.12857142857143,2351.2,359.22232142857143,269.12857142857143,2451.5,359.22232142857143,269.12857142857143,2551.5,359.22232142857143,269.12857142857143,2655.3,359.22232142857143,269.12857142857143,2760.3,359.22232142857143,269.12857142857143,2867.9,359.22232142857143,269.12857142857143,2968.1,359.22232142857143,269.12857142857143,3068.1,359.22232142857143,269.12857142857143,3168.3,359.22232142857143,269.12857142857143,3268.9,359.22232142857143,269.12857142857143,3369.1,359.22232142857143,269.12857142857143,3469.1,359.22232142857143,269.12857142857143,3574.9,359.22232142857143,269.12857142857143,3685,359.22232142857143,269.12857142857143,3785,359.22232142857143,269.12857142857143,3885,359.22232142857143,269.12857142857143,3985.1]","[2554.3,2554.3,1000,0,1554.3,""smooth"",""right"",""right"",""good_move"",2917.4,362.7,3141,2554.7,-2778.3,""error"",""-"",""-"",""no_move"",3074.5,156.8,3141,2554.7,-2621.2,""while_red"",""-"",""-"",""no_move"",10920.7,8003,3237.9,7302.5,380.3,""smooth"",""right"",""right"",""good_move"",15344.1,4423.3,2716.4,10920.9,1706.9,""smooth"",""up"",""up"",""good_move"",15345,0.3,2677.3,15344.7,-2677,""error"",""-"",""-"",""no_move"",20225.8,4880.6,3200,16347,678.8,""smooth"",""up"",""up"",""good_move""]","",""
"8105","","","","instructions","22","446454","0.0-8.0-2.0","81","1","2025-07-09 09:07:33","7701e855f2ef39aa3fd6c71abdc6918a","86.144.141.5","Mozilla/5.0 (Windows NT 10.0; Win64; x64) AppleWebKit/537.36 (KHTML, like Gecko) Chrome/138.0.0.0 Safari/537.36 Edg/138.0.0.0","WebKit","Edge","138.0.0.0","Windows","10.0","https://app.prolific.com/","en-US,en;q=0.9,en-GB;q=0.8","676e882e8a97b91ee272efe4","686d226cabeef709c732f8e1","686e312f5a122ab89de5b461","676e882e8a97b91ee272efe4","","[{""page_index"":0,""viewing_time"":8104}]","","","","","","","","","","","","","","","","","","","","","","","","","","","","","","","","","","","","","","","","","","",""
"","","","","ctl-task-cpt","23","488583","0.0-8.0-3.0","81","1","2025-07-09 09:07:33","7701e855f2ef39aa3fd6c71abdc6918a","86.144.141.5","Mozilla/5.0 (Windows NT 10.0; Win64; x64) AppleWebKit/537.36 (KHTML, like Gecko) Chrome/138.0.0.0 Safari/537.36 Edg/138.0.0.0","WebKit","Edge","138.0.0.0","Windows","10.0","https://app.prolific.com/","en-US,en;q=0.9,en-GB;q=0.8","676e882e8a97b91ee272efe4","686d226cabeef709c732f8e1","686e312f5a122ab89de5b461","676e882e8a97b91ee272efe4","","","","","","","","","","","","","","","","","win-only","1","g1:NE,g2:SW","0.35","0","3","457211.9","2934.9","6936.6","39111.5","2","4","8","6","1","-2","-3","0","0","0","4001.7","4000","-3005","[""up"",""right""]","{""num_key_presses"":9,""num_perfect"":4,""num_errors"":1,""num_randdir"":4,""num_randdir_good_moves"":2,""num_whilered"":0,""num_whileblue"":1,""num_blue"":2,""num_good_moves"":5}","[295.22232142857143,298.12857142857143,0.3,295.22232142857143,298.12857142857143,101.3,295.22232142857143,298.12857142857143,205.9,339.22232142857143,307.12857142857143,306.5,655.2223214285714,310.12857142857143,411.4,718.2223214285714,298.12857142857143,515.7,719.2223214285714,298.12857142857143,616,719.2223214285714,298.12857142857143,716.8,719.2223214285714,298.12857142857143,817.1,719.2223214285714,298.12857142857143,920.8,719.2223214285714,298.12857142857143,1021.2,719.2223214285714,298.12857142857143,1121.6,719.2223214285714,298.12857142857143,1226.1,719.2223214285714,298.12857142857143,1330.5,719.2223214285714,298.12857142857143,1435.5,719.2223214285714,298.12857142857143,1536,719.2223214285714,298.12857142857143,1636.9,719.2223214285714,298.12857142857143,1741.7,719.2223214285714,298.12857142857143,1846,719.2223214285714,298.12857142857143,1946.6,719.2223214285714,298.12857142857143,2051.3,719.2223214285714,298.12857142857143,2155.9,719.2223214285714,298.12857142857143,2260.9,719.2223214285714,298.12857142857143,2361.6,719.2223214285714,298.12857142857143,2461.6,719.2223214285714,298.12857142857143,2567.1,719.2223214285714,298.12857142857143,2670.9,719.2223214285714,298.12857142857143,2771.4,719.2223214285714,298.12857142857143,2876.2,719.2223214285714,298.12857142857143,2980.7,719.2223214285714,298.12857142857143,3081.1,719.2223214285714,298.12857142857143,3185.7,719.2223214285714,298.12857142857143,3286.7,719.2223214285714,298.12857142857143,3391.2,719.2223214285714,298.12857142857143,3495.7,719.2223214285714,298.12857142857143,3595.7,719.2223214285714,298.12857142857143,3696.1,719.2223214285714,298.12857142857143,3800.3,719.2223214285714,298.12857142857143,3901.9]","[4921.2,4921.2,2401.7,2005.1,514.4,""oops"",""down"",""down"",""bad_move"",7511.8,2590.2,1983.4,4921.7,606.7,""smooth"",""left"",""left"",""bad_move"",10839.8,3327.7,2841.3,7512.1,486.4,""smooth"",""down"",""down"",""bad_move"",13928.1,3088.1,2506.8,10840,581.3,""smooth"",""right"",""right"",""good_move"",17153.1,3224.7,2904,13928.4,320.7,""oops"",""up"",""right"",""good_move"",19879.8,2726.5,2412.9,17153.3,313.6,""oops"",""up"",""right"",""good_move"",22840.5,2960.5,2693.5,19880.1,266.9,""while_blue"",""up"",""up"",""good_move"",25944.3,3103.2,2618.5,22841.2,484.7,""smooth"",""up"",""up"",""good_move"",29121.6,3176.9,2726.8,25944.7,450.1,""oops"",""up"",""left"",""bad_move""]","",""
"3324","","","","instructions","24","491908","0.0-8.0-4.0","81","1","2025-07-09 09:07:33","7701e855f2ef39aa3fd6c71abdc6918a","86.144.141.5","Mozilla/5.0 (Windows NT 10.0; Win64; x64) AppleWebKit/537.36 (KHTML, like Gecko) Chrome/138.0.0.0 Safari/537.36 Edg/138.0.0.0","WebKit","Edge","138.0.0.0","Windows","10.0","https://app.prolific.com/","en-US,en;q=0.9,en-GB;q=0.8","676e882e8a97b91ee272efe4","686d226cabeef709c732f8e1","686e312f5a122ab89de5b461","676e882e8a97b91ee272efe4","","[{""page_index"":0,""viewing_time"":1568},{""page_index"":1,""viewing_time"":1755}]","","","","","","","","","","","","","","","","","","","","","","","","","","","","","","","","","","","","","","","","","","",""
"7337","","","{""green_ball"":[""Ball always moves in the direction I press""]}","survey-multi-select","25","499247","0.0-8.0-5.0-0.0","81","1","2025-07-09 09:07:33","7701e855f2ef39aa3fd6c71abdc6918a","86.144.141.5","Mozilla/5.0 (Windows NT 10.0; Win64; x64) AppleWebKit/537.36 (KHTML, like Gecko) Chrome/138.0.0.0 Safari/537.36 Edg/138.0.0.0","WebKit","Edge","138.0.0.0","Windows","10.0","https://app.prolific.com/","en-US,en;q=0.9,en-GB;q=0.8","676e882e8a97b91ee272efe4","686d226cabeef709c732f8e1","686e312f5a122ab89de5b461","676e882e8a97b91ee272efe4","","","[0]","","","","quiz","","","","","","","","","","","","","","","","","","","","","","","","","","","","","","","","","","","","","false",""
"6964","","<p align='center'><b>INCORRECT.</b> Usually the green ball moves in the indicated direction, but sometimes it shakes and moves randomly. </p>","0","html-button-response","26","506213","0.0-8.0-5.0-1.0","81","1","2025-07-09 09:07:33","7701e855f2ef39aa3fd6c71abdc6918a","86.144.141.5","Mozilla/5.0 (Windows NT 10.0; Win64; x64) AppleWebKit/537.36 (KHTML, like Gecko) Chrome/138.0.0.0 Safari/537.36 Edg/138.0.0.0","WebKit","Edge","138.0.0.0","Windows","10.0","https://app.prolific.com/","en-US,en;q=0.9,en-GB;q=0.8","676e882e8a97b91ee272efe4","686d226cabeef709c732f8e1","686e312f5a122ab89de5b461","676e882e8a97b91ee272efe4","","","","","","","","","","","","","","","","","","","","","","","","","","","","","","","","","","","","","","","","","","","","",""
"11326","","","{""green_ball"":[""Ball always moves in the direction I press""]}","survey-multi-select","27","517540","0.0-8.0-5.1-0.1","81","1","2025-07-09 09:07:33","7701e855f2ef39aa3fd6c71abdc6918a","86.144.141.5","Mozilla/5.0 (Windows NT 10.0; Win64; x64) AppleWebKit/537.36 (KHTML, like Gecko) Chrome/138.0.0.0 Safari/537.36 Edg/138.0.0.0","WebKit","Edge","138.0.0.0","Windows","10.0","https://app.prolific.com/","en-US,en;q=0.9,en-GB;q=0.8","676e882e8a97b91ee272efe4","686d226cabeef709c732f8e1","686e312f5a122ab89de5b461","676e882e8a97b91ee272efe4","","","[0]","","","","quiz","","","","","","","","","","","","","","","","","","","","","","","","","","","","","","","","","","","","","false",""
"1594","","<p align='center'><b>INCORRECT.</b> Usually the green ball moves in the indicated direction, but sometimes it shakes and moves randomly. </p>","0","html-button-response","28","519136","0.0-8.0-5.1-1.1","81","1","2025-07-09 09:07:33","7701e855f2ef39aa3fd6c71abdc6918a","86.144.141.5","Mozilla/5.0 (Windows NT 10.0; Win64; x64) AppleWebKit/537.36 (KHTML, like Gecko) Chrome/138.0.0.0 Safari/537.36 Edg/138.0.0.0","WebKit","Edge","138.0.0.0","Windows","10.0","https://app.prolific.com/","en-US,en;q=0.9,en-GB;q=0.8","676e882e8a97b91ee272efe4","686d226cabeef709c732f8e1","686e312f5a122ab89de5b461","676e882e8a97b91ee272efe4","","","","","","","","","","","","","","","","","","","","","","","","","","","","","","","","","","","","","","","","","","","","",""
"2331","","","{""green_ball"":[""Ball sometimes shakes and moves in a random direction""]}","survey-multi-select","29","521469","0.0-8.0-5.2-0.2","81","1","2025-07-09 09:07:33","7701e855f2ef39aa3fd6c71abdc6918a","86.144.141.5","Mozilla/5.0 (Windows NT 10.0; Win64; x64) AppleWebKit/537.36 (KHTML, like Gecko) Chrome/138.0.0.0 Safari/537.36 Edg/138.0.0.0","WebKit","Edge","138.0.0.0","Windows","10.0","https://app.prolific.com/","en-US,en;q=0.9,en-GB;q=0.8","676e882e8a97b91ee272efe4","686d226cabeef709c732f8e1","686e312f5a122ab89de5b461","676e882e8a97b91ee272efe4","","","[0]","","","","quiz","","","","","","","","","","","","","","","","","","","","","","","","","","","","","","","","","","","","","true",""
"1832","","<p align='center'><b>CORRECT!</b> Indeed, the green ball may sometimes shake and move in a random direction.</p>","0","html-button-response","30","523302","0.0-8.0-5.2-1.2","81","1","2025-07-09 09:07:33","7701e855f2ef39aa3fd6c71abdc6918a","86.144.141.5","Mozilla/5.0 (Windows NT 10.0; Win64; x64) AppleWebKit/537.36 (KHTML, like Gecko) Chrome/138.0.0.0 Safari/537.36 Edg/138.0.0.0","WebKit","Edge","138.0.0.0","Windows","10.0","https://app.prolific.com/","en-US,en;q=0.9,en-GB;q=0.8","676e882e8a97b91ee272efe4","686d226cabeef709c732f8e1","686e312f5a122ab89de5b461","676e882e8a97b91ee272efe4","","","","","","","","","","","","","","","","","","","","","","","","","","","","","","","","","","","","","","","","","","","","",""
"10853","","","{""yellow_ball"":[""Ball doesn‘t move and I get -1 penalty point""]}","survey-multi-select","31","534157","0.0-8.0-6.0-0.0","81","1","2025-07-09 09:07:33","7701e855f2ef39aa3fd6c71abdc6918a","86.144.141.5","Mozilla/5.0 (Windows NT 10.0; Win64; x64) AppleWebKit/537.36 (KHTML, like Gecko) Chrome/138.0.0.0 Safari/537.36 Edg/138.0.0.0","WebKit","Edge","138.0.0.0","Windows","10.0","https://app.prolific.com/","en-US,en;q=0.9,en-GB;q=0.8","676e882e8a97b91ee272efe4","686d226cabeef709c732f8e1","686e312f5a122ab89de5b461","676e882e8a97b91ee272efe4","","","[0]","","","","quiz","","","","","","","","","","","","","","","","","","","","","","","","","","","","","","","","","","","","","true",""
"903","","<p align='center'><b>CORRECT!</b> Indeed, the yellow ball never moves and you receive a penalty.</p>","0","html-button-response","32","535062","0.0-8.0-6.0-1.0","81","1","2025-07-09 09:07:33","7701e855f2ef39aa3fd6c71abdc6918a","86.144.141.5","Mozilla/5.0 (Windows NT 10.0; Win64; x64) AppleWebKit/537.36 (KHTML, like Gecko) Chrome/138.0.0.0 Safari/537.36 Edg/138.0.0.0","WebKit","Edge","138.0.0.0","Windows","10.0","https://app.prolific.com/","en-US,en;q=0.9,en-GB;q=0.8","676e882e8a97b91ee272efe4","686d226cabeef709c732f8e1","686e312f5a122ab89de5b461","676e882e8a97b91ee272efe4","","","","","","","","","","","","","","","","","","","","","","","","","","","","","","","","","","","","","","","","","","","","",""
"3427","","","{""blue_ball"":[""Ball always shakes and moves in a random direction""]}","survey-multi-select","33","538491","0.0-8.0-7.0-0.0","81","1","2025-07-09 09:07:33","7701e855f2ef39aa3fd6c71abdc6918a","86.144.141.5","Mozilla/5.0 (Windows NT 10.0; Win64; x64) AppleWebKit/537.36 (KHTML, like Gecko) Chrome/138.0.0.0 Safari/537.36 Edg/138.0.0.0","WebKit","Edge","138.0.0.0","Windows","10.0","https://app.prolific.com/","en-US,en;q=0.9,en-GB;q=0.8","676e882e8a97b91ee272efe4","686d226cabeef709c732f8e1","686e312f5a122ab89de5b461","676e882e8a97b91ee272efe4","","","[0]","","","","quiz","","","","","","","","","","","","","","","","","","","","","","","","","","","","","","","","","","","","","true",""
"1322","","<p align='center'><b>CORRECT!</b> Indeed, the blue ball always shakes and moves in a random direction. Also there is a penalty of -1 point.</p>","0","html-button-response","34","539814","0.0-8.0-7.0-1.0","81","1","2025-07-09 09:07:33","7701e855f2ef39aa3fd6c71abdc6918a","86.144.141.5","Mozilla/5.0 (Windows NT 10.0; Win64; x64) AppleWebKit/537.36 (KHTML, like Gecko) Chrome/138.0.0.0 Safari/537.36 Edg/138.0.0.0","WebKit","Edge","138.0.0.0","Windows","10.0","https://app.prolific.com/","en-US,en;q=0.9,en-GB;q=0.8","676e882e8a97b91ee272efe4","686d226cabeef709c732f8e1","686e312f5a122ab89de5b461","676e882e8a97b91ee272efe4","","","","","","","","","","","","","","","","","","","","","","","","","","","","","","","","","","","","","","","","","","","","",""
"8683","","","{""bonus"":[""When I reach 80% of points""]}","survey-multi-select","35","548499","0.0-8.0-8.0-0.0","81","1","2025-07-09 09:07:33","7701e855f2ef39aa3fd6c71abdc6918a","86.144.141.5","Mozilla/5.0 (Windows NT 10.0; Win64; x64) AppleWebKit/537.36 (KHTML, like Gecko) Chrome/138.0.0.0 Safari/537.36 Edg/138.0.0.0","WebKit","Edge","138.0.0.0","Windows","10.0","https://app.prolific.com/","en-US,en;q=0.9,en-GB;q=0.8","676e882e8a97b91ee272efe4","686d226cabeef709c732f8e1","686e312f5a122ab89de5b461","676e882e8a97b91ee272efe4","","","[0]","","","","quiz","","","","","","","","","","","","","","","","","","","","","","","","","","","","","","","","","","","","","false",""
"2878","","<p align='center'><b>INCORRECT.</b> You receive 2 pounds extra when you reach 50% of points </p>","0","html-button-response","36","551378","0.0-8.0-8.0-1.0","81","1","2025-07-09 09:07:33","7701e855f2ef39aa3fd6c71abdc6918a","86.144.141.5","Mozilla/5.0 (Windows NT 10.0; Win64; x64) AppleWebKit/537.36 (KHTML, like Gecko) Chrome/138.0.0.0 Safari/537.36 Edg/138.0.0.0","WebKit","Edge","138.0.0.0","Windows","10.0","https://app.prolific.com/","en-US,en;q=0.9,en-GB;q=0.8","676e882e8a97b91ee272efe4","686d226cabeef709c732f8e1","686e312f5a122ab89de5b461","676e882e8a97b91ee272efe4","","","","","","","","","","","","","","","","","","","","","","","","","","","","","","","","","","","","","","","","","","","","",""
"1219","","","{""bonus"":[""When I reach 50% of points""]}","survey-multi-select","37","552599","0.0-8.0-8.1-0.1","81","1","2025-07-09 09:07:33","7701e855f2ef39aa3fd6c71abdc6918a","86.144.141.5","Mozilla/5.0 (Windows NT 10.0; Win64; x64) AppleWebKit/537.36 (KHTML, like Gecko) Chrome/138.0.0.0 Safari/537.36 Edg/138.0.0.0","WebKit","Edge","138.0.0.0","Windows","10.0","https://app.prolific.com/","en-US,en;q=0.9,en-GB;q=0.8","676e882e8a97b91ee272efe4","686d226cabeef709c732f8e1","686e312f5a122ab89de5b461","676e882e8a97b91ee272efe4","","","[0]","","","","quiz","","","","","","","","","","","","","","","","","","","","","","","","","","","","","","","","","","","","","true",""
"2789","","<p align='center'><b>CORRECT!</b> Indeed, you receive 2 pounds extra when you reach 50% of points.</p>","0","html-button-response","38","555388","0.0-8.0-8.1-1.1","81","1","2025-07-09 09:07:33","7701e855f2ef39aa3fd6c71abdc6918a","86.144.141.5","Mozilla/5.0 (Windows NT 10.0; Win64; x64) AppleWebKit/537.36 (KHTML, like Gecko) Chrome/138.0.0.0 Safari/537.36 Edg/138.0.0.0","WebKit","Edge","138.0.0.0","Windows","10.0","https://app.prolific.com/","en-US,en;q=0.9,en-GB;q=0.8","676e882e8a97b91ee272efe4","686d226cabeef709c732f8e1","686e312f5a122ab89de5b461","676e882e8a97b91ee272efe4","","","","","","","","","","","","","","","","","","","","","","","","","","","","","","","","","","","","","","","","","","","","",""
"1363","","","","instructions","39","556752","0.0-8.0-9.0","81","1","2025-07-09 09:07:33","7701e855f2ef39aa3fd6c71abdc6918a","86.144.141.5","Mozilla/5.0 (Windows NT 10.0; Win64; x64) AppleWebKit/537.36 (KHTML, like Gecko) Chrome/138.0.0.0 Safari/537.36 Edg/138.0.0.0","WebKit","Edge","138.0.0.0","Windows","10.0","https://app.prolific.com/","en-US,en;q=0.9,en-GB;q=0.8","676e882e8a97b91ee272efe4","686d226cabeef709c732f8e1","686e312f5a122ab89de5b461","676e882e8a97b91ee272efe4","","[{""page_index"":0,""viewing_time"":1363}]","","","","","","","","","","","","","","","","","","","","","","","","","","","","","","","","","","","","","","","","","","",""
"5480","","<p>Before you start with this game please answer the following three questions yourself. </p>
  <p>Through this game, we measure several aspects of your cognitive performance, such as reaction times, multi-tasking capabilities </p>
  <p>and the ability to assess the situation you are in.</p>
  <p></p>
  <p><b>How good do you usually are in such tasks?</b></p>","22","html-slider-response","40","562234","0.0-9.0-0.0","81","1","2025-07-09 09:07:33","7701e855f2ef39aa3fd6c71abdc6918a","86.144.141.5","Mozilla/5.0 (Windows NT 10.0; Win64; x64) AppleWebKit/537.36 (KHTML, like Gecko) Chrome/138.0.0.0 Safari/537.36 Edg/138.0.0.0","WebKit","Edge","138.0.0.0","Windows","10.0","https://app.prolific.com/","en-US,en;q=0.9,en-GB;q=0.8","676e882e8a97b91ee272efe4","686d226cabeef709c732f8e1","686e312f5a122ab89de5b461","676e882e8a97b91ee272efe4","2025-07-09T09:17:05.530Z","","","","","","PreSkillQ","","","","","","","","","","","","","","","","","","","","","","","","","","","","","","","","","","","","","","50"
"3939","","<div style=""width:500px;"">
  <p>How well do you think you will perform in this task compared to other participants?</p>
  </div>","21","html-slider-response","41","566174","0.0-9.0-1.0","81","1","2025-07-09 09:07:33","7701e855f2ef39aa3fd6c71abdc6918a","86.144.141.5","Mozilla/5.0 (Windows NT 10.0; Win64; x64) AppleWebKit/537.36 (KHTML, like Gecko) Chrome/138.0.0.0 Safari/537.36 Edg/138.0.0.0","WebKit","Edge","138.0.0.0","Windows","10.0","https://app.prolific.com/","en-US,en;q=0.9,en-GB;q=0.8","676e882e8a97b91ee272efe4","686d226cabeef709c732f8e1","686e312f5a122ab89de5b461","676e882e8a97b91ee272efe4","2025-07-09T09:17:09.470Z","","","","","","PrePerfQ","","","","","","","","","","","","","","","","","","","","","","","","","","","","","","","","","","","","","","50"
"3677","","<div style=""width:500px;"">
  <p>What best describes how you currently feel?</p>
  </div>","24","html-slider-response","42","569852","0.0-9.0-2.0","81","1","2025-07-09 09:07:33","7701e855f2ef39aa3fd6c71abdc6918a","86.144.141.5","Mozilla/5.0 (Windows NT 10.0; Win64; x64) AppleWebKit/537.36 (KHTML, like Gecko) Chrome/138.0.0.0 Safari/537.36 Edg/138.0.0.0","WebKit","Edge","138.0.0.0","Windows","10.0","https://app.prolific.com/","en-US,en;q=0.9,en-GB;q=0.8","676e882e8a97b91ee272efe4","686d226cabeef709c732f8e1","686e312f5a122ab89de5b461","676e882e8a97b91ee272efe4","2025-07-09T09:17:13.148Z","","","","","","PreMotivationQ","","","","","","","","","","","","","","","","","","","","","","","","","","","","","","","","","","","","","","50"
"","","","","ctl-task-cpt","43","603626","0.0-10.0-0.0","81","1","2025-07-09 09:07:33","7701e855f2ef39aa3fd6c71abdc6918a","86.144.141.5","Mozilla/5.0 (Windows NT 10.0; Win64; x64) AppleWebKit/537.36 (KHTML, like Gecko) Chrome/138.0.0.0 Safari/537.36 Edg/138.0.0.0","WebKit","Edge","138.0.0.0","Windows","10.0","https://app.prolific.com/","en-US,en;q=0.9,en-GB;q=0.8","676e882e8a97b91ee272efe4","686d226cabeef709c732f8e1","686e312f5a122ab89de5b461","676e882e8a97b91ee272efe4","2025-07-09T09:17:46.922Z","","","","","","","","","","","","","","","","win-only","3","g1:SW,g2:NE","1","1","0","580610.5","2083.6","7086.1","30755.6","1","4","8","6","2","8","8","8","0","0.06060606060606061","5002.4","3000","275","[""up"",""right""]","{""num_key_presses"":6,""num_perfect"":6,""num_errors"":0,""num_randdir"":0,""num_randdir_good_moves"":0,""num_whilered"":0,""num_whileblue"":0,""num_blue"":2,""num_good_moves"":6}","[295.22232142857143,295.12857142857143,0.1,295.22232142857143,295.12857142857143,108.6,295.22232142857143,295.12857142857143,212.3,308.22232142857143,315.12857142857143,317.8,420.22232142857143,369.12857142857143,422.1,425.22232142857143,372.12857142857143,522.2,425.22232142857143,367.12857142857143,622.7,425.22232142857143,364.12857142857143,727.6,425.22232142857143,364.12857142857143,832.3,425.22232142857143,364.12857142857143,932.3,425.22232142857143,364.12857142857143,1032.4,425.22232142857143,364.12857142857143,1132.6,425.22232142857143,364.12857142857143,1238.3,425.22232142857143,364.12857142857143,1342.7,425.22232142857143,364.12857142857143,1447.3,425.22232142857143,364.12857142857143,1547.7,425.22232142857143,364.12857142857143,1648,425.22232142857143,364.12857142857143,1752.4,425.22232142857143,364.12857142857143,1856.9,425.22232142857143,364.12857142857143,1957.3,425.22232142857143,364.12857142857143,2062.2,425.22232142857143,364.12857142857143,2162.7,425.22232142857143,364.12857142857143,2267.2,425.22232142857143,364.12857142857143,2367.2,425.22232142857143,364.12857142857143,2467.4,425.22232142857143,364.12857142857143,2567.6,425.22232142857143,364.12857142857143,2668.2,425.22232142857143,364.12857142857143,2768.2,425.22232142857143,364.12857142857143,2872.6,425.22232142857143,364.12857142857143,2972.6,425.22232142857143,364.12857142857143,3077.5,425.22232142857143,364.12857142857143,3181.8,425.22232142857143,364.12857142857143,3281.9,425.22232142857143,364.12857142857143,3383.2,425.22232142857143,364.12857142857143,3487.3,425.22232142857143,364.12857142857143,3592.5,425.22232142857143,364.12857142857143,3692.6,425.22232142857143,364.12857142857143,3797.7,425.22232142857143,364.12857142857143,3902.5,425.22232142857143,364.12857142857143,4006.8,425.22232142857143,364.12857142857143,4107.1,425.22232142857143,364.12857142857143,4212,425.22232142857143,364.12857142857143,4312,425.22232142857143,364.12857142857143,4417.5,425.22232142857143,364.12857142857143,4523.3,425.22232142857143,364.12857142857143,4627.1,425.22232142857143,364.12857142857143,4731.9,425.22232142857143,364.12857142857143,4833,425.22232142857143,364.12857142857143,4936.8]","[4731.9,4731.9,2307.9,2010.6,413.4,""smooth"",""right"",""right"",""good_move"",7341.7,2609.5,2043.4,4732.2,566.1,""smooth"",""right"",""right"",""good_move"",10532.3,3189.9,2746.1,7342.4,443.8,""smooth"",""up"",""up"",""good_move"",13963.6,3431,2977.8,10532.6,453.2,""smooth"",""up"",""up"",""good_move"",20262.7,6298.9,3092.3,16769.7,400.7,""smooth"",""right"",""right"",""good_move"",23583.4,3320.2,2838.6,20263.2,481.6,""smooth"",""up"",""up"",""good_move""]","",""
"5241","","<div style=""width:500px;"">
  <p>What determined the result of this run?</p>
  </div>","69","html-slider-response","44","608868","0.0-10.0-1.0","81","1","2025-07-09 09:07:33","7701e855f2ef39aa3fd6c71abdc6918a","86.144.141.5","Mozilla/5.0 (Windows NT 10.0; Win64; x64) AppleWebKit/537.36 (KHTML, like Gecko) Chrome/138.0.0.0 Safari/537.36 Edg/138.0.0.0","WebKit","Edge","138.0.0.0","Windows","10.0","https://app.prolific.com/","en-US,en;q=0.9,en-GB;q=0.8","676e882e8a97b91ee272efe4","686d226cabeef709c732f8e1","686e312f5a122ab89de5b461","676e882e8a97b91ee272efe4","2025-07-09T09:17:52.164Z","","","","","","AttribQ","","","","","","","","","","","","","","","","","","","","","","","","","","","","","","","","","","","","","","50"
"4700","","<div style=""width:500px;"">
  <p>How much control did you have over the ball?</p>
  </div>","100","html-slider-response","45","613570","0.0-10.0-2.0","81","1","2025-07-09 09:07:33","7701e855f2ef39aa3fd6c71abdc6918a","86.144.141.5","Mozilla/5.0 (Windows NT 10.0; Win64; x64) AppleWebKit/537.36 (KHTML, like Gecko) Chrome/138.0.0.0 Safari/537.36 Edg/138.0.0.0","WebKit","Edge","138.0.0.0","Windows","10.0","https://app.prolific.com/","en-US,en;q=0.9,en-GB;q=0.8","676e882e8a97b91ee272efe4","686d226cabeef709c732f8e1","686e312f5a122ab89de5b461","676e882e8a97b91ee272efe4","2025-07-09T09:17:56.866Z","","","","","","ControlQ","","","","","","","","","","","","","","","","","","","","","","","","","","","","","","","","","","","","","","50"
"4103","","<div style=""width:500px;"">
  <p>How would you describe your current emotional state?</p>
  </div>","22","html-slider-response","46","617674","0.0-10.0-3.0","81","1","2025-07-09 09:07:33","7701e855f2ef39aa3fd6c71abdc6918a","86.144.141.5","Mozilla/5.0 (Windows NT 10.0; Win64; x64) AppleWebKit/537.36 (KHTML, like Gecko) Chrome/138.0.0.0 Safari/537.36 Edg/138.0.0.0","WebKit","Edge","138.0.0.0","Windows","10.0","https://app.prolific.com/","en-US,en;q=0.9,en-GB;q=0.8","676e882e8a97b91ee272efe4","686d226cabeef709c732f8e1","686e312f5a122ab89de5b461","676e882e8a97b91ee272efe4","2025-07-09T09:18:00.970Z","","","","","","StressQ","","","","","","","","","","","","","","","","","","","","","","","","","","","","","","","","","","","","","","50"
"3021","","<div style=""width:500px;"">
  <p>What best describes how you currently feel?</p>
  </div>","78","html-slider-response","47","620696","0.0-10.0-4.0","81","1","2025-07-09 09:07:33","7701e855f2ef39aa3fd6c71abdc6918a","86.144.141.5","Mozilla/5.0 (Windows NT 10.0; Win64; x64) AppleWebKit/537.36 (KHTML, like Gecko) Chrome/138.0.0.0 Safari/537.36 Edg/138.0.0.0","WebKit","Edge","138.0.0.0","Windows","10.0","https://app.prolific.com/","en-US,en;q=0.9,en-GB;q=0.8","676e882e8a97b91ee272efe4","686d226cabeef709c732f8e1","686e312f5a122ab89de5b461","676e882e8a97b91ee272efe4","2025-07-09T09:18:03.992Z","","","","","","MotivationQ","","","","","","","","","","","","","","","","","","","","","","","","","","","","","","","","","","","","","","50"
"","","","","ctl-task-cpt","48","646747","0.0-10.0-0.1","81","1","2025-07-09 09:07:33","7701e855f2ef39aa3fd6c71abdc6918a","86.144.141.5","Mozilla/5.0 (Windows NT 10.0; Win64; x64) AppleWebKit/537.36 (KHTML, like Gecko) Chrome/138.0.0.0 Safari/537.36 Edg/138.0.0.0","WebKit","Edge","138.0.0.0","Windows","10.0","https://app.prolific.com/","en-US,en;q=0.9,en-GB;q=0.8","676e882e8a97b91ee272efe4","686d226cabeef709c732f8e1","686e312f5a122ab89de5b461","676e882e8a97b91ee272efe4","2025-07-09T09:18:30.043Z","","","","","","","","","","","","","","","","win-only","0","g1:NW,g2:SE","0.9","2","0","631454.4","1227","6230.7","23031.7","1","4","4","6","2","4","4","12","8","0.09090909090909091","5003.7","3000","515","[""down"",""right""]","{""num_key_presses"":6,""num_perfect"":5,""num_errors"":0,""num_randdir"":1,""num_randdir_good_moves"":1,""num_whilered"":0,""num_whileblue"":0,""num_blue"":0,""num_good_moves"":6}","[302.22232142857143,303.12857142857143,0.2,302.22232142857143,303.12857142857143,103.8,302.22232142857143,303.12857142857143,204.6,308.22232142857143,314.12857142857143,305,417.22232142857143,371.12857142857143,410.9,449.22232142857143,374.12857142857143,514.3,449.22232142857143,374.12857142857143,614.5,449.22232142857143,374.12857142857143,719,449.22232142857143,374.12857142857143,823.6,449.22232142857143,374.12857142857143,929.4,449.22232142857143,374.12857142857143,1034,449.22232142857143,374.12857142857143,1138.7,449.22232142857143,374.12857142857143,1239.1,449.22232142857143,374.12857142857143,1339.7,449.22232142857143,374.12857142857143,1443.7,449.22232142857143,374.12857142857143,1544.6,449.22232142857143,374.12857142857143,1648.9,449.22232142857143,374.12857142857143,1753.2,449.22232142857143,374.12857142857143,1853.6,449.22232142857143,374.12857142857143,1954.3,449.22232142857143,374.12857142857143,2059.3,449.22232142857143,374.12857142857143,2161,449.22232142857143,374.12857142857143,2264,449.22232142857143,374.12857142857143,2364.1,449.22232142857143,374.12857142857143,2468.6,449.22232142857143,374.12857142857143,2568.9,449.22232142857143,374.12857142857143,2674.7,449.22232142857143,374.12857142857143,2779.1,449.22232142857143,374.12857142857143,2884,449.22232142857143,374.12857142857143,2990.1,449.22232142857143,374.12857142857143,3093.4,449.22232142857143,374.12857142857143,3193.9,449.22232142857143,374.12857142857143,3295.7,449.22232142857143,374.12857142857143,3399.5,449.22232142857143,374.12857142857143,3503.8,449.22232142857143,374.12857142857143,3604,449.22232142857143,374.12857142857143,3704.2,449.22232142857143,374.12857142857143,3808.2,449.22232142857143,374.12857142857143,3908.3,449.22232142857143,374.12857142857143,4009,449.22232142857143,374.12857142857143,4113.3,449.22232142857143,374.12857142857143,4213.7,449.22232142857143,374.12857142857143,4313.9,449.22232142857143,374.12857142857143,4419.3,449.22232142857143,374.12857142857143,4523.7,449.22232142857143,374.12857142857143,4623.8,449.22232142857143,374.12857142857143,4724.4,449.22232142857143,374.12857142857143,4824.7,449.22232142857143,374.12857142857143,4928.6]","[1663.2,1663.2,1000,0,663.2,""smooth"",""right"",""right"",""good_move"",4441,2777.6,2358.7,1663.4,418.9,""smooth"",""right"",""right"",""good_move"",7594.8,3153.4,2849.3,4441.4,304.1,""smooth"",""down"",""down"",""good_move"",11280.4,3685.2,3311.5,7595.2,373.7,""smooth"",""down"",""down"",""good_move"",13511.4,2230.9,1789.3,11280.5,441.6,""oops"",""down"",""down"",""good_move"",16705.1,3193.5,2875.8,13511.6,317.7,""smooth"",""right"",""right"",""good_move""]","",""
"5113","","<div style=""width:500px;"">
  <p>What determined the result of this run?</p>
  </div>","100","html-slider-response","49","651862","0.0-10.0-1.1","81","1","2025-07-09 09:07:33","7701e855f2ef39aa3fd6c71abdc6918a","86.144.141.5","Mozilla/5.0 (Windows NT 10.0; Win64; x64) AppleWebKit/537.36 (KHTML, like Gecko) Chrome/138.0.0.0 Safari/537.36 Edg/138.0.0.0","WebKit","Edge","138.0.0.0","Windows","10.0","https://app.prolific.com/","en-US,en;q=0.9,en-GB;q=0.8","676e882e8a97b91ee272efe4","686d226cabeef709c732f8e1","686e312f5a122ab89de5b461","676e882e8a97b91ee272efe4","2025-07-09T09:18:35.158Z","","","","","","AttribQ","","","","","","","","","","","","","","","","","","","","","","","","","","","","","","","","","","","","","","50"
"2566","","<div style=""width:500px;"">
  <p>How much control did you have over the ball?</p>
  </div>","100","html-slider-response","50","654430","0.0-10.0-2.1","81","1","2025-07-09 09:07:33","7701e855f2ef39aa3fd6c71abdc6918a","86.144.141.5","Mozilla/5.0 (Windows NT 10.0; Win64; x64) AppleWebKit/537.36 (KHTML, like Gecko) Chrome/138.0.0.0 Safari/537.36 Edg/138.0.0.0","WebKit","Edge","138.0.0.0","Windows","10.0","https://app.prolific.com/","en-US,en;q=0.9,en-GB;q=0.8","676e882e8a97b91ee272efe4","686d226cabeef709c732f8e1","686e312f5a122ab89de5b461","676e882e8a97b91ee272efe4","2025-07-09T09:18:37.726Z","","","","","","ControlQ","","","","","","","","","","","","","","","","","","","","","","","","","","","","","","","","","","","","","","50"
"5138","","<div style=""width:500px;"">
  <p>How would you describe your current emotional state?</p>
  </div>","11","html-slider-response","51","659569","0.0-10.0-3.1","81","1","2025-07-09 09:07:33","7701e855f2ef39aa3fd6c71abdc6918a","86.144.141.5","Mozilla/5.0 (Windows NT 10.0; Win64; x64) AppleWebKit/537.36 (KHTML, like Gecko) Chrome/138.0.0.0 Safari/537.36 Edg/138.0.0.0","WebKit","Edge","138.0.0.0","Windows","10.0","https://app.prolific.com/","en-US,en;q=0.9,en-GB;q=0.8","676e882e8a97b91ee272efe4","686d226cabeef709c732f8e1","686e312f5a122ab89de5b461","676e882e8a97b91ee272efe4","2025-07-09T09:18:42.866Z","","","","","","StressQ","","","","","","","","","","","","","","","","","","","","","","","","","","","","","","","","","","","","","","50"
"2937","","<div style=""width:500px;"">
  <p>What best describes how you currently feel?</p>
  </div>","76","html-slider-response","52","662508","0.0-10.0-4.1","81","1","2025-07-09 09:07:33","7701e855f2ef39aa3fd6c71abdc6918a","86.144.141.5","Mozilla/5.0 (Windows NT 10.0; Win64; x64) AppleWebKit/537.36 (KHTML, like Gecko) Chrome/138.0.0.0 Safari/537.36 Edg/138.0.0.0","WebKit","Edge","138.0.0.0","Windows","10.0","https://app.prolific.com/","en-US,en;q=0.9,en-GB;q=0.8","676e882e8a97b91ee272efe4","686d226cabeef709c732f8e1","686e312f5a122ab89de5b461","676e882e8a97b91ee272efe4","2025-07-09T09:18:45.804Z","","","","","","MotivationQ","","","","","","","","","","","","","","","","","","","","","","","","","","","","","","","","","","","","","","50"
"","","","","ctl-task-cpt","53","701070","0.0-10.0-0.2","81","1","2025-07-09 09:07:33","7701e855f2ef39aa3fd6c71abdc6918a","86.144.141.5","Mozilla/5.0 (Windows NT 10.0; Win64; x64) AppleWebKit/537.36 (KHTML, like Gecko) Chrome/138.0.0.0 Safari/537.36 Edg/138.0.0.0","WebKit","Edge","138.0.0.0","Windows","10.0","https://app.prolific.com/","en-US,en;q=0.9,en-GB;q=0.8","676e882e8a97b91ee272efe4","686d226cabeef709c732f8e1","686e312f5a122ab89de5b461","676e882e8a97b91ee272efe4","2025-07-09T09:19:24.366Z","","","","","","","","","","","","","","","","win-only","3","g1:SW,g2:NE","0.8","3","0","673266.7","882.8","5886.4","35536.2","1","4","4","6","2","4","4","16","12","0.12121212121212122","5003.6","3000","400","[""up"",""right""]","{""num_key_presses"":6,""num_perfect"":5,""num_errors"":0,""num_randdir"":1,""num_randdir_good_moves"":1,""num_whilered"":0,""num_whileblue"":0,""num_blue"":4,""num_good_moves"":6}","[298.22232142857143,298.12857142857143,0.1,298.22232142857143,298.12857142857143,108.6,298.22232142857143,298.12857142857143,213.5,344.22232142857143,322.12857142857143,314.4,534.2223214285714,336.12857142857143,418,563.2223214285714,329.12857142857143,524.7,572.2223214285714,318.12857142857143,629,572.2223214285714,318.12857142857143,733.5,572.2223214285714,318.12857142857143,838,572.2223214285714,318.12857142857143,943.7,572.2223214285714,318.12857142857143,1044.6,571.2223214285714,316.12857142857143,1148.2,570.2223214285714,315.12857142857143,1253.3,570.2223214285714,315.12857142857143,1361.5,570.2223214285714,315.12857142857143,1463.6,572.2223214285714,315.12857142857143,1567.5,724.2223214285714,318.12857142857143,1667.9,734.2223214285714,315.12857142857143,1767.9,734.2223214285714,315.12857142857143,1867.9,734.2223214285714,315.12857142857143,1973.5,736.2223214285714,314.12857142857143,2079.1,738.2223214285714,311.12857142857143,2183.1,739.2223214285714,305.12857142857143,2283.1,740.2223214285714,303.12857142857143,2383.5,740.2223214285714,302.12857142857143,2487.5,740.2223214285714,302.12857142857143,2587.5,740.2223214285714,302.12857142857143,2687.8,740.2223214285714,302.12857142857143,2794.6,740.2223214285714,302.12857142857143,2897.9,740.2223214285714,302.12857142857143,2999.1,740.2223214285714,302.12857142857143,3103.9,740.2223214285714,302.12857142857143,3203.9,740.2223214285714,302.12857142857143,3307.9,740.2223214285714,302.12857142857143,3412.6,740.2223214285714,302.12857142857143,3513.9,740.2223214285714,302.12857142857143,3618.7,740.2223214285714,302.12857142857143,3723.6,740.2223214285714,302.12857142857143,3827.8,740.2223214285714,302.12857142857143,3929.1,740.2223214285714,302.12857142857143,4033.4,740.2223214285714,302.12857142857143,4137.7,740.2223214285714,302.12857142857143,4238.3,740.2223214285714,302.12857142857143,4342.7,740.2223214285714,302.12857142857143,4447.8,740.2223214285714,302.12857142857143,4549,740.2223214285714,302.12857142857143,4652.6,740.2223214285714,302.12857142857143,4753.1,740.2223214285714,302.12857142857143,4853.8,740.2223214285714,302.12857142857143,4957.7]","[4940.2,4940.2,2505.2,2004.3,430.7,""smooth"",""right"",""right"",""good_move"",8196.6,3256,2760,4940.7,495.9,""smooth"",""up"",""up"",""good_move"",11635.4,3438,3002.8,8197.4,435.2,""smooth"",""right"",""right"",""good_move"",20740,9104.1,1945.2,18334.7,460.1,""smooth"",""up"",""up"",""good_move"",26859.9,6119.7,2213,24130.6,516.3,""oops"",""right"",""up"",""good_move"",29555.6,2695.4,2131.7,26860.2,563.7,""smooth"",""right"",""right"",""good_move""]","",""
"2967","","<div style=""width:500px;"">
  <p>What determined the result of this run?</p>
  </div>","82","html-slider-response","54","704038","0.0-10.0-1.2","81","1","2025-07-09 09:07:33","7701e855f2ef39aa3fd6c71abdc6918a","86.144.141.5","Mozilla/5.0 (Windows NT 10.0; Win64; x64) AppleWebKit/537.36 (KHTML, like Gecko) Chrome/138.0.0.0 Safari/537.36 Edg/138.0.0.0","WebKit","Edge","138.0.0.0","Windows","10.0","https://app.prolific.com/","en-US,en;q=0.9,en-GB;q=0.8","676e882e8a97b91ee272efe4","686d226cabeef709c732f8e1","686e312f5a122ab89de5b461","676e882e8a97b91ee272efe4","2025-07-09T09:19:27.334Z","","","","","","AttribQ","","","","","","","","","","","","","","","","","","","","","","","","","","","","","","","","","","","","","","50"
"4351","","<div style=""width:500px;"">
  <p>How much control did you have over the ball?</p>
  </div>","64","html-slider-response","55","708390","0.0-10.0-2.2","81","1","2025-07-09 09:07:33","7701e855f2ef39aa3fd6c71abdc6918a","86.144.141.5","Mozilla/5.0 (Windows NT 10.0; Win64; x64) AppleWebKit/537.36 (KHTML, like Gecko) Chrome/138.0.0.0 Safari/537.36 Edg/138.0.0.0","WebKit","Edge","138.0.0.0","Windows","10.0","https://app.prolific.com/","en-US,en;q=0.9,en-GB;q=0.8","676e882e8a97b91ee272efe4","686d226cabeef709c732f8e1","686e312f5a122ab89de5b461","676e882e8a97b91ee272efe4","2025-07-09T09:19:31.686Z","","","","","","ControlQ","","","","","","","","","","","","","","","","","","","","","","","","","","","","","","","","","","","","","","50"
"2854","","<div style=""width:500px;"">
  <p>How would you describe your current emotional state?</p>
  </div>","20","html-slider-response","56","711245","0.0-10.0-3.2","81","1","2025-07-09 09:07:33","7701e855f2ef39aa3fd6c71abdc6918a","86.144.141.5","Mozilla/5.0 (Windows NT 10.0; Win64; x64) AppleWebKit/537.36 (KHTML, like Gecko) Chrome/138.0.0.0 Safari/537.36 Edg/138.0.0.0","WebKit","Edge","138.0.0.0","Windows","10.0","https://app.prolific.com/","en-US,en;q=0.9,en-GB;q=0.8","676e882e8a97b91ee272efe4","686d226cabeef709c732f8e1","686e312f5a122ab89de5b461","676e882e8a97b91ee272efe4","2025-07-09T09:19:34.541Z","","","","","","StressQ","","","","","","","","","","","","","","","","","","","","","","","","","","","","","","","","","","","","","","50"
"3626","","<div style=""width:500px;"">
  <p>What best describes how you currently feel?</p>
  </div>","68","html-slider-response","57","714872","0.0-10.0-4.2","81","1","2025-07-09 09:07:33","7701e855f2ef39aa3fd6c71abdc6918a","86.144.141.5","Mozilla/5.0 (Windows NT 10.0; Win64; x64) AppleWebKit/537.36 (KHTML, like Gecko) Chrome/138.0.0.0 Safari/537.36 Edg/138.0.0.0","WebKit","Edge","138.0.0.0","Windows","10.0","https://app.prolific.com/","en-US,en;q=0.9,en-GB;q=0.8","676e882e8a97b91ee272efe4","686d226cabeef709c732f8e1","686e312f5a122ab89de5b461","676e882e8a97b91ee272efe4","2025-07-09T09:19:38.168Z","","","","","","MotivationQ","","","","","","","","","","","","","","","","","","","","","","","","","","","","","","","","","","","","","","50"
"","","","","ctl-task-cpt","58","748761","0.0-10.0-0.3","81","1","2025-07-09 09:07:33","7701e855f2ef39aa3fd6c71abdc6918a","86.144.141.5","Mozilla/5.0 (Windows NT 10.0; Win64; x64) AppleWebKit/537.36 (KHTML, like Gecko) Chrome/138.0.0.0 Safari/537.36 Edg/138.0.0.0","WebKit","Edge","138.0.0.0","Windows","10.0","https://app.prolific.com/","en-US,en;q=0.9,en-GB;q=0.8","676e882e8a97b91ee272efe4","686d226cabeef709c732f8e1","686e312f5a122ab89de5b461","676e882e8a97b91ee272efe4","2025-07-09T09:20:12.057Z","","","","","","","","","","","","","","","","win-only","2","g1:SE,g2:NW","0.7","4","0","725630.9","1486.9","6490.8","30871.8","1","4","8","6","2","-8","-8","8","16","0.06060606060606061","5003.9","3000","-3005","[""left"",""up""]","{""num_key_presses"":7,""num_perfect"":4,""num_errors"":0,""num_randdir"":3,""num_randdir_good_moves"":1,""num_whilered"":0,""num_whileblue"":0,""num_blue"":1,""num_good_moves"":5}","[298.22232142857143,294.12857142857143,0.3,298.22232142857143,294.12857142857143,102,298.22232142857143,294.12857142857143,204.4,299.22232142857143,298.12857142857143,308.7,312.22232142857143,309.12857142857143,408.9,352.22232142857143,323.12857142857143,510.1,535.2223214285714,327.12857142857143,614.3,630.2223214285714,322.12857142857143,714.3,681.2223214285714,301.12857142857143,819.3,687.2223214285714,301.12857142857143,919.5,687.2223214285714,301.12857142857143,1019.7,687.2223214285714,301.12857142857143,1124.5,687.2223214285714,301.12857142857143,1228.4,687.2223214285714,301.12857142857143,1328.6,687.2223214285714,301.12857142857143,1428.7,687.2223214285714,301.12857142857143,1530.6,687.2223214285714,301.12857142857143,1634.4,687.2223214285714,301.12857142857143,1738.3,687.2223214285714,301.12857142857143,1839.9,687.2223214285714,301.12857142857143,1945.4,687.2223214285714,301.12857142857143,2049.1,687.2223214285714,301.12857142857143,2154.9,687.2223214285714,301.12857142857143,2258.8,687.2223214285714,301.12857142857143,2360.1,687.2223214285714,301.12857142857143,2464,687.2223214285714,301.12857142857143,2564.1,687.2223214285714,301.12857142857143,2668.3,687.2223214285714,301.12857142857143,2770,687.2223214285714,301.12857142857143,2871.1,687.2223214285714,301.12857142857143,2973.3,687.2223214285714,301.12857142857143,3073.3,687.2223214285714,301.12857142857143,3173.9,687.2223214285714,301.12857142857143,3279.4,687.2223214285714,301.12857142857143,3383.9,687.2223214285714,301.12857142857143,3489,687.2223214285714,301.12857142857143,3594.5,687.2223214285714,301.12857142857143,3700.4,687.2223214285714,301.12857142857143,3800.7,687.2223214285714,301.12857142857143,3905.2,687.2223214285714,301.12857142857143,4009.5,687.2223214285714,301.12857142857143,4109.7,687.2223214285714,301.12857142857143,4213.8,687.2223214285714,301.12857142857143,4322.8,687.2223214285714,301.12857142857143,4423.8,687.2223214285714,301.12857142857143,4524,687.2223214285714,301.12857142857143,4629.8,687.2223214285714,301.12857142857143,4729.8,687.2223214285714,301.12857142857143,4835.2,687.2223214285714,301.12857142857143,4935.9]","[4844.5,4844.5,2418.1,2000.5,425.9,""smooth"",""up"",""up"",""good_move"",7700.4,2855.4,2323.5,4845,531.9,""oops"",""up"",""right"",""bad_move"",10347.7,2646.9,2258.8,7700.8,388.1,""smooth"",""left"",""left"",""good_move"",13330.9,2982.9,2646.6,10348.1,336.2,""smooth"",""left"",""left"",""good_move"",15811.8,2480.7,2123.4,13331.1,357.3,""smooth"",""left"",""left"",""good_move"",18946.7,3134.7,2737.3,15812.1,397.3,""oops"",""left"",""up"",""good_move"",22043.4,3096.1,2742.1,18947.4,354,""oops"",""left"",""right"",""bad_move""]","",""
"4594","","<div style=""width:500px;"">
  <p>What determined the result of this run?</p>
  </div>","26","html-slider-response","59","753356","0.0-10.0-1.3","81","1","2025-07-09 09:07:33","7701e855f2ef39aa3fd6c71abdc6918a","86.144.141.5","Mozilla/5.0 (Windows NT 10.0; Win64; x64) AppleWebKit/537.36 (KHTML, like Gecko) Chrome/138.0.0.0 Safari/537.36 Edg/138.0.0.0","WebKit","Edge","138.0.0.0","Windows","10.0","https://app.prolific.com/","en-US,en;q=0.9,en-GB;q=0.8","676e882e8a97b91ee272efe4","686d226cabeef709c732f8e1","686e312f5a122ab89de5b461","676e882e8a97b91ee272efe4","2025-07-09T09:20:16.652Z","","","","","","AttribQ","","","","","","","","","","","","","","","","","","","","","","","","","","","","","","","","","","","","","","50"
"2609","","<div style=""width:500px;"">
  <p>How much control did you have over the ball?</p>
  </div>","23","html-slider-response","60","755966","0.0-10.0-2.3","81","1","2025-07-09 09:07:33","7701e855f2ef39aa3fd6c71abdc6918a","86.144.141.5","Mozilla/5.0 (Windows NT 10.0; Win64; x64) AppleWebKit/537.36 (KHTML, like Gecko) Chrome/138.0.0.0 Safari/537.36 Edg/138.0.0.0","WebKit","Edge","138.0.0.0","Windows","10.0","https://app.prolific.com/","en-US,en;q=0.9,en-GB;q=0.8","676e882e8a97b91ee272efe4","686d226cabeef709c732f8e1","686e312f5a122ab89de5b461","676e882e8a97b91ee272efe4","2025-07-09T09:20:19.262Z","","","","","","ControlQ","","","","","","","","","","","","","","","","","","","","","","","","","","","","","","","","","","","","","","50"
"3151","","<div style=""width:500px;"">
  <p>How would you describe your current emotional state?</p>
  </div>","66","html-slider-response","61","759118","0.0-10.0-3.3","81","1","2025-07-09 09:07:33","7701e855f2ef39aa3fd6c71abdc6918a","86.144.141.5","Mozilla/5.0 (Windows NT 10.0; Win64; x64) AppleWebKit/537.36 (KHTML, like Gecko) Chrome/138.0.0.0 Safari/537.36 Edg/138.0.0.0","WebKit","Edge","138.0.0.0","Windows","10.0","https://app.prolific.com/","en-US,en;q=0.9,en-GB;q=0.8","676e882e8a97b91ee272efe4","686d226cabeef709c732f8e1","686e312f5a122ab89de5b461","676e882e8a97b91ee272efe4","2025-07-09T09:20:22.414Z","","","","","","StressQ","","","","","","","","","","","","","","","","","","","","","","","","","","","","","","","","","","","","","","50"
"2315","","<div style=""width:500px;"">
  <p>What best describes how you currently feel?</p>
  </div>","42","html-slider-response","62","761434","0.0-10.0-4.3","81","1","2025-07-09 09:07:33","7701e855f2ef39aa3fd6c71abdc6918a","86.144.141.5","Mozilla/5.0 (Windows NT 10.0; Win64; x64) AppleWebKit/537.36 (KHTML, like Gecko) Chrome/138.0.0.0 Safari/537.36 Edg/138.0.0.0","WebKit","Edge","138.0.0.0","Windows","10.0","https://app.prolific.com/","en-US,en;q=0.9,en-GB;q=0.8","676e882e8a97b91ee272efe4","686d226cabeef709c732f8e1","686e312f5a122ab89de5b461","676e882e8a97b91ee272efe4","2025-07-09T09:20:24.730Z","","","","","","MotivationQ","","","","","","","","","","","","","","","","","","","","","","","","","","","","","","","","","","","","","","50"
"","","","","ctl-task-cpt","63","794797","0.0-10.0-0.4","81","1","2025-07-09 09:07:33","7701e855f2ef39aa3fd6c71abdc6918a","86.144.141.5","Mozilla/5.0 (Windows NT 10.0; Win64; x64) AppleWebKit/537.36 (KHTML, like Gecko) Chrome/138.0.0.0 Safari/537.36 Edg/138.0.0.0","WebKit","Edge","138.0.0.0","Windows","10.0","https://app.prolific.com/","en-US,en;q=0.9,en-GB;q=0.8","676e882e8a97b91ee272efe4","686d226cabeef709c732f8e1","686e312f5a122ab89de5b461","676e882e8a97b91ee272efe4","2025-07-09T09:20:58.093Z","","","","","","","","","","","","","","","","win-only","2","g1:SE,g2:NW","0.6","5","0","772193.2","2432.7","7433.4","30343.3","1","4","4","6","1","1","1","9","8","0.06818181818181818","5000.7","3000","230","[""down"",""right""]","{""num_key_presses"":6,""num_perfect"":4,""num_errors"":0,""num_randdir"":2,""num_randdir_good_moves"":1,""num_whilered"":0,""num_whileblue"":0,""num_blue"":2,""num_good_moves"":5}","[290.22232142857143,292.12857142857143,0.4,290.22232142857143,292.12857142857143,102.9,290.22232142857143,292.12857142857143,203.6,290.22232142857143,294.12857142857143,303.6,307.22232142857143,316.12857142857143,403.6,387.22232142857143,357.12857142857143,510.4,432.22232142857143,367.12857142857143,616.4,433.22232142857143,368.12857142857143,718.1,433.22232142857143,368.12857142857143,822.9,433.22232142857143,366.12857142857143,922.9,433.22232142857143,366.12857142857143,1027.7,430.22232142857143,361.12857142857143,1132.8,428.22232142857143,354.12857142857143,1233.7,427.22232142857143,352.12857142857143,1338.5,427.22232142857143,352.12857142857143,1439.2,427.22232142857143,352.12857142857143,1542.7,427.22232142857143,352.12857142857143,1645.2,427.22232142857143,352.12857142857143,1747.8,427.22232142857143,352.12857142857143,1852.8,427.22232142857143,352.12857142857143,1952.8,427.22232142857143,352.12857142857143,2052.9,427.22232142857143,352.12857142857143,2153.2,427.22232142857143,352.12857142857143,2258.9,427.22232142857143,352.12857142857143,2362.5,427.22232142857143,352.12857142857143,2463.6,427.22232142857143,352.12857142857143,2567.6,428.22232142857143,352.12857142857143,2667.6,431.22232142857143,359.12857142857143,2767.8,433.22232142857143,363.12857142857143,2872.7,433.22232142857143,363.12857142857143,2978.5,433.22232142857143,365.12857142857143,3083,434.22232142857143,392.12857142857143,3183,435.22232142857143,397.12857142857143,3283,435.22232142857143,397.12857142857143,3383,435.22232142857143,397.12857142857143,3483,435.22232142857143,397.12857142857143,3589.5,435.22232142857143,398.12857142857143,3693.5,433.22232142857143,402.12857142857143,3793.8,433.22232142857143,402.12857142857143,3894.3,432.22232142857143,404.12857142857143,3994.4,432.22232142857143,405.12857142857143,4098.7,432.22232142857143,405.12857142857143,4198.8,432.22232142857143,405.12857142857143,4302.7,432.22232142857143,405.12857142857143,4405.6,432.22232142857143,405.12857142857143,4508.7,432.22232142857143,405.12857142857143,4614.4,432.22232142857143,405.12857142857143,4718.1,432.22232142857143,405.12857142857143,4818.2,432.22232142857143,405.12857142857143,4924]","[1515,1515,1000,0,515,""smooth"",""right"",""right"",""good_move"",4378.9,2863.3,2301.7,1515.6,561.6,""smooth"",""right"",""right"",""good_move"",11129.7,6750.2,2977.9,7747.1,404.7,""oops"",""down"",""left"",""bad_move"",13706,2576.1,2000.7,11129.9,575.4,""smooth"",""down"",""down"",""good_move"",20004.2,6297.8,2452.4,17113.1,438.7,""smooth"",""right"",""right"",""good_move"",22811.4,2806.8,2470.9,20004.6,335.9,""oops"",""down"",""down"",""good_move""]","",""
"4065","","<div style=""width:500px;"">
  <p>What determined the result of this run?</p>
  </div>","45","html-slider-response","64","798863","0.0-10.0-1.4","81","1","2025-07-09 09:07:33","7701e855f2ef39aa3fd6c71abdc6918a","86.144.141.5","Mozilla/5.0 (Windows NT 10.0; Win64; x64) AppleWebKit/537.36 (KHTML, like Gecko) Chrome/138.0.0.0 Safari/537.36 Edg/138.0.0.0","WebKit","Edge","138.0.0.0","Windows","10.0","https://app.prolific.com/","en-US,en;q=0.9,en-GB;q=0.8","676e882e8a97b91ee272efe4","686d226cabeef709c732f8e1","686e312f5a122ab89de5b461","676e882e8a97b91ee272efe4","2025-07-09T09:21:02.159Z","","","","","","AttribQ","","","","","","","","","","","","","","","","","","","","","","","","","","","","","","","","","","","","","","50"
"2279","","<div style=""width:500px;"">
  <p>How much control did you have over the ball?</p>
  </div>","46","html-slider-response","65","801144","0.0-10.0-2.4","81","1","2025-07-09 09:07:33","7701e855f2ef39aa3fd6c71abdc6918a","86.144.141.5","Mozilla/5.0 (Windows NT 10.0; Win64; x64) AppleWebKit/537.36 (KHTML, like Gecko) Chrome/138.0.0.0 Safari/537.36 Edg/138.0.0.0","WebKit","Edge","138.0.0.0","Windows","10.0","https://app.prolific.com/","en-US,en;q=0.9,en-GB;q=0.8","676e882e8a97b91ee272efe4","686d226cabeef709c732f8e1","686e312f5a122ab89de5b461","676e882e8a97b91ee272efe4","2025-07-09T09:21:04.440Z","","","","","","ControlQ","","","","","","","","","","","","","","","","","","","","","","","","","","","","","","","","","","","","","","50"
"2351","","<div style=""width:500px;"">
  <p>How would you describe your current emotional state?</p>
  </div>","45","html-slider-response","66","803496","0.0-10.0-3.4","81","1","2025-07-09 09:07:33","7701e855f2ef39aa3fd6c71abdc6918a","86.144.141.5","Mozilla/5.0 (Windows NT 10.0; Win64; x64) AppleWebKit/537.36 (KHTML, like Gecko) Chrome/138.0.0.0 Safari/537.36 Edg/138.0.0.0","WebKit","Edge","138.0.0.0","Windows","10.0","https://app.prolific.com/","en-US,en;q=0.9,en-GB;q=0.8","676e882e8a97b91ee272efe4","686d226cabeef709c732f8e1","686e312f5a122ab89de5b461","676e882e8a97b91ee272efe4","2025-07-09T09:21:06.792Z","","","","","","StressQ","","","","","","","","","","","","","","","","","","","","","","","","","","","","","","","","","","","","","","50"
"2715","","<div style=""width:500px;"">
  <p>What best describes how you currently feel?</p>
  </div>","47","html-slider-response","67","806212","0.0-10.0-4.4","81","1","2025-07-09 09:07:33","7701e855f2ef39aa3fd6c71abdc6918a","86.144.141.5","Mozilla/5.0 (Windows NT 10.0; Win64; x64) AppleWebKit/537.36 (KHTML, like Gecko) Chrome/138.0.0.0 Safari/537.36 Edg/138.0.0.0","WebKit","Edge","138.0.0.0","Windows","10.0","https://app.prolific.com/","en-US,en;q=0.9,en-GB;q=0.8","676e882e8a97b91ee272efe4","686d226cabeef709c732f8e1","686e312f5a122ab89de5b461","676e882e8a97b91ee272efe4","2025-07-09T09:21:09.508Z","","","","","","MotivationQ","","","","","","","","","","","","","","","","","","","","","","","","","","","","","","","","","","","","","","50"
"","","","","ctl-task-cpt","68","814986","0.0-10.0-0.5","81","1","2025-07-09 09:07:33","7701e855f2ef39aa3fd6c71abdc6918a","86.144.141.5","Mozilla/5.0 (Windows NT 10.0; Win64; x64) AppleWebKit/537.36 (KHTML, like Gecko) Chrome/138.0.0.0 Safari/537.36 Edg/138.0.0.0","WebKit","Edge","138.0.0.0","Windows","10.0","https://app.prolific.com/","en-US,en;q=0.9,en-GB;q=0.8","676e882e8a97b91ee272efe4","686d226cabeef709c732f8e1","686e312f5a122ab89de5b461","676e882e8a97b91ee272efe4","2025-07-09T09:21:18.282Z","","","","","","","","","","","","","","","","win-only","2","g1:SE,g2:NW","0.5","6","0","816970.7","746.2","-9999","5750.6","1","4","8","6","-9999","-4","-4","5","9","0.03787878787878788","-9999","3000","3000","[]","{""num_key_presses"":0,""num_perfect"":0,""num_errors"":0,""num_randdir"":0,""num_randdir_good_moves"":0,""num_whilered"":0,""num_whileblue"":0,""num_blue"":0,""num_good_moves"":0}","[299.22232142857143,294.12857142857143,0.2,299.22232142857143,294.12857142857143,111.2,299.22232142857143,294.12857142857143,214.1,328.22232142857143,326.12857142857143,315,378.22232142857143,349.12857142857143,420.3,400.22232142857143,351.12857142857143,520.3,400.22232142857143,351.12857142857143,628.1,401.22232142857143,351.12857142857143,730.5,401.22232142857143,351.12857142857143,830.5,401.22232142857143,351.12857142857143,935.2,401.22232142857143,351.12857142857143,1039.5,401.22232142857143,351.12857142857143,1141.5,401.22232142857143,351.12857142857143,1243,401.22232142857143,351.12857142857143,1344.3,401.22232142857143,349.12857142857143,1449.6,406.22232142857143,348.12857142857143,1550.2,417.22232142857143,351.12857142857143,1654.6,422.22232142857143,360.12857142857143,1755.7,432.22232142857143,359.12857142857143,1865.6,434.22232142857143,359.12857142857143,1968.9,435.22232142857143,359.12857142857143,2069.8,435.22232142857143,362.12857142857143,2169.8,435.22232142857143,363.12857142857143,2269.9,435.22232142857143,363.12857142857143,2370.3,435.22232142857143,363.12857142857143,2475.9,434.22232142857143,366.12857142857143,2578.4,432.22232142857143,369.12857142857143,2679.5,432.22232142857143,369.12857142857143,2779.8,432.22232142857143,371.12857142857143,2880.5,432.22232142857143,371.12857142857143,2985.5,432.22232142857143,371.12857142857143,3085.7,432.22232142857143,372.12857142857143,3185.8,435.22232142857143,380.12857142857143,3293.5,435.22232142857143,382.12857142857143,3394.9,437.22232142857143,386.12857142857143,3498.7,438.22232142857143,387.12857142857143,3599.8,440.22232142857143,388.12857142857143,3700,445.22232142857143,388.12857142857143,3806.6,449.22232142857143,390.12857142857143,3913.6,451.22232142857143,392.12857142857143,4015.3,451.22232142857143,392.12857142857143,4118.9,455.22232142857143,391.12857142857143,4219.5,455.22232142857143,391.12857142857143,4320.3,458.22232142857143,391.12857142857143,4424.5,460.22232142857143,394.12857142857143,4527,461.22232142857143,398.12857142857143,4630.3,461.22232142857143,399.12857142857143,4734.8,462.22232142857143,400.12857142857143,4840.2,462.22232142857143,400.12857142857143,4940.3]","[]","",""
"2636","","<div style=""width:500px;"">
  <p>What determined the result of this run?</p>
  </div>","0","html-slider-response","69","817624","0.0-10.0-1.5","81","1","2025-07-09 09:07:33","7701e855f2ef39aa3fd6c71abdc6918a","86.144.141.5","Mozilla/5.0 (Windows NT 10.0; Win64; x64) AppleWebKit/537.36 (KHTML, like Gecko) Chrome/138.0.0.0 Safari/537.36 Edg/138.0.0.0","WebKit","Edge","138.0.0.0","Windows","10.0","https://app.prolific.com/","en-US,en;q=0.9,en-GB;q=0.8","676e882e8a97b91ee272efe4","686d226cabeef709c732f8e1","686e312f5a122ab89de5b461","676e882e8a97b91ee272efe4","2025-07-09T09:21:20.920Z","","","","","","AttribQ","","","","","","","","","","","","","","","","","","","","","","","","","","","","","","","","","","","","","","50"
"2952","","<div style=""width:500px;"">
  <p>How much control did you have over the ball?</p>
  </div>","0","html-slider-response","70","820578","0.0-10.0-2.5","81","1","2025-07-09 09:07:33","7701e855f2ef39aa3fd6c71abdc6918a","86.144.141.5","Mozilla/5.0 (Windows NT 10.0; Win64; x64) AppleWebKit/537.36 (KHTML, like Gecko) Chrome/138.0.0.0 Safari/537.36 Edg/138.0.0.0","WebKit","Edge","138.0.0.0","Windows","10.0","https://app.prolific.com/","en-US,en;q=0.9,en-GB;q=0.8","676e882e8a97b91ee272efe4","686d226cabeef709c732f8e1","686e312f5a122ab89de5b461","676e882e8a97b91ee272efe4","2025-07-09T09:21:23.874Z","","","","","","ControlQ","","","","","","","","","","","","","","","","","","","","","","","","","","","","","","","","","","","","","","50"
"2732","","<div style=""width:500px;"">
  <p>How would you describe your current emotional state?</p>
  </div>","85","html-slider-response","71","823310","0.0-10.0-3.5","81","1","2025-07-09 09:07:33","7701e855f2ef39aa3fd6c71abdc6918a","86.144.141.5","Mozilla/5.0 (Windows NT 10.0; Win64; x64) AppleWebKit/537.36 (KHTML, like Gecko) Chrome/138.0.0.0 Safari/537.36 Edg/138.0.0.0","WebKit","Edge","138.0.0.0","Windows","10.0","https://app.prolific.com/","en-US,en;q=0.9,en-GB;q=0.8","676e882e8a97b91ee272efe4","686d226cabeef709c732f8e1","686e312f5a122ab89de5b461","676e882e8a97b91ee272efe4","2025-07-09T09:21:26.606Z","","","","","","StressQ","","","","","","","","","","","","","","","","","","","","","","","","","","","","","","","","","","","","","","50"
"2422","","<div style=""width:500px;"">
  <p>What best describes how you currently feel?</p>
  </div>","25","html-slider-response","72","825735","0.0-10.0-4.5","81","1","2025-07-09 09:07:33","7701e855f2ef39aa3fd6c71abdc6918a","86.144.141.5","Mozilla/5.0 (Windows NT 10.0; Win64; x64) AppleWebKit/537.36 (KHTML, like Gecko) Chrome/138.0.0.0 Safari/537.36 Edg/138.0.0.0","WebKit","Edge","138.0.0.0","Windows","10.0","https://app.prolific.com/","en-US,en;q=0.9,en-GB;q=0.8","676e882e8a97b91ee272efe4","686d226cabeef709c732f8e1","686e312f5a122ab89de5b461","676e882e8a97b91ee272efe4","2025-07-09T09:21:29.031Z","","","","","","MotivationQ","","","","","","","","","","","","","","","","","","","","","","","","","","","","","","","","","","","","","","50"
"","","","","ctl-task-cpt","73","861877","0.0-10.0-0.6","81","1","2025-07-09 09:07:33","7701e855f2ef39aa3fd6c71abdc6918a","86.144.141.5","Mozilla/5.0 (Windows NT 10.0; Win64; x64) AppleWebKit/537.36 (KHTML, like Gecko) Chrome/138.0.0.0 Safari/537.36 Edg/138.0.0.0","WebKit","Edge","138.0.0.0","Windows","10.0","https://app.prolific.com/","en-US,en;q=0.9,en-GB;q=0.8","676e882e8a97b91ee272efe4","686d226cabeef709c732f8e1","686e312f5a122ab89de5b461","676e882e8a97b91ee272efe4","2025-07-09T09:22:05.173Z","","","","","","","","","","","","","","","","win-only","0","g1:NW,g2:SE","0.4","7","0","836494.6","1900.3","6900.9","33120.6","1","4","4","6","2","-4","-4","1","5","0.007575757575757576","5000.5","3000","-2880","[""down"",""right""]","{""num_key_presses"":6,""num_perfect"":3,""num_errors"":0,""num_randdir"":3,""num_randdir_good_moves"":2,""num_whilered"":0,""num_whileblue"":0,""num_blue"":2,""num_good_moves"":5}","[298.22232142857143,287.12857142857143,0.3,298.22232142857143,287.12857142857143,103.6,298.22232142857143,287.12857142857143,207.3,299.22232142857143,287.12857142857143,311.5,375.22232142857143,306.12857142857143,411.5,411.22232142857143,307.12857142857143,516,411.22232142857143,308.12857142857143,616,411.22232142857143,309.12857142857143,720.4,411.22232142857143,311.12857142857143,820.4,411.22232142857143,311.12857142857143,920.5,411.22232142857143,311.12857142857143,1025.4,411.22232142857143,311.12857142857143,1126.2,411.22232142857143,311.12857142857143,1228.3,411.22232142857143,311.12857142857143,1331.3,411.22232142857143,311.12857142857143,1442.8,411.22232142857143,311.12857142857143,1544.6,411.22232142857143,311.12857142857143,1647.7,411.22232142857143,311.12857142857143,1748.7,411.22232142857143,311.12857142857143,1850.5,411.22232142857143,311.12857142857143,1951.3,411.22232142857143,311.12857142857143,2056.1,411.22232142857143,311.12857142857143,2160.3,411.22232142857143,311.12857142857143,2260.4,411.22232142857143,311.12857142857143,2361.1,411.22232142857143,311.12857142857143,2466.3,411.22232142857143,311.12857142857143,2570.9,411.22232142857143,311.12857142857143,2670.9,411.22232142857143,311.12857142857143,2776.8,411.22232142857143,311.12857142857143,2880.5,411.22232142857143,311.12857142857143,2986.5,411.22232142857143,311.12857142857143,3091.2,411.22232142857143,311.12857142857143,3191.7,411.22232142857143,311.12857142857143,3296.5,411.22232142857143,311.12857142857143,3401.9,411.22232142857143,311.12857142857143,3502.4,411.22232142857143,311.12857142857143,3607.8,411.22232142857143,311.12857142857143,3710.5,411.22232142857143,311.12857142857143,3815.8,411.22232142857143,311.12857142857143,3920.8,411.22232142857143,311.12857142857143,4021,411.22232142857143,311.12857142857143,4121.4,411.22232142857143,311.12857142857143,4225.6,411.22232142857143,311.12857142857143,4335.3,411.22232142857143,311.12857142857143,4436.3,411.22232142857143,311.12857142857143,4536.3,411.22232142857143,311.12857142857143,4636.6,411.22232142857143,311.12857142857143,4743.9,411.22232142857143,311.12857142857143,4845,411.22232142857143,311.12857142857143,4946.8]","[8444.2,8444.2,2329.2,5588.6,526.4,""smooth"",""right"",""right"",""good_move"",11298.3,2853.7,2302.3,8444.6,551.4,""smooth"",""down"",""down"",""good_move"",14184.5,2885.9,2453.4,11298.6,432.5,""oops"",""right"",""up"",""bad_move"",17001,2816.1,2466.1,14184.9,350,""oops"",""down"",""right"",""good_move"",19601.8,2599.8,2164.6,17002.1,435.2,""oops"",""down"",""down"",""good_move"",22737.2,3134.3,2611.6,19602.9,522.7,""smooth"",""down"",""down"",""good_move""]","",""
"1603","","<div style=""width:500px;"">
  <p>What determined the result of this run?</p>
  </div>","14","html-slider-response","74","863482","0.0-10.0-1.6","81","1","2025-07-09 09:07:33","7701e855f2ef39aa3fd6c71abdc6918a","86.144.141.5","Mozilla/5.0 (Windows NT 10.0; Win64; x64) AppleWebKit/537.36 (KHTML, like Gecko) Chrome/138.0.0.0 Safari/537.36 Edg/138.0.0.0","WebKit","Edge","138.0.0.0","Windows","10.0","https://app.prolific.com/","en-US,en;q=0.9,en-GB;q=0.8","676e882e8a97b91ee272efe4","686d226cabeef709c732f8e1","686e312f5a122ab89de5b461","676e882e8a97b91ee272efe4","2025-07-09T09:22:06.778Z","","","","","","AttribQ","","","","","","","","","","","","","","","","","","","","","","","","","","","","","","","","","","","","","","50"
"2136","","<div style=""width:500px;"">
  <p>How much control did you have over the ball?</p>
  </div>","7","html-slider-response","75","865620","0.0-10.0-2.6","81","1","2025-07-09 09:07:33","7701e855f2ef39aa3fd6c71abdc6918a","86.144.141.5","Mozilla/5.0 (Windows NT 10.0; Win64; x64) AppleWebKit/537.36 (KHTML, like Gecko) Chrome/138.0.0.0 Safari/537.36 Edg/138.0.0.0","WebKit","Edge","138.0.0.0","Windows","10.0","https://app.prolific.com/","en-US,en;q=0.9,en-GB;q=0.8","676e882e8a97b91ee272efe4","686d226cabeef709c732f8e1","686e312f5a122ab89de5b461","676e882e8a97b91ee272efe4","2025-07-09T09:22:08.916Z","","","","","","ControlQ","","","","","","","","","","","","","","","","","","","","","","","","","","","","","","","","","","","","","","50"
"3131","","<div style=""width:500px;"">
  <p>How would you describe your current emotional state?</p>
  </div>","67","html-slider-response","76","868752","0.0-10.0-3.6","81","1","2025-07-09 09:07:33","7701e855f2ef39aa3fd6c71abdc6918a","86.144.141.5","Mozilla/5.0 (Windows NT 10.0; Win64; x64) AppleWebKit/537.36 (KHTML, like Gecko) Chrome/138.0.0.0 Safari/537.36 Edg/138.0.0.0","WebKit","Edge","138.0.0.0","Windows","10.0","https://app.prolific.com/","en-US,en;q=0.9,en-GB;q=0.8","676e882e8a97b91ee272efe4","686d226cabeef709c732f8e1","686e312f5a122ab89de5b461","676e882e8a97b91ee272efe4","2025-07-09T09:22:12.048Z","","","","","","StressQ","","","","","","","","","","","","","","","","","","","","","","","","","","","","","","","","","","","","","","50"
"2359","","<div style=""width:500px;"">
  <p>What best describes how you currently feel?</p>
  </div>","38","html-slider-response","77","871112","0.0-10.0-4.6","81","1","2025-07-09 09:07:33","7701e855f2ef39aa3fd6c71abdc6918a","86.144.141.5","Mozilla/5.0 (Windows NT 10.0; Win64; x64) AppleWebKit/537.36 (KHTML, like Gecko) Chrome/138.0.0.0 Safari/537.36 Edg/138.0.0.0","WebKit","Edge","138.0.0.0","Windows","10.0","https://app.prolific.com/","en-US,en;q=0.9,en-GB;q=0.8","676e882e8a97b91ee272efe4","686d226cabeef709c732f8e1","686e312f5a122ab89de5b461","676e882e8a97b91ee272efe4","2025-07-09T09:22:14.408Z","","","","","","MotivationQ","","","","","","","","","","","","","","","","","","","","","","","","","","","","","","","","","","","","","","50"
"","","","","ctl-task-cpt","78","890644","0.0-10.0-0.7","81","1","2025-07-09 09:07:33","7701e855f2ef39aa3fd6c71abdc6918a","86.144.141.5","Mozilla/5.0 (Windows NT 10.0; Win64; x64) AppleWebKit/537.36 (KHTML, like Gecko) Chrome/138.0.0.0 Safari/537.36 Edg/138.0.0.0","WebKit","Edge","138.0.0.0","Windows","10.0","https://app.prolific.com/","en-US,en;q=0.9,en-GB;q=0.8","676e882e8a97b91ee272efe4","686d226cabeef709c732f8e1","686e312f5a122ab89de5b461","676e882e8a97b91ee272efe4","2025-07-09T09:22:33.940Z","","","","","","","","","","","","","","","","win-only","0","g1:NW,g2:SE","0.3","8","0","881870.8","1316.4","6322","16512.7","1","4","8","6","1","1","1","2","1","0.015151515151515152","5005.6","3000","1675","[""left"",""up""]","{""num_key_presses"":4,""num_perfect"":3,""num_errors"":0,""num_randdir"":1,""num_randdir_good_moves"":1,""num_whilered"":0,""num_whileblue"":0,""num_blue"":0,""num_good_moves"":4}","[288.22232142857143,298.12857142857143,0.2,288.22232142857143,298.12857142857143,100.8,288.22232142857143,298.12857142857143,200.9,288.22232142857143,299.12857142857143,305.5,290.22232142857143,310.12857142857143,410.8,306.22232142857143,331.12857142857143,514.7,315.22232142857143,344.12857142857143,616.5,316.22232142857143,351.12857142857143,719.4,316.22232142857143,351.12857142857143,824.4,316.22232142857143,351.12857142857143,924.6,316.22232142857143,351.12857142857143,1029.2,316.22232142857143,351.12857142857143,1129.5,316.22232142857143,351.12857142857143,1230,318.22232142857143,351.12857142857143,1337.6,318.22232142857143,351.12857142857143,1442.2,318.22232142857143,351.12857142857143,1545.4,318.22232142857143,351.12857142857143,1646.7,318.22232142857143,350.12857142857143,1753.1,319.22232142857143,346.12857142857143,1855.1,319.22232142857143,346.12857142857143,1955.3,315.22232142857143,347.12857142857143,2055.8,315.22232142857143,347.12857142857143,2160.2,315.22232142857143,347.12857142857143,2260.7,315.22232142857143,347.12857142857143,2368.4,315.22232142857143,347.12857142857143,2469.5,315.22232142857143,348.12857142857143,2573.2,315.22232142857143,348.12857142857143,2675.7,315.22232142857143,348.12857142857143,2780.4,315.22232142857143,348.12857142857143,2885.2,315.22232142857143,348.12857142857143,2985.8,315.22232142857143,348.12857142857143,3089.4,317.22232142857143,351.12857142857143,3189.4,318.22232142857143,358.12857142857143,3293.9,317.22232142857143,366.12857142857143,3395,316.22232142857143,369.12857142857143,3495.5,316.22232142857143,375.12857142857143,3595.7,316.22232142857143,381.12857142857143,3700.1,314.22232142857143,387.12857142857143,3801.7,312.22232142857143,392.12857142857143,3902.3,312.22232142857143,392.12857142857143,4005.4,312.22232142857143,393.12857142857143,4109.2,312.22232142857143,393.12857142857143,4209.3,312.22232142857143,393.12857142857143,4309.6,312.22232142857143,393.12857142857143,4410.8,312.22232142857143,393.12857142857143,4514.6,312.22232142857143,393.12857142857143,4614.8,312.22232142857143,393.12857142857143,4721.8,312.22232142857143,393.12857142857143,4826.4,312.22232142857143,393.12857142857143,4930.3]","[1414.9,1414.9,1000,0,414.9,""oops"",""left"",""left"",""good_move"",4043.9,2628.2,2293.9,1415.7,334.3,""smooth"",""left"",""left"",""good_move"",7507.3,3463.2,3137.9,4044.1,325.3,""smooth"",""up"",""up"",""good_move"",10100,2592.4,2264.7,7507.6,327.7,""smooth"",""up"",""up"",""good_move""]","",""
"4667","","<div style=""width:500px;"">
  <p>What determined the result of this run?</p>
  </div>","72","html-slider-response","79","895312","0.0-10.0-1.7","81","1","2025-07-09 09:07:33","7701e855f2ef39aa3fd6c71abdc6918a","86.144.141.5","Mozilla/5.0 (Windows NT 10.0; Win64; x64) AppleWebKit/537.36 (KHTML, like Gecko) Chrome/138.0.0.0 Safari/537.36 Edg/138.0.0.0","WebKit","Edge","138.0.0.0","Windows","10.0","https://app.prolific.com/","en-US,en;q=0.9,en-GB;q=0.8","676e882e8a97b91ee272efe4","686d226cabeef709c732f8e1","686e312f5a122ab89de5b461","676e882e8a97b91ee272efe4","2025-07-09T09:22:38.608Z","","","","","","AttribQ","","","","","","","","","","","","","","","","","","","","","","","","","","","","","","","","","","","","","","50"
"3231","","<div style=""width:500px;"">
  <p>How much control did you have over the ball?</p>
  </div>","85","html-slider-response","80","898546","0.0-10.0-2.7","81","1","2025-07-09 09:07:33","7701e855f2ef39aa3fd6c71abdc6918a","86.144.141.5","Mozilla/5.0 (Windows NT 10.0; Win64; x64) AppleWebKit/537.36 (KHTML, like Gecko) Chrome/138.0.0.0 Safari/537.36 Edg/138.0.0.0","WebKit","Edge","138.0.0.0","Windows","10.0","https://app.prolific.com/","en-US,en;q=0.9,en-GB;q=0.8","676e882e8a97b91ee272efe4","686d226cabeef709c732f8e1","686e312f5a122ab89de5b461","676e882e8a97b91ee272efe4","2025-07-09T09:22:41.842Z","","","","","","ControlQ","","","","","","","","","","","","","","","","","","","","","","","","","","","","","","","","","","","","","","50"
"2524","","<div style=""width:500px;"">
  <p>How would you describe your current emotional state?</p>
  </div>","48","html-slider-response","81","901070","0.0-10.0-3.7","81","1","2025-07-09 09:07:33","7701e855f2ef39aa3fd6c71abdc6918a","86.144.141.5","Mozilla/5.0 (Windows NT 10.0; Win64; x64) AppleWebKit/537.36 (KHTML, like Gecko) Chrome/138.0.0.0 Safari/537.36 Edg/138.0.0.0","WebKit","Edge","138.0.0.0","Windows","10.0","https://app.prolific.com/","en-US,en;q=0.9,en-GB;q=0.8","676e882e8a97b91ee272efe4","686d226cabeef709c732f8e1","686e312f5a122ab89de5b461","676e882e8a97b91ee272efe4","2025-07-09T09:22:44.367Z","","","","","","StressQ","","","","","","","","","","","","","","","","","","","","","","","","","","","","","","","","","","","","","","50"
"2598","","<div style=""width:500px;"">
  <p>What best describes how you currently feel?</p>
  </div>","50","html-slider-response","82","903670","0.0-10.0-4.7","81","1","2025-07-09 09:07:33","7701e855f2ef39aa3fd6c71abdc6918a","86.144.141.5","Mozilla/5.0 (Windows NT 10.0; Win64; x64) AppleWebKit/537.36 (KHTML, like Gecko) Chrome/138.0.0.0 Safari/537.36 Edg/138.0.0.0","WebKit","Edge","138.0.0.0","Windows","10.0","https://app.prolific.com/","en-US,en;q=0.9,en-GB;q=0.8","676e882e8a97b91ee272efe4","686d226cabeef709c732f8e1","686e312f5a122ab89de5b461","676e882e8a97b91ee272efe4","2025-07-09T09:22:46.966Z","","","","","","MotivationQ","","","","","","","","","","","","","","","","","","","","","","","","","","","","","","","","","","","","","","50"
"","","","","ctl-task-cpt","83","929243","0.0-10.0-0.8","81","1","2025-07-09 09:07:33","7701e855f2ef39aa3fd6c71abdc6918a","86.144.141.5","Mozilla/5.0 (Windows NT 10.0; Win64; x64) AppleWebKit/537.36 (KHTML, like Gecko) Chrome/138.0.0.0 Safari/537.36 Edg/138.0.0.0","WebKit","Edge","138.0.0.0","Windows","10.0","https://app.prolific.com/","en-US,en;q=0.9,en-GB;q=0.8","676e882e8a97b91ee272efe4","686d226cabeef709c732f8e1","686e312f5a122ab89de5b461","676e882e8a97b91ee272efe4","2025-07-09T09:23:12.539Z","","","","","","","","","","","","","","","","win-only","1","g1:NE,g2:SW","0.2","9","0","914428.2","1273.3","6278.7","22555.4","1","4","8","6","1","1","1","3","2","0.022727272727272728","5005.4","3000","1230","[""up"",""right""]","{""num_key_presses"":4,""num_perfect"":2,""num_errors"":0,""num_randdir"":2,""num_randdir_good_moves"":2,""num_whilered"":0,""num_whileblue"":0,""num_blue"":1,""num_good_moves"":4}","[301.22232142857143,302.12857142857143,0.4,301.22232142857143,302.12857142857143,103.2,300.22232142857143,302.12857142857143,208.3,306.22232142857143,302.12857142857143,309,421.22232142857143,320.12857142857143,413.8,517.2223214285714,311.12857142857143,515,538.2223214285714,306.12857142857143,622.7,538.2223214285714,306.12857142857143,723.2,538.2223214285714,306.12857142857143,823.2,538.2223214285714,306.12857142857143,923.6,534.2223214285714,311.12857142857143,1027.1,531.2223214285714,313.12857142857143,1128,531.2223214285714,313.12857142857143,1228.4,531.2223214285714,313.12857142857143,1332.7,531.2223214285714,313.12857142857143,1434.3,531.2223214285714,313.12857142857143,1539.5,531.2223214285714,313.12857142857143,1643.1,531.2223214285714,313.12857142857143,1743.7,531.2223214285714,313.12857142857143,1848.8,531.2223214285714,313.12857142857143,1953.2,531.2223214285714,313.12857142857143,2054.1,531.2223214285714,313.12857142857143,2154.7,531.2223214285714,313.12857142857143,2254.8,531.2223214285714,313.12857142857143,2358.3,531.2223214285714,313.12857142857143,2460.1,529.2223214285714,315.12857142857143,2562.2,526.2223214285714,317.12857142857143,2664,526.2223214285714,317.12857142857143,2769.4,524.2223214285714,320.12857142857143,2871.2,524.2223214285714,320.12857142857143,2973.8,524.2223214285714,320.12857142857143,3074.4,524.2223214285714,320.12857142857143,3177.6,523.2223214285714,320.12857142857143,3284.2,523.2223214285714,320.12857142857143,3384.4,523.2223214285714,320.12857142857143,3484.6,523.2223214285714,320.12857142857143,3587.3,523.2223214285714,320.12857142857143,3693.8,523.2223214285714,320.12857142857143,3798.6,523.2223214285714,320.12857142857143,3904.3,523.2223214285714,320.12857142857143,4004.8,523.2223214285714,320.12857142857143,4105.4,523.2223214285714,320.12857142857143,4207.6,523.2223214285714,320.12857142857143,4309.2,523.2223214285714,320.12857142857143,4412.4,523.2223214285714,320.12857142857143,4513.5,523.2223214285714,320.12857142857143,4620,523.2223214285714,320.12857142857143,4723.8,523.2223214285714,320.12857142857143,4826.2,523.2223214285714,320.12857142857143,4928]","[1498,1498,1000,0,498,""oops"",""right"",""right"",""good_move"",9714.5,8216.1,3319.9,5877.5,517.1,""smooth"",""right"",""right"",""good_move"",12874.2,3158.1,2583.1,9716.1,575,""smooth"",""up"",""up"",""good_move"",16177.5,3302.9,2985.3,12874.6,317.6,""oops"",""up"",""up"",""good_move""]","",""
"2783","","<div style=""width:500px;"">
  <p>What determined the result of this run?</p>
  </div>","99","html-slider-response","84","932028","0.0-10.0-1.8","81","1","2025-07-09 09:07:33","7701e855f2ef39aa3fd6c71abdc6918a","86.144.141.5","Mozilla/5.0 (Windows NT 10.0; Win64; x64) AppleWebKit/537.36 (KHTML, like Gecko) Chrome/138.0.0.0 Safari/537.36 Edg/138.0.0.0","WebKit","Edge","138.0.0.0","Windows","10.0","https://app.prolific.com/","en-US,en;q=0.9,en-GB;q=0.8","676e882e8a97b91ee272efe4","686d226cabeef709c732f8e1","686e312f5a122ab89de5b461","676e882e8a97b91ee272efe4","2025-07-09T09:23:15.324Z","","","","","","AttribQ","","","","","","","","","","","","","","","","","","","","","","","","","","","","","","","","","","","","","","50"
"2655","","<div style=""width:500px;"">
  <p>How much control did you have over the ball?</p>
  </div>","81","html-slider-response","85","934684","0.0-10.0-2.8","81","1","2025-07-09 09:07:33","7701e855f2ef39aa3fd6c71abdc6918a","86.144.141.5","Mozilla/5.0 (Windows NT 10.0; Win64; x64) AppleWebKit/537.36 (KHTML, like Gecko) Chrome/138.0.0.0 Safari/537.36 Edg/138.0.0.0","WebKit","Edge","138.0.0.0","Windows","10.0","https://app.prolific.com/","en-US,en;q=0.9,en-GB;q=0.8","676e882e8a97b91ee272efe4","686d226cabeef709c732f8e1","686e312f5a122ab89de5b461","676e882e8a97b91ee272efe4","2025-07-09T09:23:17.980Z","","","","","","ControlQ","","","","","","","","","","","","","","","","","","","","","","","","","","","","","","","","","","","","","","50"
"2529","","<div style=""width:500px;"">
  <p>How would you describe your current emotional state?</p>
  </div>","43","html-slider-response","86","937214","0.0-10.0-3.8","81","1","2025-07-09 09:07:33","7701e855f2ef39aa3fd6c71abdc6918a","86.144.141.5","Mozilla/5.0 (Windows NT 10.0; Win64; x64) AppleWebKit/537.36 (KHTML, like Gecko) Chrome/138.0.0.0 Safari/537.36 Edg/138.0.0.0","WebKit","Edge","138.0.0.0","Windows","10.0","https://app.prolific.com/","en-US,en;q=0.9,en-GB;q=0.8","676e882e8a97b91ee272efe4","686d226cabeef709c732f8e1","686e312f5a122ab89de5b461","676e882e8a97b91ee272efe4","2025-07-09T09:23:20.511Z","","","","","","StressQ","","","","","","","","","","","","","","","","","","","","","","","","","","","","","","","","","","","","","","50"
"2215","","<div style=""width:500px;"">
  <p>What best describes how you currently feel?</p>
  </div>","59","html-slider-response","87","939431","0.0-10.0-4.8","81","1","2025-07-09 09:07:33","7701e855f2ef39aa3fd6c71abdc6918a","86.144.141.5","Mozilla/5.0 (Windows NT 10.0; Win64; x64) AppleWebKit/537.36 (KHTML, like Gecko) Chrome/138.0.0.0 Safari/537.36 Edg/138.0.0.0","WebKit","Edge","138.0.0.0","Windows","10.0","https://app.prolific.com/","en-US,en;q=0.9,en-GB;q=0.8","676e882e8a97b91ee272efe4","686d226cabeef709c732f8e1","686e312f5a122ab89de5b461","676e882e8a97b91ee272efe4","2025-07-09T09:23:22.728Z","","","","","","MotivationQ","","","","","","","","","","","","","","","","","","","","","","","","","","","","","","","","","","","","","","50"
