"rt","response_timestamp","stimulus","response","trial_type","trial_index","time_elapsed","internal_node_id","run_id","condition","recorded_at","source_code_version","ip","user_agent","device","browser","browser_version","platform","platform_version","referer","accept_language","PROLIFIC_PID","STUDY_ID","SESSION_ID","prolific_id","realtime","view_history","question_order","consent","success","question_id","eventType","responses","item_order","radio_event_ids","radio_event_times","key_event_times","mouse_event_times","straightlining","zigzagging","honeypot","which_type","canvas_config","goals_layout","control_level","trial_number","tutorial_trial_number","trial_start_time","phase1_start_time","phase2_start_time","phase3_start_time","goal_1_value","goal_1_distance","goal_2_value","goal_2_distance","goal_selected","outcome","outcome_total","participant_final_score","participant_initial_score","participant_final_score_prop","goal_choice_rt","allocated_time","allocated_time_remaining","goal_direction","counts","mouse_movements","key_presses","correct","slider_start","sub_question"
"69711","1752052079893","<p style='font-size:40px;line-height:1.25'><strong>Welcome to the experiment!</strong></p><p style='font-size:1.1em;line-height:1.25'>Thank you for your interest in our experiment! Before you begin, it is important that we obtain your informed consent to participate in the study.</p><p style='font-size:1.1em;line-height:1.25'>On the next screen will be an <strong>information sheet</strong> for you to read. To participate in the study we need you to read this information sheet and the following consent form carefully. If you agree with all the statements, please click the <strong>I agree</strong> button.</p><p style='font-size:1.1em;line-height:1.25'>Press <strong>Next</strong> to read the information sheet.</p>","0","custom-html-button-response","0","69714","0.0-0.0","26","1","2025-07-09 09:06:48","7701e855f2ef39aa3fd6c71abdc6918a","196.255.126.247","Mozilla/5.0 (Windows NT 10.0; Win64; x64) AppleWebKit/537.36 (KHTML, like Gecko) Chrome/138.0.0.0 Safari/537.36","WebKit","Chrome","138.0.0.0","Windows","10.0","https://app.prolific.com/","en-US,en;q=0.9","61715a02a3c88f5fb082a424","686d226cabeef709c732f8e1","686e310e04c12dce8e3b6020","61715a02a3c88f5fb082a424","2025-07-09T09:07:59.893Z","","","","","","","","","","","","","","","","","","","","","","","","","","","","","","","","","","","","","","","","","","","","",""
"324145","","","","instructions","1","393861","0.0-1.0","26","1","2025-07-09 09:06:48","7701e855f2ef39aa3fd6c71abdc6918a","196.255.126.247","Mozilla/5.0 (Windows NT 10.0; Win64; x64) AppleWebKit/537.36 (KHTML, like Gecko) Chrome/138.0.0.0 Safari/537.36","WebKit","Chrome","138.0.0.0","Windows","10.0","https://app.prolific.com/","en-US,en;q=0.9","61715a02a3c88f5fb082a424","686d226cabeef709c732f8e1","686e310e04c12dce8e3b6020","61715a02a3c88f5fb082a424","","[{""page_index"":0,""viewing_time"":246111},{""page_index"":1,""viewing_time"":78033}]","","","","","","","","","","","","","","","","","","","","","","","","","","","","","","","","","","","","","","","","","","","",""
"77655","","","{""Q0"":"""",""Q1"":"""",""Q2"":"""",""Q3"":"""",""Q4"":"""",""Q5"":"""",""Q6"":""I agree""}","survey-multi-choice","2","471518","0.0-2.0","26","1","2025-07-09 09:06:48","7701e855f2ef39aa3fd6c71abdc6918a","196.255.126.247","Mozilla/5.0 (Windows NT 10.0; Win64; x64) AppleWebKit/537.36 (KHTML, like Gecko) Chrome/138.0.0.0 Safari/537.36","WebKit","Chrome","138.0.0.0","Windows","10.0","https://app.prolific.com/","en-US,en;q=0.9","61715a02a3c88f5fb082a424","686d226cabeef709c732f8e1","686e310e04c12dce8e3b6020","61715a02a3c88f5fb082a424","","","[0,1,2,3,4,5,6]","true","","","","","","","","","","","","","","","","","","","","","","","","","","","","","","","","","","","","","","","","","",""
"16811","","","","fullscreen","3","489344","0.0-4.0","26","1","2025-07-09 09:06:48","7701e855f2ef39aa3fd6c71abdc6918a","196.255.126.247","Mozilla/5.0 (Windows NT 10.0; Win64; x64) AppleWebKit/537.36 (KHTML, like Gecko) Chrome/138.0.0.0 Safari/537.36","WebKit","Chrome","138.0.0.0","Windows","10.0","https://app.prolific.com/","en-US,en;q=0.9","61715a02a3c88f5fb082a424","686d226cabeef709c732f8e1","686e310e04c12dce8e3b6020","61715a02a3c88f5fb082a424","","","","","true","","","","","","","","","","","","","","","","","","","","","","","","","","","","","","","","","","","","","","","","",""
"12321","1752052511845"," <p style='font-size:1.1em;line-height:1.25'>Thank you for completing the consent form and closing all other tabs.</p><p style='font-size:1.1em;line-height:1.25'>We will now invite you to fill in some demographic information and questionnaires, before starting the game.<br>This will take about 5 minutes.<br></p><p style='font-size:1.1em;line-height:1.25'>Press the <strong>Next</strong> button to continue.</p>","0","custom-html-button-response","4","501667","0.0-5.0","26","1","2025-07-09 09:06:48","7701e855f2ef39aa3fd6c71abdc6918a","196.255.126.247","Mozilla/5.0 (Windows NT 10.0; Win64; x64) AppleWebKit/537.36 (KHTML, like Gecko) Chrome/138.0.0.0 Safari/537.36","WebKit","Chrome","138.0.0.0","Windows","10.0","https://app.prolific.com/","en-US,en;q=0.9","61715a02a3c88f5fb082a424","686d226cabeef709c732f8e1","686e310e04c12dce8e3b6020","61715a02a3c88f5fb082a424","2025-07-09T09:15:11.846Z","","","","","","","","","","","","","","","","","","","","","","","","","","","","","","","","","","","","","","","","","","","","",""
"3374","","","{""age"":""34""}","survey-text","5","505043","0.0-6.0-0.0","26","1","2025-07-09 09:06:48","7701e855f2ef39aa3fd6c71abdc6918a","196.255.126.247","Mozilla/5.0 (Windows NT 10.0; Win64; x64) AppleWebKit/537.36 (KHTML, like Gecko) Chrome/138.0.0.0 Safari/537.36","WebKit","Chrome","138.0.0.0","Windows","10.0","https://app.prolific.com/","en-US,en;q=0.9","61715a02a3c88f5fb082a424","686d226cabeef709c732f8e1","686e310e04c12dce8e3b6020","61715a02a3c88f5fb082a424","","","","","","0","demographics","","","","","","","","","","","","","","","","","","","","","","","","","","","","","","","","","","","","","","",""
"3360","","","{""gender_identity"":""female/woman""}","survey-multi-choice","6","508403","0.0-6.0-1.0","26","1","2025-07-09 09:06:48","7701e855f2ef39aa3fd6c71abdc6918a","196.255.126.247","Mozilla/5.0 (Windows NT 10.0; Win64; x64) AppleWebKit/537.36 (KHTML, like Gecko) Chrome/138.0.0.0 Safari/537.36","WebKit","Chrome","138.0.0.0","Windows","10.0","https://app.prolific.com/","en-US,en;q=0.9","61715a02a3c88f5fb082a424","686d226cabeef709c732f8e1","686e310e04c12dce8e3b6020","61715a02a3c88f5fb082a424","","","[0]","","","1","demographics","","","","","","","","","","","","","","","","","","","","","","","","","","","","","","","","","","","","","","",""
"2904","","","{""assigned_sex"":""female""}","survey-multi-choice","7","511308","0.0-6.0-2.0","26","1","2025-07-09 09:06:48","7701e855f2ef39aa3fd6c71abdc6918a","196.255.126.247","Mozilla/5.0 (Windows NT 10.0; Win64; x64) AppleWebKit/537.36 (KHTML, like Gecko) Chrome/138.0.0.0 Safari/537.36","WebKit","Chrome","138.0.0.0","Windows","10.0","https://app.prolific.com/","en-US,en;q=0.9","61715a02a3c88f5fb082a424","686d226cabeef709c732f8e1","686e310e04c12dce8e3b6020","61715a02a3c88f5fb082a424","","","[0]","","","2","demographics","","","","","","","","","","","","","","","","","","","","","","","","","","","","","","","","","","","","","","",""
"3542","","","{""menstrual_cycle"":""Yes""}","survey-multi-choice","8","514852","0.0-6.0-3.0","26","1","2025-07-09 09:06:48","7701e855f2ef39aa3fd6c71abdc6918a","196.255.126.247","Mozilla/5.0 (Windows NT 10.0; Win64; x64) AppleWebKit/537.36 (KHTML, like Gecko) Chrome/138.0.0.0 Safari/537.36","WebKit","Chrome","138.0.0.0","Windows","10.0","https://app.prolific.com/","en-US,en;q=0.9","61715a02a3c88f5fb082a424","686d226cabeef709c732f8e1","686e310e04c12dce8e3b6020","61715a02a3c88f5fb082a424","","","[0]","","","4","demographics","","","","","","","","","","","","","","","","","","","","","","","","","","","","","","","","","","","","","","",""
"7527","","","{""education"":""Master's Degree (e.g., MSc)""}","survey-multi-choice","9","522379","0.0-6.0-4.0","26","1","2025-07-09 09:06:48","7701e855f2ef39aa3fd6c71abdc6918a","196.255.126.247","Mozilla/5.0 (Windows NT 10.0; Win64; x64) AppleWebKit/537.36 (KHTML, like Gecko) Chrome/138.0.0.0 Safari/537.36","WebKit","Chrome","138.0.0.0","Windows","10.0","https://app.prolific.com/","en-US,en;q=0.9","61715a02a3c88f5fb082a424","686d226cabeef709c732f8e1","686e310e04c12dce8e3b6020","61715a02a3c88f5fb082a424","","","[0]","","","5","demographics","","","","","","","","","","","","","","","","","","","","","","","","","","","","","","","","","","","","","","",""
"28422","","","{""education"":""Bachelor's Degree (e.g., BA)""}","survey-multi-choice","10","550803","0.0-6.0-5.0","26","1","2025-07-09 09:06:48","7701e855f2ef39aa3fd6c71abdc6918a","196.255.126.247","Mozilla/5.0 (Windows NT 10.0; Win64; x64) AppleWebKit/537.36 (KHTML, like Gecko) Chrome/138.0.0.0 Safari/537.36","WebKit","Chrome","138.0.0.0","Windows","10.0","https://app.prolific.com/","en-US,en;q=0.9","61715a02a3c88f5fb082a424","686d226cabeef709c732f8e1","686e310e04c12dce8e3b6020","61715a02a3c88f5fb082a424","2025-07-09T09:16:00.982Z","","[0]","","","6","demographics","","","","","","","","","","","","","","","","","","","","","","","","","","","","","","","","","","","","","","",""
"83206","","","{""mental_health_condition"":""Depression and Anxiety"",""mental_health_treatment"":""No"",""psychiatric_medication"":""Sederp 50mg Once daily""}","survey-text","11","634015","0.0-7.0-0.0","26","1","2025-07-09 09:06:48","7701e855f2ef39aa3fd6c71abdc6918a","196.255.126.247","Mozilla/5.0 (Windows NT 10.0; Win64; x64) AppleWebKit/537.36 (KHTML, like Gecko) Chrome/138.0.0.0 Safari/537.36","WebKit","Chrome","138.0.0.0","Windows","10.0","https://app.prolific.com/","en-US,en;q=0.9","61715a02a3c88f5fb082a424","686d226cabeef709c732f8e1","686e310e04c12dce8e3b6020","61715a02a3c88f5fb082a424","2025-07-09T09:17:24.194Z","","","","","1","mental_health","","","","","","","","","","","","","","","","","","","","","","","","","","","","","","","","","","","","","","",""
"7942","","","{""depression_history"":[""Yes""]}","survey-multi-select","12","641959","0.0-7.0-1.0","26","1","2025-07-09 09:06:48","7701e855f2ef39aa3fd6c71abdc6918a","196.255.126.247","Mozilla/5.0 (Windows NT 10.0; Win64; x64) AppleWebKit/537.36 (KHTML, like Gecko) Chrome/138.0.0.0 Safari/537.36","WebKit","Chrome","138.0.0.0","Windows","10.0","https://app.prolific.com/","en-US,en;q=0.9","61715a02a3c88f5fb082a424","686d226cabeef709c732f8e1","686e310e04c12dce8e3b6020","61715a02a3c88f5fb082a424","","","[0]","","","","mental_health","","","","","","","","","","","","","","","","","","","","","","","","","","","","","","","","","","","","","","",""
"9295","","","{""depression_episodes"":""1-2"",""depression_recent"":""More than 1 year ago""}","survey-multi-choice","13","651255","0.0-7.0-2.0-0.0","26","1","2025-07-09 09:06:48","7701e855f2ef39aa3fd6c71abdc6918a","196.255.126.247","Mozilla/5.0 (Windows NT 10.0; Win64; x64) AppleWebKit/537.36 (KHTML, like Gecko) Chrome/138.0.0.0 Safari/537.36","WebKit","Chrome","138.0.0.0","Windows","10.0","https://app.prolific.com/","en-US,en;q=0.9","61715a02a3c88f5fb082a424","686d226cabeef709c732f8e1","686e310e04c12dce8e3b6020","61715a02a3c88f5fb082a424","2025-07-09T09:17:41.434Z","","[0,1]","","","3","mental_health","","","","","","","","","","","","","","","","","","","","","","","","","","","","","","","","","","","","","","",""
"89367.29999995232","","","","survey-template","14","740628","0.0-7.0-3.0","26","1","2025-07-09 09:06:48","7701e855f2ef39aa3fd6c71abdc6918a","196.255.126.247","Mozilla/5.0 (Windows NT 10.0; Win64; x64) AppleWebKit/537.36 (KHTML, like Gecko) Chrome/138.0.0.0 Safari/537.36","WebKit","Chrome","138.0.0.0","Windows","10.0","https://app.prolific.com/","en-US,en;q=0.9","61715a02a3c88f5fb082a424","686d226cabeef709c732f8e1","686e310e04c12dce8e3b6020","61715a02a3c88f5fb082a424","2025-07-09T09:19:10.807Z","","","","","","ius","{""Q01"":""2"",""Q02"":""3"",""Q03"":""2"",""Q04"":""3"",""Q05"":""3"",""Q06"":""1"",""Q07"":""1"",""Q08"":""0"",""Q09"":""3"",""Q10"":""1"",""Q11"":""4"",""Q12"":""3"",""Q13"":""3""}","[0,1,2,3,4,5,6,7,8,9,10,11,12]","[""Q01"",""Q02"",""Q03"",""Q03"",""Q04"",""Q04"",""Q05"",""Q05"",""Q06"",""Q07"",""Q08"",""Q09"",""Q10"",""Q11"",""Q12"",""Q13""]","[12141.199999928474,18150.399999976158,23553.599999904633,25301.599999904633,31598.099999904633,32834.699999928474,38869.699999928474,40710.59999990463,50199.59999990463,55081.5,59878,66774.09999990463,71694.89999997616,76530.59999990463,81563.19999992847,86906.59999990463]","[]","[12141.199999928474,18150.399999976158,23553.599999904633,24200.599999904633,24790.399999976158,25301.599999904633,31598.099999904633,32834.699999928474,38446,38869.699999928474,40158.299999952316,40710.59999990463,49574.5,50199.59999990463,54581.89999997616,55081.5,59878,66774.09999990463,71694.89999997616,76530.59999990463,80791.89999997616,81214.5,81563.19999992847,86906.59999990463,89366.39999997616]","0.46153846153846156","0.4166666666666667","0","","","","","","","","","","","","","","","","","","","","","","","","","","","","","",""
"10021","1752052760831","<p style='font-size:1.1em;line-height:1.25'>In the following, we will ask you a few questions relating to your experiences over the past month.<br></p><p style='font-size:1.1em;line-height:1.25'>Press the <strong>Next</strong> button to continue.</p>","0","custom-html-button-response","15","750652","0.0-7.0-4.0","26","1","2025-07-09 09:06:48","7701e855f2ef39aa3fd6c71abdc6918a","196.255.126.247","Mozilla/5.0 (Windows NT 10.0; Win64; x64) AppleWebKit/537.36 (KHTML, like Gecko) Chrome/138.0.0.0 Safari/537.36","WebKit","Chrome","138.0.0.0","Windows","10.0","https://app.prolific.com/","en-US,en;q=0.9","61715a02a3c88f5fb082a424","686d226cabeef709c732f8e1","686e310e04c12dce8e3b6020","61715a02a3c88f5fb082a424","2025-07-09T09:19:20.831Z","","","","","","","","","","","","","","","","","","","","","","","","","","","","","","","","","","","","","","","","","","","","",""
"166663.59999990463","","","","survey-template","16","917320","0.0-7.0-5.0","26","1","2025-07-09 09:06:48","7701e855f2ef39aa3fd6c71abdc6918a","196.255.126.247","Mozilla/5.0 (Windows NT 10.0; Win64; x64) AppleWebKit/537.36 (KHTML, like Gecko) Chrome/138.0.0.0 Safari/537.36","WebKit","Chrome","138.0.0.0","Windows","10.0","https://app.prolific.com/","en-US,en;q=0.9","61715a02a3c88f5fb082a424","686d226cabeef709c732f8e1","686e310e04c12dce8e3b6020","61715a02a3c88f5fb082a424","2025-07-09T09:22:07.499Z","","","","","","pss","{""Q01"":""2"",""Q02"":""2"",""Q03"":""1"",""Q04"":""0"",""Q05"":""1"",""Q06"":""1"",""Q07"":""0"",""Q08"":""1"",""Q09"":""2"",""Q10"":""1""}","[0,1,2,3,4,5,6,7,8,9]","[""Q01"",""Q01"",""Q02"",""Q03"",""Q03"",""Q04"",""Q04"",""Q05"",""Q06"",""Q07"",""Q08"",""Q09"",""Q09"",""Q10""]","[46198.5,49486.39999997616,57124.09999990463,62071,66030.79999995232,71919.09999990463,75582.59999990463,81270.79999995232,122350.5,127179.89999997616,143357,150510.59999990463,156648.19999992847,165214.59999990463]","[]","[0,46198.5,49486.39999997616,57124.09999990463,62071,66030.79999995232,71919.09999990463,75582.59999990463,81270.79999995232,122350.5,127179.89999997616,143357,150510.59999990463,155582.69999992847,156648.19999992847,165214.59999990463,166662.79999995232]","0.3","0.5555555555555556","0","","","","","","","","","","","","","","","","","","","","","","","","","","","","","",""
"8510","1752052936009","<p style='font-size:1.1em;line-height:1.25'>Thank you for your answers! Now we will ask you a few more questions relating to your feelings in the last 24 hours.<br></p><p style='font-size:1.1em;line-height:1.25'>Press the <strong>Next</strong> button to continue.</p>","0","custom-html-button-response","17","925830","0.0-7.0-6.0","26","1","2025-07-09 09:06:48","7701e855f2ef39aa3fd6c71abdc6918a","196.255.126.247","Mozilla/5.0 (Windows NT 10.0; Win64; x64) AppleWebKit/537.36 (KHTML, like Gecko) Chrome/138.0.0.0 Safari/537.36","WebKit","Chrome","138.0.0.0","Windows","10.0","https://app.prolific.com/","en-US,en;q=0.9","61715a02a3c88f5fb082a424","686d226cabeef709c732f8e1","686e310e04c12dce8e3b6020","61715a02a3c88f5fb082a424","2025-07-09T09:22:16.010Z","","","","","","","","","","","","","","","","","","","","","","","","","","","","","","","","","","","","","","","","","","","","",""
"102859.60000002384","","","","survey-template","18","1028694","0.0-7.0-7.0","26","1","2025-07-09 09:06:48","7701e855f2ef39aa3fd6c71abdc6918a","196.255.126.247","Mozilla/5.0 (Windows NT 10.0; Win64; x64) AppleWebKit/537.36 (KHTML, like Gecko) Chrome/138.0.0.0 Safari/537.36","WebKit","Chrome","138.0.0.0","Windows","10.0","https://app.prolific.com/","en-US,en;q=0.9","61715a02a3c88f5fb082a424","686d226cabeef709c732f8e1","686e310e04c12dce8e3b6020","61715a02a3c88f5fb082a424","2025-07-09T09:23:58.873Z","","","","","","drsp","{""Q01"":""0"",""Q02"":""0"",""Q03"":""0"",""Q04"":""1"",""Q05"":""2"",""Q06"":""1"",""Q07"":""2"",""Q08"":""0"",""Q09"":""1"",""Q10"":""1"",""Q11"":""2"",""Q12"":""0"",""Q13"":""1"",""Q14"":""0"",""Q15"":""0"",""Q16"":""0"",""Q17"":""0"",""Q18"":""2"",""Q19"":""0"",""Q20"":""0"",""Q21"":""0""}","[0,1,2,3,4,5,6,7,8,9,10,11,12,13,14,15,16,17,18,19,20]","[""Q01"",""Q02"",""Q03"",""Q02"",""Q04"",""Q05"",""Q06"",""Q07"",""Q08"",""Q09"",""Q09"",""Q10"",""Q11"",""Q12"",""Q13"",""Q14"",""Q15"",""Q16"",""Q17"",""Q18"",""Q19"",""Q20"",""Q21""]","[22150.300000071526,24093,26565.300000071526,30617.700000047684,33173.200000047684,35707.10000002384,39711,43763.60000002384,47213.5,49685.5,51722.89999997616,55308.5,62692,65412.300000071526,68365.70000004768,71649.20000004768,74500.80000007153,77770.20000004768,80390.39999997616,86064.10000002384,93052.70000004768,96943.5,101615.20000004768]","[]","[0,22150.300000071526,24093,26565.300000071526,30617.700000047684,33173.200000047684,35707.10000002384,39711,43763.60000002384,46685.300000071526,47213.5,49685.5,51722.89999997616,55308.5,62692,65412.300000071526,68365.70000004768,71649.20000004768,74500.80000007153,77317.10000002384,77770.20000004768,80390.39999997616,86064.10000002384,93052.70000004768,96943.5,101615.20000004768,102856.70000004768]","0.5714285714285714","0.4","0","","","","","","","","","","","","","","","","","","","","","","","","","","","","","",""
"18070.800000071526","","","","survey-template","19","1046767","0.0-7.0-8.0","26","1","2025-07-09 09:06:48","7701e855f2ef39aa3fd6c71abdc6918a","196.255.126.247","Mozilla/5.0 (Windows NT 10.0; Win64; x64) AppleWebKit/537.36 (KHTML, like Gecko) Chrome/138.0.0.0 Safari/537.36","WebKit","Chrome","138.0.0.0","Windows","10.0","https://app.prolific.com/","en-US,en;q=0.9","61715a02a3c88f5fb082a424","686d226cabeef709c732f8e1","686e310e04c12dce8e3b6020","61715a02a3c88f5fb082a424","2025-07-09T09:24:16.946Z","","","","","","stress","{""Q01"":""1"",""Q02"":""1"",""Q03"":""1""}","[0,1,2]","[""Q01"",""Q02"",""Q03""]","[2734.9000000953674,8222.5,16664.800000071526]","[]","[2734.9000000953674,8222.5,16664.800000071526,18070.400000095367]","0.6666666666666666","0","0","","","","","","","","","","","","","","","","","","","","","","","","","","","","","",""
"244751","","","","instructions","20","1291519","0.0-8.0-0.0","26","1","2025-07-09 09:06:48","7701e855f2ef39aa3fd6c71abdc6918a","196.255.126.247","Mozilla/5.0 (Windows NT 10.0; Win64; x64) AppleWebKit/537.36 (KHTML, like Gecko) Chrome/138.0.0.0 Safari/537.36","WebKit","Chrome","138.0.0.0","Windows","10.0","https://app.prolific.com/","en-US,en;q=0.9","61715a02a3c88f5fb082a424","686d226cabeef709c732f8e1","686e310e04c12dce8e3b6020","61715a02a3c88f5fb082a424","","[{""page_index"":0,""viewing_time"":107471},{""page_index"":1,""viewing_time"":51953},{""page_index"":2,""viewing_time"":37908},{""page_index"":3,""viewing_time"":47420}]","","","","","","","","","","","","","","","","","","","","","","","","","","","","","","","","","","","","","","","","","","","",""
"","","","","ctl-task-cpt","21","1322136","0.0-8.0-1.0","26","1","2025-07-09 09:06:48","7701e855f2ef39aa3fd6c71abdc6918a","196.255.126.247","Mozilla/5.0 (Windows NT 10.0; Win64; x64) AppleWebKit/537.36 (KHTML, like Gecko) Chrome/138.0.0.0 Safari/537.36","WebKit","Chrome","138.0.0.0","Windows","10.0","https://app.prolific.com/","en-US,en;q=0.9","61715a02a3c88f5fb082a424","686d226cabeef709c732f8e1","686e310e04c12dce8e3b6020","61715a02a3c88f5fb082a424","","","","","","","","","","","","","","","","","win-only","0","g1:NW,g2:SE","1","0","1","1293944.6","3801.2","7802.5","27606.2","2","4","4","6","1","2","0","0","0","0","2693.4","4000","1350","[""left"",""up""]","{""num_key_presses"":10,""num_perfect"":4,""num_errors"":2,""num_randdir"":0,""num_randdir_good_moves"":0,""num_whilered"":4,""num_whileblue"":0,""num_blue"":1,""num_good_moves"":4}","[418.07142857142856,413.1808016640799,0.4,418.07142857142856,413.1808016640799,101.7,418.07142857142856,413.1808016640799,204.7,418.07142857142856,413.1808016640799,304.9,418.07142857142856,413.1808016640799,405.3,418.07142857142856,413.1808016640799,510.3,418.07142857142856,413.1808016640799,615.7,418.07142857142856,413.1808016640799,719.9,418.07142857142856,413.1808016640799,825.5,418.07142857142856,413.1808016640799,930.3,418.07142857142856,413.1808016640799,1034.8,416.57142857142856,413.1808016640799,1139.4,416.57142857142856,413.1808016640799,1240.5,410.57142857142856,410.1808016640799,1344.4,371.57142857142856,384.6808016640799,1449.7,358.07142857142856,371.1808016640799,1549.8,341.57142857142856,357.6808016640799,1654.5,341.57142857142856,357.6808016640799,1754.9,341.57142857142856,357.6808016640799,1854.9,341.57142857142856,357.6808016640799,1955,341.57142857142856,357.6808016640799,2060.3,341.57142857142856,357.6808016640799,2164.4,341.57142857142856,357.6808016640799,2269.4,287.57142857142856,317.1808016640799,2369.5,67.07142857142857,120.68080166407994,2470.2,62.57142857142857,104.18080166407994,2575.2,65.57142857142857,74.18080166407994,2679.5,65.57142857142857,74.18080166407994,2779.5,65.57142857142857,74.18080166407994,2879.9,242.57142857142856,309.6808016640799,2979.9,377.57142857142856,476.1808016640799,3080,428.57142857142856,534.6808016640799,3180.7,440.57142857142856,548.1808016640799,3284.7,440.57142857142856,548.1808016640799,3385,440.57142857142856,548.1808016640799,3485,440.57142857142856,548.1808016640799,3589.8,440.57142857142856,548.1808016640799,3694.5,440.57142857142856,548.1808016640799,3795.5,440.57142857142856,548.1808016640799,3899.8]","[101.6,101.6,1000,0,-898.4,""error"",""-"",""-"",""no_move"",248.8,147.2,1000,0,-751.2,""while_red"",""-"",""-"",""no_move"",411.1,309.5,1000,0,-588.9,""while_red"",""-"",""-"",""no_move"",8310.7,8209.1,2635.1,5148.9,526.7,""smooth"",""left"",""left"",""good_move"",8587.1,276,2645.3,8311.1,-2369.3,""error"",""-"",""-"",""no_move"",8772.4,185.1,2645.3,8311.1,-2184,""while_red"",""-"",""-"",""no_move"",9064.5,477.2,2645.3,8311.1,-1891.9,""while_red"",""-"",""-"",""no_move"",13264.4,4677.1,2578.1,9589.1,1097.2,""smooth"",""up"",""up"",""good_move"",16912.8,3647.6,3140.9,13265.2,506.7,""smooth"",""left"",""left"",""good_move"",19712.7,2799.5,2125,16913.3,674.4,""smooth"",""up"",""up"",""good_move""]","","",""
"30103","","","","instructions","22","1352238","0.0-8.0-2.0","26","1","2025-07-09 09:06:48","7701e855f2ef39aa3fd6c71abdc6918a","196.255.126.247","Mozilla/5.0 (Windows NT 10.0; Win64; x64) AppleWebKit/537.36 (KHTML, like Gecko) Chrome/138.0.0.0 Safari/537.36","WebKit","Chrome","138.0.0.0","Windows","10.0","https://app.prolific.com/","en-US,en;q=0.9","61715a02a3c88f5fb082a424","686d226cabeef709c732f8e1","686e310e04c12dce8e3b6020","61715a02a3c88f5fb082a424","","[{""page_index"":0,""viewing_time"":30102}]","","","","","","","","","","","","","","","","","","","","","","","","","","","","","","","","","","","","","","","","","","","",""
"","","","","ctl-task-cpt","23","1389207","0.0-8.0-3.0","26","1","2025-07-09 09:06:48","7701e855f2ef39aa3fd6c71abdc6918a","196.255.126.247","Mozilla/5.0 (Windows NT 10.0; Win64; x64) AppleWebKit/537.36 (KHTML, like Gecko) Chrome/138.0.0.0 Safari/537.36","WebKit","Chrome","138.0.0.0","Windows","10.0","https://app.prolific.com/","en-US,en;q=0.9","61715a02a3c88f5fb082a424","686d226cabeef709c732f8e1","686e310e04c12dce8e3b6020","61715a02a3c88f5fb082a424","","","","","","","","","","","","","","","","","win-only","0","g1:NW,g2:SE","0.35","0","3","1354664","1393.7","5397.1","33965.8","2","4","8","6","2","-8","-9","0","0","0","4003.4","4000","-3000","[""down"",""right""]","{""num_key_presses"":7,""num_perfect"":3,""num_errors"":1,""num_randdir"":3,""num_randdir_good_moves"":0,""num_whilered"":0,""num_whileblue"":0,""num_blue"":2,""num_good_moves"":3}","[410.57142857142856,404.1808016640799,0.4,410.57142857142856,404.1808016640799,102.8,409.07142857142856,404.1808016640799,203,409.07142857142856,404.1808016640799,307.5,409.07142857142856,404.1808016640799,412,409.07142857142856,404.1808016640799,513.4,409.07142857142856,404.1808016640799,617.3,409.07142857142856,404.1808016640799,722.6,409.07142857142856,404.1808016640799,826.9,409.07142857142856,404.1808016640799,926.9,409.07142857142856,404.1808016640799,1031.6,409.07142857142856,404.1808016640799,1132.8,409.07142857142856,404.1808016640799,1237.5,409.07142857142856,404.1808016640799,1341.9,409.07142857142856,404.1808016640799,1443.5,409.07142857142856,404.1808016640799,1547.1,409.07142857142856,404.1808016640799,1647.5,409.07142857142856,404.1808016640799,1752,409.07142857142856,404.1808016640799,1857.1,409.07142857142856,404.1808016640799,1958,409.07142857142856,404.1808016640799,2063.8,409.07142857142856,404.1808016640799,2166.6,409.07142857142856,404.1808016640799,2266.6,409.07142857142856,404.1808016640799,2368.8,409.07142857142856,404.1808016640799,2472.3,409.07142857142856,404.1808016640799,2577.3,409.07142857142856,404.1808016640799,2677.4,409.07142857142856,404.1808016640799,2782.5,409.07142857142856,404.1808016640799,2886.6,409.07142857142856,404.1808016640799,2988.5,409.07142857142856,404.1808016640799,3091.9,409.07142857142856,404.1808016640799,3192.3,409.07142857142856,404.1808016640799,3296.8,409.07142857142856,404.1808016640799,3397.5,409.07142857142856,404.1808016640799,3497.9,409.07142857142856,404.1808016640799,3603,409.07142857142856,404.1808016640799,3703.6,409.07142857142856,404.1808016640799,3806.7,409.07142857142856,404.1808016640799,3906.8]","[2164.7,2164.7,1000,0,1164.7,""oops"",""right"",""left"",""bad_move"",5051.8,2886.4,2304.4,2165.4,582,""smooth"",""down"",""down"",""good_move"",5398.6,346.5,2707.3,5052.2,-2360.8,""error"",""-"",""-"",""no_move"",9166.5,3767.6,2223.4,6400.2,542.9,""smooth"",""right"",""right"",""good_move"",15802.1,6634.8,2488.3,12843.3,470.6,""oops"",""down"",""up"",""bad_move"",19185,3382.7,2525.7,15802.3,857,""smooth"",""down"",""down"",""good_move"",26384.7,7199.6,2938,23025.2,421.5,""oops"",""right"",""left"",""bad_move""]","","",""
"53473","","","","instructions","24","1442680","0.0-8.0-4.0","26","1","2025-07-09 09:06:48","7701e855f2ef39aa3fd6c71abdc6918a","196.255.126.247","Mozilla/5.0 (Windows NT 10.0; Win64; x64) AppleWebKit/537.36 (KHTML, like Gecko) Chrome/138.0.0.0 Safari/537.36","WebKit","Chrome","138.0.0.0","Windows","10.0","https://app.prolific.com/","en-US,en;q=0.9","61715a02a3c88f5fb082a424","686d226cabeef709c732f8e1","686e310e04c12dce8e3b6020","61715a02a3c88f5fb082a424","","[{""page_index"":0,""viewing_time"":18889},{""page_index"":1,""viewing_time"":34584}]","","","","","","","","","","","","","","","","","","","","","","","","","","","","","","","","","","","","","","","","","","","",""
"9203","","","{""green_ball"":[""Ball always moves in the direction I press""]}","survey-multi-select","25","1451887","0.0-8.0-5.0-0.0","26","1","2025-07-09 09:06:48","7701e855f2ef39aa3fd6c71abdc6918a","196.255.126.247","Mozilla/5.0 (Windows NT 10.0; Win64; x64) AppleWebKit/537.36 (KHTML, like Gecko) Chrome/138.0.0.0 Safari/537.36","WebKit","Chrome","138.0.0.0","Windows","10.0","https://app.prolific.com/","en-US,en;q=0.9","61715a02a3c88f5fb082a424","686d226cabeef709c732f8e1","686e310e04c12dce8e3b6020","61715a02a3c88f5fb082a424","","","[0]","","","","quiz","","","","","","","","","","","","","","","","","","","","","","","","","","","","","","","","","","","","","false","",""
"6775","","<p align='center'><b>INCORRECT.</b> Usually the green ball moves in the indicated direction, but sometimes it shakes and moves randomly. </p>","0","html-button-response","26","1458663","0.0-8.0-5.0-1.0","26","1","2025-07-09 09:06:48","7701e855f2ef39aa3fd6c71abdc6918a","196.255.126.247","Mozilla/5.0 (Windows NT 10.0; Win64; x64) AppleWebKit/537.36 (KHTML, like Gecko) Chrome/138.0.0.0 Safari/537.36","WebKit","Chrome","138.0.0.0","Windows","10.0","https://app.prolific.com/","en-US,en;q=0.9","61715a02a3c88f5fb082a424","686d226cabeef709c732f8e1","686e310e04c12dce8e3b6020","61715a02a3c88f5fb082a424","","","","","","","","","","","","","","","","","","","","","","","","","","","","","","","","","","","","","","","","","","","","","",""
"24758","","","{""green_ball"":[""Ball always moves in the direction I press""]}","survey-multi-select","27","1483423","0.0-8.0-5.1-0.1","26","1","2025-07-09 09:06:48","7701e855f2ef39aa3fd6c71abdc6918a","196.255.126.247","Mozilla/5.0 (Windows NT 10.0; Win64; x64) AppleWebKit/537.36 (KHTML, like Gecko) Chrome/138.0.0.0 Safari/537.36","WebKit","Chrome","138.0.0.0","Windows","10.0","https://app.prolific.com/","en-US,en;q=0.9","61715a02a3c88f5fb082a424","686d226cabeef709c732f8e1","686e310e04c12dce8e3b6020","61715a02a3c88f5fb082a424","","","[0]","","","","quiz","","","","","","","","","","","","","","","","","","","","","","","","","","","","","","","","","","","","","false","",""
"5231","","<p align='center'><b>INCORRECT.</b> Usually the green ball moves in the indicated direction, but sometimes it shakes and moves randomly. </p>","0","html-button-response","28","1488655","0.0-8.0-5.1-1.1","26","1","2025-07-09 09:06:48","7701e855f2ef39aa3fd6c71abdc6918a","196.255.126.247","Mozilla/5.0 (Windows NT 10.0; Win64; x64) AppleWebKit/537.36 (KHTML, like Gecko) Chrome/138.0.0.0 Safari/537.36","WebKit","Chrome","138.0.0.0","Windows","10.0","https://app.prolific.com/","en-US,en;q=0.9","61715a02a3c88f5fb082a424","686d226cabeef709c732f8e1","686e310e04c12dce8e3b6020","61715a02a3c88f5fb082a424","","","","","","","","","","","","","","","","","","","","","","","","","","","","","","","","","","","","","","","","","","","","","",""
"2791","","","{""green_ball"":[""Ball sometimes shakes and moves in a random direction""]}","survey-multi-select","29","1491446","0.0-8.0-5.2-0.2","26","1","2025-07-09 09:06:48","7701e855f2ef39aa3fd6c71abdc6918a","196.255.126.247","Mozilla/5.0 (Windows NT 10.0; Win64; x64) AppleWebKit/537.36 (KHTML, like Gecko) Chrome/138.0.0.0 Safari/537.36","WebKit","Chrome","138.0.0.0","Windows","10.0","https://app.prolific.com/","en-US,en;q=0.9","61715a02a3c88f5fb082a424","686d226cabeef709c732f8e1","686e310e04c12dce8e3b6020","61715a02a3c88f5fb082a424","","","[0]","","","","quiz","","","","","","","","","","","","","","","","","","","","","","","","","","","","","","","","","","","","","true","",""
"5423","","<p align='center'><b>CORRECT!</b> Indeed, the green ball may sometimes shake and move in a random direction.</p>","0","html-button-response","30","1496870","0.0-8.0-5.2-1.2","26","1","2025-07-09 09:06:48","7701e855f2ef39aa3fd6c71abdc6918a","196.255.126.247","Mozilla/5.0 (Windows NT 10.0; Win64; x64) AppleWebKit/537.36 (KHTML, like Gecko) Chrome/138.0.0.0 Safari/537.36","WebKit","Chrome","138.0.0.0","Windows","10.0","https://app.prolific.com/","en-US,en;q=0.9","61715a02a3c88f5fb082a424","686d226cabeef709c732f8e1","686e310e04c12dce8e3b6020","61715a02a3c88f5fb082a424","","","","","","","","","","","","","","","","","","","","","","","","","","","","","","","","","","","","","","","","","","","","","",""
"12111","","","{""yellow_ball"":[""Ball doesn‘t move and I get -1 penalty point""]}","survey-multi-select","31","1508983","0.0-8.0-6.0-0.0","26","1","2025-07-09 09:06:48","7701e855f2ef39aa3fd6c71abdc6918a","196.255.126.247","Mozilla/5.0 (Windows NT 10.0; Win64; x64) AppleWebKit/537.36 (KHTML, like Gecko) Chrome/138.0.0.0 Safari/537.36","WebKit","Chrome","138.0.0.0","Windows","10.0","https://app.prolific.com/","en-US,en;q=0.9","61715a02a3c88f5fb082a424","686d226cabeef709c732f8e1","686e310e04c12dce8e3b6020","61715a02a3c88f5fb082a424","","","[0]","","","","quiz","","","","","","","","","","","","","","","","","","","","","","","","","","","","","","","","","","","","","true","",""
"2664","","<p align='center'><b>CORRECT!</b> Indeed, the yellow ball never moves and you receive a penalty.</p>","0","html-button-response","32","1511648","0.0-8.0-6.0-1.0","26","1","2025-07-09 09:06:48","7701e855f2ef39aa3fd6c71abdc6918a","196.255.126.247","Mozilla/5.0 (Windows NT 10.0; Win64; x64) AppleWebKit/537.36 (KHTML, like Gecko) Chrome/138.0.0.0 Safari/537.36","WebKit","Chrome","138.0.0.0","Windows","10.0","https://app.prolific.com/","en-US,en;q=0.9","61715a02a3c88f5fb082a424","686d226cabeef709c732f8e1","686e310e04c12dce8e3b6020","61715a02a3c88f5fb082a424","","","","","","","","","","","","","","","","","","","","","","","","","","","","","","","","","","","","","","","","","","","","","",""
"9462","","","{""blue_ball"":[""Ball doesn‘t move and I get -1 penalty point""]}","survey-multi-select","33","1521111","0.0-8.0-7.0-0.0","26","1","2025-07-09 09:06:48","7701e855f2ef39aa3fd6c71abdc6918a","196.255.126.247","Mozilla/5.0 (Windows NT 10.0; Win64; x64) AppleWebKit/537.36 (KHTML, like Gecko) Chrome/138.0.0.0 Safari/537.36","WebKit","Chrome","138.0.0.0","Windows","10.0","https://app.prolific.com/","en-US,en;q=0.9","61715a02a3c88f5fb082a424","686d226cabeef709c732f8e1","686e310e04c12dce8e3b6020","61715a02a3c88f5fb082a424","","","[0]","","","","quiz","","","","","","","","","","","","","","","","","","","","","","","","","","","","","","","","","","","","","false","",""
"3927","","<p align='center'><b>INCORRECT.</b> The blue ball always shakes and moves randomly.</p>","0","html-button-response","34","1525039","0.0-8.0-7.0-1.0","26","1","2025-07-09 09:06:48","7701e855f2ef39aa3fd6c71abdc6918a","196.255.126.247","Mozilla/5.0 (Windows NT 10.0; Win64; x64) AppleWebKit/537.36 (KHTML, like Gecko) Chrome/138.0.0.0 Safari/537.36","WebKit","Chrome","138.0.0.0","Windows","10.0","https://app.prolific.com/","en-US,en;q=0.9","61715a02a3c88f5fb082a424","686d226cabeef709c732f8e1","686e310e04c12dce8e3b6020","61715a02a3c88f5fb082a424","","","","","","","","","","","","","","","","","","","","","","","","","","","","","","","","","","","","","","","","","","","","","",""
"4694","","","{""blue_ball"":[""Ball always shakes and moves in a random direction""]}","survey-multi-select","35","1529735","0.0-8.0-7.1-0.1","26","1","2025-07-09 09:06:48","7701e855f2ef39aa3fd6c71abdc6918a","196.255.126.247","Mozilla/5.0 (Windows NT 10.0; Win64; x64) AppleWebKit/537.36 (KHTML, like Gecko) Chrome/138.0.0.0 Safari/537.36","WebKit","Chrome","138.0.0.0","Windows","10.0","https://app.prolific.com/","en-US,en;q=0.9","61715a02a3c88f5fb082a424","686d226cabeef709c732f8e1","686e310e04c12dce8e3b6020","61715a02a3c88f5fb082a424","","","[0]","","","","quiz","","","","","","","","","","","","","","","","","","","","","","","","","","","","","","","","","","","","","true","",""
"4022","","<p align='center'><b>CORRECT!</b> Indeed, the blue ball always shakes and moves in a random direction. Also there is a penalty of -1 point.</p>","0","html-button-response","36","1533758","0.0-8.0-7.1-1.1","26","1","2025-07-09 09:06:48","7701e855f2ef39aa3fd6c71abdc6918a","196.255.126.247","Mozilla/5.0 (Windows NT 10.0; Win64; x64) AppleWebKit/537.36 (KHTML, like Gecko) Chrome/138.0.0.0 Safari/537.36","WebKit","Chrome","138.0.0.0","Windows","10.0","https://app.prolific.com/","en-US,en;q=0.9","61715a02a3c88f5fb082a424","686d226cabeef709c732f8e1","686e310e04c12dce8e3b6020","61715a02a3c88f5fb082a424","","","","","","","","","","","","","","","","","","","","","","","","","","","","","","","","","","","","","","","","","","","","","",""
"6295","","","{""bonus"":[""When I reach 50% of points""]}","survey-multi-select","37","1540054","0.0-8.0-8.0-0.0","26","1","2025-07-09 09:06:48","7701e855f2ef39aa3fd6c71abdc6918a","196.255.126.247","Mozilla/5.0 (Windows NT 10.0; Win64; x64) AppleWebKit/537.36 (KHTML, like Gecko) Chrome/138.0.0.0 Safari/537.36","WebKit","Chrome","138.0.0.0","Windows","10.0","https://app.prolific.com/","en-US,en;q=0.9","61715a02a3c88f5fb082a424","686d226cabeef709c732f8e1","686e310e04c12dce8e3b6020","61715a02a3c88f5fb082a424","","","[0]","","","","quiz","","","","","","","","","","","","","","","","","","","","","","","","","","","","","","","","","","","","","true","",""
"4063","","<p align='center'><b>CORRECT!</b> Indeed, you receive 2 pounds extra when you reach 50% of points.</p>","0","html-button-response","38","1544119","0.0-8.0-8.0-1.0","26","1","2025-07-09 09:06:48","7701e855f2ef39aa3fd6c71abdc6918a","196.255.126.247","Mozilla/5.0 (Windows NT 10.0; Win64; x64) AppleWebKit/537.36 (KHTML, like Gecko) Chrome/138.0.0.0 Safari/537.36","WebKit","Chrome","138.0.0.0","Windows","10.0","https://app.prolific.com/","en-US,en;q=0.9","61715a02a3c88f5fb082a424","686d226cabeef709c732f8e1","686e310e04c12dce8e3b6020","61715a02a3c88f5fb082a424","","","","","","","","","","","","","","","","","","","","","","","","","","","","","","","","","","","","","","","","","","","","","",""
"3776","","","","instructions","39","1547895","0.0-8.0-9.0","26","1","2025-07-09 09:06:48","7701e855f2ef39aa3fd6c71abdc6918a","196.255.126.247","Mozilla/5.0 (Windows NT 10.0; Win64; x64) AppleWebKit/537.36 (KHTML, like Gecko) Chrome/138.0.0.0 Safari/537.36","WebKit","Chrome","138.0.0.0","Windows","10.0","https://app.prolific.com/","en-US,en;q=0.9","61715a02a3c88f5fb082a424","686d226cabeef709c732f8e1","686e310e04c12dce8e3b6020","61715a02a3c88f5fb082a424","","[{""page_index"":0,""viewing_time"":3776}]","","","","","","","","","","","","","","","","","","","","","","","","","","","","","","","","","","","","","","","","","","","",""
"25111","","<p>Before you start with this game please answer the following three questions yourself. </p>
  <p>Through this game, we measure several aspects of your cognitive performance, such as reaction times, multi-tasking capabilities </p>
  <p>and the ability to assess the situation you are in.</p>
  <p></p>
  <p><b>How good do you usually are in such tasks?</b></p>","86","html-slider-response","40","1573007","0.0-9.0-0.0","26","1","2025-07-09 09:06:48","7701e855f2ef39aa3fd6c71abdc6918a","196.255.126.247","Mozilla/5.0 (Windows NT 10.0; Win64; x64) AppleWebKit/537.36 (KHTML, like Gecko) Chrome/138.0.0.0 Safari/537.36","WebKit","Chrome","138.0.0.0","Windows","10.0","https://app.prolific.com/","en-US,en;q=0.9","61715a02a3c88f5fb082a424","686d226cabeef709c732f8e1","686e310e04c12dce8e3b6020","61715a02a3c88f5fb082a424","2025-07-09T09:33:03.186Z","","","","","","PreSkillQ","","","","","","","","","","","","","","","","","","","","","","","","","","","","","","","","","","","","","","50",""
"5574","","<div style=""width:500px;"">
  <p>How well do you think you will perform in this task compared to other participants?</p>
  </div>","82","html-slider-response","41","1578583","0.0-9.0-1.0","26","1","2025-07-09 09:06:48","7701e855f2ef39aa3fd6c71abdc6918a","196.255.126.247","Mozilla/5.0 (Windows NT 10.0; Win64; x64) AppleWebKit/537.36 (KHTML, like Gecko) Chrome/138.0.0.0 Safari/537.36","WebKit","Chrome","138.0.0.0","Windows","10.0","https://app.prolific.com/","en-US,en;q=0.9","61715a02a3c88f5fb082a424","686d226cabeef709c732f8e1","686e310e04c12dce8e3b6020","61715a02a3c88f5fb082a424","2025-07-09T09:33:08.762Z","","","","","","PrePerfQ","","","","","","","","","","","","","","","","","","","","","","","","","","","","","","","","","","","","","","50",""
"4024","","<div style=""width:500px;"">
  <p>What best describes how you currently feel?</p>
  </div>","86","html-slider-response","42","1582608","0.0-9.0-2.0","26","1","2025-07-09 09:06:48","7701e855f2ef39aa3fd6c71abdc6918a","196.255.126.247","Mozilla/5.0 (Windows NT 10.0; Win64; x64) AppleWebKit/537.36 (KHTML, like Gecko) Chrome/138.0.0.0 Safari/537.36","WebKit","Chrome","138.0.0.0","Windows","10.0","https://app.prolific.com/","en-US,en;q=0.9","61715a02a3c88f5fb082a424","686d226cabeef709c732f8e1","686e310e04c12dce8e3b6020","61715a02a3c88f5fb082a424","2025-07-09T09:33:12.787Z","","","","","","PreMotivationQ","","","","","","","","","","","","","","","","","","","","","","","","","","","","","","","","","","","","","","50",""
"","","","","ctl-task-cpt","43","1603709","0.0-10.0-0.0","26","1","2025-07-09 09:06:48","7701e855f2ef39aa3fd6c71abdc6918a","196.255.126.247","Mozilla/5.0 (Windows NT 10.0; Win64; x64) AppleWebKit/537.36 (KHTML, like Gecko) Chrome/138.0.0.0 Safari/537.36","WebKit","Chrome","138.0.0.0","Windows","10.0","https://app.prolific.com/","en-US,en;q=0.9","61715a02a3c88f5fb082a424","686d226cabeef709c732f8e1","686e310e04c12dce8e3b6020","61715a02a3c88f5fb082a424","2025-07-09T09:33:33.888Z","","","","","","","","","","","","","","","","win-only","0","g1:NW,g2:SE","1","1","0","1585036.2","1779.9","6781.3","18091.9","1","4","4","6","1","-1","-1","0","0","0","5001.4","3000","-2985","[""left"",""up""]","{""num_key_presses"":3,""num_perfect"":3,""num_errors"":0,""num_randdir"":0,""num_randdir_good_moves"":0,""num_whilered"":0,""num_whileblue"":0,""num_blue"":0,""num_good_moves"":3}","[415.07142857142856,419.1808016640799,0.1,415.07142857142856,419.1808016640799,101.6,415.07142857142856,419.1808016640799,206.3,415.07142857142856,419.1808016640799,307.2,415.07142857142856,419.1808016640799,411.6,415.07142857142856,419.1808016640799,516.2,415.07142857142856,419.1808016640799,617.2,415.07142857142856,419.1808016640799,720.9,415.07142857142856,419.1808016640799,821.8,415.07142857142856,419.1808016640799,925.9,415.07142857142856,419.1808016640799,1026.2,415.07142857142856,419.1808016640799,1130.5,415.07142857142856,419.1808016640799,1230.8,415.07142857142856,419.1808016640799,1335.6,415.07142857142856,419.1808016640799,1435.8,415.07142857142856,419.1808016640799,1536.5,415.07142857142856,419.1808016640799,1641.9,415.07142857142856,419.1808016640799,1745.5,415.07142857142856,419.1808016640799,1846.5,415.07142857142856,419.1808016640799,1950.7,415.07142857142856,419.1808016640799,2052.8,415.07142857142856,419.1808016640799,2155.6,415.07142857142856,419.1808016640799,2256.4,415.07142857142856,419.1808016640799,2361,415.07142857142856,419.1808016640799,2461.4,415.07142857142856,419.1808016640799,2561.7,415.07142857142856,419.1808016640799,2665.5,415.07142857142856,419.1808016640799,2767,415.07142857142856,419.1808016640799,2870.6,415.07142857142856,419.1808016640799,2970.7,292.07142857142856,320.1808016640799,3071.2,262.07142857142856,255.68080166407992,3175.5,262.07142857142856,230.18080166407992,3275.8,245.57142857142856,203.18080166407992,3382.1,194.57142857142856,177.68080166407992,3486.2,104.57142857142857,108.68080166407994,3587.7,101.57142857142857,105.68080166407994,3690.5,91.07142857142857,98.18080166407994,3790.6,91.07142857142857,96.68080166407994,3892.3,91.07142857142857,96.68080166407994,3996,91.07142857142857,96.68080166407994,4096.3,91.07142857142857,96.68080166407994,4201,91.07142857142857,96.68080166407994,4302.3,91.07142857142857,96.68080166407994,4406.9,91.07142857142857,96.68080166407994,4511.4,91.07142857142857,96.68080166407994,4615.9,91.07142857142857,96.68080166407994,4721.3,91.07142857142857,96.68080166407994,4821.5,91.07142857142857,96.68080166407994,4925.6]","[2642.6,2642.6,1000,0,1642.6,""smooth"",""left"",""left"",""good_move"",5820,3176.2,2635.3,2643.8,540.9,""smooth"",""up"",""up"",""good_move"",8929,3108.4,2550.9,5820.6,557.5,""smooth"",""left"",""left"",""good_move""]","","",""
"6714","","<div style=""width:500px;"">
  <p>What determined the result of this run?</p>
  </div>","92","html-slider-response","44","1610424","0.0-10.0-1.0","26","1","2025-07-09 09:06:48","7701e855f2ef39aa3fd6c71abdc6918a","196.255.126.247","Mozilla/5.0 (Windows NT 10.0; Win64; x64) AppleWebKit/537.36 (KHTML, like Gecko) Chrome/138.0.0.0 Safari/537.36","WebKit","Chrome","138.0.0.0","Windows","10.0","https://app.prolific.com/","en-US,en;q=0.9","61715a02a3c88f5fb082a424","686d226cabeef709c732f8e1","686e310e04c12dce8e3b6020","61715a02a3c88f5fb082a424","2025-07-09T09:33:40.603Z","","","","","","AttribQ","","","","","","","","","","","","","","","","","","","","","","","","","","","","","","","","","","","","","","50",""
"5487","","<div style=""width:500px;"">
  <p>How much control did you have over the ball?</p>
  </div>","81","html-slider-response","45","1615912","0.0-10.0-2.0","26","1","2025-07-09 09:06:48","7701e855f2ef39aa3fd6c71abdc6918a","196.255.126.247","Mozilla/5.0 (Windows NT 10.0; Win64; x64) AppleWebKit/537.36 (KHTML, like Gecko) Chrome/138.0.0.0 Safari/537.36","WebKit","Chrome","138.0.0.0","Windows","10.0","https://app.prolific.com/","en-US,en;q=0.9","61715a02a3c88f5fb082a424","686d226cabeef709c732f8e1","686e310e04c12dce8e3b6020","61715a02a3c88f5fb082a424","2025-07-09T09:33:46.091Z","","","","","","ControlQ","","","","","","","","","","","","","","","","","","","","","","","","","","","","","","","","","","","","","","50",""
"5536","","<div style=""width:500px;"">
  <p>How would you describe your current emotional state?</p>
  </div>","65","html-slider-response","46","1621449","0.0-10.0-3.0","26","1","2025-07-09 09:06:48","7701e855f2ef39aa3fd6c71abdc6918a","196.255.126.247","Mozilla/5.0 (Windows NT 10.0; Win64; x64) AppleWebKit/537.36 (KHTML, like Gecko) Chrome/138.0.0.0 Safari/537.36","WebKit","Chrome","138.0.0.0","Windows","10.0","https://app.prolific.com/","en-US,en;q=0.9","61715a02a3c88f5fb082a424","686d226cabeef709c732f8e1","686e310e04c12dce8e3b6020","61715a02a3c88f5fb082a424","2025-07-09T09:33:51.628Z","","","","","","StressQ","","","","","","","","","","","","","","","","","","","","","","","","","","","","","","","","","","","","","","50",""
"5318","","<div style=""width:500px;"">
  <p>What best describes how you currently feel?</p>
  </div>","100","html-slider-response","47","1626768","0.0-10.0-4.0","26","1","2025-07-09 09:06:48","7701e855f2ef39aa3fd6c71abdc6918a","196.255.126.247","Mozilla/5.0 (Windows NT 10.0; Win64; x64) AppleWebKit/537.36 (KHTML, like Gecko) Chrome/138.0.0.0 Safari/537.36","WebKit","Chrome","138.0.0.0","Windows","10.0","https://app.prolific.com/","en-US,en;q=0.9","61715a02a3c88f5fb082a424","686d226cabeef709c732f8e1","686e310e04c12dce8e3b6020","61715a02a3c88f5fb082a424","2025-07-09T09:33:56.947Z","","","","","","MotivationQ","","","","","","","","","","","","","","","","","","","","","","","","","","","","","","","","","","","","","","50",""
"","","","","ctl-task-cpt","48","1656898","0.0-10.0-0.1","26","1","2025-07-09 09:06:48","7701e855f2ef39aa3fd6c71abdc6918a","196.255.126.247","Mozilla/5.0 (Windows NT 10.0; Win64; x64) AppleWebKit/537.36 (KHTML, like Gecko) Chrome/138.0.0.0 Safari/537.36","WebKit","Chrome","138.0.0.0","Windows","10.0","https://app.prolific.com/","en-US,en;q=0.9","61715a02a3c88f5fb082a424","686d226cabeef709c732f8e1","686e310e04c12dce8e3b6020","61715a02a3c88f5fb082a424","2025-07-09T09:34:27.078Z","","","","","","","","","","","","","","","","win-only","1","g1:NE,g2:SW","0.9","2","0","1629192.5","1448.7","6451.7","27121.1","1","4","8","6","1","1","1","1","0","0.007575757575757576","1584.5","3000","1410","[""up"",""right""]","{""num_key_presses"":4,""num_perfect"":3,""num_errors"":0,""num_randdir"":1,""num_randdir_good_moves"":1,""num_whilered"":0,""num_whileblue"":0,""num_blue"":3,""num_good_moves"":4}","[419.57142857142856,413.1808016640799,0.3,419.57142857142856,413.1808016640799,108.8,419.57142857142856,413.1808016640799,213.8,419.57142857142856,413.1808016640799,317,419.57142857142856,413.1808016640799,417.7,419.57142857142856,413.1808016640799,522.2,419.57142857142856,413.1808016640799,623.1,419.57142857142856,413.1808016640799,730.1,419.57142857142856,413.1808016640799,832.6,419.57142857142856,413.1808016640799,936.4,388.07142857142856,417.6808016640799,1037.6,344.57142857142856,432.6808016640799,1138,422.57142857142856,342.6808016640799,1241.8,764.5714285714286,50.18080166407994,1347.5,790.0714285714286,38.18080166407994,1451.6,812.5714285714286,18.680801664079937,1552.9,809.5714285714286,20.180801664079937,1657.3,806.5714285714286,21.680801664079937,1758,796.0714285714286,26.180801664079937,1865.1,796.0714285714286,26.180801664079937,1967.8,796.0714285714286,26.180801664079937,2071.9,796.0714285714286,26.180801664079937,2172.4,796.0714285714286,26.180801664079937,2272.4,796.0714285714286,26.180801664079937,2379.9,796.0714285714286,26.180801664079937,2481.6,796.0714285714286,26.180801664079937,2582.2,796.0714285714286,26.180801664079937,2682.3,796.0714285714286,26.180801664079937,2787.3,796.0714285714286,26.180801664079937,2895.6,796.0714285714286,26.180801664079937,2995.8,796.0714285714286,26.180801664079937,3096.2,796.0714285714286,26.180801664079937,3197,796.0714285714286,26.180801664079937,3302.8,796.0714285714286,26.180801664079937,3402.8,796.0714285714286,26.180801664079937,3502.9,796.0714285714286,26.180801664079937,3612.6,796.0714285714286,26.180801664079937,3713.8,796.0714285714286,26.180801664079937,3816.7,796.0714285714286,26.180801664079937,3917.6,796.0714285714286,26.180801664079937,4022.9,796.0714285714286,26.180801664079937,4122.9,796.0714285714286,26.180801664079937,4229.6,796.0714285714286,26.180801664079937,4330.2,796.0714285714286,26.180801664079937,4433.2,796.0714285714286,26.180801664079937,4538.1,796.0714285714286,26.180801664079937,4645.7,796.0714285714286,26.180801664079937,4747.1,796.0714285714286,26.180801664079937,4852.3,796.0714285714286,26.180801664079937,4952.6]","[1448,1448,1000,0,448,""oops"",""right"",""up"",""good_move"",7858.6,6410,2388.8,5130,339.8,""smooth"",""right"",""right"",""good_move"",18009,10149.9,2710,14864.4,434.6,""smooth"",""right"",""right"",""good_move"",20575.8,2566.6,1988.9,18009.2,577.7,""smooth"",""up"",""up"",""good_move""]","","",""
"5750","","<div style=""width:500px;"">
  <p>What determined the result of this run?</p>
  </div>","100","html-slider-response","49","1662650","0.0-10.0-1.1","26","1","2025-07-09 09:06:48","7701e855f2ef39aa3fd6c71abdc6918a","196.255.126.247","Mozilla/5.0 (Windows NT 10.0; Win64; x64) AppleWebKit/537.36 (KHTML, like Gecko) Chrome/138.0.0.0 Safari/537.36","WebKit","Chrome","138.0.0.0","Windows","10.0","https://app.prolific.com/","en-US,en;q=0.9","61715a02a3c88f5fb082a424","686d226cabeef709c732f8e1","686e310e04c12dce8e3b6020","61715a02a3c88f5fb082a424","2025-07-09T09:34:32.829Z","","","","","","AttribQ","","","","","","","","","","","","","","","","","","","","","","","","","","","","","","","","","","","","","","50",""
"5751","","<div style=""width:500px;"">
  <p>How much control did you have over the ball?</p>
  </div>","74","html-slider-response","50","1668401","0.0-10.0-2.1","26","1","2025-07-09 09:06:48","7701e855f2ef39aa3fd6c71abdc6918a","196.255.126.247","Mozilla/5.0 (Windows NT 10.0; Win64; x64) AppleWebKit/537.36 (KHTML, like Gecko) Chrome/138.0.0.0 Safari/537.36","WebKit","Chrome","138.0.0.0","Windows","10.0","https://app.prolific.com/","en-US,en;q=0.9","61715a02a3c88f5fb082a424","686d226cabeef709c732f8e1","686e310e04c12dce8e3b6020","61715a02a3c88f5fb082a424","2025-07-09T09:34:38.580Z","","","","","","ControlQ","","","","","","","","","","","","","","","","","","","","","","","","","","","","","","","","","","","","","","50",""
"9495","","<div style=""width:500px;"">
  <p>How would you describe your current emotional state?</p>
  </div>","0","html-slider-response","51","1677897","0.0-10.0-3.1","26","1","2025-07-09 09:06:48","7701e855f2ef39aa3fd6c71abdc6918a","196.255.126.247","Mozilla/5.0 (Windows NT 10.0; Win64; x64) AppleWebKit/537.36 (KHTML, like Gecko) Chrome/138.0.0.0 Safari/537.36","WebKit","Chrome","138.0.0.0","Windows","10.0","https://app.prolific.com/","en-US,en;q=0.9","61715a02a3c88f5fb082a424","686d226cabeef709c732f8e1","686e310e04c12dce8e3b6020","61715a02a3c88f5fb082a424","2025-07-09T09:34:48.076Z","","","","","","StressQ","","","","","","","","","","","","","","","","","","","","","","","","","","","","","","","","","","","","","","50",""
"4590","","<div style=""width:500px;"">
  <p>What best describes how you currently feel?</p>
  </div>","100","html-slider-response","52","1682488","0.0-10.0-4.1","26","1","2025-07-09 09:06:48","7701e855f2ef39aa3fd6c71abdc6918a","196.255.126.247","Mozilla/5.0 (Windows NT 10.0; Win64; x64) AppleWebKit/537.36 (KHTML, like Gecko) Chrome/138.0.0.0 Safari/537.36","WebKit","Chrome","138.0.0.0","Windows","10.0","https://app.prolific.com/","en-US,en;q=0.9","61715a02a3c88f5fb082a424","686d226cabeef709c732f8e1","686e310e04c12dce8e3b6020","61715a02a3c88f5fb082a424","2025-07-09T09:34:52.667Z","","","","","","MotivationQ","","","","","","","","","","","","","","","","","","","","","","","","","","","","","","","","","","","","","","50",""
"","","","","ctl-task-cpt","53","1702881","0.0-10.0-0.2","26","1","2025-07-09 09:06:48","7701e855f2ef39aa3fd6c71abdc6918a","196.255.126.247","Mozilla/5.0 (Windows NT 10.0; Win64; x64) AppleWebKit/537.36 (KHTML, like Gecko) Chrome/138.0.0.0 Safari/537.36","WebKit","Chrome","138.0.0.0","Windows","10.0","https://app.prolific.com/","en-US,en;q=0.9","61715a02a3c88f5fb082a424","686d226cabeef709c732f8e1","686e310e04c12dce8e3b6020","61715a02a3c88f5fb082a424","2025-07-09T09:35:13.060Z","","","","","","","","","","","","","","","","win-only","2","g1:SE,g2:NW","0.8","3","0","1684911.7","1111.5","6115.5","17374.8","1","4","8","6","1","1","0","1","1","0.007575757575757576","1229.2","3000","1265","[""down"",""right""]","{""num_key_presses"":5,""num_perfect"":3,""num_errors"":1,""num_randdir"":1,""num_randdir_good_moves"":1,""num_whilered"":0,""num_whileblue"":0,""num_blue"":0,""num_good_moves"":4}","[422.57142857142856,425.1808016640799,0.1,422.57142857142856,425.1808016640799,108.6,422.57142857142856,425.1808016640799,213.6,422.57142857142856,425.1808016640799,314.5,422.57142857142856,425.1808016640799,418.7,422.57142857142856,425.1808016640799,519.5,422.57142857142856,425.1808016640799,623.7,382.07142857142856,387.6808016640799,724.4,518.5714285714286,531.6808016640799,825.2,650.5714285714286,636.6808016640799,933,703.0714285714286,713.1808016640799,1034.4,728.5714285714286,744.6808016640799,1147.3,737.5714285714286,749.1808016640799,1247.7,737.5714285714286,749.1808016640799,1349.1,739.0714285714286,749.1808016640799,1454.8,740.5714285714286,747.6808016640799,1562.9,739.0714285714286,744.6808016640799,1664,737.5714285714286,743.1808016640799,1769.3,737.5714285714286,743.1808016640799,1870.1,737.5714285714286,743.1808016640799,1979.4,737.5714285714286,743.1808016640799,2079.4,737.5714285714286,743.1808016640799,2182.6,737.5714285714286,743.1808016640799,2284,737.5714285714286,743.1808016640799,2390,737.5714285714286,743.1808016640799,2500.2,737.5714285714286,743.1808016640799,2604.4,737.5714285714286,743.1808016640799,2704.5,737.5714285714286,743.1808016640799,2814.3,737.5714285714286,743.1808016640799,2915,737.5714285714286,743.1808016640799,3019.3,737.5714285714286,743.1808016640799,3129.4,737.5714285714286,743.1808016640799,3231.4,737.5714285714286,743.1808016640799,3334.3,737.5714285714286,743.1808016640799,3434.6,737.5714285714286,743.1808016640799,3534.7,737.5714285714286,743.1808016640799,3639.6,737.5714285714286,743.1808016640799,3747.5,737.5714285714286,743.1808016640799,3850.4,737.5714285714286,743.1808016640799,3954.4,737.5714285714286,743.1808016640799,4055.3,737.5714285714286,743.1808016640799,4163.1,737.5714285714286,743.1808016640799,4263.2,737.5714285714286,743.1808016640799,4363.2,737.5714285714286,743.1808016640799,4463.2,737.5714285714286,743.1808016640799,4563.2,737.5714285714286,743.1808016640799,4663.2,737.5714285714286,743.1808016640799,4763.7,737.5714285714286,743.1808016640799,4869.6,737.5714285714286,743.1808016640799,4969.7]","[1463.5,1463.5,1000,0,463.5,""smooth"",""down"",""down"",""good_move"",4559.3,3095.5,2525.9,1463.9,569.5,""smooth"",""right"",""right"",""good_move"",4716.5,156.8,2682.2,4559.7,-2525.4,""error"",""-"",""-"",""no_move"",8674.9,3958.1,2431.5,5720.5,522.9,""oops"",""down"",""right"",""good_move"",11147.8,2472.7,2005.6,8675.1,467.1,""smooth"",""down"",""down"",""good_move""]","","",""
"5015","","<div style=""width:500px;"">
  <p>What determined the result of this run?</p>
  </div>","63","html-slider-response","54","1707898","0.0-10.0-1.2","26","1","2025-07-09 09:06:48","7701e855f2ef39aa3fd6c71abdc6918a","196.255.126.247","Mozilla/5.0 (Windows NT 10.0; Win64; x64) AppleWebKit/537.36 (KHTML, like Gecko) Chrome/138.0.0.0 Safari/537.36","WebKit","Chrome","138.0.0.0","Windows","10.0","https://app.prolific.com/","en-US,en;q=0.9","61715a02a3c88f5fb082a424","686d226cabeef709c732f8e1","686e310e04c12dce8e3b6020","61715a02a3c88f5fb082a424","2025-07-09T09:35:18.077Z","","","","","","AttribQ","","","","","","","","","","","","","","","","","","","","","","","","","","","","","","","","","","","","","","50",""
"33454","","<div style=""width:500px;"">
  <p>How much control did you have over the ball?</p>
  </div>","78","html-slider-response","55","1741357","0.0-10.0-2.2","26","1","2025-07-09 09:06:48","7701e855f2ef39aa3fd6c71abdc6918a","196.255.126.247","Mozilla/5.0 (Windows NT 10.0; Win64; x64) AppleWebKit/537.36 (KHTML, like Gecko) Chrome/138.0.0.0 Safari/537.36","WebKit","Chrome","138.0.0.0","Windows","10.0","https://app.prolific.com/","en-US,en;q=0.9","61715a02a3c88f5fb082a424","686d226cabeef709c732f8e1","686e310e04c12dce8e3b6020","61715a02a3c88f5fb082a424","2025-07-09T09:35:51.536Z","","","","","","ControlQ","","","","","","","","","","","","","","","","","","","","","","","","","","","","","","","","","","","","","","50",""
"7460","","<div style=""width:500px;"">
  <p>How would you describe your current emotional state?</p>
  </div>","0","html-slider-response","56","1748823","0.0-10.0-3.2","26","1","2025-07-09 09:06:48","7701e855f2ef39aa3fd6c71abdc6918a","196.255.126.247","Mozilla/5.0 (Windows NT 10.0; Win64; x64) AppleWebKit/537.36 (KHTML, like Gecko) Chrome/138.0.0.0 Safari/537.36","WebKit","Chrome","138.0.0.0","Windows","10.0","https://app.prolific.com/","en-US,en;q=0.9","61715a02a3c88f5fb082a424","686d226cabeef709c732f8e1","686e310e04c12dce8e3b6020","61715a02a3c88f5fb082a424","2025-07-09T09:35:59.003Z","","","","","","StressQ","","","","","","","","","","","","","","","","","","","","","","","","","","","","","","","","","","","","","","50",""
"11591","","<div style=""width:500px;"">
  <p>What best describes how you currently feel?</p>
  </div>","100","html-slider-response","57","1760418","0.0-10.0-4.2","26","1","2025-07-09 09:06:48","7701e855f2ef39aa3fd6c71abdc6918a","196.255.126.247","Mozilla/5.0 (Windows NT 10.0; Win64; x64) AppleWebKit/537.36 (KHTML, like Gecko) Chrome/138.0.0.0 Safari/537.36","WebKit","Chrome","138.0.0.0","Windows","10.0","https://app.prolific.com/","en-US,en;q=0.9","61715a02a3c88f5fb082a424","686d226cabeef709c732f8e1","686e310e04c12dce8e3b6020","61715a02a3c88f5fb082a424","2025-07-09T09:36:10.597Z","","","","","","MotivationQ","","","","","","","","","","","","","","","","","","","","","","","","","","","","","","","","","","","","","","50",""
"","","","","ctl-task-cpt","58","1797429","0.0-10.0-0.3","26","1","2025-07-09 09:06:48","7701e855f2ef39aa3fd6c71abdc6918a","196.255.126.247","Mozilla/5.0 (Windows NT 10.0; Win64; x64) AppleWebKit/537.36 (KHTML, like Gecko) Chrome/138.0.0.0 Safari/537.36","WebKit","Chrome","138.0.0.0","Windows","10.0","https://app.prolific.com/","en-US,en;q=0.9","61715a02a3c88f5fb082a424","686d226cabeef709c732f8e1","686e310e04c12dce8e3b6020","61715a02a3c88f5fb082a424","2025-07-09T09:36:47.608Z","","","","","","","","","","","","","","","","win-only","2","g1:SE,g2:NW","0.7","4","0","1762840.1","1360.3","6360.9","33992.4","1","4","4","6","2","4","3","4","1","0.030303030303030304","1363.3","3000","430","[""left"",""up""]","{""num_key_presses"":7,""num_perfect"":5,""num_errors"":1,""num_randdir"":1,""num_randdir_good_moves"":1,""num_whilered"":0,""num_whileblue"":0,""num_blue"":2,""num_good_moves"":6}","[410.57142857142856,419.1808016640799,1.1,410.57142857142856,419.1808016640799,105.9,410.57142857142856,419.1808016640799,207,415.07142857142856,419.1808016640799,315.6,415.07142857142856,419.1808016640799,420.2,566.5714285714286,527.1808016640799,525,632.5714285714286,687.6808016640799,627,620.5714285714286,683.1808016640799,730.2,325.07142857142856,383.1808016640799,833.9,224.57142857142856,314.1808016640799,935.2,188.57142857142856,246.68080166407992,1035.2,176.57142857142856,183.68080166407992,1135.3,110.57142857142857,116.18080166407994,1235.9,89.57142857142857,102.68080166407994,1336.3,89.57142857142857,102.68080166407994,1441,110.57142857142857,110.18080166407994,1548.5,212.57142857142856,152.18080166407992,1651.5,221.57142857142856,161.18080166407992,1755.8,221.57142857142856,161.18080166407992,1856.1,221.57142857142856,161.18080166407992,1961,221.57142857142856,161.18080166407992,2067.5,221.57142857142856,161.18080166407992,2171.6,221.57142857142856,161.18080166407992,2275.4,221.57142857142856,161.18080166407992,2376,221.57142857142856,161.18080166407992,2485.5,221.57142857142856,161.18080166407992,2589.9,221.57142857142856,161.18080166407992,2690.6,221.57142857142856,161.18080166407992,2790.9,221.57142857142856,161.18080166407992,2891.3,221.57142857142856,161.18080166407992,2998.4,221.57142857142856,161.18080166407992,3101.9,221.57142857142856,161.18080166407992,3205.7,221.57142857142856,161.18080166407992,3311.9,221.57142857142856,161.18080166407992,3414.1,221.57142857142856,161.18080166407992,3517.4,221.57142857142856,161.18080166407992,3618.8,221.57142857142856,161.18080166407992,3720.9,221.57142857142856,161.18080166407992,3825.9,221.57142857142856,161.18080166407992,3929.9,221.57142857142856,161.18080166407992,4039.3,221.57142857142856,161.18080166407992,4140.4,221.57142857142856,161.18080166407992,4247.6,221.57142857142856,161.18080166407992,4353.2,221.57142857142856,161.18080166407992,4455.2,221.57142857142856,161.18080166407992,4560.5,221.57142857142856,161.18080166407992,4665.7,221.57142857142856,161.18080166407992,4770.1,221.57142857142856,161.18080166407992,4877.3,221.57142857142856,161.18080166407992,4977.5]","[401.2,401.2,1000,0,-598.8,""error"",""-"",""-"",""no_move"",7780.2,7378.9,2830.1,4581.2,368.9,""smooth"",""left"",""left"",""good_move"",14649.3,6868.3,2739.3,11580.5,329.5,""smooth"",""up"",""up"",""good_move"",18665.7,4015.7,3463.8,14650,551.9,""smooth"",""up"",""up"",""good_move"",21364.2,2698.2,2199.1,18666,499.1,""oops"",""up"",""left"",""good_move"",24053.7,2689.4,2257.6,21364.3,431.8,""smooth"",""up"",""up"",""good_move"",27546.5,3492.5,3030.7,24054,461.8,""smooth"",""left"",""left"",""good_move""]","","",""
"5889","","<div style=""width:500px;"">
  <p>What determined the result of this run?</p>
  </div>","100","html-slider-response","59","1803320","0.0-10.0-1.3","26","1","2025-07-09 09:06:48","7701e855f2ef39aa3fd6c71abdc6918a","196.255.126.247","Mozilla/5.0 (Windows NT 10.0; Win64; x64) AppleWebKit/537.36 (KHTML, like Gecko) Chrome/138.0.0.0 Safari/537.36","WebKit","Chrome","138.0.0.0","Windows","10.0","https://app.prolific.com/","en-US,en;q=0.9","61715a02a3c88f5fb082a424","686d226cabeef709c732f8e1","686e310e04c12dce8e3b6020","61715a02a3c88f5fb082a424","2025-07-09T09:36:53.499Z","","","","","","AttribQ","","","","","","","","","","","","","","","","","","","","","","","","","","","","","","","","","","","","","","50",""
"7021","","<div style=""width:500px;"">
  <p>How much control did you have over the ball?</p>
  </div>","93","html-slider-response","60","1810345","0.0-10.0-2.3","26","1","2025-07-09 09:06:48","7701e855f2ef39aa3fd6c71abdc6918a","196.255.126.247","Mozilla/5.0 (Windows NT 10.0; Win64; x64) AppleWebKit/537.36 (KHTML, like Gecko) Chrome/138.0.0.0 Safari/537.36","WebKit","Chrome","138.0.0.0","Windows","10.0","https://app.prolific.com/","en-US,en;q=0.9","61715a02a3c88f5fb082a424","686d226cabeef709c732f8e1","686e310e04c12dce8e3b6020","61715a02a3c88f5fb082a424","2025-07-09T09:37:00.524Z","","","","","","ControlQ","","","","","","","","","","","","","","","","","","","","","","","","","","","","","","","","","","","","","","50",""
"5198","","<div style=""width:500px;"">
  <p>How would you describe your current emotional state?</p>
  </div>","0","html-slider-response","61","1815547","0.0-10.0-3.3","26","1","2025-07-09 09:06:48","7701e855f2ef39aa3fd6c71abdc6918a","196.255.126.247","Mozilla/5.0 (Windows NT 10.0; Win64; x64) AppleWebKit/537.36 (KHTML, like Gecko) Chrome/138.0.0.0 Safari/537.36","WebKit","Chrome","138.0.0.0","Windows","10.0","https://app.prolific.com/","en-US,en;q=0.9","61715a02a3c88f5fb082a424","686d226cabeef709c732f8e1","686e310e04c12dce8e3b6020","61715a02a3c88f5fb082a424","2025-07-09T09:37:05.726Z","","","","","","StressQ","","","","","","","","","","","","","","","","","","","","","","","","","","","","","","","","","","","","","","50",""
"8215","","<div style=""width:500px;"">
  <p>What best describes how you currently feel?</p>
  </div>","100","html-slider-response","62","1823763","0.0-10.0-4.3","26","1","2025-07-09 09:06:48","7701e855f2ef39aa3fd6c71abdc6918a","196.255.126.247","Mozilla/5.0 (Windows NT 10.0; Win64; x64) AppleWebKit/537.36 (KHTML, like Gecko) Chrome/138.0.0.0 Safari/537.36","WebKit","Chrome","138.0.0.0","Windows","10.0","https://app.prolific.com/","en-US,en;q=0.9","61715a02a3c88f5fb082a424","686d226cabeef709c732f8e1","686e310e04c12dce8e3b6020","61715a02a3c88f5fb082a424","2025-07-09T09:37:13.943Z","","","","","","MotivationQ","","","","","","","","","","","","","","","","","","","","","","","","","","","","","","","","","","","","","","50",""
"","","","","ctl-task-cpt","63","1849368","0.0-10.0-0.4","26","1","2025-07-09 09:06:48","7701e855f2ef39aa3fd6c71abdc6918a","196.255.126.247","Mozilla/5.0 (Windows NT 10.0; Win64; x64) AppleWebKit/537.36 (KHTML, like Gecko) Chrome/138.0.0.0 Safari/537.36","WebKit","Chrome","138.0.0.0","Windows","10.0","https://app.prolific.com/","en-US,en;q=0.9","61715a02a3c88f5fb082a424","686d226cabeef709c732f8e1","686e310e04c12dce8e3b6020","61715a02a3c88f5fb082a424","2025-07-09T09:37:39.547Z","","","","","","","","","","","","","","","","win-only","2","g1:SE,g2:NW","0.6","5","0","1826188.3","1234.9","6236.3","22580.9","1","4","4","6","1","1","0","4","4","0.030303030303030304","1416.4","3000","1865","[""down"",""right""]","{""num_key_presses"":4,""num_perfect"":3,""num_errors"":1,""num_randdir"":0,""num_randdir_good_moves"":0,""num_whilered"":0,""num_whileblue"":1,""num_blue"":3,""num_good_moves"":4}","[412.07142857142856,410.1808016640799,0.2,412.07142857142856,410.1808016640799,105.1,413.57142857142856,411.6808016640799,209.9,413.57142857142856,411.6808016640799,310.6,413.57142857142856,411.6808016640799,411.8,413.57142857142856,411.6808016640799,516.9,413.57142857142856,411.6808016640799,620.6,415.07142857142856,411.6808016640799,720.8,415.07142857142856,411.6808016640799,820.9,424.07142857142856,416.1808016640799,921,523.0714285714286,453.6808016640799,1021.1,619.0714285714286,603.6808016640799,1129.8,814.0714285714286,786.6808016640799,1231.7,814.0714285714286,786.6808016640799,1344.9,812.5714285714286,786.6808016640799,1445.2,812.5714285714286,786.6808016640799,1546.8,812.5714285714286,785.1808016640799,1652.1,817.0714285714286,780.6808016640799,1761.1,821.5714285714286,767.1808016640799,1861.4,821.5714285714286,767.1808016640799,1966.6,821.5714285714286,767.1808016640799,2070.8,821.5714285714286,767.1808016640799,2176.2,821.5714285714286,767.1808016640799,2276.4,821.5714285714286,767.1808016640799,2378.5,821.5714285714286,767.1808016640799,2481.5,821.5714285714286,767.1808016640799,2586.8,821.5714285714286,767.1808016640799,2695,821.5714285714286,767.1808016640799,2795.8,821.5714285714286,767.1808016640799,2896.1,821.5714285714286,767.1808016640799,3000.6,821.5714285714286,767.1808016640799,3100.7,821.5714285714286,767.1808016640799,3201.8,821.5714285714286,767.1808016640799,3302.2,821.5714285714286,767.1808016640799,3411.7,821.5714285714286,767.1808016640799,3515.8,821.5714285714286,767.1808016640799,3620.9,821.5714285714286,767.1808016640799,3726.8,821.5714285714286,767.1808016640799,3830.3,821.5714285714286,767.1808016640799,3930.8,821.5714285714286,767.1808016640799,4031.6,821.5714285714286,767.1808016640799,4131.8,821.5714285714286,767.1808016640799,4235.7,821.5714285714286,767.1808016640799,4344.3,821.5714285714286,767.1808016640799,4445.5,821.5714285714286,767.1808016640799,4551.3,821.5714285714286,767.1808016640799,4660.2,821.5714285714286,767.1808016640799,4760.8,821.5714285714286,767.1808016640799,4865.8,821.5714285714286,767.1808016640799,4966.3]","[5807.5,5807.5,3418.1,2009.9,379.5,""smooth"",""down"",""down"",""good_move"",9142.1,3334.2,2798.7,5807.9,535.5,""smooth"",""down"",""down"",""good_move"",14214.3,5072,1404.6,12480.2,329.5,""while_blue"",""right"",""right"",""good_move"",16241.7,2024.4,1543,14217.3,481.4,""smooth"",""right"",""right"",""good_move""]","","",""
"3980","","<div style=""width:500px;"">
  <p>What determined the result of this run?</p>
  </div>","100","html-slider-response","64","1853348","0.0-10.0-1.4","26","1","2025-07-09 09:06:48","7701e855f2ef39aa3fd6c71abdc6918a","196.255.126.247","Mozilla/5.0 (Windows NT 10.0; Win64; x64) AppleWebKit/537.36 (KHTML, like Gecko) Chrome/138.0.0.0 Safari/537.36","WebKit","Chrome","138.0.0.0","Windows","10.0","https://app.prolific.com/","en-US,en;q=0.9","61715a02a3c88f5fb082a424","686d226cabeef709c732f8e1","686e310e04c12dce8e3b6020","61715a02a3c88f5fb082a424","2025-07-09T09:37:43.528Z","","","","","","AttribQ","","","","","","","","","","","","","","","","","","","","","","","","","","","","","","","","","","","","","","50",""
"5447","","<div style=""width:500px;"">
  <p>How much control did you have over the ball?</p>
  </div>","99","html-slider-response","65","1858797","0.0-10.0-2.4","26","1","2025-07-09 09:06:48","7701e855f2ef39aa3fd6c71abdc6918a","196.255.126.247","Mozilla/5.0 (Windows NT 10.0; Win64; x64) AppleWebKit/537.36 (KHTML, like Gecko) Chrome/138.0.0.0 Safari/537.36","WebKit","Chrome","138.0.0.0","Windows","10.0","https://app.prolific.com/","en-US,en;q=0.9","61715a02a3c88f5fb082a424","686d226cabeef709c732f8e1","686e310e04c12dce8e3b6020","61715a02a3c88f5fb082a424","2025-07-09T09:37:48.977Z","","","","","","ControlQ","","","","","","","","","","","","","","","","","","","","","","","","","","","","","","","","","","","","","","50",""
"5396","","<div style=""width:500px;"">
  <p>How would you describe your current emotional state?</p>
  </div>","6","html-slider-response","66","1864196","0.0-10.0-3.4","26","1","2025-07-09 09:06:48","7701e855f2ef39aa3fd6c71abdc6918a","196.255.126.247","Mozilla/5.0 (Windows NT 10.0; Win64; x64) AppleWebKit/537.36 (KHTML, like Gecko) Chrome/138.0.0.0 Safari/537.36","WebKit","Chrome","138.0.0.0","Windows","10.0","https://app.prolific.com/","en-US,en;q=0.9","61715a02a3c88f5fb082a424","686d226cabeef709c732f8e1","686e310e04c12dce8e3b6020","61715a02a3c88f5fb082a424","2025-07-09T09:37:54.375Z","","","","","","StressQ","","","","","","","","","","","","","","","","","","","","","","","","","","","","","","","","","","","","","","50",""
"5968","","<div style=""width:500px;"">
  <p>What best describes how you currently feel?</p>
  </div>","100","html-slider-response","67","1870166","0.0-10.0-4.4","26","1","2025-07-09 09:06:48","7701e855f2ef39aa3fd6c71abdc6918a","196.255.126.247","Mozilla/5.0 (Windows NT 10.0; Win64; x64) AppleWebKit/537.36 (KHTML, like Gecko) Chrome/138.0.0.0 Safari/537.36","WebKit","Chrome","138.0.0.0","Windows","10.0","https://app.prolific.com/","en-US,en;q=0.9","61715a02a3c88f5fb082a424","686d226cabeef709c732f8e1","686e310e04c12dce8e3b6020","61715a02a3c88f5fb082a424","2025-07-09T09:38:00.346Z","","","","","","MotivationQ","","","","","","","","","","","","","","","","","","","","","","","","","","","","","","","","","","","","","","50",""
"","","","","ctl-task-cpt","68","1895362","0.0-10.0-0.5","26","1","2025-07-09 09:06:48","7701e855f2ef39aa3fd6c71abdc6918a","196.255.126.247","Mozilla/5.0 (Windows NT 10.0; Win64; x64) AppleWebKit/537.36 (KHTML, like Gecko) Chrome/138.0.0.0 Safari/537.36","WebKit","Chrome","138.0.0.0","Windows","10.0","https://app.prolific.com/","en-US,en;q=0.9","61715a02a3c88f5fb082a424","686d226cabeef709c732f8e1","686e310e04c12dce8e3b6020","61715a02a3c88f5fb082a424","2025-07-09T09:38:25.541Z","","","","","","","","","","","","","","","","win-only","3","g1:SW,g2:NE","0.5","6","0","1872595.6","1237.7","6241.9","22162","1","4","8","6","1","1","1","5","4","0.03787878787878788","2134.6","3000","500","[""down"",""left""]","{""num_key_presses"":4,""num_perfect"":3,""num_errors"":0,""num_randdir"":1,""num_randdir_good_moves"":1,""num_whilered"":0,""num_whileblue"":0,""num_blue"":1,""num_good_moves"":4}","[413.57142857142856,410.1808016640799,0.1,413.57142857142856,410.1808016640799,110.4,413.57142857142856,410.1808016640799,218.2,413.57142857142856,410.1808016640799,321.5,413.57142857142856,410.1808016640799,422.6,413.57142857142856,410.1808016640799,523.4,413.57142857142856,410.1808016640799,629,413.57142857142856,410.1808016640799,734.2,415.07142857142856,410.1808016640799,837.7,467.57142857142856,390.6808016640799,938.1,473.57142857142856,381.6808016640799,1044.3,473.57142857142856,380.1808016640799,1148.8,476.57142857142856,371.1808016640799,1253,379.07142857142856,476.1808016640799,1353.4,131.57142857142856,710.1808016640799,1454,101.57142857142857,746.1808016640799,1558.2,77.57142857142857,785.1808016640799,1669.2,74.57142857142857,788.1808016640799,1773.3,74.57142857142857,782.1808016640799,1877.7,74.57142857142857,779.1808016640799,1979.7,74.57142857142857,779.1808016640799,2083.9,74.57142857142857,779.1808016640799,2184,76.07142857142857,777.6808016640799,2284.1,85.07142857142857,773.1808016640799,2387.6,88.07142857142857,771.6808016640799,2488,176.57142857142856,756.6808016640799,2588,455.57142857142856,711.6808016640799,2693.4,631.0714285714286,686.1808016640799,2793.7,634.0714285714286,686.1808016640799,2897.7,634.0714285714286,686.1808016640799,2998.8,634.0714285714286,686.1808016640799,3099.3,634.0714285714286,686.1808016640799,3203.6,634.0714285714286,686.1808016640799,3307.9,634.0714285714286,686.1808016640799,3408,634.0714285714286,686.1808016640799,3515.3,634.0714285714286,686.1808016640799,3618.1,634.0714285714286,686.1808016640799,3723.1,634.0714285714286,686.1808016640799,3829.4,634.0714285714286,686.1808016640799,3930.5,634.0714285714286,686.1808016640799,4032.7,634.0714285714286,686.1808016640799,4134.1,634.0714285714286,686.1808016640799,4234.2,634.0714285714286,686.1808016640799,4337.7,634.0714285714286,686.1808016640799,4438,634.0714285714286,686.1808016640799,4538,634.0714285714286,686.1808016640799,4638.1,634.0714285714286,686.1808016640799,4739.7,634.0714285714286,686.1808016640799,4842.6,634.0714285714286,686.1808016640799,4947.5]","[1697.2,1697.2,1000,0,697.2,""smooth"",""down"",""down"",""good_move"",9890.9,8193.2,3147.8,6290.7,452.4,""smooth"",""down"",""down"",""good_move"",13569.2,3677.9,2873.2,9891.3,804.7,""oops"",""left"",""left"",""good_move"",15828.6,2259,1527.5,13569.6,731.5,""smooth"",""left"",""left"",""good_move""]","","",""
"5854","","<div style=""width:500px;"">
  <p>What determined the result of this run?</p>
  </div>","100","html-slider-response","69","1901217","0.0-10.0-1.5","26","1","2025-07-09 09:06:48","7701e855f2ef39aa3fd6c71abdc6918a","196.255.126.247","Mozilla/5.0 (Windows NT 10.0; Win64; x64) AppleWebKit/537.36 (KHTML, like Gecko) Chrome/138.0.0.0 Safari/537.36","WebKit","Chrome","138.0.0.0","Windows","10.0","https://app.prolific.com/","en-US,en;q=0.9","61715a02a3c88f5fb082a424","686d226cabeef709c732f8e1","686e310e04c12dce8e3b6020","61715a02a3c88f5fb082a424","2025-07-09T09:38:31.396Z","","","","","","AttribQ","","","","","","","","","","","","","","","","","","","","","","","","","","","","","","","","","","","","","","50",""
"4751","","<div style=""width:500px;"">
  <p>How much control did you have over the ball?</p>
  </div>","97","html-slider-response","70","1905973","0.0-10.0-2.5","26","1","2025-07-09 09:06:48","7701e855f2ef39aa3fd6c71abdc6918a","196.255.126.247","Mozilla/5.0 (Windows NT 10.0; Win64; x64) AppleWebKit/537.36 (KHTML, like Gecko) Chrome/138.0.0.0 Safari/537.36","WebKit","Chrome","138.0.0.0","Windows","10.0","https://app.prolific.com/","en-US,en;q=0.9","61715a02a3c88f5fb082a424","686d226cabeef709c732f8e1","686e310e04c12dce8e3b6020","61715a02a3c88f5fb082a424","2025-07-09T09:38:36.152Z","","","","","","ControlQ","","","","","","","","","","","","","","","","","","","","","","","","","","","","","","","","","","","","","","50",""
"4132","","<div style=""width:500px;"">
  <p>How would you describe your current emotional state?</p>
  </div>","0","html-slider-response","71","1910109","0.0-10.0-3.5","26","1","2025-07-09 09:06:48","7701e855f2ef39aa3fd6c71abdc6918a","196.255.126.247","Mozilla/5.0 (Windows NT 10.0; Win64; x64) AppleWebKit/537.36 (KHTML, like Gecko) Chrome/138.0.0.0 Safari/537.36","WebKit","Chrome","138.0.0.0","Windows","10.0","https://app.prolific.com/","en-US,en;q=0.9","61715a02a3c88f5fb082a424","686d226cabeef709c732f8e1","686e310e04c12dce8e3b6020","61715a02a3c88f5fb082a424","2025-07-09T09:38:40.288Z","","","","","","StressQ","","","","","","","","","","","","","","","","","","","","","","","","","","","","","","","","","","","","","","50",""
"5135","","<div style=""width:500px;"">
  <p>What best describes how you currently feel?</p>
  </div>","99","html-slider-response","72","1915245","0.0-10.0-4.5","26","1","2025-07-09 09:06:48","7701e855f2ef39aa3fd6c71abdc6918a","196.255.126.247","Mozilla/5.0 (Windows NT 10.0; Win64; x64) AppleWebKit/537.36 (KHTML, like Gecko) Chrome/138.0.0.0 Safari/537.36","WebKit","Chrome","138.0.0.0","Windows","10.0","https://app.prolific.com/","en-US,en;q=0.9","61715a02a3c88f5fb082a424","686d226cabeef709c732f8e1","686e310e04c12dce8e3b6020","61715a02a3c88f5fb082a424","2025-07-09T09:38:45.424Z","","","","","","MotivationQ","","","","","","","","","","","","","","","","","","","","","","","","","","","","","","","","","","","","","","50",""
"","","","","ctl-task-cpt","73","1956581","0.0-10.0-0.6","26","1","2025-07-09 09:06:48","7701e855f2ef39aa3fd6c71abdc6918a","196.255.126.247","Mozilla/5.0 (Windows NT 10.0; Win64; x64) AppleWebKit/537.36 (KHTML, like Gecko) Chrome/138.0.0.0 Safari/537.36","WebKit","Chrome","138.0.0.0","Windows","10.0","https://app.prolific.com/","en-US,en;q=0.9","61715a02a3c88f5fb082a424","686d226cabeef709c732f8e1","686e310e04c12dce8e3b6020","61715a02a3c88f5fb082a424","2025-07-09T09:39:26.760Z","","","","","","","","","","","","","","","","win-only","3","g1:SW,g2:NE","0.4","7","0","1917668.2","1381.4","6385.9","38314.5","1","4","8","6","2","-8","-8","0","5","0","1182.6","3000","-2340","[""up"",""right""]","{""num_key_presses"":8,""num_perfect"":4,""num_errors"":0,""num_randdir"":4,""num_randdir_good_moves"":1,""num_whilered"":0,""num_whileblue"":0,""num_blue"":2,""num_good_moves"":5}","[413.57142857142856,417.6808016640799,0.2,413.57142857142856,417.6808016640799,115.8,413.57142857142856,417.6808016640799,219.3,413.57142857142856,417.6808016640799,320.4,413.57142857142856,414.6808016640799,424,443.57142857142856,390.6808016640799,534,512.5714285714286,332.1808016640799,639.8,601.0714285714286,236.18080166407992,749.7,677.5714285714286,147.68080166407992,854.6,706.0714285714286,122.18080166407994,969.6,728.5714285714286,101.18080166407994,1073.8,751.0714285714286,83.18080166407994,1174,751.0714285714286,83.18080166407994,1285.1,755.5714285714286,89.18080166407994,1385.1,905.5714285714286,224.18080166407992,1489,1171.0714285714287,320.1808016640799,1594,1180.0714285714287,326.1808016640799,1702.1,1186.0714285714287,341.1808016640799,1803.1,1187.5714285714287,347.1808016640799,1904.1,1187.5714285714287,348.6808016640799,2004.1,1187.5714285714287,350.1808016640799,2105.1,1187.5714285714287,350.1808016640799,2219,1187.5714285714287,350.1808016640799,2324.1,1187.5714285714287,350.1808016640799,2424.5,1187.5714285714287,350.1808016640799,2533.8,1187.5714285714287,350.1808016640799,2634,1187.5714285714287,350.1808016640799,2738.9,1187.5714285714287,350.1808016640799,2840,1187.5714285714287,350.1808016640799,2949.6,1187.5714285714287,350.1808016640799,3052.2,1187.5714285714287,350.1808016640799,3154.5,1187.5714285714287,350.1808016640799,3269,1187.5714285714287,350.1808016640799,3369,1187.5714285714287,350.1808016640799,3469.6,1187.5714285714287,350.1808016640799,3574.8,1187.5714285714287,350.1808016640799,3682.2,1187.5714285714287,350.1808016640799,3783.1,1187.5714285714287,350.1808016640799,3883.7,1187.5714285714287,350.1808016640799,3985.7,1187.5714285714287,350.1808016640799,4089.7,1187.5714285714287,350.1808016640799,4195.1,1187.5714285714287,350.1808016640799,4299,1187.5714285714287,350.1808016640799,4399.6,1187.5714285714287,350.1808016640799,4500.3,1187.5714285714287,350.1808016640799,4600.3,1187.5714285714287,350.1808016640799,4700.7,1187.5714285714287,350.1808016640799,4804.1,1187.5714285714287,350.1808016640799,4904.3]","[1481.7,1481.7,1000,0,481.7,""smooth"",""right"",""right"",""good_move"",7727.4,6245.2,2563,4728.9,435.5,""smooth"",""up"",""up"",""good_move"",14475.5,6747.8,2796.3,11285.2,394,""smooth"",""right"",""right"",""good_move"",18329.3,3853,3169.6,14476.3,683.4,""oops"",""up"",""up"",""good_move"",21711.7,3382.2,2939.9,18329.5,442.3,""oops"",""right"",""down"",""bad_move"",24669.1,2956.9,2577.6,21712.2,379.3,""oops"",""up"",""left"",""bad_move"",27376.3,2706.8,2214.7,24669.5,492.1,""smooth"",""right"",""right"",""good_move"",29996.5,2619.7,2216.9,27376.8,402.8,""oops"",""up"",""down"",""bad_move""]","","",""
"5998","","<div style=""width:500px;"">
  <p>What determined the result of this run?</p>
  </div>","0","html-slider-response","74","1962581","0.0-10.0-1.6","26","1","2025-07-09 09:06:48","7701e855f2ef39aa3fd6c71abdc6918a","196.255.126.247","Mozilla/5.0 (Windows NT 10.0; Win64; x64) AppleWebKit/537.36 (KHTML, like Gecko) Chrome/138.0.0.0 Safari/537.36","WebKit","Chrome","138.0.0.0","Windows","10.0","https://app.prolific.com/","en-US,en;q=0.9","61715a02a3c88f5fb082a424","686d226cabeef709c732f8e1","686e310e04c12dce8e3b6020","61715a02a3c88f5fb082a424","2025-07-09T09:39:32.765Z","","","","","","AttribQ","","","","","","","","","","","","","","","","","","","","","","","","","","","","","","","","","","","","","","50",""
"4090","","<div style=""width:500px;"">
  <p>How much control did you have over the ball?</p>
  </div>","1","html-slider-response","75","1966682","0.0-10.0-2.6","26","1","2025-07-09 09:06:48","7701e855f2ef39aa3fd6c71abdc6918a","196.255.126.247","Mozilla/5.0 (Windows NT 10.0; Win64; x64) AppleWebKit/537.36 (KHTML, like Gecko) Chrome/138.0.0.0 Safari/537.36","WebKit","Chrome","138.0.0.0","Windows","10.0","https://app.prolific.com/","en-US,en;q=0.9","61715a02a3c88f5fb082a424","686d226cabeef709c732f8e1","686e310e04c12dce8e3b6020","61715a02a3c88f5fb082a424","2025-07-09T09:39:36.861Z","","","","","","ControlQ","","","","","","","","","","","","","","","","","","","","","","","","","","","","","","","","","","","","","","50",""
"6701","","<div style=""width:500px;"">
  <p>How would you describe your current emotional state?</p>
  </div>","67","html-slider-response","76","1973387","0.0-10.0-3.6","26","1","2025-07-09 09:06:48","7701e855f2ef39aa3fd6c71abdc6918a","196.255.126.247","Mozilla/5.0 (Windows NT 10.0; Win64; x64) AppleWebKit/537.36 (KHTML, like Gecko) Chrome/138.0.0.0 Safari/537.36","WebKit","Chrome","138.0.0.0","Windows","10.0","https://app.prolific.com/","en-US,en;q=0.9","61715a02a3c88f5fb082a424","686d226cabeef709c732f8e1","686e310e04c12dce8e3b6020","61715a02a3c88f5fb082a424","2025-07-09T09:39:43.567Z","","","","","","StressQ","","","","","","","","","","","","","","","","","","","","","","","","","","","","","","","","","","","","","","50",""
"15912","","<div style=""width:500px;"">
  <p>What best describes how you currently feel?</p>
  </div>","100","html-slider-response","77","1989305","0.0-10.0-4.6","26","1","2025-07-09 09:06:48","7701e855f2ef39aa3fd6c71abdc6918a","196.255.126.247","Mozilla/5.0 (Windows NT 10.0; Win64; x64) AppleWebKit/537.36 (KHTML, like Gecko) Chrome/138.0.0.0 Safari/537.36","WebKit","Chrome","138.0.0.0","Windows","10.0","https://app.prolific.com/","en-US,en;q=0.9","61715a02a3c88f5fb082a424","686d226cabeef709c732f8e1","686e310e04c12dce8e3b6020","61715a02a3c88f5fb082a424","2025-07-09T09:39:59.484Z","","","","","","MotivationQ","","","","","","","","","","","","","","","","","","","","","","","","","","","","","","","","","","","","","","50",""
"","","","","ctl-task-cpt","78","2031230","0.0-10.0-0.7","26","1","2025-07-09 09:06:48","7701e855f2ef39aa3fd6c71abdc6918a","196.255.126.247","Mozilla/5.0 (Windows NT 10.0; Win64; x64) AppleWebKit/537.36 (KHTML, like Gecko) Chrome/138.0.0.0 Safari/537.36","WebKit","Chrome","138.0.0.0","Windows","10.0","https://app.prolific.com/","en-US,en;q=0.9","61715a02a3c88f5fb082a424","686d226cabeef709c732f8e1","686e310e04c12dce8e3b6020","61715a02a3c88f5fb082a424","2025-07-09T09:40:41.409Z","","","","","","","","","","","","","","","","win-only","0","g1:NW,g2:SE","0.3","8","0","1991729.4","5014.3","10017.1","38902.3","1","4","4","6","2","-4","-4","0","0","0","1343.6","3000","-2920","[""down"",""right""]","{""num_key_presses"":7,""num_perfect"":2,""num_errors"":0,""num_randdir"":5,""num_randdir_good_moves"":3,""num_whilered"":0,""num_whileblue"":0,""num_blue"":2,""num_good_moves"":5}","[416.57142857142856,417.6808016640799,0.8,416.57142857142856,417.6808016640799,101.3,416.57142857142856,417.6808016640799,202.2,416.57142857142856,417.6808016640799,306.8,416.57142857142856,417.6808016640799,411.3,416.57142857142856,417.6808016640799,513.1,416.57142857142856,417.6808016640799,622.2,416.57142857142856,417.6808016640799,726.6,416.57142857142856,417.6808016640799,827.3,613.0714285714286,575.1808016640799,927.7,727.0714285714286,677.1808016640799,1035.1,761.5714285714286,737.1808016640799,1137.2,761.5714285714286,737.1808016640799,1242.8,761.5714285714286,737.1808016640799,1347,761.5714285714286,737.1808016640799,1451,763.0714285714286,738.6808016640799,1551.5,773.5714285714286,722.1808016640799,1653.1,799.0714285714286,675.6808016640799,1754.3,809.5714285714286,666.6808016640799,1856.9,830.5714285714286,660.6808016640799,1961.3,938.5714285714286,629.1808016640799,2065.3,938.5714285714286,629.1808016640799,2166.1,938.5714285714286,629.1808016640799,2266.1,938.5714285714286,629.1808016640799,2366.8,938.5714285714286,629.1808016640799,2467.6,938.5714285714286,629.1808016640799,2571.2,938.5714285714286,629.1808016640799,2671.6,938.5714285714286,629.1808016640799,2771.6,938.5714285714286,629.1808016640799,2877.8,938.5714285714286,629.1808016640799,2986.2,938.5714285714286,629.1808016640799,3086.8,938.5714285714286,629.1808016640799,3191.2,938.5714285714286,629.1808016640799,3291.6,938.5714285714286,629.1808016640799,3392.1,938.5714285714286,629.1808016640799,3492.7,938.5714285714286,629.1808016640799,3596.6,938.5714285714286,629.1808016640799,3696.8,938.5714285714286,629.1808016640799,3799.5,938.5714285714286,629.1808016640799,3902.8,938.5714285714286,629.1808016640799,4006.3,938.5714285714286,629.1808016640799,4106.5,938.5714285714286,629.1808016640799,4207,938.5714285714286,629.1808016640799,4311.8,938.5714285714286,629.1808016640799,4421.3,938.5714285714286,629.1808016640799,4527.1,938.5714285714286,629.1808016640799,4635.7,938.5714285714286,629.1808016640799,4737.4,938.5714285714286,629.1808016640799,4837.4,938.5714285714286,629.1808016640799,4937.5]","[1466.6,1466.6,1000,0,466.6,""smooth"",""down"",""down"",""good_move"",4146.1,2679.1,2204.1,1467,475,""oops"",""down"",""left"",""bad_move"",6900.5,2753.2,2255.5,4147.3,497.7,""oops"",""down"",""down"",""good_move"",13824.6,6923.8,2434.4,11049.7,340.5,""oops"",""down"",""right"",""good_move"",17037.9,3212.3,2724.7,13825.6,487.6,""oops"",""down"",""up"",""bad_move"",22910.9,5872.6,2617.4,19983.1,310.4,""smooth"",""right"",""right"",""good_move"",26535.6,3624.2,3234.4,22911.4,389.8,""oops"",""down"",""down"",""good_move""]","","",""
"5451","","<div style=""width:500px;"">
  <p>What determined the result of this run?</p>
  </div>","0","html-slider-response","79","2036682","0.0-10.0-1.7","26","1","2025-07-09 09:06:48","7701e855f2ef39aa3fd6c71abdc6918a","196.255.126.247","Mozilla/5.0 (Windows NT 10.0; Win64; x64) AppleWebKit/537.36 (KHTML, like Gecko) Chrome/138.0.0.0 Safari/537.36","WebKit","Chrome","138.0.0.0","Windows","10.0","https://app.prolific.com/","en-US,en;q=0.9","61715a02a3c88f5fb082a424","686d226cabeef709c732f8e1","686e310e04c12dce8e3b6020","61715a02a3c88f5fb082a424","2025-07-09T09:40:46.862Z","","","","","","AttribQ","","","","","","","","","","","","","","","","","","","","","","","","","","","","","","","","","","","","","","50",""
"5929","","<div style=""width:500px;"">
  <p>How much control did you have over the ball?</p>
  </div>","4","html-slider-response","80","2042616","0.0-10.0-2.7","26","1","2025-07-09 09:06:48","7701e855f2ef39aa3fd6c71abdc6918a","196.255.126.247","Mozilla/5.0 (Windows NT 10.0; Win64; x64) AppleWebKit/537.36 (KHTML, like Gecko) Chrome/138.0.0.0 Safari/537.36","WebKit","Chrome","138.0.0.0","Windows","10.0","https://app.prolific.com/","en-US,en;q=0.9","61715a02a3c88f5fb082a424","686d226cabeef709c732f8e1","686e310e04c12dce8e3b6020","61715a02a3c88f5fb082a424","2025-07-09T09:40:52.796Z","","","","","","ControlQ","","","","","","","","","","","","","","","","","","","","","","","","","","","","","","","","","","","","","","50",""
"4570","","<div style=""width:500px;"">
  <p>How would you describe your current emotional state?</p>
  </div>","74","html-slider-response","81","2047189","0.0-10.0-3.7","26","1","2025-07-09 09:06:48","7701e855f2ef39aa3fd6c71abdc6918a","196.255.126.247","Mozilla/5.0 (Windows NT 10.0; Win64; x64) AppleWebKit/537.36 (KHTML, like Gecko) Chrome/138.0.0.0 Safari/537.36","WebKit","Chrome","138.0.0.0","Windows","10.0","https://app.prolific.com/","en-US,en;q=0.9","61715a02a3c88f5fb082a424","686d226cabeef709c732f8e1","686e310e04c12dce8e3b6020","61715a02a3c88f5fb082a424","2025-07-09T09:40:57.368Z","","","","","","StressQ","","","","","","","","","","","","","","","","","","","","","","","","","","","","","","","","","","","","","","50",""
"4183","","<div style=""width:500px;"">
  <p>What best describes how you currently feel?</p>
  </div>","92","html-slider-response","82","2051373","0.0-10.0-4.7","26","1","2025-07-09 09:06:48","7701e855f2ef39aa3fd6c71abdc6918a","196.255.126.247","Mozilla/5.0 (Windows NT 10.0; Win64; x64) AppleWebKit/537.36 (KHTML, like Gecko) Chrome/138.0.0.0 Safari/537.36","WebKit","Chrome","138.0.0.0","Windows","10.0","https://app.prolific.com/","en-US,en;q=0.9","61715a02a3c88f5fb082a424","686d226cabeef709c732f8e1","686e310e04c12dce8e3b6020","61715a02a3c88f5fb082a424","2025-07-09T09:41:01.552Z","","","","","","MotivationQ","","","","","","","","","","","","","","","","","","","","","","","","","","","","","","","","","","","","","","50",""
"","","","","ctl-task-cpt","83","2089264","0.0-10.0-0.8","26","1","2025-07-09 09:06:48","7701e855f2ef39aa3fd6c71abdc6918a","196.255.126.247","Mozilla/5.0 (Windows NT 10.0; Win64; x64) AppleWebKit/537.36 (KHTML, like Gecko) Chrome/138.0.0.0 Safari/537.36","WebKit","Chrome","138.0.0.0","Windows","10.0","https://app.prolific.com/","en-US,en;q=0.9","61715a02a3c88f5fb082a424","686d226cabeef709c732f8e1","686e310e04c12dce8e3b6020","61715a02a3c88f5fb082a424","2025-07-09T09:41:39.443Z","","","","","","","","","","","","","","","","win-only","1","g1:NE,g2:SW","0.2","9","0","2053796","2020.3","7021.4","34865.5","1","4","8","6","1","-1","-1","0","0","0","1496.2","3000","-2370","[""up"",""right""]","{""num_key_presses"":8,""num_perfect"":2,""num_errors"":0,""num_randdir"":6,""num_randdir_good_moves"":1,""num_whilered"":0,""num_whileblue"":0,""num_blue"":1,""num_good_moves"":3}","[407.57142857142856,413.1808016640799,0.2,407.57142857142856,413.1808016640799,101.9,407.57142857142856,413.1808016640799,210.1,407.57142857142856,413.1808016640799,310.7,407.57142857142856,413.1808016640799,410.9,407.57142857142856,413.1808016640799,516.3,419.57142857142856,408.6808016640799,620,419.57142857142856,408.6808016640799,724.1,419.57142857142856,408.6808016640799,825,419.57142857142856,408.6808016640799,926,419.57142857142856,408.6808016640799,1026,536.5714285714286,315.6808016640799,1129.1,689.5714285714286,146.18080166407992,1231.6,718.0714285714286,116.18080166407994,1335.2,752.5714285714286,81.68080166407994,1436.2,770.5714285714286,66.68080166407994,1546,770.5714285714286,65.18080166407994,1646.3,773.5714285714286,68.18080166407994,1750.6,1070.5714285714287,159.68080166407992,1861.1,1351.0714285714287,219.68080166407992,1961.1,1358.5714285714287,221.18080166407992,2065.7,1358.5714285714287,221.18080166407992,2165.8,1358.5714285714287,221.18080166407992,2274.2,1358.5714285714287,221.18080166407992,2376.2,1358.5714285714287,221.18080166407992,2480.6,1358.5714285714287,221.18080166407992,2581,1358.5714285714287,221.18080166407992,2681.1,1358.5714285714287,221.18080166407992,2785.7,1358.5714285714287,221.18080166407992,2890.9,1358.5714285714287,221.18080166407992,2995.9,1358.5714285714287,221.18080166407992,3096.9,1358.5714285714287,221.18080166407992,3201,1358.5714285714287,221.18080166407992,3307.2,1358.5714285714287,221.18080166407992,3412.3,1358.5714285714287,221.18080166407992,3515.9,1358.5714285714287,221.18080166407992,3616.1,1358.5714285714287,221.18080166407992,3721.7,1358.5714285714287,221.18080166407992,3823.8,1358.5714285714287,221.18080166407992,3930.3,1358.5714285714287,221.18080166407992,4031.3,1358.5714285714287,221.18080166407992,4135.8,1358.5714285714287,221.18080166407992,4242.2,1358.5714285714287,221.18080166407992,4344.9,1358.5714285714287,221.18080166407992,4450.3,1358.5714285714287,221.18080166407992,4555.5,1358.5714285714287,221.18080166407992,4655.5,1358.5714285714287,221.18080166407992,4760.7,1358.5714285714287,221.18080166407992,4864.8,1358.5714285714287,221.18080166407992,4965.7]","[1522.1,1522.1,1000,0,522.1,""oops"",""right"",""right"",""good_move"",4348.9,2826.4,2351,1522.5,475.4,""smooth"",""up"",""up"",""good_move"",7446.5,3097.2,2613,4349.3,484.2,""smooth"",""right"",""right"",""good_move"",10526.4,3079.3,2680.7,7447.1,398.6,""oops"",""up"",""down"",""bad_move"",13950.8,3424.1,3074.3,10526.8,349.7,""oops"",""up"",""down"",""bad_move"",17229.9,3278.7,2858.9,13951.2,419.8,""oops"",""down"",""left"",""bad_move"",20147.9,2917.5,2602,17230.4,315.5,""oops"",""up"",""down"",""bad_move"",25685,5536.9,2144,23195.8,345.2,""oops"",""up"",""down"",""bad_move""]","","",""
"4591","","<div style=""width:500px;"">
  <p>What determined the result of this run?</p>
  </div>","0","html-slider-response","84","2093858","0.0-10.0-1.8","26","1","2025-07-09 09:06:48","7701e855f2ef39aa3fd6c71abdc6918a","196.255.126.247","Mozilla/5.0 (Windows NT 10.0; Win64; x64) AppleWebKit/537.36 (KHTML, like Gecko) Chrome/138.0.0.0 Safari/537.36","WebKit","Chrome","138.0.0.0","Windows","10.0","https://app.prolific.com/","en-US,en;q=0.9","61715a02a3c88f5fb082a424","686d226cabeef709c732f8e1","686e310e04c12dce8e3b6020","61715a02a3c88f5fb082a424","2025-07-09T09:41:44.037Z","","","","","","AttribQ","","","","","","","","","","","","","","","","","","","","","","","","","","","","","","","","","","","","","","50",""
"5879","","<div style=""width:500px;"">
  <p>How much control did you have over the ball?</p>
  </div>","0","html-slider-response","85","2099742","0.0-10.0-2.8","26","1","2025-07-09 09:06:48","7701e855f2ef39aa3fd6c71abdc6918a","196.255.126.247","Mozilla/5.0 (Windows NT 10.0; Win64; x64) AppleWebKit/537.36 (KHTML, like Gecko) Chrome/138.0.0.0 Safari/537.36","WebKit","Chrome","138.0.0.0","Windows","10.0","https://app.prolific.com/","en-US,en;q=0.9","61715a02a3c88f5fb082a424","686d226cabeef709c732f8e1","686e310e04c12dce8e3b6020","61715a02a3c88f5fb082a424","2025-07-09T09:41:49.921Z","","","","","","ControlQ","","","","","","","","","","","","","","","","","","","","","","","","","","","","","","","","","","","","","","50",""
"6892","","<div style=""width:500px;"">
  <p>How would you describe your current emotional state?</p>
  </div>","49","html-slider-response","86","2106637","0.0-10.0-3.8","26","1","2025-07-09 09:06:48","7701e855f2ef39aa3fd6c71abdc6918a","196.255.126.247","Mozilla/5.0 (Windows NT 10.0; Win64; x64) AppleWebKit/537.36 (KHTML, like Gecko) Chrome/138.0.0.0 Safari/537.36","WebKit","Chrome","138.0.0.0","Windows","10.0","https://app.prolific.com/","en-US,en;q=0.9","61715a02a3c88f5fb082a424","686d226cabeef709c732f8e1","686e310e04c12dce8e3b6020","61715a02a3c88f5fb082a424","2025-07-09T09:41:56.816Z","","","","","","StressQ","","","","","","","","","","","","","","","","","","","","","","","","","","","","","","","","","","","","","","50",""
"5619","","<div style=""width:500px;"">
  <p>What best describes how you currently feel?</p>
  </div>","100","html-slider-response","87","2112261","0.0-10.0-4.8","26","1","2025-07-09 09:06:48","7701e855f2ef39aa3fd6c71abdc6918a","196.255.126.247","Mozilla/5.0 (Windows NT 10.0; Win64; x64) AppleWebKit/537.36 (KHTML, like Gecko) Chrome/138.0.0.0 Safari/537.36","WebKit","Chrome","138.0.0.0","Windows","10.0","https://app.prolific.com/","en-US,en;q=0.9","61715a02a3c88f5fb082a424","686d226cabeef709c732f8e1","686e310e04c12dce8e3b6020","61715a02a3c88f5fb082a424","2025-07-09T09:42:02.440Z","","","","","","MotivationQ","","","","","","","","","","","","","","","","","","","","","","","","","","","","","","","","","","","","","","50",""
