"rt","response_timestamp","stimulus","response","trial_type","trial_index","time_elapsed","internal_node_id","run_id","condition","recorded_at","source_code_version","ip","user_agent","device","browser","browser_version","platform","platform_version","referer","accept_language","PROLIFIC_PID","STUDY_ID","SESSION_ID","prolific_id","realtime","view_history","question_order","consent","success","question_id","eventType","responses","item_order","radio_event_ids","radio_event_times","key_event_times","mouse_event_times","straightlining","zigzagging","honeypot","which_type","canvas_config","goals_layout","control_level","trial_number","tutorial_trial_number","trial_start_time","phase1_start_time","phase2_start_time","phase3_start_time","goal_1_value","goal_1_distance","goal_2_value","goal_2_distance","goal_selected","outcome","outcome_total","participant_final_score","participant_initial_score","participant_final_score_prop","goal_choice_rt","allocated_time","allocated_time_remaining","goal_direction","counts","mouse_movements","key_presses","correct","slider_start"
"14642","1752052196062","<p style='font-size:40px;line-height:1.25'><strong>Welcome to the experiment!</strong></p><p style='font-size:1.1em;line-height:1.25'>Thank you for your interest in our experiment! Before you begin, it is important that we obtain your informed consent to participate in the study.</p><p style='font-size:1.1em;line-height:1.25'>On the next screen will be an <strong>information sheet</strong> for you to read. To participate in the study we need you to read this information sheet and the following consent form carefully. If you agree with all the statements, please click the <strong>I agree</strong> button.</p><p style='font-size:1.1em;line-height:1.25'>Press <strong>Next</strong> to read the information sheet.</p>","0","custom-html-button-response","0","14643","0.0-0.0","148","1","2025-07-09 09:09:39","7701e855f2ef39aa3fd6c71abdc6918a","102.33.189.50","Mozilla/5.0 (Windows NT 10.0; Win64; x64) AppleWebKit/537.36 (KHTML, like Gecko) Chrome/138.0.0.0 Safari/537.36 Edg/138.0.0.0","WebKit","Edge","138.0.0.0","Windows","10.0","https://app.prolific.com/","en-US,en;q=0.9,en-ZA;q=0.8","64f7a35c5f6503caaa59f79f","686d226cabeef709c732f8e1","686e312b2e1ac1ebf54e9f88","64f7a35c5f6503caaa59f79f","2025-07-09T09:09:56.063Z","","","","","","","","","","","","","","","","","","","","","","","","","","","","","","","","","","","","","","","","","","","",""
"20092","","","","instructions","1","34738","0.0-1.0","148","1","2025-07-09 09:09:39","7701e855f2ef39aa3fd6c71abdc6918a","102.33.189.50","Mozilla/5.0 (Windows NT 10.0; Win64; x64) AppleWebKit/537.36 (KHTML, like Gecko) Chrome/138.0.0.0 Safari/537.36 Edg/138.0.0.0","WebKit","Edge","138.0.0.0","Windows","10.0","https://app.prolific.com/","en-US,en;q=0.9,en-ZA;q=0.8","64f7a35c5f6503caaa59f79f","686d226cabeef709c732f8e1","686e312b2e1ac1ebf54e9f88","64f7a35c5f6503caaa59f79f","","[{""page_index"":0,""viewing_time"":14302},{""page_index"":1,""viewing_time"":5790}]","","","","","","","","","","","","","","","","","","","","","","","","","","","","","","","","","","","","","","","","","","",""
"24547","","","{""Q0"":"""",""Q1"":"""",""Q2"":"""",""Q3"":"""",""Q4"":"""",""Q5"":"""",""Q6"":""I agree""}","survey-multi-choice","2","59287","0.0-2.0","148","1","2025-07-09 09:09:39","7701e855f2ef39aa3fd6c71abdc6918a","102.33.189.50","Mozilla/5.0 (Windows NT 10.0; Win64; x64) AppleWebKit/537.36 (KHTML, like Gecko) Chrome/138.0.0.0 Safari/537.36 Edg/138.0.0.0","WebKit","Edge","138.0.0.0","Windows","10.0","https://app.prolific.com/","en-US,en;q=0.9,en-ZA;q=0.8","64f7a35c5f6503caaa59f79f","686d226cabeef709c732f8e1","686e312b2e1ac1ebf54e9f88","64f7a35c5f6503caaa59f79f","","","[0,1,2,3,4,5,6]","true","","","","","","","","","","","","","","","","","","","","","","","","","","","","","","","","","","","","","","","","",""
"10899","","","","fullscreen","3","71201","0.0-4.0","148","1","2025-07-09 09:09:39","7701e855f2ef39aa3fd6c71abdc6918a","102.33.189.50","Mozilla/5.0 (Windows NT 10.0; Win64; x64) AppleWebKit/537.36 (KHTML, like Gecko) Chrome/138.0.0.0 Safari/537.36 Edg/138.0.0.0","WebKit","Edge","138.0.0.0","Windows","10.0","https://app.prolific.com/","en-US,en;q=0.9,en-ZA;q=0.8","64f7a35c5f6503caaa59f79f","686d226cabeef709c732f8e1","686e312b2e1ac1ebf54e9f88","64f7a35c5f6503caaa59f79f","","","","","true","","","","","","","","","","","","","","","","","","","","","","","","","","","","","","","","","","","","","","","",""
"7538","1752052260160"," <p style='font-size:1.1em;line-height:1.25'>Thank you for completing the consent form and closing all other tabs.</p><p style='font-size:1.1em;line-height:1.25'>We will now invite you to fill in some demographic information and questionnaires, before starting the game.<br>This will take about 5 minutes.<br></p><p style='font-size:1.1em;line-height:1.25'>Press the <strong>Next</strong> button to continue.</p>","0","custom-html-button-response","4","78740","0.0-5.0","148","1","2025-07-09 09:09:39","7701e855f2ef39aa3fd6c71abdc6918a","102.33.189.50","Mozilla/5.0 (Windows NT 10.0; Win64; x64) AppleWebKit/537.36 (KHTML, like Gecko) Chrome/138.0.0.0 Safari/537.36 Edg/138.0.0.0","WebKit","Edge","138.0.0.0","Windows","10.0","https://app.prolific.com/","en-US,en;q=0.9,en-ZA;q=0.8","64f7a35c5f6503caaa59f79f","686d226cabeef709c732f8e1","686e312b2e1ac1ebf54e9f88","64f7a35c5f6503caaa59f79f","2025-07-09T09:11:00.160Z","","","","","","","","","","","","","","","","","","","","","","","","","","","","","","","","","","","","","","","","","","","",""
"3877","","","{""age"":""25""}","survey-text","5","82619","0.0-6.0-0.0","148","1","2025-07-09 09:09:39","7701e855f2ef39aa3fd6c71abdc6918a","102.33.189.50","Mozilla/5.0 (Windows NT 10.0; Win64; x64) AppleWebKit/537.36 (KHTML, like Gecko) Chrome/138.0.0.0 Safari/537.36 Edg/138.0.0.0","WebKit","Edge","138.0.0.0","Windows","10.0","https://app.prolific.com/","en-US,en;q=0.9,en-ZA;q=0.8","64f7a35c5f6503caaa59f79f","686d226cabeef709c732f8e1","686e312b2e1ac1ebf54e9f88","64f7a35c5f6503caaa59f79f","","","","","","0","demographics","","","","","","","","","","","","","","","","","","","","","","","","","","","","","","","","","","","","","",""
"2490","","","{""gender_identity"":""female/woman""}","survey-multi-choice","6","85109","0.0-6.0-1.0","148","1","2025-07-09 09:09:39","7701e855f2ef39aa3fd6c71abdc6918a","102.33.189.50","Mozilla/5.0 (Windows NT 10.0; Win64; x64) AppleWebKit/537.36 (KHTML, like Gecko) Chrome/138.0.0.0 Safari/537.36 Edg/138.0.0.0","WebKit","Edge","138.0.0.0","Windows","10.0","https://app.prolific.com/","en-US,en;q=0.9,en-ZA;q=0.8","64f7a35c5f6503caaa59f79f","686d226cabeef709c732f8e1","686e312b2e1ac1ebf54e9f88","64f7a35c5f6503caaa59f79f","","","[0]","","","1","demographics","","","","","","","","","","","","","","","","","","","","","","","","","","","","","","","","","","","","","",""
"2437","","","{""assigned_sex"":""female""}","survey-multi-choice","7","87547","0.0-6.0-2.0","148","1","2025-07-09 09:09:39","7701e855f2ef39aa3fd6c71abdc6918a","102.33.189.50","Mozilla/5.0 (Windows NT 10.0; Win64; x64) AppleWebKit/537.36 (KHTML, like Gecko) Chrome/138.0.0.0 Safari/537.36 Edg/138.0.0.0","WebKit","Edge","138.0.0.0","Windows","10.0","https://app.prolific.com/","en-US,en;q=0.9,en-ZA;q=0.8","64f7a35c5f6503caaa59f79f","686d226cabeef709c732f8e1","686e312b2e1ac1ebf54e9f88","64f7a35c5f6503caaa59f79f","","","[0]","","","2","demographics","","","","","","","","","","","","","","","","","","","","","","","","","","","","","","","","","","","","","",""
"4605","","","{""menstrual_cycle"":""Yes""}","survey-multi-choice","8","92153","0.0-6.0-3.0","148","1","2025-07-09 09:09:39","7701e855f2ef39aa3fd6c71abdc6918a","102.33.189.50","Mozilla/5.0 (Windows NT 10.0; Win64; x64) AppleWebKit/537.36 (KHTML, like Gecko) Chrome/138.0.0.0 Safari/537.36 Edg/138.0.0.0","WebKit","Edge","138.0.0.0","Windows","10.0","https://app.prolific.com/","en-US,en;q=0.9,en-ZA;q=0.8","64f7a35c5f6503caaa59f79f","686d226cabeef709c732f8e1","686e312b2e1ac1ebf54e9f88","64f7a35c5f6503caaa59f79f","","","[0]","","","4","demographics","","","","","","","","","","","","","","","","","","","","","","","","","","","","","","","","","","","","","",""
"11345","","","{""education"":""Bachelor's Degree (e.g., BA)""}","survey-multi-choice","9","103499","0.0-6.0-4.0","148","1","2025-07-09 09:09:39","7701e855f2ef39aa3fd6c71abdc6918a","102.33.189.50","Mozilla/5.0 (Windows NT 10.0; Win64; x64) AppleWebKit/537.36 (KHTML, like Gecko) Chrome/138.0.0.0 Safari/537.36 Edg/138.0.0.0","WebKit","Edge","138.0.0.0","Windows","10.0","https://app.prolific.com/","en-US,en;q=0.9,en-ZA;q=0.8","64f7a35c5f6503caaa59f79f","686d226cabeef709c732f8e1","686e312b2e1ac1ebf54e9f88","64f7a35c5f6503caaa59f79f","","","[0]","","","5","demographics","","","","","","","","","","","","","","","","","","","","","","","","","","","","","","","","","","","","","",""
"7952","","","{""education"":""GCSE/Standard Grades""}","survey-multi-choice","10","111452","0.0-6.0-5.0","148","1","2025-07-09 09:09:39","7701e855f2ef39aa3fd6c71abdc6918a","102.33.189.50","Mozilla/5.0 (Windows NT 10.0; Win64; x64) AppleWebKit/537.36 (KHTML, like Gecko) Chrome/138.0.0.0 Safari/537.36 Edg/138.0.0.0","WebKit","Edge","138.0.0.0","Windows","10.0","https://app.prolific.com/","en-US,en;q=0.9,en-ZA;q=0.8","64f7a35c5f6503caaa59f79f","686d226cabeef709c732f8e1","686e312b2e1ac1ebf54e9f88","64f7a35c5f6503caaa59f79f","2025-07-09T09:11:32.872Z","","[0]","","","6","demographics","","","","","","","","","","","","","","","","","","","","","","","","","","","","","","","","","","","","","",""
"12422","","","{""mental_health_condition"":""no"",""mental_health_treatment"":""no"",""psychiatric_medication"":""no""}","survey-text","11","123878","0.0-7.0-0.0","148","1","2025-07-09 09:09:39","7701e855f2ef39aa3fd6c71abdc6918a","102.33.189.50","Mozilla/5.0 (Windows NT 10.0; Win64; x64) AppleWebKit/537.36 (KHTML, like Gecko) Chrome/138.0.0.0 Safari/537.36 Edg/138.0.0.0","WebKit","Edge","138.0.0.0","Windows","10.0","https://app.prolific.com/","en-US,en;q=0.9,en-ZA;q=0.8","64f7a35c5f6503caaa59f79f","686d226cabeef709c732f8e1","686e312b2e1ac1ebf54e9f88","64f7a35c5f6503caaa59f79f","2025-07-09T09:11:45.298Z","","","","","1","mental_health","","","","","","","","","","","","","","","","","","","","","","","","","","","","","","","","","","","","","",""
"20749","","","{""depression_history"":[""No""]}","survey-multi-select","12","144628","0.0-7.0-1.0","148","1","2025-07-09 09:09:39","7701e855f2ef39aa3fd6c71abdc6918a","102.33.189.50","Mozilla/5.0 (Windows NT 10.0; Win64; x64) AppleWebKit/537.36 (KHTML, like Gecko) Chrome/138.0.0.0 Safari/537.36 Edg/138.0.0.0","WebKit","Edge","138.0.0.0","Windows","10.0","https://app.prolific.com/","en-US,en;q=0.9,en-ZA;q=0.8","64f7a35c5f6503caaa59f79f","686d226cabeef709c732f8e1","686e312b2e1ac1ebf54e9f88","64f7a35c5f6503caaa59f79f","","","[0]","","","","mental_health","","","","","","","","","","","","","","","","","","","","","","","","","","","","","","","","","","","","","",""
"76205.60000002384","","","","survey-template","13","220839","0.0-7.0-3.0","148","1","2025-07-09 09:09:39","7701e855f2ef39aa3fd6c71abdc6918a","102.33.189.50","Mozilla/5.0 (Windows NT 10.0; Win64; x64) AppleWebKit/537.36 (KHTML, like Gecko) Chrome/138.0.0.0 Safari/537.36 Edg/138.0.0.0","WebKit","Edge","138.0.0.0","Windows","10.0","https://app.prolific.com/","en-US,en;q=0.9,en-ZA;q=0.8","64f7a35c5f6503caaa59f79f","686d226cabeef709c732f8e1","686e312b2e1ac1ebf54e9f88","64f7a35c5f6503caaa59f79f","2025-07-09T09:13:22.259Z","","","","","","ius","{""Q01"":""3"",""Q02"":""4"",""Q03"":""0"",""Q04"":""3"",""Q05"":""4"",""Q06"":""3"",""Q07"":""3"",""Q08"":""0"",""Q09"":""1"",""Q10"":""1"",""Q11"":""0"",""Q12"":""4"",""Q13"":""0""}","[0,1,2,3,4,5,6,7,8,9,10,11,12]","[""Q01"",""Q02"",""Q04"",""Q05"",""Q06"",""Q07"",""Q08"",""Q10"",""Q09"",""Q11"",""Q12"",""Q13"",""Q03""]","[6176.900000035763,11604.300000011921,17707,20475.900000035763,23348.900000035763,28424,35441.5,42180.30000001192,46459.90000003576,52532.80000001192,58114.80000001192,63057.80000001192,74029.70000004768]","[]","[6176.900000035763,11604.300000011921,13545.900000035763,17707,20475.900000035763,23348.900000035763,28424,35441.5,39598,42180.30000001192,46459.90000003576,52532.80000001192,58114.80000001192,63057.80000001192,65307.700000047684,74029.70000004768,76204.20000004768]","0.3076923076923077","0.6666666666666666","0","","","","","","","","","","","","","","","","","","","","","","","","","","","","",""
"4600","1752052406859","<p style='font-size:1.1em;line-height:1.25'>In the following, we will ask you a few questions relating to your experiences over the past month.<br></p><p style='font-size:1.1em;line-height:1.25'>Press the <strong>Next</strong> button to continue.</p>","0","custom-html-button-response","14","225440","0.0-7.0-4.0","148","1","2025-07-09 09:09:39","7701e855f2ef39aa3fd6c71abdc6918a","102.33.189.50","Mozilla/5.0 (Windows NT 10.0; Win64; x64) AppleWebKit/537.36 (KHTML, like Gecko) Chrome/138.0.0.0 Safari/537.36 Edg/138.0.0.0","WebKit","Edge","138.0.0.0","Windows","10.0","https://app.prolific.com/","en-US,en;q=0.9,en-ZA;q=0.8","64f7a35c5f6503caaa59f79f","686d226cabeef709c732f8e1","686e312b2e1ac1ebf54e9f88","64f7a35c5f6503caaa59f79f","2025-07-09T09:13:26.860Z","","","","","","","","","","","","","","","","","","","","","","","","","","","","","","","","","","","","","","","","","","","",""
"49574.10000002384","","","","survey-template","15","275018","0.0-7.0-5.0","148","1","2025-07-09 09:09:39","7701e855f2ef39aa3fd6c71abdc6918a","102.33.189.50","Mozilla/5.0 (Windows NT 10.0; Win64; x64) AppleWebKit/537.36 (KHTML, like Gecko) Chrome/138.0.0.0 Safari/537.36 Edg/138.0.0.0","WebKit","Edge","138.0.0.0","Windows","10.0","https://app.prolific.com/","en-US,en;q=0.9,en-ZA;q=0.8","64f7a35c5f6503caaa59f79f","686d226cabeef709c732f8e1","686e312b2e1ac1ebf54e9f88","64f7a35c5f6503caaa59f79f","2025-07-09T09:14:16.438Z","","","","","","pss","{""Q01"":""3"",""Q02"":""2"",""Q03"":""3"",""Q04"":""0"",""Q05"":""0"",""Q06"":""1"",""Q07"":""3"",""Q08"":""2"",""Q09"":""1"",""Q10"":""2""}","[0,1,2,3,4,5,6,7,8,9]","[""Q01"",""Q02"",""Q02"",""Q03"",""Q04"",""Q05"",""Q06"",""Q07"",""Q08"",""Q09"",""Q10""]","[7105.5,10784.800000011921,11950.800000011921,15158.100000023842,20332.69999998808,27281.900000035763,31845.900000035763,36032.69999998808,40204.90000003576,44919.30000001192,48510.60000002384]","[]","[0,7105.5,10784.800000011921,11559.800000011921,11950.800000011921,15158.100000023842,20332.69999998808,27281.900000035763,31845.900000035763,36032.69999998808,40204.90000003576,44919.30000001192,48510.60000002384,49573]","0.3","0.6666666666666666","0","","","","","","","","","","","","","","","","","","","","","","","","","","","","",""
"3465","1752052459904","<p style='font-size:1.1em;line-height:1.25'>Thank you for your answers! Now we will ask you a few more questions relating to your feelings in the last 24 hours.<br></p><p style='font-size:1.1em;line-height:1.25'>Press the <strong>Next</strong> button to continue.</p>","0","custom-html-button-response","16","278484","0.0-7.0-6.0","148","1","2025-07-09 09:09:39","7701e855f2ef39aa3fd6c71abdc6918a","102.33.189.50","Mozilla/5.0 (Windows NT 10.0; Win64; x64) AppleWebKit/537.36 (KHTML, like Gecko) Chrome/138.0.0.0 Safari/537.36 Edg/138.0.0.0","WebKit","Edge","138.0.0.0","Windows","10.0","https://app.prolific.com/","en-US,en;q=0.9,en-ZA;q=0.8","64f7a35c5f6503caaa59f79f","686d226cabeef709c732f8e1","686e312b2e1ac1ebf54e9f88","64f7a35c5f6503caaa59f79f","2025-07-09T09:14:19.904Z","","","","","","","","","","","","","","","","","","","","","","","","","","","","","","","","","","","","","","","","","","","",""
"73852.69999998808","","","","survey-template","17","352341","0.0-7.0-7.0","148","1","2025-07-09 09:09:39","7701e855f2ef39aa3fd6c71abdc6918a","102.33.189.50","Mozilla/5.0 (Windows NT 10.0; Win64; x64) AppleWebKit/537.36 (KHTML, like Gecko) Chrome/138.0.0.0 Safari/537.36 Edg/138.0.0.0","WebKit","Edge","138.0.0.0","Windows","10.0","https://app.prolific.com/","en-US,en;q=0.9,en-ZA;q=0.8","64f7a35c5f6503caaa59f79f","686d226cabeef709c732f8e1","686e312b2e1ac1ebf54e9f88","64f7a35c5f6503caaa59f79f","2025-07-09T09:15:33.761Z","","","","","","drsp","{""Q01"":""0"",""Q02"":""0"",""Q03"":""0"",""Q04"":""1"",""Q05"":""1"",""Q06"":""0"",""Q07"":""0"",""Q08"":""1"",""Q09"":""2"",""Q10"":""0"",""Q11"":""1"",""Q12"":""3"",""Q13"":""2"",""Q14"":""0"",""Q15"":""1"",""Q16"":""0"",""Q17"":""0"",""Q18"":""2"",""Q19"":""2"",""Q20"":""3"",""Q21"":""1""}","[0,1,2,3,4,5,6,7,8,9,10,11,12,13,14,15,16,17,18,19,20]","[""Q01"",""Q02"",""Q03"",""Q04"",""Q05"",""Q06"",""Q07"",""Q08"",""Q09"",""Q10"",""Q11"",""Q12"",""Q13"",""Q14"",""Q15"",""Q16"",""Q17"",""Q18"",""Q18"",""Q19"",""Q20"",""Q21""]","[7176.199999988079,7792.099999964237,9951.399999976158,11566.399999976158,12821.399999976158,14764.300000011921,16299.199999988079,17901.19999998808,21572.399999976158,26063.30000001192,29696.399999976158,33870.5,39841.69999998808,44186.5,45801.5,48840.80000001192,49967.19999998808,54516.30000001192,57355.5,65127.09999996424,67886.39999997616,72931.80000001192]","[]","[0,5954.399999976158,7176.199999988079,7792.099999964237,9951.399999976158,11566.399999976158,12821.399999976158,14764.300000011921,16299.199999988079,17901.19999998808,21572.399999976158,26063.30000001192,29696.399999976158,33870.5,39841.69999998808,44186.5,45801.5,48840.80000001192,49967.19999998808,54516.30000001192,57355.5,65127.09999996424,67886.39999997616,72931.80000001192,73850.59999996424]","0.42857142857142855","0.45","0","","","","","","","","","","","","","","","","","","","","","","","","","","","","",""
"15228.899999976158","","","","survey-template","18","367572","0.0-7.0-8.0","148","1","2025-07-09 09:09:39","7701e855f2ef39aa3fd6c71abdc6918a","102.33.189.50","Mozilla/5.0 (Windows NT 10.0; Win64; x64) AppleWebKit/537.36 (KHTML, like Gecko) Chrome/138.0.0.0 Safari/537.36 Edg/138.0.0.0","WebKit","Edge","138.0.0.0","Windows","10.0","https://app.prolific.com/","en-US,en;q=0.9,en-ZA;q=0.8","64f7a35c5f6503caaa59f79f","686d226cabeef709c732f8e1","686e312b2e1ac1ebf54e9f88","64f7a35c5f6503caaa59f79f","2025-07-09T09:15:48.992Z","","","","","","stress","{""Q01"":""0"",""Q02"":""3"",""Q03"":""0""}","[0,1,2]","[""Q02"",""Q03"",""Q01""]","[6784.199999988079,11035.199999988079,14316.199999988079]","[]","[4488.100000023842,6784.199999988079,10675.399999976158,11035.199999988079,11859.100000023842,14316.199999988079,15228.399999976158]","0.6666666666666666","0","0","","","","","","","","","","","","","","","","","","","","","","","","","","","","",""
"148583","","","","instructions","19","516156","0.0-8.0-0.0","148","1","2025-07-09 09:09:39","7701e855f2ef39aa3fd6c71abdc6918a","102.33.189.50","Mozilla/5.0 (Windows NT 10.0; Win64; x64) AppleWebKit/537.36 (KHTML, like Gecko) Chrome/138.0.0.0 Safari/537.36 Edg/138.0.0.0","WebKit","Edge","138.0.0.0","Windows","10.0","https://app.prolific.com/","en-US,en;q=0.9,en-ZA;q=0.8","64f7a35c5f6503caaa59f79f","686d226cabeef709c732f8e1","686e312b2e1ac1ebf54e9f88","64f7a35c5f6503caaa59f79f","","[{""page_index"":0,""viewing_time"":49870},{""page_index"":1,""viewing_time"":23107},{""page_index"":2,""viewing_time"":35769},{""page_index"":3,""viewing_time"":39837}]","","","","","","","","","","","","","","","","","","","","","","","","","","","","","","","","","","","","","","","","","","",""
"","","","","ctl-task-cpt","20","532779","0.0-8.0-1.0","148","1","2025-07-09 09:09:39","7701e855f2ef39aa3fd6c71abdc6918a","102.33.189.50","Mozilla/5.0 (Windows NT 10.0; Win64; x64) AppleWebKit/537.36 (KHTML, like Gecko) Chrome/138.0.0.0 Safari/537.36 Edg/138.0.0.0","WebKit","Edge","138.0.0.0","Windows","10.0","https://app.prolific.com/","en-US,en;q=0.9,en-ZA;q=0.8","64f7a35c5f6503caaa59f79f","686d226cabeef709c732f8e1","686e312b2e1ac1ebf54e9f88","64f7a35c5f6503caaa59f79f","","","","","","","","","","","","","","","","","win-only","2","g1:SE,g2:NW","1","0","1","519068.3","4233.6","8236","13606.8","2","4","4","6","1","-2","-2","0","0","0","4002.3","4000","-2705","[""down"",""right""]","{""num_key_presses"":0,""num_perfect"":0,""num_errors"":0,""num_randdir"":0,""num_randdir_good_moves"":0,""num_whilered"":0,""num_whileblue"":0,""num_blue"":0,""num_good_moves"":0}","[415.57142857142856,415.47767857142856,0.1,415.57142857142856,415.47767857142856,102.5,415.57142857142856,415.47767857142856,207.3,415.57142857142856,415.47767857142856,312,415.57142857142856,415.47767857142856,412.4,415.57142857142856,415.47767857142856,517.8,430.57142857142856,484.47767857142856,622.1,435.57142857142856,627.4776785714286,722.5,429.57142857142856,665.4776785714286,827.1,430.57142857142856,655.4776785714286,927.7,456.57142857142856,609.4776785714286,1028,456.57142857142856,599.4776785714286,1132.1,449.57142857142856,595.4776785714286,1232.3,413.57142857142856,595.4776785714286,1336.8,413.57142857142856,595.4776785714286,1437,413.57142857142856,595.4776785714286,1538.2,413.57142857142856,595.4776785714286,1642.8,413.57142857142856,595.4776785714286,1746.8,413.57142857142856,595.4776785714286,1847.4,413.57142857142856,595.4776785714286,1947.6,413.57142857142856,595.4776785714286,2052.5,413.57142857142856,595.4776785714286,2152.5,413.57142857142856,595.4776785714286,2258.1,413.57142857142856,595.4776785714286,2362,413.57142857142856,595.4776785714286,2462.1,413.57142857142856,595.4776785714286,2562.1,413.57142857142856,595.4776785714286,2662.1,413.57142857142856,595.4776785714286,2762.5,413.57142857142856,592.4776785714286,2866.8,467.57142857142856,580.4776785714286,2972.2,473.57142857142856,580.4776785714286,3077,473.57142857142856,580.4776785714286,3177.2,473.57142857142856,580.4776785714286,3277.6,480.57142857142856,596.4776785714286,3382.4,482.57142857142856,610.4776785714286,3482.5,483.57142857142856,615.4776785714286,3588.6,483.57142857142856,615.4776785714286,3692.1,483.57142857142856,612.4776785714286,3792.6,483.57142857142856,612.4776785714286,3892.6,483.57142857142856,611.4776785714286,3992.9]","[]","",""
"46708","","","","instructions","21","579488","0.0-8.0-2.0","148","1","2025-07-09 09:09:39","7701e855f2ef39aa3fd6c71abdc6918a","102.33.189.50","Mozilla/5.0 (Windows NT 10.0; Win64; x64) AppleWebKit/537.36 (KHTML, like Gecko) Chrome/138.0.0.0 Safari/537.36 Edg/138.0.0.0","WebKit","Edge","138.0.0.0","Windows","10.0","https://app.prolific.com/","en-US,en;q=0.9,en-ZA;q=0.8","64f7a35c5f6503caaa59f79f","686d226cabeef709c732f8e1","686e312b2e1ac1ebf54e9f88","64f7a35c5f6503caaa59f79f","","[{""page_index"":0,""viewing_time"":46708}]","","","","","","","","","","","","","","","","","","","","","","","","","","","","","","","","","","","","","","","","","","",""
"","","","","ctl-task-cpt","22","595181","0.0-8.0-3.0","148","1","2025-07-09 09:09:39","7701e855f2ef39aa3fd6c71abdc6918a","102.33.189.50","Mozilla/5.0 (Windows NT 10.0; Win64; x64) AppleWebKit/537.36 (KHTML, like Gecko) Chrome/138.0.0.0 Safari/537.36 Edg/138.0.0.0","WebKit","Edge","138.0.0.0","Windows","10.0","https://app.prolific.com/","en-US,en;q=0.9,en-ZA;q=0.8","64f7a35c5f6503caaa59f79f","686d226cabeef709c732f8e1","686e312b2e1ac1ebf54e9f88","64f7a35c5f6503caaa59f79f","","","","","","","","","","","","","","","","","win-only","2","g1:SE,g2:NW","0.35","0","3","582399.8","3190.2","7191.2","12674.7","2","4","8","6","2","-8","-8","0","0","0","4001","4000","-2715","[""left"",""up""]","{""num_key_presses"":0,""num_perfect"":0,""num_errors"":0,""num_randdir"":0,""num_randdir_good_moves"":0,""num_whilered"":0,""num_whileblue"":0,""num_blue"":0,""num_good_moves"":0}","[416.57142857142856,417.47767857142856,0.1,416.57142857142856,417.47767857142856,100.8,416.57142857142856,417.47767857142856,205.2,416.57142857142856,417.47767857142856,305.2,416.57142857142856,417.47767857142856,405.2,423.57142857142856,456.47767857142856,505.3,435.57142857142856,471.47767857142856,605.6,467.57142857142856,492.47767857142856,712,480.57142857142856,504.47767857142856,817.8,504.57142857142856,583.4776785714286,920,504.57142857142856,669.4776785714286,1020.9,495.57142857142856,692.4776785714286,1125.7,495.57142857142856,692.4776785714286,1225.7,495.57142857142856,692.4776785714286,1334.2,495.57142857142856,692.4776785714286,1434.2,495.57142857142856,692.4776785714286,1534.2,495.57142857142856,692.4776785714286,1634.2,495.57142857142856,692.4776785714286,1735.5,495.57142857142856,692.4776785714286,1836.4,495.57142857142856,692.4776785714286,1940.6,495.57142857142856,690.4776785714286,2050.6,496.57142857142856,688.4776785714286,2150.7,496.57142857142856,685.4776785714286,2250.8,496.57142857142856,682.4776785714286,2355.6,496.57142857142856,679.4776785714286,2460.7,496.57142857142856,677.4776785714286,2567.5,496.57142857142856,671.4776785714286,2667.6,496.57142857142856,667.4776785714286,2770.2,496.57142857142856,662.4776785714286,2875.4,494.57142857142856,656.4776785714286,2975.5,494.57142857142856,631.4776785714286,3075.5,498.57142857142856,583.4776785714286,3175.6,502.57142857142856,551.4776785714286,3284.3,502.57142857142856,544.4776785714286,3384.3,499.57142857142856,529.4776785714286,3485.5,498.57142857142856,525.4776785714286,3585.5,498.57142857142856,525.4776785714286,3685.5,498.57142857142856,525.4776785714286,3790.4,498.57142857142856,525.4776785714286,3890.5]","[]","",""
"63305","","","","instructions","23","658486","0.0-8.0-4.0","148","1","2025-07-09 09:09:39","7701e855f2ef39aa3fd6c71abdc6918a","102.33.189.50","Mozilla/5.0 (Windows NT 10.0; Win64; x64) AppleWebKit/537.36 (KHTML, like Gecko) Chrome/138.0.0.0 Safari/537.36 Edg/138.0.0.0","WebKit","Edge","138.0.0.0","Windows","10.0","https://app.prolific.com/","en-US,en;q=0.9,en-ZA;q=0.8","64f7a35c5f6503caaa59f79f","686d226cabeef709c732f8e1","686e312b2e1ac1ebf54e9f88","64f7a35c5f6503caaa59f79f","","[{""page_index"":0,""viewing_time"":12616},{""page_index"":1,""viewing_time"":50690}]","","","","","","","","","","","","","","","","","","","","","","","","","","","","","","","","","","","","","","","","","","",""
"38388","","","{""green_ball"":[""Ball always moves in the direction I press""]}","survey-multi-select","24","696875","0.0-8.0-5.0-0.0","148","1","2025-07-09 09:09:39","7701e855f2ef39aa3fd6c71abdc6918a","102.33.189.50","Mozilla/5.0 (Windows NT 10.0; Win64; x64) AppleWebKit/537.36 (KHTML, like Gecko) Chrome/138.0.0.0 Safari/537.36 Edg/138.0.0.0","WebKit","Edge","138.0.0.0","Windows","10.0","https://app.prolific.com/","en-US,en;q=0.9,en-ZA;q=0.8","64f7a35c5f6503caaa59f79f","686d226cabeef709c732f8e1","686e312b2e1ac1ebf54e9f88","64f7a35c5f6503caaa59f79f","","","[0]","","","","quiz","","","","","","","","","","","","","","","","","","","","","","","","","","","","","","","","","","","","","false",""
"14610","","<p align='center'><b>INCORRECT.</b> Usually the green ball moves in the indicated direction, but sometimes it shakes and moves randomly. </p>","0","html-button-response","25","711486","0.0-8.0-5.0-1.0","148","1","2025-07-09 09:09:39","7701e855f2ef39aa3fd6c71abdc6918a","102.33.189.50","Mozilla/5.0 (Windows NT 10.0; Win64; x64) AppleWebKit/537.36 (KHTML, like Gecko) Chrome/138.0.0.0 Safari/537.36 Edg/138.0.0.0","WebKit","Edge","138.0.0.0","Windows","10.0","https://app.prolific.com/","en-US,en;q=0.9,en-ZA;q=0.8","64f7a35c5f6503caaa59f79f","686d226cabeef709c732f8e1","686e312b2e1ac1ebf54e9f88","64f7a35c5f6503caaa59f79f","","","","","","","","","","","","","","","","","","","","","","","","","","","","","","","","","","","","","","","","","","","","",""
"21484","","","{""green_ball"":[""Ball sometimes shakes and moves in a random direction""]}","survey-multi-select","26","732971","0.0-8.0-5.1-0.1","148","1","2025-07-09 09:09:39","7701e855f2ef39aa3fd6c71abdc6918a","102.33.189.50","Mozilla/5.0 (Windows NT 10.0; Win64; x64) AppleWebKit/537.36 (KHTML, like Gecko) Chrome/138.0.0.0 Safari/537.36 Edg/138.0.0.0","WebKit","Edge","138.0.0.0","Windows","10.0","https://app.prolific.com/","en-US,en;q=0.9,en-ZA;q=0.8","64f7a35c5f6503caaa59f79f","686d226cabeef709c732f8e1","686e312b2e1ac1ebf54e9f88","64f7a35c5f6503caaa59f79f","","","[0]","","","","quiz","","","","","","","","","","","","","","","","","","","","","","","","","","","","","","","","","","","","","true",""
"4890","","<p align='center'><b>CORRECT!</b> Indeed, the green ball may sometimes shake and move in a random direction.</p>","0","html-button-response","27","737862","0.0-8.0-5.1-1.1","148","1","2025-07-09 09:09:39","7701e855f2ef39aa3fd6c71abdc6918a","102.33.189.50","Mozilla/5.0 (Windows NT 10.0; Win64; x64) AppleWebKit/537.36 (KHTML, like Gecko) Chrome/138.0.0.0 Safari/537.36 Edg/138.0.0.0","WebKit","Edge","138.0.0.0","Windows","10.0","https://app.prolific.com/","en-US,en;q=0.9,en-ZA;q=0.8","64f7a35c5f6503caaa59f79f","686d226cabeef709c732f8e1","686e312b2e1ac1ebf54e9f88","64f7a35c5f6503caaa59f79f","","","","","","","","","","","","","","","","","","","","","","","","","","","","","","","","","","","","","","","","","","","","",""
"14026","","","{""yellow_ball"":[""Ball doesn‘t move and I get -1 penalty point""]}","survey-multi-select","28","751889","0.0-8.0-6.0-0.0","148","1","2025-07-09 09:09:39","7701e855f2ef39aa3fd6c71abdc6918a","102.33.189.50","Mozilla/5.0 (Windows NT 10.0; Win64; x64) AppleWebKit/537.36 (KHTML, like Gecko) Chrome/138.0.0.0 Safari/537.36 Edg/138.0.0.0","WebKit","Edge","138.0.0.0","Windows","10.0","https://app.prolific.com/","en-US,en;q=0.9,en-ZA;q=0.8","64f7a35c5f6503caaa59f79f","686d226cabeef709c732f8e1","686e312b2e1ac1ebf54e9f88","64f7a35c5f6503caaa59f79f","","","[0]","","","","quiz","","","","","","","","","","","","","","","","","","","","","","","","","","","","","","","","","","","","","true",""
"1429","","<p align='center'><b>CORRECT!</b> Indeed, the yellow ball never moves and you receive a penalty.</p>","0","html-button-response","29","753319","0.0-8.0-6.0-1.0","148","1","2025-07-09 09:09:39","7701e855f2ef39aa3fd6c71abdc6918a","102.33.189.50","Mozilla/5.0 (Windows NT 10.0; Win64; x64) AppleWebKit/537.36 (KHTML, like Gecko) Chrome/138.0.0.0 Safari/537.36 Edg/138.0.0.0","WebKit","Edge","138.0.0.0","Windows","10.0","https://app.prolific.com/","en-US,en;q=0.9,en-ZA;q=0.8","64f7a35c5f6503caaa59f79f","686d226cabeef709c732f8e1","686e312b2e1ac1ebf54e9f88","64f7a35c5f6503caaa59f79f","","","","","","","","","","","","","","","","","","","","","","","","","","","","","","","","","","","","","","","","","","","","",""
"27604","","","{""blue_ball"":[""Ball always shakes and moves in a random direction""]}","survey-multi-select","30","780924","0.0-8.0-7.0-0.0","148","1","2025-07-09 09:09:39","7701e855f2ef39aa3fd6c71abdc6918a","102.33.189.50","Mozilla/5.0 (Windows NT 10.0; Win64; x64) AppleWebKit/537.36 (KHTML, like Gecko) Chrome/138.0.0.0 Safari/537.36 Edg/138.0.0.0","WebKit","Edge","138.0.0.0","Windows","10.0","https://app.prolific.com/","en-US,en;q=0.9,en-ZA;q=0.8","64f7a35c5f6503caaa59f79f","686d226cabeef709c732f8e1","686e312b2e1ac1ebf54e9f88","64f7a35c5f6503caaa59f79f","","","[0]","","","","quiz","","","","","","","","","","","","","","","","","","","","","","","","","","","","","","","","","","","","","true",""
"4394","","<p align='center'><b>CORRECT!</b> Indeed, the blue ball always shakes and moves in a random direction. Also there is a penalty of -1 point.</p>","0","html-button-response","31","785319","0.0-8.0-7.0-1.0","148","1","2025-07-09 09:09:39","7701e855f2ef39aa3fd6c71abdc6918a","102.33.189.50","Mozilla/5.0 (Windows NT 10.0; Win64; x64) AppleWebKit/537.36 (KHTML, like Gecko) Chrome/138.0.0.0 Safari/537.36 Edg/138.0.0.0","WebKit","Edge","138.0.0.0","Windows","10.0","https://app.prolific.com/","en-US,en;q=0.9,en-ZA;q=0.8","64f7a35c5f6503caaa59f79f","686d226cabeef709c732f8e1","686e312b2e1ac1ebf54e9f88","64f7a35c5f6503caaa59f79f","","","","","","","","","","","","","","","","","","","","","","","","","","","","","","","","","","","","","","","","","","","","",""
"5297","","","{""bonus"":[""When I reach 50% of points""]}","survey-multi-select","32","790618","0.0-8.0-8.0-0.0","148","1","2025-07-09 09:09:39","7701e855f2ef39aa3fd6c71abdc6918a","102.33.189.50","Mozilla/5.0 (Windows NT 10.0; Win64; x64) AppleWebKit/537.36 (KHTML, like Gecko) Chrome/138.0.0.0 Safari/537.36 Edg/138.0.0.0","WebKit","Edge","138.0.0.0","Windows","10.0","https://app.prolific.com/","en-US,en;q=0.9,en-ZA;q=0.8","64f7a35c5f6503caaa59f79f","686d226cabeef709c732f8e1","686e312b2e1ac1ebf54e9f88","64f7a35c5f6503caaa59f79f","","","[0]","","","","quiz","","","","","","","","","","","","","","","","","","","","","","","","","","","","","","","","","","","","","true",""
"4013","","<p align='center'><b>CORRECT!</b> Indeed, you receive 2 pounds extra when you reach 50% of points.</p>","0","html-button-response","33","794632","0.0-8.0-8.0-1.0","148","1","2025-07-09 09:09:39","7701e855f2ef39aa3fd6c71abdc6918a","102.33.189.50","Mozilla/5.0 (Windows NT 10.0; Win64; x64) AppleWebKit/537.36 (KHTML, like Gecko) Chrome/138.0.0.0 Safari/537.36 Edg/138.0.0.0","WebKit","Edge","138.0.0.0","Windows","10.0","https://app.prolific.com/","en-US,en;q=0.9,en-ZA;q=0.8","64f7a35c5f6503caaa59f79f","686d226cabeef709c732f8e1","686e312b2e1ac1ebf54e9f88","64f7a35c5f6503caaa59f79f","","","","","","","","","","","","","","","","","","","","","","","","","","","","","","","","","","","","","","","","","","","","",""
"5949","","","","instructions","34","800581","0.0-8.0-9.0","148","1","2025-07-09 09:09:39","7701e855f2ef39aa3fd6c71abdc6918a","102.33.189.50","Mozilla/5.0 (Windows NT 10.0; Win64; x64) AppleWebKit/537.36 (KHTML, like Gecko) Chrome/138.0.0.0 Safari/537.36 Edg/138.0.0.0","WebKit","Edge","138.0.0.0","Windows","10.0","https://app.prolific.com/","en-US,en;q=0.9,en-ZA;q=0.8","64f7a35c5f6503caaa59f79f","686d226cabeef709c732f8e1","686e312b2e1ac1ebf54e9f88","64f7a35c5f6503caaa59f79f","","[{""page_index"":0,""viewing_time"":5949}]","","","","","","","","","","","","","","","","","","","","","","","","","","","","","","","","","","","","","","","","","","",""
"13328","","<p>Before you start with this game please answer the following three questions yourself. </p>
  <p>Through this game, we measure several aspects of your cognitive performance, such as reaction times, multi-tasking capabilities </p>
  <p>and the ability to assess the situation you are in.</p>
  <p></p>
  <p><b>How good do you usually are in such tasks?</b></p>","100","html-slider-response","35","813910","0.0-9.0-0.0","148","1","2025-07-09 09:09:39","7701e855f2ef39aa3fd6c71abdc6918a","102.33.189.50","Mozilla/5.0 (Windows NT 10.0; Win64; x64) AppleWebKit/537.36 (KHTML, like Gecko) Chrome/138.0.0.0 Safari/537.36 Edg/138.0.0.0","WebKit","Edge","138.0.0.0","Windows","10.0","https://app.prolific.com/","en-US,en;q=0.9,en-ZA;q=0.8","64f7a35c5f6503caaa59f79f","686d226cabeef709c732f8e1","686e312b2e1ac1ebf54e9f88","64f7a35c5f6503caaa59f79f","2025-07-09T09:23:15.330Z","","","","","","PreSkillQ","","","","","","","","","","","","","","","","","","","","","","","","","","","","","","","","","","","","","","50"
"8061","","<div style=""width:500px;"">
  <p>How well do you think you will perform in this task compared to other participants?</p>
  </div>","62","html-slider-response","36","821972","0.0-9.0-1.0","148","1","2025-07-09 09:09:39","7701e855f2ef39aa3fd6c71abdc6918a","102.33.189.50","Mozilla/5.0 (Windows NT 10.0; Win64; x64) AppleWebKit/537.36 (KHTML, like Gecko) Chrome/138.0.0.0 Safari/537.36 Edg/138.0.0.0","WebKit","Edge","138.0.0.0","Windows","10.0","https://app.prolific.com/","en-US,en;q=0.9,en-ZA;q=0.8","64f7a35c5f6503caaa59f79f","686d226cabeef709c732f8e1","686e312b2e1ac1ebf54e9f88","64f7a35c5f6503caaa59f79f","2025-07-09T09:23:23.392Z","","","","","","PrePerfQ","","","","","","","","","","","","","","","","","","","","","","","","","","","","","","","","","","","","","","50"
"4416","","<div style=""width:500px;"">
  <p>What best describes how you currently feel?</p>
  </div>","68","html-slider-response","37","826388","0.0-9.0-2.0","148","1","2025-07-09 09:09:39","7701e855f2ef39aa3fd6c71abdc6918a","102.33.189.50","Mozilla/5.0 (Windows NT 10.0; Win64; x64) AppleWebKit/537.36 (KHTML, like Gecko) Chrome/138.0.0.0 Safari/537.36 Edg/138.0.0.0","WebKit","Edge","138.0.0.0","Windows","10.0","https://app.prolific.com/","en-US,en;q=0.9,en-ZA;q=0.8","64f7a35c5f6503caaa59f79f","686d226cabeef709c732f8e1","686e312b2e1ac1ebf54e9f88","64f7a35c5f6503caaa59f79f","2025-07-09T09:23:27.809Z","","","","","","PreMotivationQ","","","","","","","","","","","","","","","","","","","","","","","","","","","","","","","","","","","","","","50"
"","","","","ctl-task-cpt","38","854271","0.0-10.0-0.0","148","1","2025-07-09 09:09:39","7701e855f2ef39aa3fd6c71abdc6918a","102.33.189.50","Mozilla/5.0 (Windows NT 10.0; Win64; x64) AppleWebKit/537.36 (KHTML, like Gecko) Chrome/138.0.0.0 Safari/537.36 Edg/138.0.0.0","WebKit","Edge","138.0.0.0","Windows","10.0","https://app.prolific.com/","en-US,en;q=0.9,en-ZA;q=0.8","64f7a35c5f6503caaa59f79f","686d226cabeef709c732f8e1","686e312b2e1ac1ebf54e9f88","64f7a35c5f6503caaa59f79f","2025-07-09T09:23:55.691Z","","","","","","","","","","","","","","","","win-only","3","g1:SW,g2:NE","1","1","0","829300.2","5654","10655.6","24865.8","1","4","4","6","1","-1","-1","0","0","0","5001.6","3000","-3010","[""down"",""left""]","{""num_key_presses"":0,""num_perfect"":0,""num_errors"":0,""num_randdir"":0,""num_randdir_good_moves"":0,""num_whilered"":0,""num_whileblue"":0,""num_blue"":3,""num_good_moves"":0}","[411.57142857142856,417.47767857142856,0.3,411.57142857142856,417.47767857142856,101.6,411.57142857142856,417.47767857142856,201.7,416.57142857142856,432.47767857142856,306.4,427.57142857142856,474.47767857142856,406.6,424.57142857142856,505.47767857142856,511.6,390.57142857142856,577.4776785714286,616.9,374.57142857142856,581.4776785714286,721.3,365.57142857142856,563.4776785714286,821.7,362.57142857142856,556.4776785714286,926.6,362.57142857142856,587.4776785714286,1026.6,369.57142857142856,689.4776785714286,1127,369.57142857142856,697.4776785714286,1231.7,369.57142857142856,690.4776785714286,1332.2,365.57142857142856,678.4776785714286,1436.5,361.57142857142856,658.4776785714286,1541.5,357.57142857142856,636.4776785714286,1646.8,352.57142857142856,584.4776785714286,1751.3,349.57142857142856,542.4776785714286,1852.2,349.57142857142856,519.4776785714286,1957.3,349.57142857142856,505.47767857142856,2062.1,349.57142857142856,502.47767857142856,2162.1,349.57142857142856,501.47767857142856,2262.2,348.57142857142856,499.47767857142856,2367.2,348.57142857142856,497.47767857142856,2471.2,347.57142857142856,495.47767857142856,2571.8,346.57142857142856,493.47767857142856,2677.1,345.57142857142856,492.47767857142856,2781.7,345.57142857142856,492.47767857142856,2887.9,345.57142857142856,492.47767857142856,2991.4,345.57142857142856,492.47767857142856,3091.7,345.57142857142856,492.47767857142856,3191.9,345.57142857142856,492.47767857142856,3296.4,345.57142857142856,491.47767857142856,3396.8,345.57142857142856,488.47767857142856,3496.8,343.57142857142856,486.47767857142856,3602.3,342.57142857142856,485.47767857142856,3706.2,341.57142857142856,485.47767857142856,3806.7,341.57142857142856,485.47767857142856,3907,341.57142857142856,485.47767857142856,4007.2,341.57142857142856,485.47767857142856,4111.4,341.57142857142856,485.47767857142856,4212,341.57142857142856,485.47767857142856,4316.3,341.57142857142856,485.47767857142856,4416.7,341.57142857142856,485.47767857142856,4517,341.57142857142856,485.47767857142856,4617,341.57142857142856,485.47767857142856,4721.8,341.57142857142856,485.47767857142856,4826.5,341.57142857142856,485.47767857142856,4927]","[]","",""
"16437","","<div style=""width:500px;"">
  <p>What determined the result of this run?</p>
  </div>","85","html-slider-response","39","870709","0.0-10.0-1.0","148","1","2025-07-09 09:09:39","7701e855f2ef39aa3fd6c71abdc6918a","102.33.189.50","Mozilla/5.0 (Windows NT 10.0; Win64; x64) AppleWebKit/537.36 (KHTML, like Gecko) Chrome/138.0.0.0 Safari/537.36 Edg/138.0.0.0","WebKit","Edge","138.0.0.0","Windows","10.0","https://app.prolific.com/","en-US,en;q=0.9,en-ZA;q=0.8","64f7a35c5f6503caaa59f79f","686d226cabeef709c732f8e1","686e312b2e1ac1ebf54e9f88","64f7a35c5f6503caaa59f79f","2025-07-09T09:24:12.129Z","","","","","","AttribQ","","","","","","","","","","","","","","","","","","","","","","","","","","","","","","","","","","","","","","50"
"4095","","<div style=""width:500px;"">
  <p>How much control did you have over the ball?</p>
  </div>","6","html-slider-response","40","874805","0.0-10.0-2.0","148","1","2025-07-09 09:09:39","7701e855f2ef39aa3fd6c71abdc6918a","102.33.189.50","Mozilla/5.0 (Windows NT 10.0; Win64; x64) AppleWebKit/537.36 (KHTML, like Gecko) Chrome/138.0.0.0 Safari/537.36 Edg/138.0.0.0","WebKit","Edge","138.0.0.0","Windows","10.0","https://app.prolific.com/","en-US,en;q=0.9,en-ZA;q=0.8","64f7a35c5f6503caaa59f79f","686d226cabeef709c732f8e1","686e312b2e1ac1ebf54e9f88","64f7a35c5f6503caaa59f79f","2025-07-09T09:24:16.226Z","","","","","","ControlQ","","","","","","","","","","","","","","","","","","","","","","","","","","","","","","","","","","","","","","50"
"5403","","<div style=""width:500px;"">
  <p>How would you describe your current emotional state?</p>
  </div>","9","html-slider-response","41","880209","0.0-10.0-3.0","148","1","2025-07-09 09:09:39","7701e855f2ef39aa3fd6c71abdc6918a","102.33.189.50","Mozilla/5.0 (Windows NT 10.0; Win64; x64) AppleWebKit/537.36 (KHTML, like Gecko) Chrome/138.0.0.0 Safari/537.36 Edg/138.0.0.0","WebKit","Edge","138.0.0.0","Windows","10.0","https://app.prolific.com/","en-US,en;q=0.9,en-ZA;q=0.8","64f7a35c5f6503caaa59f79f","686d226cabeef709c732f8e1","686e312b2e1ac1ebf54e9f88","64f7a35c5f6503caaa59f79f","2025-07-09T09:24:21.629Z","","","","","","StressQ","","","","","","","","","","","","","","","","","","","","","","","","","","","","","","","","","","","","","","50"
"3860","","<div style=""width:500px;"">
  <p>What best describes how you currently feel?</p>
  </div>","89","html-slider-response","42","884070","0.0-10.0-4.0","148","1","2025-07-09 09:09:39","7701e855f2ef39aa3fd6c71abdc6918a","102.33.189.50","Mozilla/5.0 (Windows NT 10.0; Win64; x64) AppleWebKit/537.36 (KHTML, like Gecko) Chrome/138.0.0.0 Safari/537.36 Edg/138.0.0.0","WebKit","Edge","138.0.0.0","Windows","10.0","https://app.prolific.com/","en-US,en;q=0.9,en-ZA;q=0.8","64f7a35c5f6503caaa59f79f","686d226cabeef709c732f8e1","686e312b2e1ac1ebf54e9f88","64f7a35c5f6503caaa59f79f","2025-07-09T09:24:25.491Z","","","","","","MotivationQ","","","","","","","","","","","","","","","","","","","","","","","","","","","","","","","","","","","","","","50"
"","","","","ctl-task-cpt","43","910382","0.0-10.0-0.1","148","1","2025-07-09 09:09:39","7701e855f2ef39aa3fd6c71abdc6918a","102.33.189.50","Mozilla/5.0 (Windows NT 10.0; Win64; x64) AppleWebKit/537.36 (KHTML, like Gecko) Chrome/138.0.0.0 Safari/537.36 Edg/138.0.0.0","WebKit","Edge","138.0.0.0","Windows","10.0","https://app.prolific.com/","en-US,en;q=0.9,en-ZA;q=0.8","64f7a35c5f6503caaa59f79f","686d226cabeef709c732f8e1","686e312b2e1ac1ebf54e9f88","64f7a35c5f6503caaa59f79f","2025-07-09T09:24:51.802Z","","","","","","","","","","","","","","","","win-only","1","g1:NE,g2:SW","0.9","2","0","886982.3","5714","10715.8","23294.1","1","4","8","6","1","-1","-3","0","0","0","5001.8","3000","-2700","[""up"",""right""]","{""num_key_presses"":5,""num_perfect"":2,""num_errors"":2,""num_randdir"":0,""num_randdir_good_moves"":0,""num_whilered"":1,""num_whileblue"":0,""num_blue"":0,""num_good_moves"":0}","[408.57142857142856,418.47767857142856,0.3,408.57142857142856,418.47767857142856,101.9,408.57142857142856,418.47767857142856,206.6,408.57142857142856,418.47767857142856,312.5,408.57142857142856,418.47767857142856,413.3,408.57142857142856,418.47767857142856,513.4,408.57142857142856,418.47767857142856,613.4,410.57142857142856,420.47767857142856,713.7,434.57142857142856,427.47767857142856,816.9,458.57142857142856,413.47767857142856,922,461.57142857142856,394.47767857142856,1022.1,465.57142857142856,383.47767857142856,1129.8,470.57142857142856,372.47767857142856,1229.8,470.57142857142856,371.47767857142856,1329.8,470.57142857142856,363.47767857142856,1430.1,470.57142857142856,357.47767857142856,1531.2,470.57142857142856,357.47767857142856,1632.1,470.57142857142856,348.47767857142856,1736.5,470.57142857142856,345.47767857142856,1846.5,470.57142857142856,345.47767857142856,1947,470.57142857142856,345.47767857142856,2051.4,470.57142857142856,345.47767857142856,2151.5,470.57142857142856,345.47767857142856,2252,470.57142857142856,345.47767857142856,2362.4,470.57142857142856,345.47767857142856,2463.4,470.57142857142856,345.47767857142856,2563.5,470.57142857142856,345.47767857142856,2666.9,470.57142857142856,345.47767857142856,2772.1,470.57142857142856,345.47767857142856,2879.9,470.57142857142856,345.47767857142856,2981.8,470.57142857142856,345.47767857142856,3086.8,470.57142857142856,345.47767857142856,3186.8,470.57142857142856,345.47767857142856,3295.7,470.57142857142856,345.47767857142856,3395.7,470.57142857142856,345.47767857142856,3495.7,470.57142857142856,345.47767857142856,3595.7,470.57142857142856,345.47767857142856,3695.9,470.57142857142856,345.47767857142856,3797.5,470.57142857142856,345.47767857142856,3897.5,470.57142857142856,345.47767857142856,4001.4,470.57142857142856,345.47767857142856,4101.4,467.57142857142856,343.47767857142856,4201.7,467.57142857142856,343.47767857142856,4302.1,467.57142857142856,343.47767857142856,4406.7,467.57142857142856,343.47767857142856,4506.7,467.57142857142856,343.47767857142856,4606.7,467.57142857142856,343.47767857142856,4713.2,467.57142857142856,343.47767857142856,4813.3,467.57142857142856,343.47767857142856,4913.3]","[2684,2684,1000,0,1684,""smooth"",""down"",""down"",""bad_move"",3477.1,792.8,2372.5,2684.4,-1579.8,""error"",""-"",""-"",""no_move"",3716.1,238.8,2372.5,2684.4,-1340.8,""while_red"",""-"",""-"",""no_move"",8233.1,4755.9,2811.5,4478.3,943.4,""smooth"",""down"",""down"",""bad_move"",8569,335.8,2674.4,8233.2,-2338.6,""error"",""-"",""-"",""no_move""]","",""
"3759","","<div style=""width:500px;"">
  <p>What determined the result of this run?</p>
  </div>","0","html-slider-response","44","914141","0.0-10.0-1.1","148","1","2025-07-09 09:09:39","7701e855f2ef39aa3fd6c71abdc6918a","102.33.189.50","Mozilla/5.0 (Windows NT 10.0; Win64; x64) AppleWebKit/537.36 (KHTML, like Gecko) Chrome/138.0.0.0 Safari/537.36 Edg/138.0.0.0","WebKit","Edge","138.0.0.0","Windows","10.0","https://app.prolific.com/","en-US,en;q=0.9,en-ZA;q=0.8","64f7a35c5f6503caaa59f79f","686d226cabeef709c732f8e1","686e312b2e1ac1ebf54e9f88","64f7a35c5f6503caaa59f79f","2025-07-09T09:24:55.561Z","","","","","","AttribQ","","","","","","","","","","","","","","","","","","","","","","","","","","","","","","","","","","","","","","50"
"4265","","<div style=""width:500px;"">
  <p>How much control did you have over the ball?</p>
  </div>","94","html-slider-response","45","918407","0.0-10.0-2.1","148","1","2025-07-09 09:09:39","7701e855f2ef39aa3fd6c71abdc6918a","102.33.189.50","Mozilla/5.0 (Windows NT 10.0; Win64; x64) AppleWebKit/537.36 (KHTML, like Gecko) Chrome/138.0.0.0 Safari/537.36 Edg/138.0.0.0","WebKit","Edge","138.0.0.0","Windows","10.0","https://app.prolific.com/","en-US,en;q=0.9,en-ZA;q=0.8","64f7a35c5f6503caaa59f79f","686d226cabeef709c732f8e1","686e312b2e1ac1ebf54e9f88","64f7a35c5f6503caaa59f79f","2025-07-09T09:24:59.827Z","","","","","","ControlQ","","","","","","","","","","","","","","","","","","","","","","","","","","","","","","","","","","","","","","50"
"9147","","<div style=""width:500px;"">
  <p>How would you describe your current emotional state?</p>
  </div>","12","html-slider-response","46","927554","0.0-10.0-3.1","148","1","2025-07-09 09:09:39","7701e855f2ef39aa3fd6c71abdc6918a","102.33.189.50","Mozilla/5.0 (Windows NT 10.0; Win64; x64) AppleWebKit/537.36 (KHTML, like Gecko) Chrome/138.0.0.0 Safari/537.36 Edg/138.0.0.0","WebKit","Edge","138.0.0.0","Windows","10.0","https://app.prolific.com/","en-US,en;q=0.9,en-ZA;q=0.8","64f7a35c5f6503caaa59f79f","686d226cabeef709c732f8e1","686e312b2e1ac1ebf54e9f88","64f7a35c5f6503caaa59f79f","2025-07-09T09:25:08.974Z","","","","","","StressQ","","","","","","","","","","","","","","","","","","","","","","","","","","","","","","","","","","","","","","50"
"4143","","<div style=""width:500px;"">
  <p>What best describes how you currently feel?</p>
  </div>","86","html-slider-response","47","931698","0.0-10.0-4.1","148","1","2025-07-09 09:09:39","7701e855f2ef39aa3fd6c71abdc6918a","102.33.189.50","Mozilla/5.0 (Windows NT 10.0; Win64; x64) AppleWebKit/537.36 (KHTML, like Gecko) Chrome/138.0.0.0 Safari/537.36 Edg/138.0.0.0","WebKit","Edge","138.0.0.0","Windows","10.0","https://app.prolific.com/","en-US,en;q=0.9,en-ZA;q=0.8","64f7a35c5f6503caaa59f79f","686d226cabeef709c732f8e1","686e312b2e1ac1ebf54e9f88","64f7a35c5f6503caaa59f79f","2025-07-09T09:25:13.118Z","","","","","","MotivationQ","","","","","","","","","","","","","","","","","","","","","","","","","","","","","","","","","","","","","","50"
"","","","","ctl-task-cpt","48","952021","0.0-10.0-0.2","148","1","2025-07-09 09:09:39","7701e855f2ef39aa3fd6c71abdc6918a","102.33.189.50","Mozilla/5.0 (Windows NT 10.0; Win64; x64) AppleWebKit/537.36 (KHTML, like Gecko) Chrome/138.0.0.0 Safari/537.36 Edg/138.0.0.0","WebKit","Edge","138.0.0.0","Windows","10.0","https://app.prolific.com/","en-US,en;q=0.9,en-ZA;q=0.8","64f7a35c5f6503caaa59f79f","686d226cabeef709c732f8e1","686e312b2e1ac1ebf54e9f88","64f7a35c5f6503caaa59f79f","2025-07-09T09:25:33.441Z","","","","","","","","","","","","","","","","win-only","2","g1:SE,g2:NW","0.8","3","0","934609.5","2151.7","7155.9","17306.2","1","4","8","6","1","-1","-2","0","0","0","5004.2","3000","-2710","[""down"",""right""]","{""num_key_presses"":3,""num_perfect"":2,""num_errors"":1,""num_randdir"":0,""num_randdir_good_moves"":0,""num_whilered"":0,""num_whileblue"":0,""num_blue"":0,""num_good_moves"":2}","[411.57142857142856,418.47767857142856,0.2,411.57142857142856,418.47767857142856,104.3,411.57142857142856,418.47767857142856,204.3,411.57142857142856,418.47767857142856,310,416.57142857142856,420.47767857142856,414.9,534.5714285714286,507.47767857142856,516.1,554.5714285714286,541.4776785714286,616.4,554.5714285714286,541.4776785714286,718.7,524.5714285714286,512.4776785714286,818.8,509.57142857142856,500.47767857142856,919.4,509.57142857142856,500.47767857142856,1019.5,507.57142857142856,500.47767857142856,1124.3,504.57142857142856,498.47767857142856,1232.5,486.57142857142856,480.47767857142856,1333.9,486.57142857142856,480.47767857142856,1434.2,486.57142857142856,480.47767857142856,1539.1,486.57142857142856,480.47767857142856,1639.9,486.57142857142856,480.47767857142856,1748.3,486.57142857142856,480.47767857142856,1854,486.57142857142856,480.47767857142856,1954.1,486.57142857142856,480.47767857142856,2054.2,486.57142857142856,480.47767857142856,2164.9,486.57142857142856,480.47767857142856,2268.5,486.57142857142856,480.47767857142856,2374,486.57142857142856,480.47767857142856,2474.2,486.57142857142856,480.47767857142856,2582.1,486.57142857142856,480.47767857142856,2682.3,486.57142857142856,480.47767857142856,2782.4,486.57142857142856,480.47767857142856,2883.5,486.57142857142856,480.47767857142856,2989.1,486.57142857142856,480.47767857142856,3098.3,486.57142857142856,480.47767857142856,3198.8,486.57142857142856,480.47767857142856,3298.9,486.57142857142856,480.47767857142856,3403.9,486.57142857142856,480.47767857142856,3504.3,486.57142857142856,480.47767857142856,3604.4,486.57142857142856,480.47767857142856,3708.9,486.57142857142856,480.47767857142856,3815.6,486.57142857142856,480.47767857142856,3915.8,486.57142857142856,480.47767857142856,4015.9,486.57142857142856,480.47767857142856,4119.1,486.57142857142856,480.47767857142856,4219.3,486.57142857142856,480.47767857142856,4324.5,486.57142857142856,480.47767857142856,4432.2,486.57142857142856,480.47767857142856,4532.5,486.57142857142856,480.47767857142856,4634.5,486.57142857142856,480.47767857142856,4739.4,486.57142857142856,480.47767857142856,4848,486.57142857142856,480.47767857142856,4948.4]","[3643.4,3643.4,1000,0,2643.4,""smooth"",""down"",""down"",""good_move"",3879.5,235.8,2804.6,3643.7,-2568.8,""error"",""-"",""-"",""no_move"",8010.6,4130.9,2449.3,4879.9,681.4,""smooth"",""down"",""down"",""good_move""]","",""
"4380","","<div style=""width:500px;"">
  <p>What determined the result of this run?</p>
  </div>","2","html-slider-response","49","956402","0.0-10.0-1.2","148","1","2025-07-09 09:09:39","7701e855f2ef39aa3fd6c71abdc6918a","102.33.189.50","Mozilla/5.0 (Windows NT 10.0; Win64; x64) AppleWebKit/537.36 (KHTML, like Gecko) Chrome/138.0.0.0 Safari/537.36 Edg/138.0.0.0","WebKit","Edge","138.0.0.0","Windows","10.0","https://app.prolific.com/","en-US,en;q=0.9,en-ZA;q=0.8","64f7a35c5f6503caaa59f79f","686d226cabeef709c732f8e1","686e312b2e1ac1ebf54e9f88","64f7a35c5f6503caaa59f79f","2025-07-09T09:25:37.822Z","","","","","","AttribQ","","","","","","","","","","","","","","","","","","","","","","","","","","","","","","","","","","","","","","50"
"3645","","<div style=""width:500px;"">
  <p>How much control did you have over the ball?</p>
  </div>","98","html-slider-response","50","960047","0.0-10.0-2.2","148","1","2025-07-09 09:09:39","7701e855f2ef39aa3fd6c71abdc6918a","102.33.189.50","Mozilla/5.0 (Windows NT 10.0; Win64; x64) AppleWebKit/537.36 (KHTML, like Gecko) Chrome/138.0.0.0 Safari/537.36 Edg/138.0.0.0","WebKit","Edge","138.0.0.0","Windows","10.0","https://app.prolific.com/","en-US,en;q=0.9,en-ZA;q=0.8","64f7a35c5f6503caaa59f79f","686d226cabeef709c732f8e1","686e312b2e1ac1ebf54e9f88","64f7a35c5f6503caaa59f79f","2025-07-09T09:25:41.467Z","","","","","","ControlQ","","","","","","","","","","","","","","","","","","","","","","","","","","","","","","","","","","","","","","50"
"2750","","<div style=""width:500px;"">
  <p>How would you describe your current emotional state?</p>
  </div>","94","html-slider-response","51","962798","0.0-10.0-3.2","148","1","2025-07-09 09:09:39","7701e855f2ef39aa3fd6c71abdc6918a","102.33.189.50","Mozilla/5.0 (Windows NT 10.0; Win64; x64) AppleWebKit/537.36 (KHTML, like Gecko) Chrome/138.0.0.0 Safari/537.36 Edg/138.0.0.0","WebKit","Edge","138.0.0.0","Windows","10.0","https://app.prolific.com/","en-US,en;q=0.9,en-ZA;q=0.8","64f7a35c5f6503caaa59f79f","686d226cabeef709c732f8e1","686e312b2e1ac1ebf54e9f88","64f7a35c5f6503caaa59f79f","2025-07-09T09:25:44.218Z","","","","","","StressQ","","","","","","","","","","","","","","","","","","","","","","","","","","","","","","","","","","","","","","50"
"2633","","<div style=""width:500px;"">
  <p>What best describes how you currently feel?</p>
  </div>","94","html-slider-response","52","965431","0.0-10.0-4.2","148","1","2025-07-09 09:09:39","7701e855f2ef39aa3fd6c71abdc6918a","102.33.189.50","Mozilla/5.0 (Windows NT 10.0; Win64; x64) AppleWebKit/537.36 (KHTML, like Gecko) Chrome/138.0.0.0 Safari/537.36 Edg/138.0.0.0","WebKit","Edge","138.0.0.0","Windows","10.0","https://app.prolific.com/","en-US,en;q=0.9,en-ZA;q=0.8","64f7a35c5f6503caaa59f79f","686d226cabeef709c732f8e1","686e312b2e1ac1ebf54e9f88","64f7a35c5f6503caaa59f79f","2025-07-09T09:25:46.851Z","","","","","","MotivationQ","","","","","","","","","","","","","","","","","","","","","","","","","","","","","","","","","","","","","","50"
"","","","","ctl-task-cpt","53","988416","0.0-10.0-0.3","148","1","2025-07-09 09:09:39","7701e855f2ef39aa3fd6c71abdc6918a","102.33.189.50","Mozilla/5.0 (Windows NT 10.0; Win64; x64) AppleWebKit/537.36 (KHTML, like Gecko) Chrome/138.0.0.0 Safari/537.36 Edg/138.0.0.0","WebKit","Edge","138.0.0.0","Windows","10.0","https://app.prolific.com/","en-US,en;q=0.9,en-ZA;q=0.8","64f7a35c5f6503caaa59f79f","686d226cabeef709c732f8e1","686e312b2e1ac1ebf54e9f88","64f7a35c5f6503caaa59f79f","2025-07-09T09:26:09.836Z","","","","","","","","","","","","","","","","win-only","3","g1:SW,g2:NE","0.7","4","0","968342.8","1542.6","6545.4","19961.3","1","4","4","6","1","1","1","1","0","0.007575757575757576","5002.8","3000","925","[""down"",""left""]","{""num_key_presses"":4,""num_perfect"":4,""num_errors"":0,""num_randdir"":0,""num_randdir_good_moves"":0,""num_whilered"":0,""num_whileblue"":0,""num_blue"":1,""num_good_moves"":4}","[409.57142857142856,418.47767857142856,0.1,409.57142857142856,418.47767857142856,102.6,409.57142857142856,418.47767857142856,205.2,409.57142857142856,418.47767857142856,307.6,409.57142857142856,439.47767857142856,407.6,392.57142857142856,529.4776785714286,511.2,378.57142857142856,525.4776785714286,612.6,365.57142857142856,504.47767857142856,717.5,354.57142857142856,494.47767857142856,818.4,354.57142857142856,494.47767857142856,918.8,354.57142857142856,494.47767857142856,1023.6,354.57142857142856,494.47767857142856,1125.6,354.57142857142856,494.47767857142856,1227.6,354.57142857142856,494.47767857142856,1332.9,354.57142857142856,494.47767857142856,1433.2,354.57142857142856,494.47767857142856,1538.1,354.57142857142856,494.47767857142856,1638.7,354.57142857142856,494.47767857142856,1739.5,354.57142857142856,494.47767857142856,1843,354.57142857142856,494.47767857142856,1943.5,354.57142857142856,494.47767857142856,2047.5,354.57142857142856,494.47767857142856,2148.5,405.57142857142856,606.4776785714286,2248.5,414.57142857142856,631.4776785714286,2348.6,403.57142857142856,604.4776785714286,2454.8,399.57142857142856,593.4776785714286,2555.5,399.57142857142856,593.4776785714286,2657.6,399.57142857142856,593.4776785714286,2757.9,399.57142857142856,593.4776785714286,2860,399.57142857142856,593.4776785714286,2962.7,438.57142857142856,609.4776785714286,3062.7,473.57142857142856,626.4776785714286,3162.8,473.57142857142856,626.4776785714286,3269.7,479.57142857142856,630.4776785714286,3375.1,532.5714285714286,662.4776785714286,3477.6,580.5714285714286,724.4776785714286,3578,624.5714285714286,769.4776785714286,3678.3,636.5714285714286,777.4776785714286,3783,605.5714285714286,705.4776785714286,3889.5,585.5714285714286,654.4776785714286,3992.6,581.5714285714286,649.4776785714286,4092.6,581.5714285714286,649.4776785714286,4192.6,581.5714285714286,649.4776785714286,4293.6,581.5714285714286,649.4776785714286,4397.6,581.5714285714286,649.4776785714286,4498,581.5714285714286,649.4776785714286,4604.3,581.5714285714286,649.4776785714286,4707.4,581.5714285714286,649.4776785714286,4810.1,580.5714285714286,649.4776785714286,4913.7]","[1739.4,1739.4,1000,0,739.4,""smooth"",""down"",""down"",""good_move"",4115.6,2375.5,1887.6,1740.1,487.9,""smooth"",""left"",""left"",""good_move"",9922,5806.2,2336.2,7175.6,410.2,""smooth"",""down"",""down"",""good_move"",13321.9,3399.8,2939.8,9922.2,459.9,""smooth"",""left"",""left"",""good_move""]","",""
"4778","","<div style=""width:500px;"">
  <p>What determined the result of this run?</p>
  </div>","100","html-slider-response","54","993196","0.0-10.0-1.3","148","1","2025-07-09 09:09:39","7701e855f2ef39aa3fd6c71abdc6918a","102.33.189.50","Mozilla/5.0 (Windows NT 10.0; Win64; x64) AppleWebKit/537.36 (KHTML, like Gecko) Chrome/138.0.0.0 Safari/537.36 Edg/138.0.0.0","WebKit","Edge","138.0.0.0","Windows","10.0","https://app.prolific.com/","en-US,en;q=0.9,en-ZA;q=0.8","64f7a35c5f6503caaa59f79f","686d226cabeef709c732f8e1","686e312b2e1ac1ebf54e9f88","64f7a35c5f6503caaa59f79f","2025-07-09T09:26:14.616Z","","","","","","AttribQ","","","","","","","","","","","","","","","","","","","","","","","","","","","","","","","","","","","","","","50"
"2277","","<div style=""width:500px;"">
  <p>How much control did you have over the ball?</p>
  </div>","100","html-slider-response","55","995475","0.0-10.0-2.3","148","1","2025-07-09 09:09:39","7701e855f2ef39aa3fd6c71abdc6918a","102.33.189.50","Mozilla/5.0 (Windows NT 10.0; Win64; x64) AppleWebKit/537.36 (KHTML, like Gecko) Chrome/138.0.0.0 Safari/537.36 Edg/138.0.0.0","WebKit","Edge","138.0.0.0","Windows","10.0","https://app.prolific.com/","en-US,en;q=0.9,en-ZA;q=0.8","64f7a35c5f6503caaa59f79f","686d226cabeef709c732f8e1","686e312b2e1ac1ebf54e9f88","64f7a35c5f6503caaa59f79f","2025-07-09T09:26:16.895Z","","","","","","ControlQ","","","","","","","","","","","","","","","","","","","","","","","","","","","","","","","","","","","","","","50"
"2485","","<div style=""width:500px;"">
  <p>How would you describe your current emotional state?</p>
  </div>","100","html-slider-response","56","997961","0.0-10.0-3.3","148","1","2025-07-09 09:09:39","7701e855f2ef39aa3fd6c71abdc6918a","102.33.189.50","Mozilla/5.0 (Windows NT 10.0; Win64; x64) AppleWebKit/537.36 (KHTML, like Gecko) Chrome/138.0.0.0 Safari/537.36 Edg/138.0.0.0","WebKit","Edge","138.0.0.0","Windows","10.0","https://app.prolific.com/","en-US,en;q=0.9,en-ZA;q=0.8","64f7a35c5f6503caaa59f79f","686d226cabeef709c732f8e1","686e312b2e1ac1ebf54e9f88","64f7a35c5f6503caaa59f79f","2025-07-09T09:26:19.381Z","","","","","","StressQ","","","","","","","","","","","","","","","","","","","","","","","","","","","","","","","","","","","","","","50"
"2424","","<div style=""width:500px;"">
  <p>What best describes how you currently feel?</p>
  </div>","100","html-slider-response","57","1000386","0.0-10.0-4.3","148","1","2025-07-09 09:09:39","7701e855f2ef39aa3fd6c71abdc6918a","102.33.189.50","Mozilla/5.0 (Windows NT 10.0; Win64; x64) AppleWebKit/537.36 (KHTML, like Gecko) Chrome/138.0.0.0 Safari/537.36 Edg/138.0.0.0","WebKit","Edge","138.0.0.0","Windows","10.0","https://app.prolific.com/","en-US,en;q=0.9,en-ZA;q=0.8","64f7a35c5f6503caaa59f79f","686d226cabeef709c732f8e1","686e312b2e1ac1ebf54e9f88","64f7a35c5f6503caaa59f79f","2025-07-09T09:26:21.806Z","","","","","","MotivationQ","","","","","","","","","","","","","","","","","","","","","","","","","","","","","","","","","","","","","","50"
"","","","","ctl-task-cpt","58","1033551","0.0-10.0-0.4","148","1","2025-07-09 09:09:39","7701e855f2ef39aa3fd6c71abdc6918a","102.33.189.50","Mozilla/5.0 (Windows NT 10.0; Win64; x64) AppleWebKit/537.36 (KHTML, like Gecko) Chrome/138.0.0.0 Safari/537.36 Edg/138.0.0.0","WebKit","Edge","138.0.0.0","Windows","10.0","https://app.prolific.com/","en-US,en;q=0.9,en-ZA;q=0.8","64f7a35c5f6503caaa59f79f","686d226cabeef709c732f8e1","686e312b2e1ac1ebf54e9f88","64f7a35c5f6503caaa59f79f","2025-07-09T09:26:54.971Z","","","","","","","","","","","","","","","","win-only","0","g1:NW,g2:SE","0.6","5","0","1003299.1","1230","6230.4","30155.6","1","4","4","6","1","-1","-1","0","1","0","5000.4","3000","-2685","[""left"",""up""]","{""num_key_presses"":5,""num_perfect"":4,""num_errors"":0,""num_randdir"":1,""num_randdir_good_moves"":1,""num_whilered"":0,""num_whileblue"":0,""num_blue"":2,""num_good_moves"":1}","[417.57142857142856,421.47767857142856,0.2,417.57142857142856,421.47767857142856,100.4,417.57142857142856,421.47767857142856,205.3,417.57142857142856,421.47767857142856,315.8,417.57142857142856,421.47767857142856,420.5,417.57142857142856,421.47767857142856,525.8,417.57142857142856,421.47767857142856,634.4,417.57142857142856,421.47767857142856,735.5,417.57142857142856,421.47767857142856,835.6,417.57142857142856,421.47767857142856,935.6,417.57142857142856,421.47767857142856,1036.7,418.57142857142856,423.47767857142856,1140.9,418.57142857142856,423.47767857142856,1249.2,418.57142857142856,423.47767857142856,1349.2,418.57142857142856,423.47767857142856,1450.4,418.57142857142856,423.47767857142856,1550.5,418.57142857142856,423.47767857142856,1650.7,417.57142857142856,420.47767857142856,1751,416.57142857142856,414.47767857142856,1855.5,416.57142857142856,414.47767857142856,1955.8,415.57142857142856,413.47767857142856,2065.9,415.57142857142856,413.47767857142856,2170.4,415.57142857142856,413.47767857142856,2271,415.57142857142856,413.47767857142856,2375.6,415.57142857142856,413.47767857142856,2482.9,415.57142857142856,413.47767857142856,2585.8,415.57142857142856,413.47767857142856,2690.4,415.57142857142856,413.47767857142856,2790.4,415.57142857142856,413.47767857142856,2890.4,415.57142857142856,413.47767857142856,2990.5,415.57142857142856,413.47767857142856,3090.6,415.57142857142856,413.47767857142856,3190.7,415.57142857142856,413.47767857142856,3290.9,415.57142857142856,413.47767857142856,3400.6,415.57142857142856,413.47767857142856,3505.9,415.57142857142856,413.47767857142856,3605.9,415.57142857142856,413.47767857142856,3715.8,415.57142857142856,413.47767857142856,3815.8,415.57142857142856,413.47767857142856,3922.1,415.57142857142856,413.47767857142856,4025.9,415.57142857142856,413.47767857142856,4126.1,415.57142857142856,413.47767857142856,4233.9,415.57142857142856,413.47767857142856,4335.8,415.57142857142856,413.47767857142856,4435.9,415.57142857142856,413.47767857142856,4540.6,415.57142857142856,413.47767857142856,4650.1,415.57142857142856,413.47767857142856,4750.3,415.57142857142856,413.47767857142856,4850.3,415.57142857142856,413.47767857142856,4950.4]","[5014.4,5014.4,2438.9,2000.8,574.7,""smooth"",""right"",""right"",""bad_move"",7388.6,2373.8,1552.7,5014.8,821.1,""oops"",""down"",""left"",""good_move"",10664.2,3275.3,2648.4,7388.9,626.9,""smooth"",""right"",""right"",""bad_move"",13748,3083.6,2536.6,10664.4,547,""smooth"",""down"",""down"",""bad_move"",16965.6,3217.2,2669.7,13748.4,547.5,""smooth"",""down"",""down"",""bad_move""]","",""
"29479","","<div style=""width:500px;"">
  <p>What determined the result of this run?</p>
  </div>","93","html-slider-response","59","1063032","0.0-10.0-1.4","148","1","2025-07-09 09:09:39","7701e855f2ef39aa3fd6c71abdc6918a","102.33.189.50","Mozilla/5.0 (Windows NT 10.0; Win64; x64) AppleWebKit/537.36 (KHTML, like Gecko) Chrome/138.0.0.0 Safari/537.36 Edg/138.0.0.0","WebKit","Edge","138.0.0.0","Windows","10.0","https://app.prolific.com/","en-US,en;q=0.9,en-ZA;q=0.8","64f7a35c5f6503caaa59f79f","686d226cabeef709c732f8e1","686e312b2e1ac1ebf54e9f88","64f7a35c5f6503caaa59f79f","2025-07-09T09:27:24.452Z","","","","","","AttribQ","","","","","","","","","","","","","","","","","","","","","","","","","","","","","","","","","","","","","","50"
"5441","","<div style=""width:500px;"">
  <p>How much control did you have over the ball?</p>
  </div>","100","html-slider-response","60","1068476","0.0-10.0-2.4","148","1","2025-07-09 09:09:39","7701e855f2ef39aa3fd6c71abdc6918a","102.33.189.50","Mozilla/5.0 (Windows NT 10.0; Win64; x64) AppleWebKit/537.36 (KHTML, like Gecko) Chrome/138.0.0.0 Safari/537.36 Edg/138.0.0.0","WebKit","Edge","138.0.0.0","Windows","10.0","https://app.prolific.com/","en-US,en;q=0.9,en-ZA;q=0.8","64f7a35c5f6503caaa59f79f","686d226cabeef709c732f8e1","686e312b2e1ac1ebf54e9f88","64f7a35c5f6503caaa59f79f","2025-07-09T09:27:29.896Z","","","","","","ControlQ","","","","","","","","","","","","","","","","","","","","","","","","","","","","","","","","","","","","","","50"
"4752","","<div style=""width:500px;"">
  <p>How would you describe your current emotional state?</p>
  </div>","94","html-slider-response","61","1073230","0.0-10.0-3.4","148","1","2025-07-09 09:09:39","7701e855f2ef39aa3fd6c71abdc6918a","102.33.189.50","Mozilla/5.0 (Windows NT 10.0; Win64; x64) AppleWebKit/537.36 (KHTML, like Gecko) Chrome/138.0.0.0 Safari/537.36 Edg/138.0.0.0","WebKit","Edge","138.0.0.0","Windows","10.0","https://app.prolific.com/","en-US,en;q=0.9,en-ZA;q=0.8","64f7a35c5f6503caaa59f79f","686d226cabeef709c732f8e1","686e312b2e1ac1ebf54e9f88","64f7a35c5f6503caaa59f79f","2025-07-09T09:27:34.650Z","","","","","","StressQ","","","","","","","","","","","","","","","","","","","","","","","","","","","","","","","","","","","","","","50"
"2405","","<div style=""width:500px;"">
  <p>What best describes how you currently feel?</p>
  </div>","100","html-slider-response","62","1075637","0.0-10.0-4.4","148","1","2025-07-09 09:09:39","7701e855f2ef39aa3fd6c71abdc6918a","102.33.189.50","Mozilla/5.0 (Windows NT 10.0; Win64; x64) AppleWebKit/537.36 (KHTML, like Gecko) Chrome/138.0.0.0 Safari/537.36 Edg/138.0.0.0","WebKit","Edge","138.0.0.0","Windows","10.0","https://app.prolific.com/","en-US,en;q=0.9,en-ZA;q=0.8","64f7a35c5f6503caaa59f79f","686d226cabeef709c732f8e1","686e312b2e1ac1ebf54e9f88","64f7a35c5f6503caaa59f79f","2025-07-09T09:27:37.058Z","","","","","","MotivationQ","","","","","","","","","","","","","","","","","","","","","","","","","","","","","","","","","","","","","","50"
"","","","","ctl-task-cpt","63","1112006","0.0-10.0-0.5","148","1","2025-07-09 09:09:39","7701e855f2ef39aa3fd6c71abdc6918a","102.33.189.50","Mozilla/5.0 (Windows NT 10.0; Win64; x64) AppleWebKit/537.36 (KHTML, like Gecko) Chrome/138.0.0.0 Safari/537.36 Edg/138.0.0.0","WebKit","Edge","138.0.0.0","Windows","10.0","https://app.prolific.com/","en-US,en;q=0.9,en-ZA;q=0.8","64f7a35c5f6503caaa59f79f","686d226cabeef709c732f8e1","686e312b2e1ac1ebf54e9f88","64f7a35c5f6503caaa59f79f","2025-07-09T09:28:13.426Z","","","","","","","","","","","","","","","","win-only","0","g1:NW,g2:SE","0.5","6","0","1078550.6","1328.2","6329.3","33335.2","1","4","8","6","2","-8","-8","0","0","0","5001.1","3000","-2410","[""down"",""right""]","{""num_key_presses"":6,""num_perfect"":4,""num_errors"":0,""num_randdir"":2,""num_randdir_good_moves"":1,""num_whilered"":0,""num_whileblue"":0,""num_blue"":2,""num_good_moves"":5}","[408.57142857142856,413.47767857142856,0.2,408.57142857142856,413.47767857142856,102.2,408.57142857142856,413.47767857142856,202.6,408.57142857142856,413.47767857142856,302.7,408.57142857142856,413.47767857142856,407.4,408.57142857142856,413.47767857142856,517.2,408.57142857142856,413.47767857142856,617.3,408.57142857142856,413.47767857142856,717.9,408.57142857142856,413.47767857142856,822.2,408.57142857142856,413.47767857142856,922.5,408.57142857142856,413.47767857142856,1028.4,408.57142857142856,413.47767857142856,1135.6,408.57142857142856,413.47767857142856,1235.6,408.57142857142856,413.47767857142856,1337,408.57142857142856,413.47767857142856,1437.3,408.57142857142856,413.47767857142856,1537.4,408.57142857142856,413.47767857142856,1637.8,408.57142857142856,413.47767857142856,1751.2,408.57142857142856,413.47767857142856,1851.2,408.57142857142856,413.47767857142856,1951.3,408.57142857142856,413.47767857142856,2052.8,408.57142857142856,413.47767857142856,2157.8,408.57142857142856,413.47767857142856,2266.9,408.57142857142856,413.47767857142856,2367.7,408.57142857142856,413.47767857142856,2472,408.57142857142856,413.47767857142856,2572.8,408.57142857142856,413.47767857142856,2673.7,408.57142857142856,413.47767857142856,2778.3,408.57142857142856,413.47767857142856,2882,408.57142857142856,413.47767857142856,2982.6,408.57142857142856,413.47767857142856,3082.6,408.57142857142856,413.47767857142856,3188.1,408.57142857142856,413.47767857142856,3292.9,408.57142857142856,413.47767857142856,3401.1,408.57142857142856,413.47767857142856,3501.4,408.57142857142856,413.47767857142856,3601.9,408.57142857142856,413.47767857142856,3702.2,408.57142857142856,413.47767857142856,3802.5,408.57142857142856,413.47767857142856,3902.8,408.57142857142856,413.47767857142856,4007.1,408.57142857142856,413.47767857142856,4107.7,408.57142857142856,413.47767857142856,4212.9,408.57142857142856,413.47767857142856,4317.7,408.57142857142856,413.47767857142856,4422,408.57142857142856,413.47767857142856,4522.2,408.57142857142856,413.47767857142856,4628.2,408.57142857142856,413.47767857142856,4732.2,408.57142857142856,413.47767857142856,4832.5,408.57142857142856,413.47767857142856,4933.1]","[1815.2,1815.2,1000,0,815.2,""smooth"",""right"",""right"",""good_move"",8584.3,6768.7,2537.7,5601.1,445.5,""oops"",""down"",""left"",""bad_move"",11365.5,2781,2226.7,8584.5,554.3,""smooth"",""right"",""right"",""good_move"",13915.7,2550,2083.7,11365.7,466.3,""smooth"",""right"",""right"",""good_move"",20948.7,7032.8,2510.4,17971.8,466.5,""smooth"",""right"",""right"",""good_move"",24384,3435.1,2587,20949,848,""oops"",""down"",""down"",""good_move""]","",""
"3766","","<div style=""width:500px;"">
  <p>What determined the result of this run?</p>
  </div>","89","html-slider-response","64","1115773","0.0-10.0-1.5","148","1","2025-07-09 09:09:39","7701e855f2ef39aa3fd6c71abdc6918a","102.33.189.50","Mozilla/5.0 (Windows NT 10.0; Win64; x64) AppleWebKit/537.36 (KHTML, like Gecko) Chrome/138.0.0.0 Safari/537.36 Edg/138.0.0.0","WebKit","Edge","138.0.0.0","Windows","10.0","https://app.prolific.com/","en-US,en;q=0.9,en-ZA;q=0.8","64f7a35c5f6503caaa59f79f","686d226cabeef709c732f8e1","686e312b2e1ac1ebf54e9f88","64f7a35c5f6503caaa59f79f","2025-07-09T09:28:17.193Z","","","","","","AttribQ","","","","","","","","","","","","","","","","","","","","","","","","","","","","","","","","","","","","","","50"
"4041","","<div style=""width:500px;"">
  <p>How much control did you have over the ball?</p>
  </div>","9","html-slider-response","65","1119817","0.0-10.0-2.5","148","1","2025-07-09 09:09:39","7701e855f2ef39aa3fd6c71abdc6918a","102.33.189.50","Mozilla/5.0 (Windows NT 10.0; Win64; x64) AppleWebKit/537.36 (KHTML, like Gecko) Chrome/138.0.0.0 Safari/537.36 Edg/138.0.0.0","WebKit","Edge","138.0.0.0","Windows","10.0","https://app.prolific.com/","en-US,en;q=0.9,en-ZA;q=0.8","64f7a35c5f6503caaa59f79f","686d226cabeef709c732f8e1","686e312b2e1ac1ebf54e9f88","64f7a35c5f6503caaa59f79f","2025-07-09T09:28:21.237Z","","","","","","ControlQ","","","","","","","","","","","","","","","","","","","","","","","","","","","","","","","","","","","","","","50"
"2903","","<div style=""width:500px;"">
  <p>How would you describe your current emotional state?</p>
  </div>","15","html-slider-response","66","1122723","0.0-10.0-3.5","148","1","2025-07-09 09:09:39","7701e855f2ef39aa3fd6c71abdc6918a","102.33.189.50","Mozilla/5.0 (Windows NT 10.0; Win64; x64) AppleWebKit/537.36 (KHTML, like Gecko) Chrome/138.0.0.0 Safari/537.36 Edg/138.0.0.0","WebKit","Edge","138.0.0.0","Windows","10.0","https://app.prolific.com/","en-US,en;q=0.9,en-ZA;q=0.8","64f7a35c5f6503caaa59f79f","686d226cabeef709c732f8e1","686e312b2e1ac1ebf54e9f88","64f7a35c5f6503caaa59f79f","2025-07-09T09:28:24.143Z","","","","","","StressQ","","","","","","","","","","","","","","","","","","","","","","","","","","","","","","","","","","","","","","50"
"4167","","<div style=""width:500px;"">
  <p>What best describes how you currently feel?</p>
  </div>","93","html-slider-response","67","1126891","0.0-10.0-4.5","148","1","2025-07-09 09:09:39","7701e855f2ef39aa3fd6c71abdc6918a","102.33.189.50","Mozilla/5.0 (Windows NT 10.0; Win64; x64) AppleWebKit/537.36 (KHTML, like Gecko) Chrome/138.0.0.0 Safari/537.36 Edg/138.0.0.0","WebKit","Edge","138.0.0.0","Windows","10.0","https://app.prolific.com/","en-US,en;q=0.9,en-ZA;q=0.8","64f7a35c5f6503caaa59f79f","686d226cabeef709c732f8e1","686e312b2e1ac1ebf54e9f88","64f7a35c5f6503caaa59f79f","2025-07-09T09:28:28.311Z","","","","","","MotivationQ","","","","","","","","","","","","","","","","","","","","","","","","","","","","","","","","","","","","","","50"
"","","","","ctl-task-cpt","68","1155291","0.0-10.0-0.6","148","1","2025-07-09 09:09:39","7701e855f2ef39aa3fd6c71abdc6918a","102.33.189.50","Mozilla/5.0 (Windows NT 10.0; Win64; x64) AppleWebKit/537.36 (KHTML, like Gecko) Chrome/138.0.0.0 Safari/537.36 Edg/138.0.0.0","WebKit","Edge","138.0.0.0","Windows","10.0","https://app.prolific.com/","en-US,en;q=0.9,en-ZA;q=0.8","64f7a35c5f6503caaa59f79f","686d226cabeef709c732f8e1","686e312b2e1ac1ebf54e9f88","64f7a35c5f6503caaa59f79f","2025-07-09T09:28:56.712Z","","","","","","","","","","","","","","","","win-only","0","g1:NW,g2:SE","0.4","7","0","1129799.3","2497.3","7501.4","25395.3","1","4","8","6","1","1","0","0","0","0","5004.1","3000","1240","[""left"",""up""]","{""num_key_presses"":5,""num_perfect"":1,""num_errors"":1,""num_randdir"":3,""num_randdir_good_moves"":3,""num_whilered"":0,""num_whileblue"":0,""num_blue"":1,""num_good_moves"":4}","[415.57142857142856,414.47767857142856,0.3,415.57142857142856,414.47767857142856,101.7,415.57142857142856,414.47767857142856,204.2,415.57142857142856,414.47767857142856,317.7,411.57142857142856,454.47767857142856,417.9,443.57142857142856,541.4776785714286,523.7,476.57142857142856,555.4776785714286,632.6,439.57142857142856,461.47767857142856,733.8,412.57142857142856,396.47767857142856,838.3,411.57142857142856,391.47767857142856,944.4,411.57142857142856,391.47767857142856,1051.6,411.57142857142856,391.47767857142856,1151.8,411.57142857142856,391.47767857142856,1253.1,411.57142857142856,391.47767857142856,1354.4,411.57142857142856,391.47767857142856,1458.3,411.57142857142856,391.47767857142856,1567.6,411.57142857142856,391.47767857142856,1667.7,411.57142857142856,391.47767857142856,1767.9,411.57142857142856,391.47767857142856,1869,411.57142857142856,391.47767857142856,1973.8,411.57142857142856,391.47767857142856,2073.9,411.57142857142856,391.47767857142856,2182.8,411.57142857142856,391.47767857142856,2284.1,411.57142857142856,391.47767857142856,2390,411.57142857142856,391.47767857142856,2501.9,411.57142857142856,391.47767857142856,2604.4,411.57142857142856,391.47767857142856,2708.1,411.57142857142856,391.47767857142856,2817.5,411.57142857142856,391.47767857142856,2918.2,411.57142857142856,391.47767857142856,3018.4,411.57142857142856,391.47767857142856,3123.2,411.57142857142856,391.47767857142856,3223.8,411.57142857142856,391.47767857142856,3333.1,411.57142857142856,391.47767857142856,3433.2,411.57142857142856,391.47767857142856,3533.2,411.57142857142856,391.47767857142856,3633.4,411.57142857142856,391.47767857142856,3737.9,411.57142857142856,391.47767857142856,3851.7,411.57142857142856,391.47767857142856,3952.1,411.57142857142856,391.47767857142856,4053,411.57142857142856,391.47767857142856,4153.2,411.57142857142856,391.47767857142856,4253.4,411.57142857142856,391.47767857142856,4368,411.57142857142856,391.47767857142856,4468.7,411.57142857142856,391.47767857142856,4568.9,411.57142857142856,391.47767857142856,4673.3,411.57142857142856,391.47767857142856,4773.5,411.57142857142856,391.47767857142856,4874.7,411.57142857142856,391.47767857142856,4983.2]","[796.6,796.6,1000,0,-203.4,""error"",""-"",""-"",""no_move"",4996.3,4199.5,2666.5,1799.6,530.2,""oops"",""up"",""left"",""good_move"",8178.8,3182.2,2450.9,4996.6,731.3,""oops"",""up"",""up"",""good_move"",14115.2,5936.1,1428,12170,517.2,""smooth"",""up"",""up"",""good_move"",17785.2,3669.8,3236.4,14115.4,433.4,""oops"",""left"",""left"",""good_move""]","",""
"5281","","<div style=""width:500px;"">
  <p>What determined the result of this run?</p>
  </div>","85","html-slider-response","69","1160574","0.0-10.0-1.6","148","1","2025-07-09 09:09:39","7701e855f2ef39aa3fd6c71abdc6918a","102.33.189.50","Mozilla/5.0 (Windows NT 10.0; Win64; x64) AppleWebKit/537.36 (KHTML, like Gecko) Chrome/138.0.0.0 Safari/537.36 Edg/138.0.0.0","WebKit","Edge","138.0.0.0","Windows","10.0","https://app.prolific.com/","en-US,en;q=0.9,en-ZA;q=0.8","64f7a35c5f6503caaa59f79f","686d226cabeef709c732f8e1","686e312b2e1ac1ebf54e9f88","64f7a35c5f6503caaa59f79f","2025-07-09T09:29:01.994Z","","","","","","AttribQ","","","","","","","","","","","","","","","","","","","","","","","","","","","","","","","","","","","","","","50"
"7280","","<div style=""width:500px;"">
  <p>How much control did you have over the ball?</p>
  </div>","15","html-slider-response","70","1167857","0.0-10.0-2.6","148","1","2025-07-09 09:09:39","7701e855f2ef39aa3fd6c71abdc6918a","102.33.189.50","Mozilla/5.0 (Windows NT 10.0; Win64; x64) AppleWebKit/537.36 (KHTML, like Gecko) Chrome/138.0.0.0 Safari/537.36 Edg/138.0.0.0","WebKit","Edge","138.0.0.0","Windows","10.0","https://app.prolific.com/","en-US,en;q=0.9,en-ZA;q=0.8","64f7a35c5f6503caaa59f79f","686d226cabeef709c732f8e1","686e312b2e1ac1ebf54e9f88","64f7a35c5f6503caaa59f79f","2025-07-09T09:29:09.278Z","","","","","","ControlQ","","","","","","","","","","","","","","","","","","","","","","","","","","","","","","","","","","","","","","50"
"4083","","<div style=""width:500px;"">
  <p>How would you describe your current emotional state?</p>
  </div>","12","html-slider-response","71","1171946","0.0-10.0-3.6","148","1","2025-07-09 09:09:39","7701e855f2ef39aa3fd6c71abdc6918a","102.33.189.50","Mozilla/5.0 (Windows NT 10.0; Win64; x64) AppleWebKit/537.36 (KHTML, like Gecko) Chrome/138.0.0.0 Safari/537.36 Edg/138.0.0.0","WebKit","Edge","138.0.0.0","Windows","10.0","https://app.prolific.com/","en-US,en;q=0.9,en-ZA;q=0.8","64f7a35c5f6503caaa59f79f","686d226cabeef709c732f8e1","686e312b2e1ac1ebf54e9f88","64f7a35c5f6503caaa59f79f","2025-07-09T09:29:13.366Z","","","","","","StressQ","","","","","","","","","","","","","","","","","","","","","","","","","","","","","","","","","","","","","","50"
"8071","","<div style=""width:500px;"">
  <p>What best describes how you currently feel?</p>
  </div>","91","html-slider-response","72","1180019","0.0-10.0-4.6","148","1","2025-07-09 09:09:39","7701e855f2ef39aa3fd6c71abdc6918a","102.33.189.50","Mozilla/5.0 (Windows NT 10.0; Win64; x64) AppleWebKit/537.36 (KHTML, like Gecko) Chrome/138.0.0.0 Safari/537.36 Edg/138.0.0.0","WebKit","Edge","138.0.0.0","Windows","10.0","https://app.prolific.com/","en-US,en;q=0.9,en-ZA;q=0.8","64f7a35c5f6503caaa59f79f","686d226cabeef709c732f8e1","686e312b2e1ac1ebf54e9f88","64f7a35c5f6503caaa59f79f","2025-07-09T09:29:21.440Z","","","","","","MotivationQ","","","","","","","","","","","","","","","","","","","","","","","","","","","","","","","","","","","","","","50"
"","","","","ctl-task-cpt","73","1220707","0.0-10.0-0.7","148","1","2025-07-09 09:09:39","7701e855f2ef39aa3fd6c71abdc6918a","102.33.189.50","Mozilla/5.0 (Windows NT 10.0; Win64; x64) AppleWebKit/537.36 (KHTML, like Gecko) Chrome/138.0.0.0 Safari/537.36 Edg/138.0.0.0","WebKit","Edge","138.0.0.0","Windows","10.0","https://app.prolific.com/","en-US,en;q=0.9,en-ZA;q=0.8","64f7a35c5f6503caaa59f79f","686d226cabeef709c732f8e1","686e312b2e1ac1ebf54e9f88","64f7a35c5f6503caaa59f79f","2025-07-09T09:30:02.127Z","","","","","","","","","","","","","","","","win-only","2","g1:SE,g2:NW","0.3","8","0","1182927.3","1703.1","6706.8","37667","1","4","4","6","2","-4","-5","0","0","0","5003.7","3000","-2845","[""left"",""up""]","{""num_key_presses"":7,""num_perfect"":1,""num_errors"":1,""num_randdir"":5,""num_randdir_good_moves"":1,""num_whilered"":0,""num_whileblue"":0,""num_blue"":2,""num_good_moves"":1}","[412.57142857142856,417.47767857142856,0.2,412.57142857142856,417.47767857142856,103.1,412.57142857142856,417.47767857142856,203.6,412.57142857142856,417.47767857142856,317.6,412.57142857142856,417.47767857142856,417.9,412.57142857142856,417.47767857142856,517.9,412.57142857142856,417.47767857142856,623.4,412.57142857142856,417.47767857142856,728.8,412.57142857142856,417.47767857142856,833.8,412.57142857142856,417.47767857142856,937.2,412.57142857142856,417.47767857142856,1037.7,412.57142857142856,417.47767857142856,1137.9,412.57142857142856,417.47767857142856,1238.2,412.57142857142856,417.47767857142856,1344.1,412.57142857142856,417.47767857142856,1452.3,412.57142857142856,417.47767857142856,1557.7,412.57142857142856,417.47767857142856,1666.5,412.57142857142856,417.47767857142856,1767.7,412.57142857142856,417.47767857142856,1867.9,412.57142857142856,417.47767857142856,1968.1,412.57142857142856,417.47767857142856,2068.4,412.57142857142856,417.47767857142856,2173.3,412.57142857142856,417.47767857142856,2283.4,412.57142857142856,417.47767857142856,2386.8,412.57142857142856,417.47767857142856,2487.9,412.57142857142856,417.47767857142856,2588,412.57142857142856,417.47767857142856,2694.2,412.57142857142856,417.47767857142856,2797.6,412.57142857142856,417.47767857142856,2897.8,412.57142857142856,417.47767857142856,3002.9,412.57142857142856,417.47767857142856,3117.4,412.57142857142856,417.47767857142856,3217.4,412.57142857142856,417.47767857142856,3317.5,412.57142857142856,417.47767857142856,3418.1,412.57142857142856,417.47767857142856,3522.8,412.57142857142856,417.47767857142856,3623.2,412.57142857142856,417.47767857142856,3736.6,412.57142857142856,417.47767857142856,3837.3,412.57142857142856,417.47767857142856,3937.3,412.57142857142856,417.47767857142856,4037.9,412.57142857142856,417.47767857142856,4137.9,412.57142857142856,417.47767857142856,4242.5,412.57142857142856,417.47767857142856,4342.5,412.57142857142856,417.47767857142856,4444.5,412.57142857142856,417.47767857142856,4551.9,412.57142857142856,417.47767857142856,4652.1,412.57142857142856,417.47767857142856,4752.6,412.57142857142856,417.47767857142856,4852.7,412.57142857142856,417.47767857142856,4953.3]","[1697,1697,1000,0,697,""oops"",""up"",""right"",""bad_move"",4962.6,3265.3,2773.4,1697.3,491.9,""oops"",""left"",""down"",""bad_move"",14762.3,9799.4,2043.8,12313.7,404.8,""oops"",""up"",""left"",""good_move"",17445,2682.3,2187.7,14762.7,494.6,""oops"",""up"",""down"",""bad_move"",21162.5,3717.2,3210.8,17445.3,506.4,""smooth"",""right"",""right"",""bad_move"",23917,2754.1,2269.3,21162.9,484.8,""oops"",""right"",""right"",""bad_move"",26231.7,2314.6,3246.7,23917.2,-932.1,""error"",""-"",""-"",""no_move""]","",""
"3748","","<div style=""width:500px;"">
  <p>What determined the result of this run?</p>
  </div>","48","html-slider-response","74","1224457","0.0-10.0-1.7","148","1","2025-07-09 09:09:39","7701e855f2ef39aa3fd6c71abdc6918a","102.33.189.50","Mozilla/5.0 (Windows NT 10.0; Win64; x64) AppleWebKit/537.36 (KHTML, like Gecko) Chrome/138.0.0.0 Safari/537.36 Edg/138.0.0.0","WebKit","Edge","138.0.0.0","Windows","10.0","https://app.prolific.com/","en-US,en;q=0.9,en-ZA;q=0.8","64f7a35c5f6503caaa59f79f","686d226cabeef709c732f8e1","686e312b2e1ac1ebf54e9f88","64f7a35c5f6503caaa59f79f","2025-07-09T09:30:05.877Z","","","","","","AttribQ","","","","","","","","","","","","","","","","","","","","","","","","","","","","","","","","","","","","","","50"
"3913","","<div style=""width:500px;"">
  <p>How much control did you have over the ball?</p>
  </div>","3","html-slider-response","75","1228371","0.0-10.0-2.7","148","1","2025-07-09 09:09:39","7701e855f2ef39aa3fd6c71abdc6918a","102.33.189.50","Mozilla/5.0 (Windows NT 10.0; Win64; x64) AppleWebKit/537.36 (KHTML, like Gecko) Chrome/138.0.0.0 Safari/537.36 Edg/138.0.0.0","WebKit","Edge","138.0.0.0","Windows","10.0","https://app.prolific.com/","en-US,en;q=0.9,en-ZA;q=0.8","64f7a35c5f6503caaa59f79f","686d226cabeef709c732f8e1","686e312b2e1ac1ebf54e9f88","64f7a35c5f6503caaa59f79f","2025-07-09T09:30:09.792Z","","","","","","ControlQ","","","","","","","","","","","","","","","","","","","","","","","","","","","","","","","","","","","","","","50"
"4288","","<div style=""width:500px;"">
  <p>How would you describe your current emotional state?</p>
  </div>","2","html-slider-response","76","1232666","0.0-10.0-3.7","148","1","2025-07-09 09:09:39","7701e855f2ef39aa3fd6c71abdc6918a","102.33.189.50","Mozilla/5.0 (Windows NT 10.0; Win64; x64) AppleWebKit/537.36 (KHTML, like Gecko) Chrome/138.0.0.0 Safari/537.36 Edg/138.0.0.0","WebKit","Edge","138.0.0.0","Windows","10.0","https://app.prolific.com/","en-US,en;q=0.9,en-ZA;q=0.8","64f7a35c5f6503caaa59f79f","686d226cabeef709c732f8e1","686e312b2e1ac1ebf54e9f88","64f7a35c5f6503caaa59f79f","2025-07-09T09:30:14.086Z","","","","","","StressQ","","","","","","","","","","","","","","","","","","","","","","","","","","","","","","","","","","","","","","50"
"3886","","<div style=""width:500px;"">
  <p>What best describes how you currently feel?</p>
  </div>","92","html-slider-response","77","1236554","0.0-10.0-4.7","148","1","2025-07-09 09:09:39","7701e855f2ef39aa3fd6c71abdc6918a","102.33.189.50","Mozilla/5.0 (Windows NT 10.0; Win64; x64) AppleWebKit/537.36 (KHTML, like Gecko) Chrome/138.0.0.0 Safari/537.36 Edg/138.0.0.0","WebKit","Edge","138.0.0.0","Windows","10.0","https://app.prolific.com/","en-US,en;q=0.9,en-ZA;q=0.8","64f7a35c5f6503caaa59f79f","686d226cabeef709c732f8e1","686e312b2e1ac1ebf54e9f88","64f7a35c5f6503caaa59f79f","2025-07-09T09:30:17.974Z","","","","","","MotivationQ","","","","","","","","","","","","","","","","","","","","","","","","","","","","","","","","","","","","","","50"
"","","","","ctl-task-cpt","78","1277730","0.0-10.0-0.8","148","1","2025-07-09 09:09:39","7701e855f2ef39aa3fd6c71abdc6918a","102.33.189.50","Mozilla/5.0 (Windows NT 10.0; Win64; x64) AppleWebKit/537.36 (KHTML, like Gecko) Chrome/138.0.0.0 Safari/537.36 Edg/138.0.0.0","WebKit","Edge","138.0.0.0","Windows","10.0","https://app.prolific.com/","en-US,en;q=0.9,en-ZA;q=0.8","64f7a35c5f6503caaa59f79f","686d226cabeef709c732f8e1","686e312b2e1ac1ebf54e9f88","64f7a35c5f6503caaa59f79f","2025-07-09T09:30:59.150Z","","","","","","","","","","","","","","","","win-only","2","g1:SE,g2:NW","0.2","9","0","1239458.9","1755.1","6756.7","38155.5","1","4","4","6","1","-1","-2","0","0","0","5001.6","3000","-2890","[""down"",""right""]","{""num_key_presses"":8,""num_perfect"":2,""num_errors"":1,""num_randdir"":5,""num_randdir_good_moves"":2,""num_whilered"":0,""num_whileblue"":0,""num_blue"":2,""num_good_moves"":4}","[408.57142857142856,408.47767857142856,0.2,408.57142857142856,408.47767857142856,101.6,408.57142857142856,408.47767857142856,205.6,408.57142857142856,408.47767857142856,306,408.57142857142856,408.47767857142856,411.4,408.57142857142856,408.47767857142856,516,408.57142857142856,408.47767857142856,620.8,444.57142857142856,457.47767857142856,735.4,461.57142857142856,484.47767857142856,836,461.57142857142856,484.47767857142856,936,457.57142857142856,484.47767857142856,1040.7,457.57142857142856,484.47767857142856,1145.3,457.57142857142856,484.47767857142856,1247,457.57142857142856,484.47767857142856,1350.2,457.57142857142856,484.47767857142856,1451.2,457.57142857142856,484.47767857142856,1555.7,457.57142857142856,484.47767857142856,1670.8,457.57142857142856,484.47767857142856,1775.3,457.57142857142856,484.47767857142856,1875.5,457.57142857142856,484.47767857142856,1976.2,457.57142857142856,484.47767857142856,2081.3,457.57142857142856,484.47767857142856,2186.2,457.57142857142856,484.47767857142856,2301.6,457.57142857142856,484.47767857142856,2401.6,457.57142857142856,484.47767857142856,2505.2,457.57142857142856,484.47767857142856,2606.3,457.57142857142856,484.47767857142856,2710.9,457.57142857142856,484.47767857142856,2815.9,457.57142857142856,484.47767857142856,2916.2,457.57142857142856,484.47767857142856,3021.2,457.57142857142856,484.47767857142856,3135.7,457.57142857142856,484.47767857142856,3236.1,457.57142857142856,484.47767857142856,3340.4,457.57142857142856,484.47767857142856,3441,457.57142857142856,484.47767857142856,3546.3,457.57142857142856,484.47767857142856,3646.8,457.57142857142856,484.47767857142856,3750.3,457.57142857142856,484.47767857142856,3855.3,457.57142857142856,484.47767857142856,3970.5,457.57142857142856,484.47767857142856,4075.7,457.57142857142856,484.47767857142856,4180.5,457.57142857142856,484.47767857142856,4280.8,457.57142857142856,484.47767857142856,4380.8,457.57142857142856,484.47767857142856,4481.3,457.57142857142856,484.47767857142856,4581.3,457.57142857142856,484.47767857142856,4685.7,457.57142857142856,484.47767857142856,4801.1,457.57142857142856,484.47767857142856,4901.6]","[2117,2117,1000,0,1117,""smooth"",""right"",""right"",""good_move"",12298.8,10181.4,2513,9388.7,397.1,""oops"",""down"",""right"",""good_move"",15167.5,2868.5,2224.9,12299,643.6,""oops"",""down"",""down"",""good_move"",18818.4,3650.5,3182.7,15167.9,467.8,""oops"",""down"",""left"",""bad_move"",21525.9,2707.2,2293.2,18818.7,414,""smooth"",""down"",""down"",""good_move"",24652.1,3125.9,2739.6,21526.2,386.3,""oops"",""right"",""left"",""bad_move"",27611.6,2959.1,2581.1,24652.5,378,""oops"",""right"",""left"",""bad_move"",28086.6,474.7,2443.6,27611.9,-1968.9,""error"",""-"",""-"",""no_move""]","",""
"4217","","<div style=""width:500px;"">
  <p>What determined the result of this run?</p>
  </div>","5","html-slider-response","79","1281948","0.0-10.0-1.8","148","1","2025-07-09 09:09:39","7701e855f2ef39aa3fd6c71abdc6918a","102.33.189.50","Mozilla/5.0 (Windows NT 10.0; Win64; x64) AppleWebKit/537.36 (KHTML, like Gecko) Chrome/138.0.0.0 Safari/537.36 Edg/138.0.0.0","WebKit","Edge","138.0.0.0","Windows","10.0","https://app.prolific.com/","en-US,en;q=0.9,en-ZA;q=0.8","64f7a35c5f6503caaa59f79f","686d226cabeef709c732f8e1","686e312b2e1ac1ebf54e9f88","64f7a35c5f6503caaa59f79f","2025-07-09T09:31:03.368Z","","","","","","AttribQ","","","","","","","","","","","","","","","","","","","","","","","","","","","","","","","","","","","","","","50"
"3904","","<div style=""width:500px;"">
  <p>How much control did you have over the ball?</p>
  </div>","1","html-slider-response","80","1285854","0.0-10.0-2.8","148","1","2025-07-09 09:09:39","7701e855f2ef39aa3fd6c71abdc6918a","102.33.189.50","Mozilla/5.0 (Windows NT 10.0; Win64; x64) AppleWebKit/537.36 (KHTML, like Gecko) Chrome/138.0.0.0 Safari/537.36 Edg/138.0.0.0","WebKit","Edge","138.0.0.0","Windows","10.0","https://app.prolific.com/","en-US,en;q=0.9,en-ZA;q=0.8","64f7a35c5f6503caaa59f79f","686d226cabeef709c732f8e1","686e312b2e1ac1ebf54e9f88","64f7a35c5f6503caaa59f79f","2025-07-09T09:31:07.274Z","","","","","","ControlQ","","","","","","","","","","","","","","","","","","","","","","","","","","","","","","","","","","","","","","50"
"3813","","<div style=""width:500px;"">
  <p>How would you describe your current emotional state?</p>
  </div>","0","html-slider-response","81","1289671","0.0-10.0-3.8","148","1","2025-07-09 09:09:39","7701e855f2ef39aa3fd6c71abdc6918a","102.33.189.50","Mozilla/5.0 (Windows NT 10.0; Win64; x64) AppleWebKit/537.36 (KHTML, like Gecko) Chrome/138.0.0.0 Safari/537.36 Edg/138.0.0.0","WebKit","Edge","138.0.0.0","Windows","10.0","https://app.prolific.com/","en-US,en;q=0.9,en-ZA;q=0.8","64f7a35c5f6503caaa59f79f","686d226cabeef709c732f8e1","686e312b2e1ac1ebf54e9f88","64f7a35c5f6503caaa59f79f","2025-07-09T09:31:11.091Z","","","","","","StressQ","","","","","","","","","","","","","","","","","","","","","","","","","","","","","","","","","","","","","","50"
"4572","","<div style=""width:500px;"">
  <p>What best describes how you currently feel?</p>
  </div>","90","html-slider-response","82","1294248","0.0-10.0-4.8","148","1","2025-07-09 09:09:39","7701e855f2ef39aa3fd6c71abdc6918a","102.33.189.50","Mozilla/5.0 (Windows NT 10.0; Win64; x64) AppleWebKit/537.36 (KHTML, like Gecko) Chrome/138.0.0.0 Safari/537.36 Edg/138.0.0.0","WebKit","Edge","138.0.0.0","Windows","10.0","https://app.prolific.com/","en-US,en;q=0.9,en-ZA;q=0.8","64f7a35c5f6503caaa59f79f","686d226cabeef709c732f8e1","686e312b2e1ac1ebf54e9f88","64f7a35c5f6503caaa59f79f","2025-07-09T09:31:15.669Z","","","","","","MotivationQ","","","","","","","","","","","","","","","","","","","","","","","","","","","","","","","","","","","","","","50"
"","","","","ctl-task-cpt","83","1344669","0.0-10.0-0.9","148","1","2025-07-09 09:09:39","7701e855f2ef39aa3fd6c71abdc6918a","102.33.189.50","Mozilla/5.0 (Windows NT 10.0; Win64; x64) AppleWebKit/537.36 (KHTML, like Gecko) Chrome/138.0.0.0 Safari/537.36 Edg/138.0.0.0","WebKit","Edge","138.0.0.0","Windows","10.0","https://app.prolific.com/","en-US,en;q=0.9,en-ZA;q=0.8","64f7a35c5f6503caaa59f79f","686d226cabeef709c732f8e1","686e312b2e1ac1ebf54e9f88","64f7a35c5f6503caaa59f79f","2025-07-09T09:32:06.089Z","","","","","","","","","","","","","","","","win-only","2","g1:SE,g2:NW","0.4","10","0","1297149.8","2314.2","7316.3","47386.1","1","4","8","6","1","1","1","1","0","0.007575757575757576","5002.1","3000","345","[""down"",""right""]","{""num_key_presses"":8,""num_perfect"":4,""num_errors"":0,""num_randdir"":4,""num_randdir_good_moves"":2,""num_whilered"":0,""num_whileblue"":0,""num_blue"":5,""num_good_moves"":6}","[413.57142857142856,418.47767857142856,0.2,413.57142857142856,418.47767857142856,105,413.57142857142856,418.47767857142856,218.3,417.57142857142856,418.47767857142856,319.1,462.57142857142856,423.47767857142856,419.3,557.5714285714286,473.47767857142856,521.3,591.5714285714286,519.4776785714286,628,583.5714285714286,514.4776785714286,731.9,581.5714285714286,514.4776785714286,836.4,581.5714285714286,514.4776785714286,936.5,581.5714285714286,514.4776785714286,1036.6,581.5714285714286,514.4776785714286,1138.7,581.5714285714286,514.4776785714286,1253.8,581.5714285714286,514.4776785714286,1354.1,581.5714285714286,514.4776785714286,1456.4,581.5714285714286,514.4776785714286,1562.5,581.5714285714286,514.4776785714286,1666.5,581.5714285714286,514.4776785714286,1771.3,581.5714285714286,514.4776785714286,1888,581.5714285714286,514.4776785714286,1988.3,581.5714285714286,514.4776785714286,2091.4,581.5714285714286,514.4776785714286,2191.8,581.5714285714286,514.4776785714286,2297.2,581.5714285714286,514.4776785714286,2397.2,581.5714285714286,514.4776785714286,2501,581.5714285714286,514.4776785714286,2601,581.5714285714286,514.4776785714286,2701.9,581.5714285714286,514.4776785714286,2802.2,581.5714285714286,514.4776785714286,2921,581.5714285714286,514.4776785714286,3021.2,581.5714285714286,514.4776785714286,3138.1,581.5714285714286,514.4776785714286,3238.3,581.5714285714286,514.4776785714286,3341.2,581.5714285714286,514.4776785714286,3441.7,581.5714285714286,514.4776785714286,3554.1,581.5714285714286,514.4776785714286,3656.8,581.5714285714286,514.4776785714286,3756.9,581.5714285714286,514.4776785714286,3861.3,581.5714285714286,514.4776785714286,3961.8,581.5714285714286,514.4776785714286,4061.9,581.5714285714286,514.4776785714286,4163.7,581.5714285714286,514.4776785714286,4266.4,581.5714285714286,514.4776785714286,4371,581.5714285714286,514.4776785714286,4471,581.5714285714286,514.4776785714286,4571,581.5714285714286,514.4776785714286,4671.7,581.5714285714286,514.4776785714286,4788.1,581.5714285714286,514.4776785714286,4888.2,581.5714285714286,514.4776785714286,4991.5]","[8300,8300,2677,5184.9,438.1,""smooth"",""right"",""right"",""good_move"",11804.7,3504.3,3018.5,8300.4,485.8,""oops"",""down"",""right"",""good_move"",19246.4,7441.5,2734.1,16101.8,410.5,""oops"",""down"",""left"",""bad_move"",25997.9,6750.8,2954,22580.4,463.5,""oops"",""down"",""left"",""bad_move"",29500.6,3502.4,2737,25998.2,765.4,""smooth"",""down"",""down"",""good_move"",34563.7,5062.9,1658,32500.3,405.4,""oops"",""down"",""down"",""good_move"",37683.2,3119.1,2633.3,34564.1,485.8,""smooth"",""right"",""right"",""good_move"",39937.3,2253.8,1869.8,37683.5,384,""smooth"",""right"",""right"",""good_move""]","",""
"4956","","<div style=""width:500px;"">
  <p>What determined the result of this run?</p>
  </div>","92","html-slider-response","84","1349626","0.0-10.0-1.9","148","1","2025-07-09 09:09:39","7701e855f2ef39aa3fd6c71abdc6918a","102.33.189.50","Mozilla/5.0 (Windows NT 10.0; Win64; x64) AppleWebKit/537.36 (KHTML, like Gecko) Chrome/138.0.0.0 Safari/537.36 Edg/138.0.0.0","WebKit","Edge","138.0.0.0","Windows","10.0","https://app.prolific.com/","en-US,en;q=0.9,en-ZA;q=0.8","64f7a35c5f6503caaa59f79f","686d226cabeef709c732f8e1","686e312b2e1ac1ebf54e9f88","64f7a35c5f6503caaa59f79f","2025-07-09T09:32:11.047Z","","","","","","AttribQ","","","","","","","","","","","","","","","","","","","","","","","","","","","","","","","","","","","","","","50"
"11252","","<div style=""width:500px;"">
  <p>How much control did you have over the ball?</p>
  </div>","32","html-slider-response","85","1360884","0.0-10.0-2.9","148","1","2025-07-09 09:09:39","7701e855f2ef39aa3fd6c71abdc6918a","102.33.189.50","Mozilla/5.0 (Windows NT 10.0; Win64; x64) AppleWebKit/537.36 (KHTML, like Gecko) Chrome/138.0.0.0 Safari/537.36 Edg/138.0.0.0","WebKit","Edge","138.0.0.0","Windows","10.0","https://app.prolific.com/","en-US,en;q=0.9,en-ZA;q=0.8","64f7a35c5f6503caaa59f79f","686d226cabeef709c732f8e1","686e312b2e1ac1ebf54e9f88","64f7a35c5f6503caaa59f79f","2025-07-09T09:32:22.304Z","","","","","","ControlQ","","","","","","","","","","","","","","","","","","","","","","","","","","","","","","","","","","","","","","50"
"5559","","<div style=""width:500px;"">
  <p>How would you describe your current emotional state?</p>
