"rt","response_timestamp","stimulus","response","trial_type","trial_index","time_elapsed","internal_node_id","run_id","condition","recorded_at","source_code_version","ip","user_agent","device","browser","browser_version","platform","platform_version","referer","accept_language","PROLIFIC_PID","STUDY_ID","SESSION_ID","prolific_id","realtime","view_history","question_order","consent","success","question_id","eventType","responses","item_order","radio_event_ids","radio_event_times","key_event_times","mouse_event_times","straightlining","zigzagging","honeypot","which_type","canvas_config","goals_layout","control_level","trial_number","tutorial_trial_number","trial_start_time","phase1_start_time","phase2_start_time","phase3_start_time","goal_1_value","goal_1_distance","goal_2_value","goal_2_distance","goal_selected","outcome","outcome_total","participant_final_score","participant_initial_score","participant_final_score_prop","goal_choice_rt","allocated_time","allocated_time_remaining","goal_direction","counts","mouse_movements","key_presses","correct","slider_start"
"5112","1752053285973","<p style='font-size:40px;line-height:1.25'><strong>Welcome to the experiment!</strong></p><p style='font-size:1.1em;line-height:1.25'>Thank you for your interest in our experiment! Before you begin, it is important that we obtain your informed consent to participate in the study.</p><p style='font-size:1.1em;line-height:1.25'>On the next screen will be an <strong>information sheet</strong> for you to read. To participate in the study we need you to read this information sheet and the following consent form carefully. If you agree with all the statements, please click the <strong>I agree</strong> button.</p><p style='font-size:1.1em;line-height:1.25'>Press <strong>Next</strong> to read the information sheet.</p>","0","custom-html-button-response","0","5114","0.0-0.0","218","1","2025-07-09 09:28:00","7701e855f2ef39aa3fd6c71abdc6918a","41.114.179.7","Mozilla/5.0 (Windows NT 10.0; Win64; x64) AppleWebKit/537.36 (KHTML, like Gecko) Chrome/138.0.0.0 Safari/537.36","WebKit","Chrome","138.0.0.0","Windows","10.0","https://app.prolific.com/","en-ZA,en-GB;q=0.9,en-US;q=0.8,en;q=0.7","61601e9a6b8306196d2a129c","686d226cabeef709c732f8e1","686e31039610a8a08756c87f","61601e9a6b8306196d2a129c","2025-07-09T09:28:05.974Z","","","","","","","","","","","","","","","","","","","","","","","","","","","","","","","","","","","","","","","","","","","",""
"57322","","","","instructions","1","62437","0.0-1.0","218","1","2025-07-09 09:28:00","7701e855f2ef39aa3fd6c71abdc6918a","41.114.179.7","Mozilla/5.0 (Windows NT 10.0; Win64; x64) AppleWebKit/537.36 (KHTML, like Gecko) Chrome/138.0.0.0 Safari/537.36","WebKit","Chrome","138.0.0.0","Windows","10.0","https://app.prolific.com/","en-ZA,en-GB;q=0.9,en-US;q=0.8,en;q=0.7","61601e9a6b8306196d2a129c","686d226cabeef709c732f8e1","686e31039610a8a08756c87f","61601e9a6b8306196d2a129c","","[{""page_index"":0,""viewing_time"":50221},{""page_index"":1,""viewing_time"":7101}]","","","","","","","","","","","","","","","","","","","","","","","","","","","","","","","","","","","","","","","","","","",""
"9164","","","{""Q0"":"""",""Q1"":"""",""Q2"":"""",""Q3"":"""",""Q4"":"""",""Q5"":"""",""Q6"":""I agree""}","survey-multi-choice","2","71603","0.0-2.0","218","1","2025-07-09 09:28:00","7701e855f2ef39aa3fd6c71abdc6918a","41.114.179.7","Mozilla/5.0 (Windows NT 10.0; Win64; x64) AppleWebKit/537.36 (KHTML, like Gecko) Chrome/138.0.0.0 Safari/537.36","WebKit","Chrome","138.0.0.0","Windows","10.0","https://app.prolific.com/","en-ZA,en-GB;q=0.9,en-US;q=0.8,en;q=0.7","61601e9a6b8306196d2a129c","686d226cabeef709c732f8e1","686e31039610a8a08756c87f","61601e9a6b8306196d2a129c","","","[0,1,2,3,4,5,6]","true","","","","","","","","","","","","","","","","","","","","","","","","","","","","","","","","","","","","","","","","",""
"31969","","","","fullscreen","3","104585","0.0-4.0","218","1","2025-07-09 09:28:00","7701e855f2ef39aa3fd6c71abdc6918a","41.114.179.7","Mozilla/5.0 (Windows NT 10.0; Win64; x64) AppleWebKit/537.36 (KHTML, like Gecko) Chrome/138.0.0.0 Safari/537.36","WebKit","Chrome","138.0.0.0","Windows","10.0","https://app.prolific.com/","en-ZA,en-GB;q=0.9,en-US;q=0.8,en;q=0.7","61601e9a6b8306196d2a129c","686d226cabeef709c732f8e1","686e31039610a8a08756c87f","61601e9a6b8306196d2a129c","","","","","true","","","","","","","","","","","","","","","","","","","","","","","","","","","","","","","","","","","","","","","",""
"3966","1752053389412"," <p style='font-size:1.1em;line-height:1.25'>Thank you for completing the consent form and closing all other tabs.</p><p style='font-size:1.1em;line-height:1.25'>We will now invite you to fill in some demographic information and questionnaires, before starting the game.<br>This will take about 5 minutes.<br></p><p style='font-size:1.1em;line-height:1.25'>Press the <strong>Next</strong> button to continue.</p>","0","custom-html-button-response","4","108553","0.0-5.0","218","1","2025-07-09 09:28:00","7701e855f2ef39aa3fd6c71abdc6918a","41.114.179.7","Mozilla/5.0 (Windows NT 10.0; Win64; x64) AppleWebKit/537.36 (KHTML, like Gecko) Chrome/138.0.0.0 Safari/537.36","WebKit","Chrome","138.0.0.0","Windows","10.0","https://app.prolific.com/","en-ZA,en-GB;q=0.9,en-US;q=0.8,en;q=0.7","61601e9a6b8306196d2a129c","686d226cabeef709c732f8e1","686e31039610a8a08756c87f","61601e9a6b8306196d2a129c","2025-07-09T09:29:49.413Z","","","","","","","","","","","","","","","","","","","","","","","","","","","","","","","","","","","","","","","","","","","",""
"3912","","","{""age"":""36""}","survey-text","5","112467","0.0-6.0-0.0","218","1","2025-07-09 09:28:00","7701e855f2ef39aa3fd6c71abdc6918a","41.114.179.7","Mozilla/5.0 (Windows NT 10.0; Win64; x64) AppleWebKit/537.36 (KHTML, like Gecko) Chrome/138.0.0.0 Safari/537.36","WebKit","Chrome","138.0.0.0","Windows","10.0","https://app.prolific.com/","en-ZA,en-GB;q=0.9,en-US;q=0.8,en;q=0.7","61601e9a6b8306196d2a129c","686d226cabeef709c732f8e1","686e31039610a8a08756c87f","61601e9a6b8306196d2a129c","","","","","","0","demographics","","","","","","","","","","","","","","","","","","","","","","","","","","","","","","","","","","","","","",""
"2932","","","{""gender_identity"":""female/woman""}","survey-multi-choice","6","115400","0.0-6.0-1.0","218","1","2025-07-09 09:28:00","7701e855f2ef39aa3fd6c71abdc6918a","41.114.179.7","Mozilla/5.0 (Windows NT 10.0; Win64; x64) AppleWebKit/537.36 (KHTML, like Gecko) Chrome/138.0.0.0 Safari/537.36","WebKit","Chrome","138.0.0.0","Windows","10.0","https://app.prolific.com/","en-ZA,en-GB;q=0.9,en-US;q=0.8,en;q=0.7","61601e9a6b8306196d2a129c","686d226cabeef709c732f8e1","686e31039610a8a08756c87f","61601e9a6b8306196d2a129c","","","[0]","","","1","demographics","","","","","","","","","","","","","","","","","","","","","","","","","","","","","","","","","","","","","",""
"9860","","","{""assigned_sex"":""female""}","survey-multi-choice","7","125261","0.0-6.0-2.0","218","1","2025-07-09 09:28:00","7701e855f2ef39aa3fd6c71abdc6918a","41.114.179.7","Mozilla/5.0 (Windows NT 10.0; Win64; x64) AppleWebKit/537.36 (KHTML, like Gecko) Chrome/138.0.0.0 Safari/537.36","WebKit","Chrome","138.0.0.0","Windows","10.0","https://app.prolific.com/","en-ZA,en-GB;q=0.9,en-US;q=0.8,en;q=0.7","61601e9a6b8306196d2a129c","686d226cabeef709c732f8e1","686e31039610a8a08756c87f","61601e9a6b8306196d2a129c","","","[0]","","","2","demographics","","","","","","","","","","","","","","","","","","","","","","","","","","","","","","","","","","","","","",""
"7602","","","{""menstrual_cycle"":""Yes""}","survey-multi-choice","8","132864","0.0-6.0-3.0","218","1","2025-07-09 09:28:00","7701e855f2ef39aa3fd6c71abdc6918a","41.114.179.7","Mozilla/5.0 (Windows NT 10.0; Win64; x64) AppleWebKit/537.36 (KHTML, like Gecko) Chrome/138.0.0.0 Safari/537.36","WebKit","Chrome","138.0.0.0","Windows","10.0","https://app.prolific.com/","en-ZA,en-GB;q=0.9,en-US;q=0.8,en;q=0.7","61601e9a6b8306196d2a129c","686d226cabeef709c732f8e1","686e31039610a8a08756c87f","61601e9a6b8306196d2a129c","","","[0]","","","4","demographics","","","","","","","","","","","","","","","","","","","","","","","","","","","","","","","","","","","","","",""
"21444","","","{""education"":""Higher National Certificate""}","survey-multi-choice","9","154309","0.0-6.0-4.0","218","1","2025-07-09 09:28:00","7701e855f2ef39aa3fd6c71abdc6918a","41.114.179.7","Mozilla/5.0 (Windows NT 10.0; Win64; x64) AppleWebKit/537.36 (KHTML, like Gecko) Chrome/138.0.0.0 Safari/537.36","WebKit","Chrome","138.0.0.0","Windows","10.0","https://app.prolific.com/","en-ZA,en-GB;q=0.9,en-US;q=0.8,en;q=0.7","61601e9a6b8306196d2a129c","686d226cabeef709c732f8e1","686e31039610a8a08756c87f","61601e9a6b8306196d2a129c","","","[0]","","","5","demographics","","","","","","","","","","","","","","","","","","","","","","","","","","","","","","","","","","","","","",""
"6789","","","{""education"":""Higher National Certificate""}","survey-multi-choice","10","161100","0.0-6.0-5.0","218","1","2025-07-09 09:28:00","7701e855f2ef39aa3fd6c71abdc6918a","41.114.179.7","Mozilla/5.0 (Windows NT 10.0; Win64; x64) AppleWebKit/537.36 (KHTML, like Gecko) Chrome/138.0.0.0 Safari/537.36","WebKit","Chrome","138.0.0.0","Windows","10.0","https://app.prolific.com/","en-ZA,en-GB;q=0.9,en-US;q=0.8,en;q=0.7","61601e9a6b8306196d2a129c","686d226cabeef709c732f8e1","686e31039610a8a08756c87f","61601e9a6b8306196d2a129c","2025-07-09T09:30:41.960Z","","[0]","","","6","demographics","","","","","","","","","","","","","","","","","","","","","","","","","","","","","","","","","","","","","",""
"71695","","","{""mental_health_condition"":""No"",""mental_health_treatment"":""No"",""psychiatric_medication"":""n/a""}","survey-text","11","232797","0.0-7.0-0.0","218","1","2025-07-09 09:28:00","7701e855f2ef39aa3fd6c71abdc6918a","41.114.179.7","Mozilla/5.0 (Windows NT 10.0; Win64; x64) AppleWebKit/537.36 (KHTML, like Gecko) Chrome/138.0.0.0 Safari/537.36","WebKit","Chrome","138.0.0.0","Windows","10.0","https://app.prolific.com/","en-ZA,en-GB;q=0.9,en-US;q=0.8,en;q=0.7","61601e9a6b8306196d2a129c","686d226cabeef709c732f8e1","686e31039610a8a08756c87f","61601e9a6b8306196d2a129c","2025-07-09T09:31:53.657Z","","","","","1","mental_health","","","","","","","","","","","","","","","","","","","","","","","","","","","","","","","","","","","","","",""
"14619","","","{""depression_history"":[""Yes""]}","survey-multi-select","12","247419","0.0-7.0-1.0","218","1","2025-07-09 09:28:00","7701e855f2ef39aa3fd6c71abdc6918a","41.114.179.7","Mozilla/5.0 (Windows NT 10.0; Win64; x64) AppleWebKit/537.36 (KHTML, like Gecko) Chrome/138.0.0.0 Safari/537.36","WebKit","Chrome","138.0.0.0","Windows","10.0","https://app.prolific.com/","en-ZA,en-GB;q=0.9,en-US;q=0.8,en;q=0.7","61601e9a6b8306196d2a129c","686d226cabeef709c732f8e1","686e31039610a8a08756c87f","61601e9a6b8306196d2a129c","","","[0]","","","","mental_health","","","","","","","","","","","","","","","","","","","","","","","","","","","","","","","","","","","","","",""
"11653","","","{""depression_episodes"":""more than 5"",""depression_recent"":""Within the past year""}","survey-multi-choice","13","259073","0.0-7.0-2.0-0.0","218","1","2025-07-09 09:28:00","7701e855f2ef39aa3fd6c71abdc6918a","41.114.179.7","Mozilla/5.0 (Windows NT 10.0; Win64; x64) AppleWebKit/537.36 (KHTML, like Gecko) Chrome/138.0.0.0 Safari/537.36","WebKit","Chrome","138.0.0.0","Windows","10.0","https://app.prolific.com/","en-ZA,en-GB;q=0.9,en-US;q=0.8,en;q=0.7","61601e9a6b8306196d2a129c","686d226cabeef709c732f8e1","686e31039610a8a08756c87f","61601e9a6b8306196d2a129c","2025-07-09T09:32:19.933Z","","[0,1]","","","3","mental_health","","","","","","","","","","","","","","","","","","","","","","","","","","","","","","","","","","","","","",""
"84768.10000000149","","","","survey-template","14","343846","0.0-7.0-3.0","218","1","2025-07-09 09:28:00","7701e855f2ef39aa3fd6c71abdc6918a","41.114.179.7","Mozilla/5.0 (Windows NT 10.0; Win64; x64) AppleWebKit/537.36 (KHTML, like Gecko) Chrome/138.0.0.0 Safari/537.36","WebKit","Chrome","138.0.0.0","Windows","10.0","https://app.prolific.com/","en-ZA,en-GB;q=0.9,en-US;q=0.8,en;q=0.7","61601e9a6b8306196d2a129c","686d226cabeef709c732f8e1","686e31039610a8a08756c87f","61601e9a6b8306196d2a129c","2025-07-09T09:33:44.706Z","","","","","","ius","{""Q01"":""3"",""Q02"":""3"",""Q03"":""3"",""Q04"":""2"",""Q05"":""3"",""Q06"":""3"",""Q07"":""3"",""Q08"":""0"",""Q09"":""3"",""Q10"":""3"",""Q11"":""3"",""Q12"":""3"",""Q13"":""3""}","[0,1,2,3,4,5,6,7,8,9,10,11,12]","[""Q01"",""Q02"",""Q03"",""Q04"",""Q05"",""Q06"",""Q07"",""Q08"",""Q09"",""Q11"",""Q10"",""Q12"",""Q13""]","[6380.60000000149,9330.800000000745,11923.199999999255,15769.60000000149,24508.699999999255,55646.60000000149,58002.900000002235,61877.60000000149,65442.10000000149,69799.30000000075,71310.80000000075,75563.19999999925,77515.69999999925]","[]","[5480.400000002235,6380.60000000149,9330.800000000745,11923.199999999255,15769.60000000149,24508.699999999255,55646.60000000149,58002.900000002235,60601.5,61877.60000000149,65442.10000000149,67702.30000000075,69799.30000000075,70434.5,71310.80000000075,75563.19999999925,77515.69999999925,84766.40000000224]","0.8461538461538461","0.16666666666666666","0","","","","","","","","","","","","","","","","","","","","","","","","","","","","",""
"2262","1752053626969","<p style='font-size:1.1em;line-height:1.25'>In the following, we will ask you a few questions relating to your experiences over the past month.<br></p><p style='font-size:1.1em;line-height:1.25'>Press the <strong>Next</strong> button to continue.</p>","0","custom-html-button-response","15","346109","0.0-7.0-4.0","218","1","2025-07-09 09:28:00","7701e855f2ef39aa3fd6c71abdc6918a","41.114.179.7","Mozilla/5.0 (Windows NT 10.0; Win64; x64) AppleWebKit/537.36 (KHTML, like Gecko) Chrome/138.0.0.0 Safari/537.36","WebKit","Chrome","138.0.0.0","Windows","10.0","https://app.prolific.com/","en-ZA,en-GB;q=0.9,en-US;q=0.8,en;q=0.7","61601e9a6b8306196d2a129c","686d226cabeef709c732f8e1","686e31039610a8a08756c87f","61601e9a6b8306196d2a129c","2025-07-09T09:33:46.969Z","","","","","","","","","","","","","","","","","","","","","","","","","","","","","","","","","","","","","","","","","","","",""
"65906.70000000298","","","","survey-template","16","412018","0.0-7.0-5.0","218","1","2025-07-09 09:28:00","7701e855f2ef39aa3fd6c71abdc6918a","41.114.179.7","Mozilla/5.0 (Windows NT 10.0; Win64; x64) AppleWebKit/537.36 (KHTML, like Gecko) Chrome/138.0.0.0 Safari/537.36","WebKit","Chrome","138.0.0.0","Windows","10.0","https://app.prolific.com/","en-ZA,en-GB;q=0.9,en-US;q=0.8,en;q=0.7","61601e9a6b8306196d2a129c","686d226cabeef709c732f8e1","686e31039610a8a08756c87f","61601e9a6b8306196d2a129c","2025-07-09T09:34:52.878Z","","","","","","pss","{""Q01"":""4"",""Q02"":""3"",""Q03"":""4"",""Q04"":""2"",""Q05"":""2"",""Q06"":""2"",""Q07"":""2"",""Q08"":""2"",""Q09"":""4"",""Q10"":""2""}","[0,1,2,3,4,5,6,7,8,9]","[""Q01"",""Q02"",""Q02"",""Q03"",""Q04"",""Q05"",""Q06"",""Q07"",""Q08"",""Q09"",""Q10""]","[13124.10000000149,18130.900000002235,19883.400000002235,24221.70000000298,29728.5,39691.800000000745,45676.400000002235,52535.20000000298,56443.800000000745,60380.300000000745,64986.70000000298]","[]","[7.900000002235174,13124.10000000149,18130.900000002235,19883.400000002235,24221.70000000298,29728.5,38935.800000000745,39691.800000000745,45676.400000002235,52535.20000000298,56443.800000000745,59726.300000000745,60380.300000000745,64986.70000000298,65905.30000000075]","0.6","0.2222222222222222","0","","","","","","","","","","","","","","","","","","","","","","","","","","","","",""
"1676","1752053694555","<p style='font-size:1.1em;line-height:1.25'>Thank you for your answers! Now we will ask you a few more questions relating to your feelings in the last 24 hours.<br></p><p style='font-size:1.1em;line-height:1.25'>Press the <strong>Next</strong> button to continue.</p>","0","custom-html-button-response","17","413696","0.0-7.0-6.0","218","1","2025-07-09 09:28:00","7701e855f2ef39aa3fd6c71abdc6918a","41.114.179.7","Mozilla/5.0 (Windows NT 10.0; Win64; x64) AppleWebKit/537.36 (KHTML, like Gecko) Chrome/138.0.0.0 Safari/537.36","WebKit","Chrome","138.0.0.0","Windows","10.0","https://app.prolific.com/","en-ZA,en-GB;q=0.9,en-US;q=0.8,en;q=0.7","61601e9a6b8306196d2a129c","686d226cabeef709c732f8e1","686e31039610a8a08756c87f","61601e9a6b8306196d2a129c","2025-07-09T09:34:54.556Z","","","","","","","","","","","","","","","","","","","","","","","","","","","","","","","","","","","","","","","","","","","",""
"130251.10000000149","","","","survey-template","18","543950","0.0-7.0-7.0","218","1","2025-07-09 09:28:00","7701e855f2ef39aa3fd6c71abdc6918a","41.114.179.7","Mozilla/5.0 (Windows NT 10.0; Win64; x64) AppleWebKit/537.36 (KHTML, like Gecko) Chrome/138.0.0.0 Safari/537.36","WebKit","Chrome","138.0.0.0","Windows","10.0","https://app.prolific.com/","en-ZA,en-GB;q=0.9,en-US;q=0.8,en;q=0.7","61601e9a6b8306196d2a129c","686d226cabeef709c732f8e1","686e31039610a8a08756c87f","61601e9a6b8306196d2a129c","2025-07-09T09:37:04.810Z","","","","","","drsp","{""Q01"":""3"",""Q02"":""2"",""Q03"":""2"",""Q04"":""4"",""Q05"":""2"",""Q06"":""4"",""Q07"":""5"",""Q08"":""3"",""Q09"":""3"",""Q10"":""5"",""Q11"":""5"",""Q12"":""3"",""Q13"":""3"",""Q14"":""4"",""Q15"":""5"",""Q16"":""4"",""Q17"":""3"",""Q18"":""1"",""Q19"":""4"",""Q20"":""2"",""Q21"":""2""}","[0,1,2,3,4,5,6,7,8,9,10,11,12,13,14,15,16,17,18,19,20]","[""Q01"",""Q07"",""Q06"",""Q05"",""Q04"",""Q03"",""Q02"",""Q08"",""Q09"",""Q10"",""Q09"",""Q11"",""Q12"",""Q13"",""Q14"",""Q15"",""Q16"",""Q17"",""Q18"",""Q19"",""Q19"",""Q20"",""Q21"",""Q21""]","[14561.800000000745,16536.10000000149,21528.60000000149,27833.800000000745,33780.400000002235,36859,38907.300000000745,45253.800000000745,52026.300000000745,55087.199999999255,57061.400000002235,59309.699999999255,61925.800000000745,64230.400000002235,70625.10000000149,73287.30000000075,78605.90000000224,83816.90000000224,90355.40000000224,97190.40000000224,107073.60000000149,115280.80000000075,122829.80000000075,128906.40000000224]","[]","[10.699999999254942,14561.800000000745,16536.10000000149,21528.60000000149,27833.800000000745,33780.400000002235,36859,38907.300000000745,45253.800000000745,52026.300000000745,55087.199999999255,56313.400000002235,57061.400000002235,59309.699999999255,61925.800000000745,64230.400000002235,70625.10000000149,73287.30000000075,78605.90000000224,83816.90000000224,89047.60000000149,89645.69999999925,90355.40000000224,97190.40000000224,107073.60000000149,114764.69999999925,115280.80000000075,122829.80000000075,128906.40000000224,130248.40000000224]","0.2857142857142857","0.3","0","","","","","","","","","","","","","","","","","","","","","","","","","","","","",""
"29201.199999999255","","","","survey-template","19","573153","0.0-7.0-8.0","218","1","2025-07-09 09:28:00","7701e855f2ef39aa3fd6c71abdc6918a","41.114.179.7","Mozilla/5.0 (Windows NT 10.0; Win64; x64) AppleWebKit/537.36 (KHTML, like Gecko) Chrome/138.0.0.0 Safari/537.36","WebKit","Chrome","138.0.0.0","Windows","10.0","https://app.prolific.com/","en-ZA,en-GB;q=0.9,en-US;q=0.8,en;q=0.7","61601e9a6b8306196d2a129c","686d226cabeef709c732f8e1","686e31039610a8a08756c87f","61601e9a6b8306196d2a129c","2025-07-09T09:37:34.013Z","","","","","","stress","{""Q01"":""4"",""Q02"":""3"",""Q03"":""4""}","[0,1,2]","[""Q01"",""Q02"",""Q03""]","[7297.699999999255,17521.199999999255,25532.10000000149]","[]","[7297.699999999255,17521.199999999255,25532.10000000149,29200.5]","0.6666666666666666","0","0","","","","","","","","","","","","","","","","","","","","","","","","","","","","",""
"175183","","","","instructions","20","748337","0.0-8.0-0.0","218","1","2025-07-09 09:28:00","7701e855f2ef39aa3fd6c71abdc6918a","41.114.179.7","Mozilla/5.0 (Windows NT 10.0; Win64; x64) AppleWebKit/537.36 (KHTML, like Gecko) Chrome/138.0.0.0 Safari/537.36","WebKit","Chrome","138.0.0.0","Windows","10.0","https://app.prolific.com/","en-ZA,en-GB;q=0.9,en-US;q=0.8,en;q=0.7","61601e9a6b8306196d2a129c","686d226cabeef709c732f8e1","686e31039610a8a08756c87f","61601e9a6b8306196d2a129c","","[{""page_index"":0,""viewing_time"":35623},{""page_index"":1,""viewing_time"":55237},{""page_index"":2,""viewing_time"":58971},{""page_index"":3,""viewing_time"":25352}]","","","","","","","","","","","","","","","","","","","","","","","","","","","","","","","","","","","","","","","","","","",""
"","","","","ctl-task-cpt","21","776266","0.0-8.0-1.0","218","1","2025-07-09 09:28:00","7701e855f2ef39aa3fd6c71abdc6918a","41.114.179.7","Mozilla/5.0 (Windows NT 10.0; Win64; x64) AppleWebKit/537.36 (KHTML, like Gecko) Chrome/138.0.0.0 Safari/537.36","WebKit","Chrome","138.0.0.0","Windows","10.0","https://app.prolific.com/","en-ZA,en-GB;q=0.9,en-US;q=0.8,en;q=0.7","61601e9a6b8306196d2a129c","686d226cabeef709c732f8e1","686e31039610a8a08756c87f","61601e9a6b8306196d2a129c","","","","","","","","","","","","","","","","","win-only","3","g1:SW,g2:NE","1","0","1","751878.5","6094.7","10096.4","24924.4","2","4","4","6","1","2","0","0","0","0","1711.5","4000","2075","[""down"",""left""]","{""num_key_presses"":9,""num_perfect"":4,""num_errors"":2,""num_randdir"":0,""num_randdir_good_moves"":0,""num_whilered"":3,""num_whileblue"":0,""num_blue"":0,""num_good_moves"":4}","[416.57142857142856,408.6808016640799,0.2,416.57142857142856,408.6808016640799,101.8,416.57142857142856,408.6808016640799,201.7,416.57142857142856,408.6808016640799,301.7,416.57142857142856,408.6808016640799,402.3,416.57142857142856,408.6808016640799,511.1,416.57142857142856,408.6808016640799,611.2,416.57142857142856,408.6808016640799,720.6,457.07142857142856,374.1808016640799,822.3,623.5714285714286,221.18080166407992,929.2,662.5714285714286,188.18080166407992,1031.7,482.57142857142856,369.6808016640799,1132.5,188.57142857142856,659.1808016640799,1236.8,19.07142857142857,746.1808016640799,1338,26.57142857142857,740.1808016640799,1445.9,58.07142857142857,767.1808016640799,1547.1,88.07142857142857,773.1808016640799,1652.3,86.57142857142857,771.6808016640799,1752.5,77.57142857142857,773.1808016640799,1862.1,77.57142857142857,773.1808016640799,1970.8,77.57142857142857,773.1808016640799,2072.2,77.57142857142857,773.1808016640799,2179.4,76.07142857142857,774.6808016640799,2279.5,76.07142857142857,774.6808016640799,2381.6,76.07142857142857,776.1808016640799,2481.7,76.07142857142857,777.6808016640799,2600,76.07142857142857,777.6808016640799,2701.8,76.07142857142857,777.6808016640799,2807.6,76.07142857142857,777.6808016640799,2911,76.07142857142857,777.6808016640799,3011,76.07142857142857,777.6808016640799,3111.1,76.07142857142857,777.6808016640799,3216.6,76.07142857142857,777.6808016640799,3316.8,76.07142857142857,777.6808016640799,3417.5,76.07142857142857,777.6808016640799,3521.8,76.07142857142857,777.6808016640799,3622,76.07142857142857,777.6808016640799,3740,76.07142857142857,777.6808016640799,3850.9,76.07142857142857,777.6808016640799,3951.6]","[148.4,148.4,1000,0,-851.6,""error"",""-"",""-"",""no_move"",342.2,193.6,1000,0,-657.8,""while_red"",""-"",""-"",""no_move"",516.4,367.8,1000,0,-483.6,""while_red"",""-"",""-"",""no_move"",692.6,544,1000,0,-307.4,""while_red"",""-"",""-"",""no_move"",4028.4,3879.8,2235.4,1149.9,643.1,""smooth"",""down"",""down"",""good_move"",4358.7,329.9,2135.5,4028.8,-1805.6,""error"",""-"",""-"",""no_move"",8208.5,3849.7,2290.4,5358.9,559.2,""smooth"",""down"",""down"",""good_move"",11668.6,3459.8,2939,8208.8,520.8,""smooth"",""left"",""left"",""good_move"",14724.9,3055.9,2554.7,11669,501.2,""smooth"",""left"",""left"",""good_move""]","",""
"17454","","","","instructions","22","793720","0.0-8.0-2.0","218","1","2025-07-09 09:28:00","7701e855f2ef39aa3fd6c71abdc6918a","41.114.179.7","Mozilla/5.0 (Windows NT 10.0; Win64; x64) AppleWebKit/537.36 (KHTML, like Gecko) Chrome/138.0.0.0 Safari/537.36","WebKit","Chrome","138.0.0.0","Windows","10.0","https://app.prolific.com/","en-ZA,en-GB;q=0.9,en-US;q=0.8,en;q=0.7","61601e9a6b8306196d2a129c","686d226cabeef709c732f8e1","686e31039610a8a08756c87f","61601e9a6b8306196d2a129c","","[{""page_index"":0,""viewing_time"":17454}]","","","","","","","","","","","","","","","","","","","","","","","","","","","","","","","","","","","","","","","","","","",""
"","","","","ctl-task-cpt","23","838107","0.0-8.0-3.0","218","1","2025-07-09 09:28:00","7701e855f2ef39aa3fd6c71abdc6918a","41.114.179.7","Mozilla/5.0 (Windows NT 10.0; Win64; x64) AppleWebKit/537.36 (KHTML, like Gecko) Chrome/138.0.0.0 Safari/537.36","WebKit","Chrome","138.0.0.0","Windows","10.0","https://app.prolific.com/","en-ZA,en-GB;q=0.9,en-US;q=0.8,en;q=0.7","61601e9a6b8306196d2a129c","686d226cabeef709c732f8e1","686e31039610a8a08756c87f","61601e9a6b8306196d2a129c","","","","","","","","","","","","","","","","","win-only","3","g1:SW,g2:NE","0.35","0","3","797260.9","2103.8","6106.8","41367.8","2","4","8","6","2","8","6","6","0","0.045454545454545456","1617.1","4000","330","[""up"",""right""]","{""num_key_presses"":11,""num_perfect"":4,""num_errors"":2,""num_randdir"":5,""num_randdir_good_moves"":3,""num_whilered"":0,""num_whileblue"":1,""num_blue"":2,""num_good_moves"":8}","[416.57142857142856,420.6808016640799,0.2,416.57142857142856,420.6808016640799,102.5,419.57142857142856,416.1808016640799,203.3,419.57142857142856,414.6808016640799,308,419.57142857142856,413.1808016640799,413.3,1031.5714285714287,422.1808016640799,518.9,1375.0714285714287,503.1808016640799,622.8,1280.5714285714287,524.1808016640799,727.7,976.0714285714286,338.1808016640799,828.1,992.5714285714286,272.1808016640799,928.2,953.5714285714286,269.1808016640799,1031.5,818.5714285714286,182.18080166407992,1131.7,830.5714285714286,114.68080166407994,1232,820.0714285714286,83.18080166407994,1337.6,803.5714285714286,74.18080166407994,1437.8,776.5714285714286,86.18080166407994,1538,770.5714285714286,98.18080166407994,1642.8,770.5714285714286,98.18080166407994,1747.9,770.5714285714286,98.18080166407994,1852.7,773.5714285714286,96.68080166407994,1953,901.0714285714286,290.1808016640799,2057.6,1117.0714285714287,702.6808016640799,2158.5,1120.0714285714287,713.1808016640799,2263,1118.5714285714287,711.6808016640799,2363.4,1118.5714285714287,711.6808016640799,2468.5,1118.5714285714287,711.6808016640799,2572.8,1118.5714285714287,711.6808016640799,2678.4,1118.5714285714287,711.6808016640799,2781.7,1118.5714285714287,711.6808016640799,2887.1,1118.5714285714287,711.6808016640799,2988.3,1118.5714285714287,711.6808016640799,3088.4,1118.5714285714287,711.6808016640799,3192.5,1118.5714285714287,711.6808016640799,3292.7,1118.5714285714287,711.6808016640799,3392.7,1118.5714285714287,711.6808016640799,3497.2,1118.5714285714287,711.6808016640799,3603,1118.5714285714287,711.6808016640799,3707.4,1118.5714285714287,711.6808016640799,3807.8,1118.5714285714287,711.6808016640799,3908.1]","[483.9,483.9,1000,0,-516.1,""error"",""-"",""-"",""no_move"",4412.8,3928.8,2399.7,1485.1,528,""oops"",""right"",""up"",""good_move"",7668.1,3254.9,2815,4413.2,439.9,""oops"",""right"",""left"",""bad_move"",10116,2447.7,1954.4,7668.3,493.3,""smooth"",""up"",""up"",""good_move"",12780.1,2663.9,2329.9,10116.2,334,""smooth"",""up"",""up"",""good_move"",15052.5,2272.1,1927.2,12780.4,344.9,""smooth"",""right"",""right"",""good_move"",18084.3,3031.5,2646.8,15052.8,384.7,""oops"",""right"",""down"",""bad_move"",20412.9,2328.2,1950.7,18084.7,377.5,""smooth"",""right"",""right"",""good_move"",28084.4,7671.3,3304,24439.7,340.7,""while_blue"",""right"",""right"",""good_move"",31980.2,3895.6,3488.4,28084.6,407.2,""oops"",""right"",""right"",""good_move"",35164.4,3184,2652.7,31980.4,531.3,""oops"",""up"",""up"",""good_move""]","",""
"50124","","","","instructions","24","888231","0.0-8.0-4.0","218","1","2025-07-09 09:28:00","7701e855f2ef39aa3fd6c71abdc6918a","41.114.179.7","Mozilla/5.0 (Windows NT 10.0; Win64; x64) AppleWebKit/537.36 (KHTML, like Gecko) Chrome/138.0.0.0 Safari/537.36","WebKit","Chrome","138.0.0.0","Windows","10.0","https://app.prolific.com/","en-ZA,en-GB;q=0.9,en-US;q=0.8,en;q=0.7","61601e9a6b8306196d2a129c","686d226cabeef709c732f8e1","686e31039610a8a08756c87f","61601e9a6b8306196d2a129c","","[{""page_index"":0,""viewing_time"":21843},{""page_index"":1,""viewing_time"":28281}]","","","","","","","","","","","","","","","","","","","","","","","","","","","","","","","","","","","","","","","","","","",""
"10521","","","{""green_ball"":[""Ball always moves in the direction I press""]}","survey-multi-select","25","898755","0.0-8.0-5.0-0.0","218","1","2025-07-09 09:28:00","7701e855f2ef39aa3fd6c71abdc6918a","41.114.179.7","Mozilla/5.0 (Windows NT 10.0; Win64; x64) AppleWebKit/537.36 (KHTML, like Gecko) Chrome/138.0.0.0 Safari/537.36","WebKit","Chrome","138.0.0.0","Windows","10.0","https://app.prolific.com/","en-ZA,en-GB;q=0.9,en-US;q=0.8,en;q=0.7","61601e9a6b8306196d2a129c","686d226cabeef709c732f8e1","686e31039610a8a08756c87f","61601e9a6b8306196d2a129c","","","[0]","","","","quiz","","","","","","","","","","","","","","","","","","","","","","","","","","","","","","","","","","","","","false",""
"6934","","<p align='center'><b>INCORRECT.</b> Usually the green ball moves in the indicated direction, but sometimes it shakes and moves randomly. </p>","0","html-button-response","26","905691","0.0-8.0-5.0-1.0","218","1","2025-07-09 09:28:00","7701e855f2ef39aa3fd6c71abdc6918a","41.114.179.7","Mozilla/5.0 (Windows NT 10.0; Win64; x64) AppleWebKit/537.36 (KHTML, like Gecko) Chrome/138.0.0.0 Safari/537.36","WebKit","Chrome","138.0.0.0","Windows","10.0","https://app.prolific.com/","en-ZA,en-GB;q=0.9,en-US;q=0.8,en;q=0.7","61601e9a6b8306196d2a129c","686d226cabeef709c732f8e1","686e31039610a8a08756c87f","61601e9a6b8306196d2a129c","","","","","","","","","","","","","","","","","","","","","","","","","","","","","","","","","","","","","","","","","","","","",""
"9886","","","{""green_ball"":[""Ball sometimes shakes and moves in a random direction""]}","survey-multi-select","27","915578","0.0-8.0-5.1-0.1","218","1","2025-07-09 09:28:00","7701e855f2ef39aa3fd6c71abdc6918a","41.114.179.7","Mozilla/5.0 (Windows NT 10.0; Win64; x64) AppleWebKit/537.36 (KHTML, like Gecko) Chrome/138.0.0.0 Safari/537.36","WebKit","Chrome","138.0.0.0","Windows","10.0","https://app.prolific.com/","en-ZA,en-GB;q=0.9,en-US;q=0.8,en;q=0.7","61601e9a6b8306196d2a129c","686d226cabeef709c732f8e1","686e31039610a8a08756c87f","61601e9a6b8306196d2a129c","","","[0]","","","","quiz","","","","","","","","","","","","","","","","","","","","","","","","","","","","","","","","","","","","","true",""
"1635","","<p align='center'><b>CORRECT!</b> Indeed, the green ball may sometimes shake and move in a random direction.</p>","0","html-button-response","28","917214","0.0-8.0-5.1-1.1","218","1","2025-07-09 09:28:00","7701e855f2ef39aa3fd6c71abdc6918a","41.114.179.7","Mozilla/5.0 (Windows NT 10.0; Win64; x64) AppleWebKit/537.36 (KHTML, like Gecko) Chrome/138.0.0.0 Safari/537.36","WebKit","Chrome","138.0.0.0","Windows","10.0","https://app.prolific.com/","en-ZA,en-GB;q=0.9,en-US;q=0.8,en;q=0.7","61601e9a6b8306196d2a129c","686d226cabeef709c732f8e1","686e31039610a8a08756c87f","61601e9a6b8306196d2a129c","","","","","","","","","","","","","","","","","","","","","","","","","","","","","","","","","","","","","","","","","","","","",""
"12028","","","{""yellow_ball"":[""Ball doesn‘t move and I get -1 penalty point""]}","survey-multi-select","29","929244","0.0-8.0-6.0-0.0","218","1","2025-07-09 09:28:00","7701e855f2ef39aa3fd6c71abdc6918a","41.114.179.7","Mozilla/5.0 (Windows NT 10.0; Win64; x64) AppleWebKit/537.36 (KHTML, like Gecko) Chrome/138.0.0.0 Safari/537.36","WebKit","Chrome","138.0.0.0","Windows","10.0","https://app.prolific.com/","en-ZA,en-GB;q=0.9,en-US;q=0.8,en;q=0.7","61601e9a6b8306196d2a129c","686d226cabeef709c732f8e1","686e31039610a8a08756c87f","61601e9a6b8306196d2a129c","","","[0]","","","","quiz","","","","","","","","","","","","","","","","","","","","","","","","","","","","","","","","","","","","","true",""
"1188","","<p align='center'><b>CORRECT!</b> Indeed, the yellow ball never moves and you receive a penalty.</p>","0","html-button-response","30","930434","0.0-8.0-6.0-1.0","218","1","2025-07-09 09:28:00","7701e855f2ef39aa3fd6c71abdc6918a","41.114.179.7","Mozilla/5.0 (Windows NT 10.0; Win64; x64) AppleWebKit/537.36 (KHTML, like Gecko) Chrome/138.0.0.0 Safari/537.36","WebKit","Chrome","138.0.0.0","Windows","10.0","https://app.prolific.com/","en-ZA,en-GB;q=0.9,en-US;q=0.8,en;q=0.7","61601e9a6b8306196d2a129c","686d226cabeef709c732f8e1","686e31039610a8a08756c87f","61601e9a6b8306196d2a129c","","","","","","","","","","","","","","","","","","","","","","","","","","","","","","","","","","","","","","","","","","","","",""
"4212","","","{""blue_ball"":[""Ball always shakes and moves in a random direction""]}","survey-multi-select","31","934649","0.0-8.0-7.0-0.0","218","1","2025-07-09 09:28:00","7701e855f2ef39aa3fd6c71abdc6918a","41.114.179.7","Mozilla/5.0 (Windows NT 10.0; Win64; x64) AppleWebKit/537.36 (KHTML, like Gecko) Chrome/138.0.0.0 Safari/537.36","WebKit","Chrome","138.0.0.0","Windows","10.0","https://app.prolific.com/","en-ZA,en-GB;q=0.9,en-US;q=0.8,en;q=0.7","61601e9a6b8306196d2a129c","686d226cabeef709c732f8e1","686e31039610a8a08756c87f","61601e9a6b8306196d2a129c","","","[0]","","","","quiz","","","","","","","","","","","","","","","","","","","","","","","","","","","","","","","","","","","","","true",""
"2855","","<p align='center'><b>CORRECT!</b> Indeed, the blue ball always shakes and moves in a random direction. Also there is a penalty of -1 point.</p>","0","html-button-response","32","937505","0.0-8.0-7.0-1.0","218","1","2025-07-09 09:28:00","7701e855f2ef39aa3fd6c71abdc6918a","41.114.179.7","Mozilla/5.0 (Windows NT 10.0; Win64; x64) AppleWebKit/537.36 (KHTML, like Gecko) Chrome/138.0.0.0 Safari/537.36","WebKit","Chrome","138.0.0.0","Windows","10.0","https://app.prolific.com/","en-ZA,en-GB;q=0.9,en-US;q=0.8,en;q=0.7","61601e9a6b8306196d2a129c","686d226cabeef709c732f8e1","686e31039610a8a08756c87f","61601e9a6b8306196d2a129c","","","","","","","","","","","","","","","","","","","","","","","","","","","","","","","","","","","","","","","","","","","","",""
"2803","","","{""bonus"":[""When I reach 50% of points""]}","survey-multi-select","33","940310","0.0-8.0-8.0-0.0","218","1","2025-07-09 09:28:00","7701e855f2ef39aa3fd6c71abdc6918a","41.114.179.7","Mozilla/5.0 (Windows NT 10.0; Win64; x64) AppleWebKit/537.36 (KHTML, like Gecko) Chrome/138.0.0.0 Safari/537.36","WebKit","Chrome","138.0.0.0","Windows","10.0","https://app.prolific.com/","en-ZA,en-GB;q=0.9,en-US;q=0.8,en;q=0.7","61601e9a6b8306196d2a129c","686d226cabeef709c732f8e1","686e31039610a8a08756c87f","61601e9a6b8306196d2a129c","","","[0]","","","","quiz","","","","","","","","","","","","","","","","","","","","","","","","","","","","","","","","","","","","","true",""
"5199","","<p align='center'><b>CORRECT!</b> Indeed, you receive 2 pounds extra when you reach 50% of points.</p>","0","html-button-response","34","945510","0.0-8.0-8.0-1.0","218","1","2025-07-09 09:28:00","7701e855f2ef39aa3fd6c71abdc6918a","41.114.179.7","Mozilla/5.0 (Windows NT 10.0; Win64; x64) AppleWebKit/537.36 (KHTML, like Gecko) Chrome/138.0.0.0 Safari/537.36","WebKit","Chrome","138.0.0.0","Windows","10.0","https://app.prolific.com/","en-ZA,en-GB;q=0.9,en-US;q=0.8,en;q=0.7","61601e9a6b8306196d2a129c","686d226cabeef709c732f8e1","686e31039610a8a08756c87f","61601e9a6b8306196d2a129c","","","","","","","","","","","","","","","","","","","","","","","","","","","","","","","","","","","","","","","","","","","","",""
"2099","","","","instructions","35","947610","0.0-8.0-9.0","218","1","2025-07-09 09:28:00","7701e855f2ef39aa3fd6c71abdc6918a","41.114.179.7","Mozilla/5.0 (Windows NT 10.0; Win64; x64) AppleWebKit/537.36 (KHTML, like Gecko) Chrome/138.0.0.0 Safari/537.36","WebKit","Chrome","138.0.0.0","Windows","10.0","https://app.prolific.com/","en-ZA,en-GB;q=0.9,en-US;q=0.8,en;q=0.7","61601e9a6b8306196d2a129c","686d226cabeef709c732f8e1","686e31039610a8a08756c87f","61601e9a6b8306196d2a129c","","[{""page_index"":0,""viewing_time"":2099}]","","","","","","","","","","","","","","","","","","","","","","","","","","","","","","","","","","","","","","","","","","",""
"17330","","<p>Before you start with this game please answer the following three questions yourself. </p>
  <p>Through this game, we measure several aspects of your cognitive performance, such as reaction times, multi-tasking capabilities </p>
  <p>and the ability to assess the situation you are in.</p>
  <p></p>
  <p><b>How good do you usually are in such tasks?</b></p>","25","html-slider-response","36","964943","0.0-9.0-0.0","218","1","2025-07-09 09:28:00","7701e855f2ef39aa3fd6c71abdc6918a","41.114.179.7","Mozilla/5.0 (Windows NT 10.0; Win64; x64) AppleWebKit/537.36 (KHTML, like Gecko) Chrome/138.0.0.0 Safari/537.36","WebKit","Chrome","138.0.0.0","Windows","10.0","https://app.prolific.com/","en-ZA,en-GB;q=0.9,en-US;q=0.8,en;q=0.7","61601e9a6b8306196d2a129c","686d226cabeef709c732f8e1","686e31039610a8a08756c87f","61601e9a6b8306196d2a129c","2025-07-09T09:44:05.803Z","","","","","","PreSkillQ","","","","","","","","","","","","","","","","","","","","","","","","","","","","","","","","","","","","","","50"
"6025","","<div style=""width:500px;"">
  <p>How well do you think you will perform in this task compared to other participants?</p>
  </div>","51","html-slider-response","37","970969","0.0-9.0-1.0","218","1","2025-07-09 09:28:00","7701e855f2ef39aa3fd6c71abdc6918a","41.114.179.7","Mozilla/5.0 (Windows NT 10.0; Win64; x64) AppleWebKit/537.36 (KHTML, like Gecko) Chrome/138.0.0.0 Safari/537.36","WebKit","Chrome","138.0.0.0","Windows","10.0","https://app.prolific.com/","en-ZA,en-GB;q=0.9,en-US;q=0.8,en;q=0.7","61601e9a6b8306196d2a129c","686d226cabeef709c732f8e1","686e31039610a8a08756c87f","61601e9a6b8306196d2a129c","2025-07-09T09:44:11.829Z","","","","","","PrePerfQ","","","","","","","","","","","","","","","","","","","","","","","","","","","","","","","","","","","","","","50"
"5545","","<div style=""width:500px;"">
  <p>What best describes how you currently feel?</p>
  </div>","21","html-slider-response","38","976516","0.0-9.0-2.0","218","1","2025-07-09 09:28:00","7701e855f2ef39aa3fd6c71abdc6918a","41.114.179.7","Mozilla/5.0 (Windows NT 10.0; Win64; x64) AppleWebKit/537.36 (KHTML, like Gecko) Chrome/138.0.0.0 Safari/537.36","WebKit","Chrome","138.0.0.0","Windows","10.0","https://app.prolific.com/","en-ZA,en-GB;q=0.9,en-US;q=0.8,en;q=0.7","61601e9a6b8306196d2a129c","686d226cabeef709c732f8e1","686e31039610a8a08756c87f","61601e9a6b8306196d2a129c","2025-07-09T09:44:17.376Z","","","","","","PreMotivationQ","","","","","","","","","","","","","","","","","","","","","","","","","","","","","","","","","","","","","","50"
"","","","","ctl-task-cpt","39","1002815","0.0-10.0-0.0","218","1","2025-07-09 09:28:00","7701e855f2ef39aa3fd6c71abdc6918a","41.114.179.7","Mozilla/5.0 (Windows NT 10.0; Win64; x64) AppleWebKit/537.36 (KHTML, like Gecko) Chrome/138.0.0.0 Safari/537.36","WebKit","Chrome","138.0.0.0","Windows","10.0","https://app.prolific.com/","en-ZA,en-GB;q=0.9,en-US;q=0.8,en;q=0.7","61601e9a6b8306196d2a129c","686d226cabeef709c732f8e1","686e31039610a8a08756c87f","61601e9a6b8306196d2a129c","2025-07-09T09:44:43.675Z","","","","","","","","","","","","","","","","win-only","3","g1:SW,g2:NE","1","1","0","980057.7","1733.8","6745.9","23280.4","1","4","4","6","2","4","4","4","0","0.030303030303030304","2287.7","3000","400","[""up"",""right""]","{""num_key_presses"":6,""num_perfect"":6,""num_errors"":0,""num_randdir"":0,""num_randdir_good_moves"":0,""num_whilered"":0,""num_whileblue"":0,""num_blue"":0,""num_good_moves"":6}","[409.07142857142856,422.1808016640799,0.1,409.07142857142856,422.1808016640799,103.6,409.07142857142856,422.1808016640799,204.9,409.07142857142856,420.6808016640799,308.4,409.07142857142856,420.6808016640799,411.9,409.07142857142856,420.6808016640799,511.9,409.07142857142856,420.6808016640799,612,409.07142857142856,420.6808016640799,712,409.07142857142856,420.6808016640799,813,409.07142857142856,420.6808016640799,920.3,409.07142857142856,420.6808016640799,1022,409.07142857142856,422.1808016640799,1128,409.07142857142856,422.1808016640799,1228.1,416.57142857142856,413.1808016640799,1328.2,671.5714285714286,86.18080166407994,1440.7,692.5714285714286,77.18080166407994,1542.8,755.5714285714286,68.18080166407994,1647.2,764.5714285714286,71.18080166407994,1757.1,766.0714285714286,72.68080166407994,1857.1,766.0714285714286,72.68080166407994,1961.8,766.0714285714286,72.68080166407994,2061.9,766.0714285714286,72.68080166407994,2170.3,766.0714285714286,72.68080166407994,2270.7,766.0714285714286,72.68080166407994,2372.6,766.0714285714286,72.68080166407994,2476.6,766.0714285714286,72.68080166407994,2578.5,766.0714285714286,72.68080166407994,2686.9,766.0714285714286,74.18080166407994,2787.5,902.5714285714286,528.6808016640799,2887.5,1204.0714285714287,960.6808016640799,2991.8,1367.5714285714287,953.1808016640799,3093.4,1364.5714285714287,953.1808016640799,3207.8,1364.5714285714287,953.1808016640799,3312,1364.5714285714287,953.1808016640799,3419.4,1364.5714285714287,953.1808016640799,3521.7,1364.5714285714287,953.1808016640799,3621.9,1364.5714285714287,954.6808016640799,3722.5,1363.0714285714287,954.6808016640799,3826.5,1361.5714285714287,956.1808016640799,3926.5,1361.5714285714287,957.6808016640799,4026.5,1361.5714285714287,957.6808016640799,4126.8,1361.5714285714287,957.6808016640799,4237.7,1361.5714285714287,957.6808016640799,4341.5,1361.5714285714287,957.6808016640799,4441.5,1361.5714285714287,957.6808016640799,4541.7,1361.5714285714287,957.6808016640799,4642.5,1361.5714285714287,957.6808016640799,4742.6,1361.5714285714287,957.6808016640799,4846.6,1361.5714285714287,957.6808016640799,4946.7]","[1547.8,1547.8,1000,0,547.8,""smooth"",""right"",""right"",""good_move"",5361.9,3813.7,3428.6,1548.3,385,""smooth"",""right"",""right"",""good_move"",8418,3055.8,2629.3,5362.2,426.5,""smooth"",""up"",""up"",""good_move"",11633.8,3215.4,2777.2,8418.4,438.2,""smooth"",""up"",""up"",""good_move"",14305.9,2671.9,2240.9,11634,431,""smooth"",""up"",""up"",""good_move"",16441.9,2135.7,1627.9,14306.2,507.8,""smooth"",""right"",""right"",""good_move""]","",""
"11896","","<div style=""width:500px;"">
  <p>What determined the result of this run?</p>
  </div>","27","html-slider-response","40","1014713","0.0-10.0-1.0","218","1","2025-07-09 09:28:00","7701e855f2ef39aa3fd6c71abdc6918a","41.114.179.7","Mozilla/5.0 (Windows NT 10.0; Win64; x64) AppleWebKit/537.36 (KHTML, like Gecko) Chrome/138.0.0.0 Safari/537.36","WebKit","Chrome","138.0.0.0","Windows","10.0","https://app.prolific.com/","en-ZA,en-GB;q=0.9,en-US;q=0.8,en;q=0.7","61601e9a6b8306196d2a129c","686d226cabeef709c732f8e1","686e31039610a8a08756c87f","61601e9a6b8306196d2a129c","2025-07-09T09:44:55.573Z","","","","","","AttribQ","","","","","","","","","","","","","","","","","","","","","","","","","","","","","","","","","","","","","","50"
"3557","","<div style=""width:500px;"">
  <p>How much control did you have over the ball?</p>
  </div>","100","html-slider-response","41","1018271","0.0-10.0-2.0","218","1","2025-07-09 09:28:00","7701e855f2ef39aa3fd6c71abdc6918a","41.114.179.7","Mozilla/5.0 (Windows NT 10.0; Win64; x64) AppleWebKit/537.36 (KHTML, like Gecko) Chrome/138.0.0.0 Safari/537.36","WebKit","Chrome","138.0.0.0","Windows","10.0","https://app.prolific.com/","en-ZA,en-GB;q=0.9,en-US;q=0.8,en;q=0.7","61601e9a6b8306196d2a129c","686d226cabeef709c732f8e1","686e31039610a8a08756c87f","61601e9a6b8306196d2a129c","2025-07-09T09:44:59.131Z","","","","","","ControlQ","","","","","","","","","","","","","","","","","","","","","","","","","","","","","","","","","","","","","","50"
"6052","","<div style=""width:500px;"">
  <p>How would you describe your current emotional state?</p>
  </div>","67","html-slider-response","42","1024324","0.0-10.0-3.0","218","1","2025-07-09 09:28:00","7701e855f2ef39aa3fd6c71abdc6918a","41.114.179.7","Mozilla/5.0 (Windows NT 10.0; Win64; x64) AppleWebKit/537.36 (KHTML, like Gecko) Chrome/138.0.0.0 Safari/537.36","WebKit","Chrome","138.0.0.0","Windows","10.0","https://app.prolific.com/","en-ZA,en-GB;q=0.9,en-US;q=0.8,en;q=0.7","61601e9a6b8306196d2a129c","686d226cabeef709c732f8e1","686e31039610a8a08756c87f","61601e9a6b8306196d2a129c","2025-07-09T09:45:05.184Z","","","","","","StressQ","","","","","","","","","","","","","","","","","","","","","","","","","","","","","","","","","","","","","","50"
"5025","","<div style=""width:500px;"">
  <p>What best describes how you currently feel?</p>
  </div>","63","html-slider-response","43","1029351","0.0-10.0-4.0","218","1","2025-07-09 09:28:00","7701e855f2ef39aa3fd6c71abdc6918a","41.114.179.7","Mozilla/5.0 (Windows NT 10.0; Win64; x64) AppleWebKit/537.36 (KHTML, like Gecko) Chrome/138.0.0.0 Safari/537.36","WebKit","Chrome","138.0.0.0","Windows","10.0","https://app.prolific.com/","en-ZA,en-GB;q=0.9,en-US;q=0.8,en;q=0.7","61601e9a6b8306196d2a129c","686d226cabeef709c732f8e1","686e31039610a8a08756c87f","61601e9a6b8306196d2a129c","2025-07-09T09:45:10.211Z","","","","","","MotivationQ","","","","","","","","","","","","","","","","","","","","","","","","","","","","","","","","","","","","","","50"
"","","","","ctl-task-cpt","44","1060985","0.0-10.0-0.1","218","1","2025-07-09 09:28:00","7701e855f2ef39aa3fd6c71abdc6918a","41.114.179.7","Mozilla/5.0 (Windows NT 10.0; Win64; x64) AppleWebKit/537.36 (KHTML, like Gecko) Chrome/138.0.0.0 Safari/537.36","WebKit","Chrome","138.0.0.0","Windows","10.0","https://app.prolific.com/","en-ZA,en-GB;q=0.9,en-US;q=0.8,en;q=0.7","61601e9a6b8306196d2a129c","686d226cabeef709c732f8e1","686e31039610a8a08756c87f","61601e9a6b8306196d2a129c","2025-07-09T09:45:41.845Z","","","","","","","","","","","","","","","","win-only","1","g1:NE,g2:SW","0.9","2","0","1032892.4","1249.7","6252","28615.3","1","4","8","6","2","-8","-8","0","4","0","1303.2","3000","-3000","[""down"",""left""]","{""num_key_presses"":6,""num_perfect"":5,""num_errors"":0,""num_randdir"":1,""num_randdir_good_moves"":0,""num_whilered"":0,""num_whileblue"":0,""num_blue"":1,""num_good_moves"":5}","[416.57142857142856,419.1808016640799,0.2,416.57142857142856,420.6808016640799,101.4,416.57142857142856,420.6808016640799,209.4,416.57142857142856,420.6808016640799,310.7,416.57142857142856,420.6808016640799,410.7,416.57142857142856,420.6808016640799,510.7,296.57142857142856,527.1808016640799,624.6,223.07142857142856,647.1808016640799,726.2,170.57142857142856,714.6808016640799,836.3,137.57142857142856,758.1808016640799,940.9,119.57142857142857,777.6808016640799,1041.1,101.57142857142857,786.6808016640799,1141.8,92.57142857142857,786.6808016640799,1246,101.57142857142857,791.1808016640799,1350.9,103.07142857142857,788.1808016640799,1456.9,103.07142857142857,788.1808016640799,1569.7,103.07142857142857,788.1808016640799,1671,104.57142857142857,786.6808016640799,1772,524.5714285714286,960.6808016640799,1887.6,1280.5714285714287,960.6808016640799,1992,1375.0714285714287,488.1808016640799,2096.4,1375.0714285714287,86.18080166407994,2201.9,1352.5714285714287,83.18080166407994,2307,1256.5714285714287,116.18080166407994,2419.1,1226.5714285714287,128.18080166407992,2526.5,1231.0714285714287,128.18080166407992,2638.8,1229.5714285714287,128.18080166407992,2740.9,1229.5714285714287,128.18080166407992,2841,1229.5714285714287,128.18080166407992,2959.2,1229.5714285714287,128.18080166407992,3061,1229.5714285714287,128.18080166407992,3168.8,1228.0714285714287,129.68080166407992,3269,1226.5714285714287,131.18080166407992,3370.9,1226.5714285714287,131.18080166407992,3472.1,1226.5714285714287,132.68080166407992,3576.9,1226.5714285714287,132.68080166407992,3677,1226.5714285714287,132.68080166407992,3790.6,1226.5714285714287,132.68080166407992,3891.1,1226.5714285714287,132.68080166407992,3997.2,1226.5714285714287,132.68080166407992,4102.8,1226.5714285714287,132.68080166407992,4206.1,1226.5714285714287,132.68080166407992,4307,1226.5714285714287,132.68080166407992,4419.8,1226.5714285714287,132.68080166407992,4521.2,1226.5714285714287,132.68080166407992,4636.8,1226.5714285714287,132.68080166407992,4741.1,1226.5714285714287,132.68080166407992,4844.3,1226.5714285714287,132.68080166407992,4946.3]","[1422,1422,1000,0,422,""smooth"",""down"",""down"",""good_move"",4037.4,2615,2132.5,1422.4,482.5,""smooth"",""down"",""down"",""good_move"",7269.5,3231.9,2803.1,4037.6,428.8,""smooth"",""left"",""left"",""good_move"",10133.4,2863.6,2420.6,7269.8,443,""smooth"",""left"",""left"",""good_move"",16141.8,6008.1,2139.2,13594,408.6,""oops"",""left"",""up"",""bad_move"",19581.5,3439.4,2946.2,16142.1,493.2,""smooth"",""down"",""down"",""good_move""]","",""
"8284","","<div style=""width:500px;"">
  <p>What determined the result of this run?</p>
  </div>","0","html-slider-response","45","1069270","0.0-10.0-1.1","218","1","2025-07-09 09:28:00","7701e855f2ef39aa3fd6c71abdc6918a","41.114.179.7","Mozilla/5.0 (Windows NT 10.0; Win64; x64) AppleWebKit/537.36 (KHTML, like Gecko) Chrome/138.0.0.0 Safari/537.36","WebKit","Chrome","138.0.0.0","Windows","10.0","https://app.prolific.com/","en-ZA,en-GB;q=0.9,en-US;q=0.8,en;q=0.7","61601e9a6b8306196d2a129c","686d226cabeef709c732f8e1","686e31039610a8a08756c87f","61601e9a6b8306196d2a129c","2025-07-09T09:45:50.130Z","","","","","","AttribQ","","","","","","","","","","","","","","","","","","","","","","","","","","","","","","","","","","","","","","50"
"7936","","<div style=""width:500px;"">
  <p>How much control did you have over the ball?</p>
  </div>","21","html-slider-response","46","1077208","0.0-10.0-2.1","218","1","2025-07-09 09:28:00","7701e855f2ef39aa3fd6c71abdc6918a","41.114.179.7","Mozilla/5.0 (Windows NT 10.0; Win64; x64) AppleWebKit/537.36 (KHTML, like Gecko) Chrome/138.0.0.0 Safari/537.36","WebKit","Chrome","138.0.0.0","Windows","10.0","https://app.prolific.com/","en-ZA,en-GB;q=0.9,en-US;q=0.8,en;q=0.7","61601e9a6b8306196d2a129c","686d226cabeef709c732f8e1","686e31039610a8a08756c87f","61601e9a6b8306196d2a129c","2025-07-09T09:45:58.068Z","","","","","","ControlQ","","","","","","","","","","","","","","","","","","","","","","","","","","","","","","","","","","","","","","50"
"5633","","<div style=""width:500px;"">
  <p>How would you describe your current emotional state?</p>
  </div>","100","html-slider-response","47","1082841","0.0-10.0-3.1","218","1","2025-07-09 09:28:00","7701e855f2ef39aa3fd6c71abdc6918a","41.114.179.7","Mozilla/5.0 (Windows NT 10.0; Win64; x64) AppleWebKit/537.36 (KHTML, like Gecko) Chrome/138.0.0.0 Safari/537.36","WebKit","Chrome","138.0.0.0","Windows","10.0","https://app.prolific.com/","en-ZA,en-GB;q=0.9,en-US;q=0.8,en;q=0.7","61601e9a6b8306196d2a129c","686d226cabeef709c732f8e1","686e31039610a8a08756c87f","61601e9a6b8306196d2a129c","2025-07-09T09:46:03.701Z","","","","","","StressQ","","","","","","","","","","","","","","","","","","","","","","","","","","","","","","","","","","","","","","50"
"4884","","<div style=""width:500px;"">
  <p>What best describes how you currently feel?</p>
  </div>","86","html-slider-response","48","1087726","0.0-10.0-4.1","218","1","2025-07-09 09:28:00","7701e855f2ef39aa3fd6c71abdc6918a","41.114.179.7","Mozilla/5.0 (Windows NT 10.0; Win64; x64) AppleWebKit/537.36 (KHTML, like Gecko) Chrome/138.0.0.0 Safari/537.36","WebKit","Chrome","138.0.0.0","Windows","10.0","https://app.prolific.com/","en-ZA,en-GB;q=0.9,en-US;q=0.8,en;q=0.7","61601e9a6b8306196d2a129c","686d226cabeef709c732f8e1","686e31039610a8a08756c87f","61601e9a6b8306196d2a129c","2025-07-09T09:46:08.586Z","","","","","","MotivationQ","","","","","","","","","","","","","","","","","","","","","","","","","","","","","","","","","","","","","","50"
"","","","","ctl-task-cpt","49","1118263","0.0-10.0-0.2","218","1","2025-07-09 09:28:00","7701e855f2ef39aa3fd6c71abdc6918a","41.114.179.7","Mozilla/5.0 (Windows NT 10.0; Win64; x64) AppleWebKit/537.36 (KHTML, like Gecko) Chrome/138.0.0.0 Safari/537.36","WebKit","Chrome","138.0.0.0","Windows","10.0","https://app.prolific.com/","en-ZA,en-GB;q=0.9,en-US;q=0.8,en;q=0.7","61601e9a6b8306196d2a129c","686d226cabeef709c732f8e1","686e31039610a8a08756c87f","61601e9a6b8306196d2a129c","2025-07-09T09:46:39.123Z","","","","","","","","","","","","","","","","win-only","2","g1:SE,g2:NW","0.8","3","0","1091267.5","1138.8","6141.7","27515.9","1","4","8","6","2","8","8","8","0","0.06060606060606061","3218.8","3000","625","[""left"",""up""]","{""num_key_presses"":6,""num_perfect"":5,""num_errors"":0,""num_randdir"":1,""num_randdir_good_moves"":1,""num_whilered"":0,""num_whileblue"":0,""num_blue"":1,""num_good_moves"":6}","[425.57142857142856,417.6808016640799,0,425.57142857142856,417.6808016640799,103.7,415.07142857142856,428.1808016640799,206.8,247.07142857142856,609.6808016640799,308.4,247.07142857142856,609.6808016640799,414.6,248.57142857142856,587.1808016640799,516.8,260.57142857142856,569.1808016640799,616.8,266.57142857142856,569.1808016640799,716.9,482.57142857142856,674.1808016640799,823.5,515.5714285714286,695.1808016640799,927.4,548.5714285714286,707.1808016640799,1032.7,313.07142857142856,351.6808016640799,1132.8,317.57142857142856,263.1808016640799,1233.5,322.07142857142856,275.1808016640799,1336.7,317.57142857142856,329.1808016640799,1439.6,592.0714285714286,596.1808016640799,1542.5,602.5714285714286,614.1808016640799,1642.5,626.5714285714286,662.1808016640799,1742.5,734.5714285714286,738.6808016640799,1847.9,737.5714285714286,744.6808016640799,1951.8,739.0714285714286,744.6808016640799,2052.8,739.0714285714286,744.6808016640799,2156.6,739.0714285714286,744.6808016640799,2256.8,739.0714285714286,744.6808016640799,2356.8,505.07142857142856,399.6808016640799,2456.9,467.57142857142856,294.6808016640799,2562.5,472.07142857142856,266.1808016640799,2663.8,95.57142857142857,170.18080166407992,2766.7,23.57142857142857,62.18080166407994,2866.7,11.57142857142857,45.68080166407994,2967.1,32.57142857142857,39.68080166407994,3071.6,38.57142857142857,41.18080166407994,3171.9,29.57142857142857,47.18080166407994,3272.1,29.57142857142857,45.68080166407994,3376.8,29.57142857142857,45.68080166407994,3476.8,98.57142857142857,56.18080166407994,3577.5,1375.0714285714287,302.1808016640799,3682.3,1367.5714285714287,380.1808016640799,3782.4,1337.5714285714287,443.1808016640799,3883.2,1337.5714285714287,443.1808016640799,3987.8,1337.5714285714287,441.6808016640799,4092.7,1337.5714285714287,441.6808016640799,4197.6,1337.5714285714287,441.6808016640799,4297.8,1337.5714285714287,441.6808016640799,4401.6,1337.5714285714287,441.6808016640799,4502.7,1337.5714285714287,441.6808016640799,4602.7,1337.5714285714287,443.1808016640799,4706.7,1337.5714285714287,443.1808016640799,4806.8,1337.5714285714287,443.1808016640799,4907.2]","[1460.9,1460.9,1000,0,460.9,""smooth"",""up"",""up"",""good_move"",8637.2,7175.9,2938.7,5324.2,374.3,""smooth"",""up"",""up"",""good_move"",11645.6,3008.2,2589,8637.4,419.2,""smooth"",""left"",""left"",""good_move"",14717.1,3071.1,2688.4,11646,382.7,""oops"",""left"",""up"",""good_move"",18133.1,3415.8,3028.5,14717.3,387.3,""smooth"",""left"",""left"",""good_move"",21285.4,3152,2764.8,18133.4,387.2,""smooth"",""left"",""left"",""good_move""]","",""
"8911","","<div style=""width:500px;"">
  <p>What determined the result of this run?</p>
  </div>","56","html-slider-response","50","1127175","0.0-10.0-1.2","218","1","2025-07-09 09:28:00","7701e855f2ef39aa3fd6c71abdc6918a","41.114.179.7","Mozilla/5.0 (Windows NT 10.0; Win64; x64) AppleWebKit/537.36 (KHTML, like Gecko) Chrome/138.0.0.0 Safari/537.36","WebKit","Chrome","138.0.0.0","Windows","10.0","https://app.prolific.com/","en-ZA,en-GB;q=0.9,en-US;q=0.8,en;q=0.7","61601e9a6b8306196d2a129c","686d226cabeef709c732f8e1","686e31039610a8a08756c87f","61601e9a6b8306196d2a129c","2025-07-09T09:46:48.035Z","","","","","","AttribQ","","","","","","","","","","","","","","","","","","","","","","","","","","","","","","","","","","","","","","50"
"3305","","<div style=""width:500px;"">
  <p>How much control did you have over the ball?</p>
  </div>","75","html-slider-response","51","1130481","0.0-10.0-2.2","218","1","2025-07-09 09:28:00","7701e855f2ef39aa3fd6c71abdc6918a","41.114.179.7","Mozilla/5.0 (Windows NT 10.0; Win64; x64) AppleWebKit/537.36 (KHTML, like Gecko) Chrome/138.0.0.0 Safari/537.36","WebKit","Chrome","138.0.0.0","Windows","10.0","https://app.prolific.com/","en-ZA,en-GB;q=0.9,en-US;q=0.8,en;q=0.7","61601e9a6b8306196d2a129c","686d226cabeef709c732f8e1","686e31039610a8a08756c87f","61601e9a6b8306196d2a129c","2025-07-09T09:46:51.342Z","","","","","","ControlQ","","","","","","","","","","","","","","","","","","","","","","","","","","","","","","","","","","","","","","50"
"4081","","<div style=""width:500px;"">
  <p>How would you describe your current emotional state?</p>
  </div>","46","html-slider-response","52","1134564","0.0-10.0-3.2","218","1","2025-07-09 09:28:00","7701e855f2ef39aa3fd6c71abdc6918a","41.114.179.7","Mozilla/5.0 (Windows NT 10.0; Win64; x64) AppleWebKit/537.36 (KHTML, like Gecko) Chrome/138.0.0.0 Safari/537.36","WebKit","Chrome","138.0.0.0","Windows","10.0","https://app.prolific.com/","en-ZA,en-GB;q=0.9,en-US;q=0.8,en;q=0.7","61601e9a6b8306196d2a129c","686d226cabeef709c732f8e1","686e31039610a8a08756c87f","61601e9a6b8306196d2a129c","2025-07-09T09:46:55.424Z","","","","","","StressQ","","","","","","","","","","","","","","","","","","","","","","","","","","","","","","","","","","","","","","50"
"3226","","<div style=""width:500px;"">
  <p>What best describes how you currently feel?</p>
  </div>","82","html-slider-response","53","1137790","0.0-10.0-4.2","218","1","2025-07-09 09:28:00","7701e855f2ef39aa3fd6c71abdc6918a","41.114.179.7","Mozilla/5.0 (Windows NT 10.0; Win64; x64) AppleWebKit/537.36 (KHTML, like Gecko) Chrome/138.0.0.0 Safari/537.36","WebKit","Chrome","138.0.0.0","Windows","10.0","https://app.prolific.com/","en-ZA,en-GB;q=0.9,en-US;q=0.8,en;q=0.7","61601e9a6b8306196d2a129c","686d226cabeef709c732f8e1","686e31039610a8a08756c87f","61601e9a6b8306196d2a129c","2025-07-09T09:46:58.651Z","","","","","","MotivationQ","","","","","","","","","","","","","","","","","","","","","","","","","","","","","","","","","","","","","","50"
"","","","","ctl-task-cpt","54","1172896","0.0-10.0-0.3","218","1","2025-07-09 09:28:00","7701e855f2ef39aa3fd6c71abdc6918a","41.114.179.7","Mozilla/5.0 (Windows NT 10.0; Win64; x64) AppleWebKit/537.36 (KHTML, like Gecko) Chrome/138.0.0.0 Safari/537.36","WebKit","Chrome","138.0.0.0","Windows","10.0","https://app.prolific.com/","en-ZA,en-GB;q=0.9,en-US;q=0.8,en;q=0.7","61601e9a6b8306196d2a129c","686d226cabeef709c732f8e1","686e31039610a8a08756c87f","61601e9a6b8306196d2a129c","2025-07-09T09:47:33.756Z","","","","","","","","","","","","","","","","win-only","0","g1:NW,g2:SE","0.7","4","0","1141332","1264.2","6265.9","32086.6","1","4","4","6","2","4","4","12","8","0.09090909090909091","3264.6","3000","290","[""down"",""right""]","{""num_key_presses"":6,""num_perfect"":4,""num_errors"":0,""num_randdir"":2,""num_randdir_good_moves"":2,""num_whilered"":0,""num_whileblue"":0,""num_blue"":3,""num_good_moves"":6}","[422.57142857142856,416.1808016640799,0.2,422.57142857142856,414.6808016640799,104.8,422.57142857142856,413.1808016640799,207.6,422.57142857142856,413.1808016640799,312.5,422.57142857142856,413.1808016640799,416.1,422.57142857142856,413.1808016640799,516.8,422.57142857142856,416.1808016640799,622.7,422.57142857142856,416.1808016640799,722.7,422.57142857142856,416.1808016640799,823,422.57142857142856,416.1808016640799,926.9,425.57142857142856,420.6808016640799,1031,515.5714285714286,617.1808016640799,1131.7,548.5714285714286,720.6808016640799,1236.2,563.5714285714286,731.1808016640799,1336.6,665.5714285714286,755.1808016640799,1442.3,700.0714285714286,765.6808016640799,1546.8,698.5714285714286,767.1808016640799,1646.9,698.5714285714286,767.1808016640799,1747.1,698.5714285714286,767.1808016640799,1851.2,707.5714285714286,764.1808016640799,1951.8,710.5714285714286,762.6808016640799,2052.1,712.0714285714286,761.1808016640799,2156.9,719.5714285714286,755.1808016640799,2261.9,734.5714285714286,749.1808016640799,2362.8,739.0714285714286,747.6808016640799,2466.7,740.5714285714286,746.1808016640799,2566.7,740.5714285714286,746.1808016640799,2671.4,740.5714285714286,746.1808016640799,2773.2,740.5714285714286,746.1808016640799,2877.3,740.5714285714286,746.1808016640799,2981.2,740.5714285714286,746.1808016640799,3081.2,740.5714285714286,746.1808016640799,3181.2,740.5714285714286,746.1808016640799,3282.8,740.5714285714286,746.1808016640799,3394.6,739.0714285714286,746.1808016640799,3496.2,739.0714285714286,746.1808016640799,3596.8,739.0714285714286,746.1808016640799,3696.9,826.0714285714286,680.1808016640799,3803.2,1375.0714285714287,359.1808016640799,3906.9,1375.0714285714287,353.1808016640799,4008.3,1372.0714285714287,357.6808016640799,4112,1367.5714285714287,359.1808016640799,4212.2,1367.5714285714287,359.1808016640799,4316.2,1367.5714285714287,359.1808016640799,4416.2,1367.5714285714287,359.1808016640799,4517,1367.5714285714287,362.1808016640799,4623.9,1367.5714285714287,362.1808016640799,4726.9,1366.0714285714287,363.6808016640799,4831.6,1364.5714285714287,363.6808016640799,4936.2]","[1440.8,1440.8,1000,0,440.8,""smooth"",""down"",""down"",""good_move"",7529.1,6087.9,2430.6,4724.9,373.6,""smooth"",""down"",""down"",""good_move"",10016.9,2487.8,1759.8,7529.2,727.9,""smooth"",""right"",""right"",""good_move"",19977,9959.5,2730,16850.4,396.6,""oops"",""right"",""right"",""good_move"",22835.4,2858.2,2447,19977.2,411.2,""oops"",""right"",""right"",""good_move"",25721.1,2885.5,2475,22835.6,410.5,""smooth"",""down"",""down"",""good_move""]","",""
"4087","","<div style=""width:500px;"">
  <p>What determined the result of this run?</p>
  </div>","29","html-slider-response","55","1176984","0.0-10.0-1.3","218","1","2025-07-09 09:28:00","7701e855f2ef39aa3fd6c71abdc6918a","41.114.179.7","Mozilla/5.0 (Windows NT 10.0; Win64; x64) AppleWebKit/537.36 (KHTML, like Gecko) Chrome/138.0.0.0 Safari/537.36","WebKit","Chrome","138.0.0.0","Windows","10.0","https://app.prolific.com/","en-ZA,en-GB;q=0.9,en-US;q=0.8,en;q=0.7","61601e9a6b8306196d2a129c","686d226cabeef709c732f8e1","686e31039610a8a08756c87f","61601e9a6b8306196d2a129c","2025-07-09T09:47:37.844Z","","","","","","AttribQ","","","","","","","","","","","","","","","","","","","","","","","","","","","","","","","","","","","","","","50"
"9202","","<div style=""width:500px;"">
  <p>How much control did you have over the ball?</p>
  </div>","53","html-slider-response","56","1186187","0.0-10.0-2.3","218","1","2025-07-09 09:28:00","7701e855f2ef39aa3fd6c71abdc6918a","41.114.179.7","Mozilla/5.0 (Windows NT 10.0; Win64; x64) AppleWebKit/537.36 (KHTML, like Gecko) Chrome/138.0.0.0 Safari/537.36","WebKit","Chrome","138.0.0.0","Windows","10.0","https://app.prolific.com/","en-ZA,en-GB;q=0.9,en-US;q=0.8,en;q=0.7","61601e9a6b8306196d2a129c","686d226cabeef709c732f8e1","686e31039610a8a08756c87f","61601e9a6b8306196d2a129c","2025-07-09T09:47:47.047Z","","","","","","ControlQ","","","","","","","","","","","","","","","","","","","","","","","","","","","","","","","","","","","","","","50"
"3367","","<div style=""width:500px;"">
  <p>How would you describe your current emotional state?</p>
  </div>","65","html-slider-response","57","1189556","0.0-10.0-3.3","218","1","2025-07-09 09:28:00","7701e855f2ef39aa3fd6c71abdc6918a","41.114.179.7","Mozilla/5.0 (Windows NT 10.0; Win64; x64) AppleWebKit/537.36 (KHTML, like Gecko) Chrome/138.0.0.0 Safari/537.36","WebKit","Chrome","138.0.0.0","Windows","10.0","https://app.prolific.com/","en-ZA,en-GB;q=0.9,en-US;q=0.8,en;q=0.7","61601e9a6b8306196d2a129c","686d226cabeef709c732f8e1","686e31039610a8a08756c87f","61601e9a6b8306196d2a129c","2025-07-09T09:47:50.416Z","","","","","","StressQ","","","","","","","","","","","","","","","","","","","","","","","","","","","","","","","","","","","","","","50"
"3665","","<div style=""width:500px;"">
  <p>What best describes how you currently feel?</p>
  </div>","90","html-slider-response","58","1193221","0.0-10.0-4.3","218","1","2025-07-09 09:28:00","7701e855f2ef39aa3fd6c71abdc6918a","41.114.179.7","Mozilla/5.0 (Windows NT 10.0; Win64; x64) AppleWebKit/537.36 (KHTML, like Gecko) Chrome/138.0.0.0 Safari/537.36","WebKit","Chrome","138.0.0.0","Windows","10.0","https://app.prolific.com/","en-ZA,en-GB;q=0.9,en-US;q=0.8,en;q=0.7","61601e9a6b8306196d2a129c","686d226cabeef709c732f8e1","686e31039610a8a08756c87f","61601e9a6b8306196d2a129c","2025-07-09T09:47:54.081Z","","","","","","MotivationQ","","","","","","","","","","","","","","","","","","","","","","","","","","","","","","","","","","","","","","50"
"","","","","ctl-task-cpt","59","1223528","0.0-10.0-0.4","218","1","2025-07-09 09:28:00","7701e855f2ef39aa3fd6c71abdc6918a","41.114.179.7","Mozilla/5.0 (Windows NT 10.0; Win64; x64) AppleWebKit/537.36 (KHTML, like Gecko) Chrome/138.0.0.0 Safari/537.36","WebKit","Chrome","138.0.0.0","Windows","10.0","https://app.prolific.com/","en-ZA,en-GB;q=0.9,en-US;q=0.8,en;q=0.7","61601e9a6b8306196d2a129c","686d226cabeef709c732f8e1","686e31039610a8a08756c87f","61601e9a6b8306196d2a129c","2025-07-09T09:48:24.388Z","","","","","","","","","","","","","","","","win-only","1","g1:NE,g2:SW","0.6","5","0","1196763.1","1160.4","6161.1","27287","1","4","8","6","2","8","8","20","12","0.15151515151515152","2245.3","3000","225","[""down"",""left""]","{""num_key_presses"":8,""num_perfect"":5,""num_errors"":0,""num_randdir"":3,""num_randdir_good_moves"":2,""num_whilered"":0,""num_whileblue"":0,""num_blue"":0,""num_good_moves"":7}","[419.57142857142856,416.1808016640799,0.3,419.57142857142856,416.1808016640799,101,419.57142857142856,416.1808016640799,206,419.57142857142856,419.1808016640799,311.9,416.57142857142856,420.6808016640799,416.1,416.57142857142856,422.1808016640799,520.5,401.57142857142856,440.1808016640799,625.4,206.57142857142856,602.1808016640799,725.5,109.07142857142857,704.1808016640799,827.1,107.57142857142857,705.6808016640799,927.4,76.07142857142857,749.1808016640799,1030.5,74.57142857142857,762.6808016640799,1130.5,71.57142857142857,776.1808016640799,1235.1,71.57142857142857,776.1808016640799,1336.2,71.57142857142857,776.1808016640799,1442.2,71.57142857142857,776.1808016640799,1544.9,71.57142857142857,776.1808016640799,1646.3,71.57142857142857,776.1808016640799,1750.2,71.57142857142857,776.1808016640799,1854.9,71.57142857142857,776.1808016640799,1955.4,71.57142857142857,776.1808016640799,2055.9,71.57142857142857,776.1808016640799,2161.7,74.57142857142857,776.1808016640799,2266.7,77.57142857142857,774.6808016640799,2374.8,77.57142857142857,774.6808016640799,2476,77.57142857142857,774.6808016640799,2576.5,77.57142857142857,774.6808016640799,2680,406.07142857142856,656.1808016640799,2780.9,1172.5714285714287,563.1808016640799,2881.1,1237.0714285714287,566.1808016640799,2981.2,1298.5714285714287,584.1808016640799,3085.9,1292.5714285714287,591.6808016640799,3192.8,1291.0714285714287,591.6808016640799,3295.9,1291.0714285714287,591.6808016640799,3396.3,1291.0714285714287,591.6808016640799,3500.3,1289.5714285714287,593.1808016640799,3604.9,1289.5714285714287,593.1808016640799,3705.2,1288.0714285714287,594.6808016640799,3805.4,1288.0714285714287,594.6808016640799,3910.5,1288.0714285714287,594.6808016640799,4010.9,1288.0714285714287,594.6808016640799,4111.4,1288.0714285714287,594.6808016640799,4216.1,1288.0714285714287,594.6808016640799,4319.9,1288.0714285714287,594.6808016640799,4421,1288.0714285714287,594.6808016640799,4521.2,1288.0714285714287,594.6808016640799,4626.8,1288.0714285714287,594.6808016640799,4730.2,1288.0714285714287,594.6808016640799,4835.3,1288.0714285714287,594.6808016640799,4935.9]","[1466.8,1466.8,1000,0,466.8,""oops"",""left"",""left"",""good_move"",4699,3231.8,2915.5,1467.3,316.2,""oops"",""left"",""down"",""good_move"",7139.4,2440.1,2065.9,4699.3,374.2,""oops"",""left"",""up"",""bad_move"",10195.1,3055.2,2710.3,7139.9,344.9,""smooth"",""down"",""down"",""good_move"",12947.2,2751.8,2414.7,10195.4,337.1,""smooth"",""down"",""down"",""good_move"",15572.2,2624.8,2306.9,12947.4,317.9,""smooth"",""down"",""down"",""good_move"",18603.7,3031.2,2717.9,15572.5,313.3,""smooth"",""left"",""left"",""good_move"",21037.9,2433.8,2053.4,18604.2,380.3,""smooth"",""left"",""left"",""good_move""]","",""
"4843","","<div style=""width:500px;"">
  <p>What determined the result of this run?</p>
  </div>","49","html-slider-response","60","1228373","0.0-10.0-1.4","218","1","2025-07-09 09:28:00","7701e855f2ef39aa3fd6c71abdc6918a","41.114.179.7","Mozilla/5.0 (Windows NT 10.0; Win64; x64) AppleWebKit/537.36 (KHTML, like Gecko) Chrome/138.0.0.0 Safari/537.36","WebKit","Chrome","138.0.0.0","Windows","10.0","https://app.prolific.com/","en-ZA,en-GB;q=0.9,en-US;q=0.8,en;q=0.7","61601e9a6b8306196d2a129c","686d226cabeef709c732f8e1","686e31039610a8a08756c87f","61601e9a6b8306196d2a129c","2025-07-09T09:48:29.233Z","","","","","","AttribQ","","","","","","","","","","","","","","","","","","","","","","","","","","","","","","","","","","","","","","50"
"4703","","<div style=""width:500px;"">
  <p>How much control did you have over the ball?</p>
  </div>","68","html-slider-response","61","1233076","0.0-10.0-2.4","218","1","2025-07-09 09:28:00","7701e855f2ef39aa3fd6c71abdc6918a","41.114.179.7","Mozilla/5.0 (Windows NT 10.0; Win64; x64) AppleWebKit/537.36 (KHTML, like Gecko) Chrome/138.0.0.0 Safari/537.36","WebKit","Chrome","138.0.0.0","Windows","10.0","https://app.prolific.com/","en-ZA,en-GB;q=0.9,en-US;q=0.8,en;q=0.7","61601e9a6b8306196d2a129c","686d226cabeef709c732f8e1","686e31039610a8a08756c87f","61601e9a6b8306196d2a129c","2025-07-09T09:48:33.937Z","","","","","","ControlQ","","","","","","","","","","","","","","","","","","","","","","","","","","","","","","","","","","","","","","50"
"3808","","<div style=""width:500px;"">
  <p>How would you describe your current emotional state?</p>
  </div>","90","html-slider-response","62","1236885","0.0-10.0-3.4","218","1","2025-07-09 09:28:00","7701e855f2ef39aa3fd6c71abdc6918a","41.114.179.7","Mozilla/5.0 (Windows NT 10.0; Win64; x64) AppleWebKit/537.36 (KHTML, like Gecko) Chrome/138.0.0.0 Safari/537.36","WebKit","Chrome","138.0.0.0","Windows","10.0","https://app.prolific.com/","en-ZA,en-GB;q=0.9,en-US;q=0.8,en;q=0.7","61601e9a6b8306196d2a129c","686d226cabeef709c732f8e1","686e31039610a8a08756c87f","61601e9a6b8306196d2a129c","2025-07-09T09:48:37.745Z","","","","","","StressQ","","","","","","","","","","","","","","","","","","","","","","","","","","","","","","","","","","","","","","50"
"2307","","<div style=""width:500px;"">
  <p>What best describes how you currently feel?</p>
  </div>","91","html-slider-response","63","1239193","0.0-10.0-4.4","218","1","2025-07-09 09:28:00","7701e855f2ef39aa3fd6c71abdc6918a","41.114.179.7","Mozilla/5.0 (Windows NT 10.0; Win64; x64) AppleWebKit/537.36 (KHTML, like Gecko) Chrome/138.0.0.0 Safari/537.36","WebKit","Chrome","138.0.0.0","Windows","10.0","https://app.prolific.com/","en-ZA,en-GB;q=0.9,en-US;q=0.8,en;q=0.7","61601e9a6b8306196d2a129c","686d226cabeef709c732f8e1","686e31039610a8a08756c87f","61601e9a6b8306196d2a129c","2025-07-09T09:48:40.054Z","","","","","","MotivationQ","","","","","","","","","","","","","","","","","","","","","","","","","","","","","","","","","","","","","","50"
"","","","","ctl-task-cpt","64","1273144","0.0-10.0-0.5","218","1","2025-07-09 09:28:00","7701e855f2ef39aa3fd6c71abdc6918a","41.114.179.7","Mozilla/5.0 (Windows NT 10.0; Win64; x64) AppleWebKit/537.36 (KHTML, like Gecko) Chrome/138.0.0.0 Safari/537.36","WebKit","Chrome","138.0.0.0","Windows","10.0","https://app.prolific.com/","en-ZA,en-GB;q=0.9,en-US;q=0.8,en;q=0.7","61601e9a6b8306196d2a129c","686d226cabeef709c732f8e1","686e31039610a8a08756c87f","61601e9a6b8306196d2a129c","2025-07-09T09:49:14.004Z","","","","","","","","","","","","","","","","win-only","3","g1:SW,g2:NE","0.5","6","0","1242734.6","1004.8","6007","30930.7","1","4","4","6","2","-4","-4","16","20","0.12121212121212122","2297.7","3000","-3005","[""up"",""right""]","{""num_key_presses"":8,""num_perfect"":5,""num_errors"":0,""num_randdir"":3,""num_randdir_good_moves"":1,""num_whilered"":0,""num_whileblue"":0,""num_blue"":1,""num_good_moves"":6}","[413.57142857142856,422.1808016640799,0.2,413.57142857142856,422.1808016640799,100.7,413.57142857142856,422.1808016640799,201.2,413.57142857142856,422.1808016640799,301.8,413.57142857142856,422.1808016640799,401.8,413.57142857142856,422.1808016640799,507.9,413.57142857142856,422.1808016640799,610.4,404.57142857142856,438.6808016640799,710.8,404.57142857142856,438.6808016640799,811.8,491.57142857142856,353.1808016640799,916.7,908.5714285714286,-96.81919833592006,1017,917.5714285714286,-102.81919833592006,1120.9,815.5714285714286,-20.319198335920063,1228.4,695.5714285714286,50.18080166407994,1334.4,698.5714285714286,44.18080166407994,1435.7,724.0714285714286,39.68080166407994,1535.7,740.5714285714286,50.18080166407994,1636.9,740.5714285714286,51.68080166407994,1736.9,740.5714285714286,51.68080166407994,1836.9,740.5714285714286,51.68080166407994,1941.1,740.5714285714286,51.68080166407994,2044.6,740.5714285714286,53.18080166407994,2144.6,740.5714285714286,56.18080166407994,2246.9,743.5714285714286,56.18080166407994,2346.9,745.0714285714286,53.18080166407994,2451.6,746.5714285714286,53.18080166407994,2556.5,752.5714285714286,57.68080166407994,2658.3,1375.0714285714287,758.1808016640799,2758.7,1375.0714285714287,959.1808016640799,2861.9,1373.5714285714287,951.6808016640799,2965.9,1369.0714285714287,953.1808016640799,3066.8,1369.0714285714287,953.1808016640799,3175.8,1367.5714285714287,954.6808016640799,3280.1,1367.5714285714287,956.1808016640799,3380.9,1367.5714285714287,956.1808016640799,3482,1364.5714285714287,959.1808016640799,3586.9,1364.5714285714287,959.1808016640799,3686.9,1363.0714285714287,960.6808016640799,3794.3,1363.0714285714287,960.6808016640799,3897.1,1363.0714285714287,960.6808016640799,4001.1,1363.0714285714287,960.6808016640799,4109.2,1363.0714285714287,960.6808016640799,4209.9,1363.0714285714287,960.6808016640799,4312.8,1363.0714285714287,960.6808016640799,4416.9,1363.0714285714287,960.6808016640799,4521.1,1363.0714285714287,960.6808016640799,4628.2,1363.0714285714287,960.6808016640799,4730.4,1363.0714285714287,960.6808016640799,4831.7,1363.0714285714287,960.6808016640799,4936.9]","[1370.9,1370.9,1000,0,370.9,""smooth"",""right"",""right"",""good_move"",3882.3,2511.1,2143.4,1371.2,367.7,""smooth"",""right"",""right"",""good_move"",5754.5,1871.9,1456.1,3882.6,415.8,""smooth"",""right"",""right"",""good_move"",8594,2839.2,2455.1,5754.8,384.1,""oops"",""up"",""up"",""good_move"",12586.5,3992.2,3593.4,8594.3,398.8,""smooth"",""up"",""up"",""good_move"",19234.1,6647.2,2536.3,16313.2,384.6,""oops"",""up"",""down"",""bad_move"",21178.1,1943.8,1569.9,19234.3,373.9,""oops"",""up"",""left"",""bad_move"",23730.4,2552,2186.3,21178.5,365.7,""smooth"",""up"",""up"",""good_move""]","",""
"26522","","<div style=""width:500px;"">
  <p>What determined the result of this run?</p>
  </div>","9","html-slider-response","65","1299667","0.0-10.0-1.5","218","1","2025-07-09 09:28:00","7701e855f2ef39aa3fd6c71abdc6918a","41.114.179.7","Mozilla/5.0 (Windows NT 10.0; Win64; x64) AppleWebKit/537.36 (KHTML, like Gecko) Chrome/138.0.0.0 Safari/537.36","WebKit","Chrome","138.0.0.0","Windows","10.0","https://app.prolific.com/","en-ZA,en-GB;q=0.9,en-US;q=0.8,en;q=0.7","61601e9a6b8306196d2a129c","686d226cabeef709c732f8e1","686e31039610a8a08756c87f","61601e9a6b8306196d2a129c","2025-07-09T09:49:40.527Z","","","","","","AttribQ","","","","","","","","","","","","","","","","","","","","","","","","","","","","","","","","","","","","","","50"
"5911","","<div style=""width:500px;"">
  <p>How much control did you have over the ball?</p>
  </div>","14","html-slider-response","66","1305580","0.0-10.0-2.5","218","1","2025-07-09 09:28:00","7701e855f2ef39aa3fd6c71abdc6918a","41.114.179.7","Mozilla/5.0 (Windows NT 10.0; Win64; x64) AppleWebKit/537.36 (KHTML, like Gecko) Chrome/138.0.0.0 Safari/537.36","WebKit","Chrome","138.0.0.0","Windows","10.0","https://app.prolific.com/","en-ZA,en-GB;q=0.9,en-US;q=0.8,en;q=0.7","61601e9a6b8306196d2a129c","686d226cabeef709c732f8e1","686e31039610a8a08756c87f","61601e9a6b8306196d2a129c","2025-07-09T09:49:46.440Z","","","","","","ControlQ","","","","","","","","","","","","","","","","","","","","","","","","","","","","","","","","","","","","","","50"
"5280","","<div style=""width:500px;"">
  <p>How would you describe your current emotional state?</p>
  </div>","94","html-slider-response","67","1310860","0.0-10.0-3.5","218","1","2025-07-09 09:28:00","7701e855f2ef39aa3fd6c71abdc6918a","41.114.179.7","Mozilla/5.0 (Windows NT 10.0; Win64; x64) AppleWebKit/537.36 (KHTML, like Gecko) Chrome/138.0.0.0 Safari/537.36","WebKit","Chrome","138.0.0.0","Windows","10.0","https://app.prolific.com/","en-ZA,en-GB;q=0.9,en-US;q=0.8,en;q=0.7","61601e9a6b8306196d2a129c","686d226cabeef709c732f8e1","686e31039610a8a08756c87f","61601e9a6b8306196d2a129c","2025-07-09T09:49:51.721Z","","","","","","StressQ","","","","","","","","","","","","","","","","","","","","","","","","","","","","","","","","","","","","","","50"
"9282","","<div style=""width:500px;"">
  <p>What best describes how you currently feel?</p>
  </div>","53","html-slider-response","68","1320144","0.0-10.0-4.5","218","1","2025-07-09 09:28:00","7701e855f2ef39aa3fd6c71abdc6918a","41.114.179.7","Mozilla/5.0 (Windows NT 10.0; Win64; x64) AppleWebKit/537.36 (KHTML, like Gecko) Chrome/138.0.0.0 Safari/537.36","WebKit","Chrome","138.0.0.0","Windows","10.0","https://app.prolific.com/","en-ZA,en-GB;q=0.9,en-US;q=0.8,en;q=0.7","61601e9a6b8306196d2a129c","686d226cabeef709c732f8e1","686e31039610a8a08756c87f","61601e9a6b8306196d2a129c","2025-07-09T09:50:01.004Z","","","","","","MotivationQ","","","","","","","","","","","","","","","","","","","","","","","","","","","","","","","","","","","","","","50"
"","","","","ctl-task-cpt","69","1360234","0.0-10.0-0.6","218","1","2025-07-09 09:28:00","7701e855f2ef39aa3fd6c71abdc6918a","41.114.179.7","Mozilla/5.0 (Windows NT 10.0; Win64; x64) AppleWebKit/537.36 (KHTML, like Gecko) Chrome/138.0.0.0 Safari/537.36","WebKit","Chrome","138.0.0.0","Windows","10.0","https://app.prolific.com/","en-ZA,en-GB;q=0.9,en-US;q=0.8,en;q=0.7","61601e9a6b8306196d2a129c","686d226cabeef709c732f8e1","686e31039610a8a08756c87f","61601e9a6b8306196d2a129c","2025-07-09T09:50:41.094Z","","","","","","","","","","","","","","","","win-only","1","g1:NE,g2:SW","0.4","7","0","1323684.9","1509.3","6510.7","37072","1","4","4","6","2","-4","-4","12","16","0.09090909090909091","2314.8","3000","-3005","[""down"",""left""]","{""num_key_presses"":9,""num_perfect"":4,""num_errors"":0,""num_randdir"":5,""num_randdir_good_moves"":2,""num_whilered"":0,""num_whileblue"":0,""num_blue"":1,""num_good_moves"":6}","[410.57142857142856,416.1808016640799,0.2,410.57142857142856,416.1808016640799,102.6,410.57142857142856,416.1808016640799,206.4,410.57142857142856,416.1808016640799,306.7,410.57142857142856,416.1808016640799,407.4,410.57142857142856,416.1808016640799,507.5,412.07142857142856,414.6808016640799,612.5,443.57142857142856,380.1808016640799,725.1,467.57142857142856,356.1808016640799,826.1,479.57142857142856,344.1808016640799,931.6,479.57142857142856,345.6808016640799,1031.8,502.07142857142856,335.1808016640799,1137.7,553.0714285714286,311.1808016640799,1240.6,208.07142857142856,614.1808016640799,1342.5,104.57142857142857,723.6808016640799,1458.3,70.07142857142857,749.1808016640799,1562.9,95.57142857142857,746.1808016640799,1666.9,103.07142857142857,744.6808016640799,1771.2,91.07142857142857,752.1808016640799,1872.6,85.07142857142857,755.1808016640799,1977.9,85.07142857142857,755.1808016640799,2085.6,85.07142857142857,755.1808016640799,2185.9,85.07142857142857,755.1808016640799,2287,88.07142857142857,755.1808016640799,2392.7,89.57142857142857,753.6808016640799,2496.4,89.57142857142857,753.6808016640799,2596.4,92.57142857142857,752.1808016640799,2696.9,994.0714285714286,698.1808016640799,2801.8,1193.5714285714287,653.1808016640799,2906.7,1186.0714285714287,660.6808016640799,3013.1,1183.0714285714287,665.1808016640799,3118.2,1183.0714285714287,665.1808016640799,3218.2,1183.0714285714287,665.1808016640799,3321.3,1183.0714285714287,665.1808016640799,3427.7,1181.5714285714287,666.6808016640799,3531.7,1180.0714285714287,668.1808016640799,3633.4,1180.0714285714287,669.6808016640799,3738.2,1180.0714285714287,669.6808016640799,3841.4,1180.0714285714287,671.1808016640799,3946.7,1180.0714285714287,671.1808016640799,4047.6,1180.0714285714287,671.1808016640799,4154.3,1180.0714285714287,671.1808016640799,4257.7,1180.0714285714287,671.1808016640799,4361.2,1180.0714285714287,671.1808016640799,4467.3,1180.0714285714287,671.1808016640799,4571.7,1180.0714285714287,671.1808016640799,4677.3,1180.0714285714287,671.1808016640799,4781.5,1180.0714285714287,671.1808016640799,4881.6,1180.0714285714287,671.1808016640799,4986.2]","[1357,1357,1000,0,357,""oops"",""left"",""left"",""good_move"",3933.5,2576.1,2226.5,1357.4,349.6,""oops"",""down"",""up"",""bad_move"",6949.3,3015.4,2693.8,3933.9,321.6,""smooth"",""left"",""left"",""good_move"",10079.5,3130,2827.2,6949.5,302.8,""smooth"",""left"",""left"",""good_move"",13044.9,2965.3,2621.9,10079.6,343.4,""oops"",""down"",""right"",""bad_move"",15278.1,2232.9,1884.1,13045.2,348.8,""smooth"",""down"",""down"",""good_move"",18564.9,3286.2,2933.8,15278.7,352.4,""smooth"",""down"",""down"",""good_move"",21277,2711.9,2401.6,18565.1,310.3,""oops"",""down"",""right"",""bad_move"",24399,3121.6,2807.3,21277.4,314.3,""oops"",""down"",""left"",""good_move""]","",""
"6000","","<div style=""width:500px;"">
  <p>What determined the result of this run?</p>
  </div>","0","html-slider-response","70","1366236","0.0-10.0-1.6","218","1","2025-07-09 09:28:00","7701e855f2ef39aa3fd6c71abdc6918a","41.114.179.7","Mozilla/5.0 (Windows NT 10.0; Win64; x64) AppleWebKit/537.36 (KHTML, like Gecko) Chrome/138.0.0.0 Safari/537.36","WebKit","Chrome","138.0.0.0","Windows","10.0","https://app.prolific.com/","en-ZA,en-GB;q=0.9,en-US;q=0.8,en;q=0.7","61601e9a6b8306196d2a129c","686d226cabeef709c732f8e1","686e31039610a8a08756c87f","61601e9a6b8306196d2a129c","2025-07-09T09:50:47.096Z","","","","","","AttribQ","","","","","","","","","","","","","","","","","","","","","","","","","","","","","","","","","","","","","","50"
"3501","","<div style=""width:500px;"">
  <p>How much control did you have over the ball?</p>
  </div>","4","html-slider-response","71","1369738","0.0-10.0-2.6","218","1","2025-07-09 09:28:00","7701e855f2ef39aa3fd6c71abdc6918a","41.114.179.7","Mozilla/5.0 (Windows NT 10.0; Win64; x64) AppleWebKit/537.36 (KHTML, like Gecko) Chrome/138.0.0.0 Safari/537.36","WebKit","Chrome","138.0.0.0","Windows","10.0","https://app.prolific.com/","en-ZA,en-GB;q=0.9,en-US;q=0.8,en;q=0.7","61601e9a6b8306196d2a129c","686d226cabeef709c732f8e1","686e31039610a8a08756c87f","61601e9a6b8306196d2a129c","2025-07-09T09:50:50.598Z","","","","","","ControlQ","","","","","","","","","","","","","","","","","","","","","","","","","","","","","","","","","","","","","","50"
"5223","","<div style=""width:500px;"">
  <p>How would you describe your current emotional state?</p>
  </div>","74","html-slider-response","72","1374961","0.0-10.0-3.6","218","1","2025-07-09 09:28:00","7701e855f2ef39aa3fd6c71abdc6918a","41.114.179.7","Mozilla/5.0 (Windows NT 10.0; Win64; x64) AppleWebKit/537.36 (KHTML, like Gecko) Chrome/138.0.0.0 Safari/537.36","WebKit","Chrome","138.0.0.0","Windows","10.0","https://app.prolific.com/","en-ZA,en-GB;q=0.9,en-US;q=0.8,en;q=0.7","61601e9a6b8306196d2a129c","686d226cabeef709c732f8e1","686e31039610a8a08756c87f","61601e9a6b8306196d2a129c","2025-07-09T09:50:55.821Z","","","","","","StressQ","","","","","","","","","","","","","","","","","","","","","","","","","","","","","","","","","","","","","","50"
"9875","","<div style=""width:500px;"">
  <p>What best describes how you currently feel?</p>
  </div>","64","html-slider-response","73","1384838","0.0-10.0-4.6","218","1","2025-07-09 09:28:00","7701e855f2ef39aa3fd6c71abdc6918a","41.114.179.7","Mozilla/5.0 (Windows NT 10.0; Win64; x64) AppleWebKit/537.36 (KHTML, like Gecko) Chrome/138.0.0.0 Safari/537.36","WebKit","Chrome","138.0.0.0","Windows","10.0","https://app.prolific.com/","en-ZA,en-GB;q=0.9,en-US;q=0.8,en;q=0.7","61601e9a6b8306196d2a129c","686d226cabeef709c732f8e1","686e31039610a8a08756c87f","61601e9a6b8306196d2a129c","2025-07-09T09:51:05.698Z","","","","","","MotivationQ","","","","","","","","","","","","","","","","","","","","","","","","","","","","","","","","","","","","","","50"
"","","","","ctl-task-cpt","74","1429122","0.0-10.0-0.7","218","1","2025-07-09 09:28:00","7701e855f2ef39aa3fd6c71abdc6918a","41.114.179.7","Mozilla/5.0 (Windows NT 10.0; Win64; x64) AppleWebKit/537.36 (KHTML, like Gecko) Chrome/138.0.0.0 Safari/537.36","WebKit","Chrome","138.0.0.0","Windows","10.0","https://app.prolific.com/","en-ZA,en-GB;q=0.9,en-US;q=0.8,en;q=0.7","61601e9a6b8306196d2a129c","686d226cabeef709c732f8e1","686e31039610a8a08756c87f","61601e9a6b8306196d2a129c","2025-07-09T09:51:49.983Z","","","","","","","","","","","","","","","","win-only","0","g1:NW,g2:SE","0.3","8","0","1388379","1369.2","6371.5","41262.3","1","4","8","6","2","-8","-8","4","12","0.030303030303030304","3266.7","3000","-2945","[""down"",""right""]","{""num_key_presses"":7,""num_perfect"":2,""num_errors"":0,""num_randdir"":5,""num_randdir_good_moves"":3,""num_whilered"":0,""num_whileblue"":0,""num_blue"":4,""num_good_moves"":5}","[416.57142857142856,422.1808016640799,0.3,416.57142857142856,423.6808016640799,100.1,416.57142857142856,423.6808016640799,210.5,416.57142857142856,423.6808016640799,312.3,416.57142857142856,423.6808016640799,416,407.57142857142856,425.1808016640799,529.6,395.57142857142856,408.6808016640799,631.3,398.57142857142856,407.1808016640799,732.2,815.5714285714286,447.6808016640799,838,1135.0714285714287,431.1808016640799,952.2,1127.5714285714287,441.6808016640799,1055.3,1124.5714285714287,444.6808016640799,1156.9,1121.5714285714287,447.6808016640799,1261.7,1121.5714285714287,447.6808016640799,1362.5,1121.5714285714287,447.6808016640799,1467.3,1121.5714285714287,447.6808016640799,1572.1,1120.0714285714287,447.6808016640799,1684,1118.5714285714287,449.1808016640799,1785.2,1118.5714285714287,452.1808016640799,1885.7,1118.5714285714287,452.1808016640799,1987.2,1118.5714285714287,452.1808016640799,2093.1,1117.0714285714287,453.6808016640799,2197.1,1115.5714285714287,455.1808016640799,2302,1115.5714285714287,455.1808016640799,2418.5,1102.0714285714287,458.1808016640799,2527,980.5714285714286,500.1808016640799,2631.8,1019.5714285714286,572.1808016640799,2732.2,1031.5714285714287,647.1808016640799,2837.5,950.5714285714286,686.1808016640799,2937.7,800.5714285714286,728.1808016640799,3038.8,814.0714285714286,726.6808016640799,3142.5,790.0714285714286,746.1808016640799,3246,797.5714285714286,746.1808016640799,3347.2,797.5714285714286,746.1808016640799,3452.2,799.0714285714286,744.6808016640799,3556.6,980.5714285714286,662.1808016640799,3658.8,1142.5714285714287,584.1808016640799,3760.8,1130.5714285714287,587.1808016640799,3864.5,1130.5714285714287,587.1808016640799,3965.4,1130.5714285714287,587.1808016640799,4066.5,1130.5714285714287,587.1808016640799,4171.2,1130.5714285714287,587.1808016640799,4271.2,1130.5714285714287,588.6808016640799,4377.6,1130.5714285714287,590.1808016640799,4481.4,1129.0714285714287,590.1808016640799,4582.5,1129.0714285714287,590.1808016640799,4686.1,1129.0714285714287,590.1808016640799,4786.9,1129.0714285714287,590.1808016640799,4887.3,1129.0714285714287,590.1808016640799,4993.4]","[1458.7,1458.7,1000,0,458.7,""oops"",""down"",""down"",""good_move"",4770.5,3311.4,2908.5,1459.1,402.9,""oops"",""down"",""right"",""good_move"",7640,2869.3,2482.2,4770.8,387.1,""oops"",""down"",""down"",""good_move"",10698.4,3058,2615.1,7640.4,442.9,""oops"",""right"",""up"",""bad_move"",13090.8,2392.1,1976.3,10698.7,415.8,""smooth"",""down"",""down"",""good_move"",29427,16335.8,2373.6,26533.8,519.6,""oops"",""down"",""up"",""bad_move"",32266.6,2839.3,2418.3,29427.3,421,""smooth"",""right"",""right"",""good_move""]","",""
"15288","","<div style=""width:500px;"">
  <p>What determined the result of this run?</p>
  </div>","0","html-slider-response","75","1444411","0.0-10.0-1.7","218","1","2025-07-09 09:28:00","7701e855f2ef39aa3fd6c71abdc6918a","41.114.179.7","Mozilla/5.0 (Windows NT 10.0; Win64; x64) AppleWebKit/537.36 (KHTML, like Gecko) Chrome/138.0.0.0 Safari/537.36","WebKit","Chrome","138.0.0.0","Windows","10.0","https://app.prolific.com/","en-ZA,en-GB;q=0.9,en-US;q=0.8,en;q=0.7","61601e9a6b8306196d2a129c","686d226cabeef709c732f8e1","686e31039610a8a08756c87f","61601e9a6b8306196d2a129c","2025-07-09T09:52:05.272Z","","","","","","AttribQ","","","","","","","","","","","","","","","","","","","","","","","","","","","","","","","","","","","","","","50"
"3007","","<div style=""width:500px;"">
  <p>How much control did you have over the ball?</p>
  </div>","7","html-slider-response","76","1447420","0.0-10.0-2.7","218","1","2025-07-09 09:28:00","7701e855f2ef39aa3fd6c71abdc6918a","41.114.179.7","Mozilla/5.0 (Windows NT 10.0; Win64; x64) AppleWebKit/537.36 (KHTML, like Gecko) Chrome/138.0.0.0 Safari/537.36","WebKit","Chrome","138.0.0.0","Windows","10.0","https://app.prolific.com/","en-ZA,en-GB;q=0.9,en-US;q=0.8,en;q=0.7","61601e9a6b8306196d2a129c","686d226cabeef709c732f8e1","686e31039610a8a08756c87f","61601e9a6b8306196d2a129c","2025-07-09T09:52:08.280Z","","","","","","ControlQ","","","","","","","","","","","","","","","","","","","","","","","","","","","","","","","","","","","","","","50"
"3909","","<div style=""width:500px;"">
  <p>How would you describe your current emotional state?</p>
  </div>","88","html-slider-response","77","1451330","0.0-10.0-3.7","218","1","2025-07-09 09:28:00","7701e855f2ef39aa3fd6c71abdc6918a","41.114.179.7","Mozilla/5.0 (Windows NT 10.0; Win64; x64) AppleWebKit/537.36 (KHTML, like Gecko) Chrome/138.0.0.0 Safari/537.36","WebKit","Chrome","138.0.0.0","Windows","10.0","https://app.prolific.com/","en-ZA,en-GB;q=0.9,en-US;q=0.8,en;q=0.7","61601e9a6b8306196d2a129c","686d226cabeef709c732f8e1","686e31039610a8a08756c87f","61601e9a6b8306196d2a129c","2025-07-09T09:52:12.190Z","","","","","","StressQ","","","","","","","","","","","","","","","","","","","","","","","","","","","","","","","","","","","","","","50"
"3603","","<div style=""width:500px;"">
  <p>What best describes how you currently feel?</p>
  </div>","67","html-slider-response","78","1454935","0.0-10.0-4.7","218","1","2025-07-09 09:28:00","7701e855f2ef39aa3fd6c71abdc6918a","41.114.179.7","Mozilla/5.0 (Windows NT 10.0; Win64; x64) AppleWebKit/537.36 (KHTML, like Gecko) Chrome/138.0.0.0 Safari/537.36","WebKit","Chrome","138.0.0.0","Windows","10.0","https://app.prolific.com/","en-ZA,en-GB;q=0.9,en-US;q=0.8,en;q=0.7","61601e9a6b8306196d2a129c","686d226cabeef709c732f8e1","686e31039610a8a08756c87f","61601e9a6b8306196d2a129c","2025-07-09T09:52:15.795Z","","","","","","MotivationQ","","","","","","","","","","","","","","","","","","","","","","","","","","","","","","","","","","","","","","50"
"","","","","ctl-task-cpt","79","1505456","0.0-10.0-0.8","218","1","2025-07-09 09:28:00","7701e855f2ef39aa3fd6c71abdc6918a","41.114.179.7","Mozilla/5.0 (Windows NT 10.0; Win64; x64) AppleWebKit/537.36 (KHTML, like Gecko) Chrome/138.0.0.0 Safari/537.36","WebKit","Chrome","138.0.0.0","Windows","10.0","https://app.prolific.com/","en-ZA,en-GB;q=0.9,en-US;q=0.8,en;q=0.7","61601e9a6b8306196d2a129c","686d226cabeef709c732f8e1","686e31039610a8a08756c87f","61601e9a6b8306196d2a129c","2025-07-09T09:53:06.316Z","","","","","","","","","","","","","","","","win-only","2","g1:SE,g2:NW","0.2","9","0","1458475.8","1139.1","6141","47501.2","1","4","4","6","1","-1","-2","2","4","0.015151515151515152","3860.2","3000","-2965","[""down"",""right""]","{""num_key_presses"":8,""num_perfect"":0,""num_errors"":1,""num_randdir"":7,""num_randdir_good_moves"":3,""num_whilered"":0,""num_whileblue"":0,""num_blue"":5,""num_good_moves"":3}","[419.57142857142856,419.1808016640799,0.2,419.57142857142856,419.1808016640799,102.5,419.57142857142856,419.1808016640799,202.9,419.57142857142856,419.1808016640799,302.9,419.57142857142856,419.1808016640799,406.2,419.57142857142856,419.1808016640799,507.3,419.57142857142856,422.1808016640799,612.4,419.57142857142856,425.1808016640799,717.9,409.07142857142856,428.1808016640799,824.6,340.07142857142856,305.1808016640799,926.5,311.57142857142856,242.18080166407992,1027,257.57142857142856,140.18080166407992,1131.3,196.07142857142856,81.68080166407994,1232,158.57142857142856,53.18080166407994,1336.1,109.07142857142857,53.18080166407994,1436.5,85.07142857142857,78.68080166407994,1538.2,74.57142857142857,92.18080166407994,1641.2,74.57142857142857,92.18080166407994,1743,76.07142857142857,92.18080166407994,1847,77.57142857142857,90.68080166407994,1948.1,79.07142857142857,89.18080166407994,2051.9,79.07142857142857,89.18080166407994,2156.5,79.07142857142857,89.18080166407994,2258.1,86.57142857142857,92.18080166407994,2359.3,839.5714285714286,909.6808016640799,2462.2,839.5714285714286,912.6808016640799,2562.2,829.0714285714286,917.1808016640799,2666.5,784.0714285714286,863.1808016640799,2767,779.5714285714286,848.1808016640799,2868.1,779.5714285714286,848.1808016640799,2972.3,781.0714285714286,818.1808016640799,3079.5,770.5714285714286,773.1808016640799,3182,770.5714285714286,770.1808016640799,3287.2,770.5714285714286,770.1808016640799,3387.2,770.5714285714286,770.1808016640799,3493.9,770.5714285714286,770.1808016640799,3597.4,770.5714285714286,770.1808016640799,3702.1,770.5714285714286,770.1808016640799,3808.1,772.0714285714286,770.1808016640799,3911.3,772.0714285714286,770.1808016640799,4011.3,772.0714285714286,770.1808016640799,4111.6,772.0714285714286,770.1808016640799,4217.1,772.0714285714286,770.1808016640799,4321.5,799.0714285714286,761.1808016640799,4422.3,938.5714285714286,710.1808016640799,4529.3,938.5714285714286,710.1808016640799,4631.2,929.5714285714286,711.6808016640799,4731.3,920.5714285714286,717.6808016640799,4831.6,920.5714285714286,717.6808016640799,4936.3]","[684.8,684.8,1000,0,-315.2,""error"",""-"",""-"",""no_move"",7424.8,6739.8,2071.4,4944.3,409.1,""oops"",""down"",""down"",""good_move"",10800.8,3375.6,2970.1,7425.2,405.5,""oops"",""down"",""down"",""good_move"",14434.6,3633.5,3243.9,10801.1,389.6,""oops"",""right"",""right"",""good_move"",16656.6,2221.7,1806.5,14434.9,415.3,""oops"",""right"",""left"",""bad_move"",19585,2928,2554.7,16657,373.3,""oops"",""right"",""left"",""bad_move"",25848.9,6263.5,3052.8,22364.5,431.6,""oops"",""right"",""left"",""bad_move"",35041.6,9192.4,1970.1,32631.1,440.4,""oops"",""up"",""left"",""bad_move""]","",""
"6209","","<div style=""width:500px;"">
  <p>What determined the result of this run?</p>
  </div>","0","html-slider-response","80","1511666","0.0-10.0-1.8","218","1","2025-07-09 09:28:00","7701e855f2ef39aa3fd6c71abdc6918a","41.114.179.7","Mozilla/5.0 (Windows NT 10.0; Win64; x64) AppleWebKit/537.36 (KHTML, like Gecko) Chrome/138.0.0.0 Safari/537.36","WebKit","Chrome","138.0.0.0","Windows","10.0","https://app.prolific.com/","en-ZA,en-GB;q=0.9,en-US;q=0.8,en;q=0.7","61601e9a6b8306196d2a129c","686d226cabeef709c732f8e1","686e31039610a8a08756c87f","61601e9a6b8306196d2a129c","2025-07-09T09:53:12.526Z","","","","","","AttribQ","","","","","","","","","","","","","","","","","","","","","","","","","","","","","","","","","","","","","","50"
"5486","","<div style=""width:500px;"">
  <p>How much control did you have over the ball?</p>
  </div>","4","html-slider-response","81","1517153","0.0-10.0-2.8","218","1","2025-07-09 09:28:00","7701e855f2ef39aa3fd6c71abdc6918a","41.114.179.7","Mozilla/5.0 (Windows NT 10.0; Win64; x64) AppleWebKit/537.36 (KHTML, like Gecko) Chrome/138.0.0.0 Safari/537.36","WebKit","Chrome","138.0.0.0","Windows","10.0","https://app.prolific.com/","en-ZA,en-GB;q=0.9,en-US;q=0.8,en;q=0.7","61601e9a6b8306196d2a129c","686d226cabeef709c732f8e1","686e31039610a8a08756c87f","61601e9a6b8306196d2a129c","2025-07-09T09:53:18.014Z","","","","","","ControlQ","","","","","","","","","","","","","","","","","","","","","","","","","","","","","","","","","","","","","","50"
"2426","","<div style=""width:500px;"">
  <p>How would you describe your current emotional state?</p>
  </div>","100","html-slider-response","82","1519581","0.0-10.0-3.8","218","1","2025-07-09 09:28:00","7701e855f2ef39aa3fd6c71abdc6918a","41.114.179.7","Mozilla/5.0 (Windows NT 10.0; Win64; x64) AppleWebKit/537.36 (KHTML, like Gecko) Chrome/138.0.0.0 Safari/537.36","WebKit","Chrome","138.0.0.0","Windows","10.0","https://app.prolific.com/","en-ZA,en-GB;q=0.9,en-US;q=0.8,en;q=0.7","61601e9a6b8306196d2a129c","686d226cabeef709c732f8e1","686e31039610a8a08756c87f","61601e9a6b8306196d2a129c","2025-07-09T09:53:20.441Z","","","","","","StressQ","","","","","","","","","","","","","","","","","","","","","","","","","","","","","","","","","","","","","","50"
"3071","","<div style=""width:500px;"">
  <p>What best describes how you currently feel?</p>
  </div>","77","html-slider-response","83","1522653","0.0-10.0-4.8","218","1","2025-07-09 09:28:00","7701e855f2ef39aa3fd6c71abdc6918a","41.114.179.7","Mozilla/5.0 (Windows NT 10.0; Win64; x64) AppleWebKit/537.36 (KHTML, like Gecko) Chrome/138.0.0.0 Safari/537.36","WebKit","Chrome","138.0.0.0","Windows","10.0","https://app.prolific.com/","en-ZA,en-GB;q=0.9,en-US;q=0.8,en;q=0.7","61601e9a6b8306196d2a129c","686d226cabeef709c732f8e1","686e31039610a8a08756c87f","61601e9a6b8306196d2a129c","2025-07-09T09:53:23.513Z","","","","","","MotivationQ","","","","","","","","","","","","","","","","","","","","","","","","","","","","","","","","","","","","","","50"
