"rt","response_timestamp","stimulus","response","trial_type","trial_index","time_elapsed","internal_node_id","run_id","condition","recorded_at","source_code_version","ip","user_agent","device","browser","browser_version","platform","platform_version","referer","accept_language","PROLIFIC_PID","STUDY_ID","SESSION_ID","prolific_id","realtime","view_history","question_order","consent","success","question_id","eventType","responses","item_order","radio_event_ids","radio_event_times","key_event_times","mouse_event_times","straightlining","zigzagging","honeypot","which_type","canvas_config","goals_layout","control_level","trial_number","tutorial_trial_number","trial_start_time","phase1_start_time","phase2_start_time","phase3_start_time","goal_1_value","goal_1_distance","goal_2_value","goal_2_distance","goal_selected","outcome","outcome_total","participant_final_score","participant_initial_score","participant_final_score_prop","goal_choice_rt","allocated_time","allocated_time_remaining","goal_direction","counts","mouse_movements","key_presses","correct","slider_start"
"8819","1752053814180","<p style='font-size:40px;line-height:1.25'><strong>Welcome to the experiment!</strong></p><p style='font-size:1.1em;line-height:1.25'>Thank you for your interest in our experiment! Before you begin, it is important that we obtain your informed consent to participate in the study.</p><p style='font-size:1.1em;line-height:1.25'>On the next screen will be an <strong>information sheet</strong> for you to read. To participate in the study we need you to read this information sheet and the following consent form carefully. If you agree with all the statements, please click the <strong>I agree</strong> button.</p><p style='font-size:1.1em;line-height:1.25'>Press <strong>Next</strong> to read the information sheet.</p>","0","custom-html-button-response","0","8822","0.0-0.0","227","1","2025-07-09 09:36:49","7701e855f2ef39aa3fd6c71abdc6918a","105.245.164.140","Mozilla/5.0 (Windows NT 10.0; Win64; x64) AppleWebKit/537.36 (KHTML, like Gecko) Chrome/137.0.0.0 Safari/537.36","WebKit","Chrome","137.0.0.0","Windows","10.0","https://app.prolific.com/","en-US,en;q=0.9","67c3552b821be870e6f02737","686d226cabeef709c732f8e1","686e35c134648450c9da7773","67c3552b821be870e6f02737","2025-07-09T09:36:54.182Z","","","","","","","","","","","","","","","","","","","","","","","","","","","","","","","","","","","","","","","","","","","",""
"12367","","","","instructions","1","21192","0.0-1.0","227","1","2025-07-09 09:36:49","7701e855f2ef39aa3fd6c71abdc6918a","105.245.164.140","Mozilla/5.0 (Windows NT 10.0; Win64; x64) AppleWebKit/537.36 (KHTML, like Gecko) Chrome/137.0.0.0 Safari/537.36","WebKit","Chrome","137.0.0.0","Windows","10.0","https://app.prolific.com/","en-US,en;q=0.9","67c3552b821be870e6f02737","686d226cabeef709c732f8e1","686e35c134648450c9da7773","67c3552b821be870e6f02737","","[{""page_index"":0,""viewing_time"":7997},{""page_index"":1,""viewing_time"":4368}]","","","","","","","","","","","","","","","","","","","","","","","","","","","","","","","","","","","","","","","","","","",""
"6578","","","{""Q0"":"""",""Q1"":"""",""Q2"":"""",""Q3"":"""",""Q4"":"""",""Q5"":"""",""Q6"":""I agree""}","survey-multi-choice","2","27777","0.0-2.0","227","1","2025-07-09 09:36:49","7701e855f2ef39aa3fd6c71abdc6918a","105.245.164.140","Mozilla/5.0 (Windows NT 10.0; Win64; x64) AppleWebKit/537.36 (KHTML, like Gecko) Chrome/137.0.0.0 Safari/537.36","WebKit","Chrome","137.0.0.0","Windows","10.0","https://app.prolific.com/","en-US,en;q=0.9","67c3552b821be870e6f02737","686d226cabeef709c732f8e1","686e35c134648450c9da7773","67c3552b821be870e6f02737","","","[0,1,2,3,4,5,6]","true","","","","","","","","","","","","","","","","","","","","","","","","","","","","","","","","","","","","","","","","",""
"14478","","","","fullscreen","3","43263","0.0-4.0","227","1","2025-07-09 09:36:49","7701e855f2ef39aa3fd6c71abdc6918a","105.245.164.140","Mozilla/5.0 (Windows NT 10.0; Win64; x64) AppleWebKit/537.36 (KHTML, like Gecko) Chrome/137.0.0.0 Safari/537.36","WebKit","Chrome","137.0.0.0","Windows","10.0","https://app.prolific.com/","en-US,en;q=0.9","67c3552b821be870e6f02737","686d226cabeef709c732f8e1","686e35c134648450c9da7773","67c3552b821be870e6f02737","","","","","true","","","","","","","","","","","","","","","","","","","","","","","","","","","","","","","","","","","","","","","",""
"5959","1752053854584"," <p style='font-size:1.1em;line-height:1.25'>Thank you for completing the consent form and closing all other tabs.</p><p style='font-size:1.1em;line-height:1.25'>We will now invite you to fill in some demographic information and questionnaires, before starting the game.<br>This will take about 5 minutes.<br></p><p style='font-size:1.1em;line-height:1.25'>Press the <strong>Next</strong> button to continue.</p>","0","custom-html-button-response","4","49226","0.0-5.0","227","1","2025-07-09 09:36:49","7701e855f2ef39aa3fd6c71abdc6918a","105.245.164.140","Mozilla/5.0 (Windows NT 10.0; Win64; x64) AppleWebKit/537.36 (KHTML, like Gecko) Chrome/137.0.0.0 Safari/537.36","WebKit","Chrome","137.0.0.0","Windows","10.0","https://app.prolific.com/","en-US,en;q=0.9","67c3552b821be870e6f02737","686d226cabeef709c732f8e1","686e35c134648450c9da7773","67c3552b821be870e6f02737","2025-07-09T09:37:34.585Z","","","","","","","","","","","","","","","","","","","","","","","","","","","","","","","","","","","","","","","","","","","",""
"4684","","","{""age"":""21""}","survey-text","5","53915","0.0-6.0-0.0","227","1","2025-07-09 09:36:49","7701e855f2ef39aa3fd6c71abdc6918a","105.245.164.140","Mozilla/5.0 (Windows NT 10.0; Win64; x64) AppleWebKit/537.36 (KHTML, like Gecko) Chrome/137.0.0.0 Safari/537.36","WebKit","Chrome","137.0.0.0","Windows","10.0","https://app.prolific.com/","en-US,en;q=0.9","67c3552b821be870e6f02737","686d226cabeef709c732f8e1","686e35c134648450c9da7773","67c3552b821be870e6f02737","","","","","","0","demographics","","","","","","","","","","","","","","","","","","","","","","","","","","","","","","","","","","","","","",""
"4163","","","{""gender_identity"":""female/woman""}","survey-multi-choice","6","58080","0.0-6.0-1.0","227","1","2025-07-09 09:36:49","7701e855f2ef39aa3fd6c71abdc6918a","105.245.164.140","Mozilla/5.0 (Windows NT 10.0; Win64; x64) AppleWebKit/537.36 (KHTML, like Gecko) Chrome/137.0.0.0 Safari/537.36","WebKit","Chrome","137.0.0.0","Windows","10.0","https://app.prolific.com/","en-US,en;q=0.9","67c3552b821be870e6f02737","686d226cabeef709c732f8e1","686e35c134648450c9da7773","67c3552b821be870e6f02737","","","[0]","","","1","demographics","","","","","","","","","","","","","","","","","","","","","","","","","","","","","","","","","","","","","",""
"5336","","","{""assigned_sex"":""female""}","survey-multi-choice","7","63418","0.0-6.0-2.0","227","1","2025-07-09 09:36:49","7701e855f2ef39aa3fd6c71abdc6918a","105.245.164.140","Mozilla/5.0 (Windows NT 10.0; Win64; x64) AppleWebKit/537.36 (KHTML, like Gecko) Chrome/137.0.0.0 Safari/537.36","WebKit","Chrome","137.0.0.0","Windows","10.0","https://app.prolific.com/","en-US,en;q=0.9","67c3552b821be870e6f02737","686d226cabeef709c732f8e1","686e35c134648450c9da7773","67c3552b821be870e6f02737","","","[0]","","","2","demographics","","","","","","","","","","","","","","","","","","","","","","","","","","","","","","","","","","","","","",""
"6420","","","{""menstrual_cycle"":""Yes""}","survey-multi-choice","8","69841","0.0-6.0-3.0","227","1","2025-07-09 09:36:49","7701e855f2ef39aa3fd6c71abdc6918a","105.245.164.140","Mozilla/5.0 (Windows NT 10.0; Win64; x64) AppleWebKit/537.36 (KHTML, like Gecko) Chrome/137.0.0.0 Safari/537.36","WebKit","Chrome","137.0.0.0","Windows","10.0","https://app.prolific.com/","en-US,en;q=0.9","67c3552b821be870e6f02737","686d226cabeef709c732f8e1","686e35c134648450c9da7773","67c3552b821be870e6f02737","","","[0]","","","4","demographics","","","","","","","","","","","","","","","","","","","","","","","","","","","","","","","","","","","","","",""
"5053","","","{""education"":""Bachelor's Degree (e.g., BA)""}","survey-multi-choice","9","74896","0.0-6.0-4.0","227","1","2025-07-09 09:36:49","7701e855f2ef39aa3fd6c71abdc6918a","105.245.164.140","Mozilla/5.0 (Windows NT 10.0; Win64; x64) AppleWebKit/537.36 (KHTML, like Gecko) Chrome/137.0.0.0 Safari/537.36","WebKit","Chrome","137.0.0.0","Windows","10.0","https://app.prolific.com/","en-US,en;q=0.9","67c3552b821be870e6f02737","686d226cabeef709c732f8e1","686e35c134648450c9da7773","67c3552b821be870e6f02737","","","[0]","","","5","demographics","","","","","","","","","","","","","","","","","","","","","","","","","","","","","","","","","","","","","",""
"16932","","","{""education"":""Master's Degree (e.g., MSc)""}","survey-multi-choice","10","91829","0.0-6.0-5.0","227","1","2025-07-09 09:36:49","7701e855f2ef39aa3fd6c71abdc6918a","105.245.164.140","Mozilla/5.0 (Windows NT 10.0; Win64; x64) AppleWebKit/537.36 (KHTML, like Gecko) Chrome/137.0.0.0 Safari/537.36","WebKit","Chrome","137.0.0.0","Windows","10.0","https://app.prolific.com/","en-US,en;q=0.9","67c3552b821be870e6f02737","686d226cabeef709c732f8e1","686e35c134648450c9da7773","67c3552b821be870e6f02737","2025-07-09T09:38:17.189Z","","[0]","","","6","demographics","","","","","","","","","","","","","","","","","","","","","","","","","","","","","","","","","","","","","",""
"48430","","","{""mental_health_condition"":""depression"",""mental_health_treatment"":""pyschological therapy"",""psychiatric_medication"":""not anymore""}","survey-text","11","140268","0.0-7.0-0.0","227","1","2025-07-09 09:36:49","7701e855f2ef39aa3fd6c71abdc6918a","105.245.164.140","Mozilla/5.0 (Windows NT 10.0; Win64; x64) AppleWebKit/537.36 (KHTML, like Gecko) Chrome/137.0.0.0 Safari/537.36","WebKit","Chrome","137.0.0.0","Windows","10.0","https://app.prolific.com/","en-US,en;q=0.9","67c3552b821be870e6f02737","686d226cabeef709c732f8e1","686e35c134648450c9da7773","67c3552b821be870e6f02737","2025-07-09T09:39:05.627Z","","","","","1","mental_health","","","","","","","","","","","","","","","","","","","","","","","","","","","","","","","","","","","","","",""
"16018","","","{""depression_history"":[""Yes""]}","survey-multi-select","12","156290","0.0-7.0-1.0","227","1","2025-07-09 09:36:49","7701e855f2ef39aa3fd6c71abdc6918a","105.245.164.140","Mozilla/5.0 (Windows NT 10.0; Win64; x64) AppleWebKit/537.36 (KHTML, like Gecko) Chrome/137.0.0.0 Safari/537.36","WebKit","Chrome","137.0.0.0","Windows","10.0","https://app.prolific.com/","en-US,en;q=0.9","67c3552b821be870e6f02737","686d226cabeef709c732f8e1","686e35c134648450c9da7773","67c3552b821be870e6f02737","","","[0]","","","","mental_health","","","","","","","","","","","","","","","","","","","","","","","","","","","","","","","","","","","","","",""
"26051","","","{""depression_episodes"":""more than 5"",""depression_recent"":""Within the past year""}","survey-multi-choice","13","182343","0.0-7.0-2.0-0.0","227","1","2025-07-09 09:36:49","7701e855f2ef39aa3fd6c71abdc6918a","105.245.164.140","Mozilla/5.0 (Windows NT 10.0; Win64; x64) AppleWebKit/537.36 (KHTML, like Gecko) Chrome/137.0.0.0 Safari/537.36","WebKit","Chrome","137.0.0.0","Windows","10.0","https://app.prolific.com/","en-US,en;q=0.9","67c3552b821be870e6f02737","686d226cabeef709c732f8e1","686e35c134648450c9da7773","67c3552b821be870e6f02737","2025-07-09T09:39:47.702Z","","[0,1]","","","3","mental_health","","","","","","","","","","","","","","","","","","","","","","","","","","","","","","","","","","","","","",""
"88687.29999923706","","","","survey-template","14","271035","0.0-7.0-3.0","227","1","2025-07-09 09:36:49","7701e855f2ef39aa3fd6c71abdc6918a","105.245.164.140","Mozilla/5.0 (Windows NT 10.0; Win64; x64) AppleWebKit/537.36 (KHTML, like Gecko) Chrome/137.0.0.0 Safari/537.36","WebKit","Chrome","137.0.0.0","Windows","10.0","https://app.prolific.com/","en-US,en;q=0.9","67c3552b821be870e6f02737","686d226cabeef709c732f8e1","686e35c134648450c9da7773","67c3552b821be870e6f02737","2025-07-09T09:41:16.394Z","","","","","","ius","{""Q01"":""3"",""Q02"":""4"",""Q03"":""4"",""Q04"":""3"",""Q05"":""4"",""Q06"":""4"",""Q07"":""4"",""Q08"":""0"",""Q09"":""4"",""Q10"":""3"",""Q11"":""3"",""Q12"":""4"",""Q13"":""4""}","[0,1,2,3,4,5,6,7,8,9,10,11,12]","[""Q01"",""Q02"",""Q03"",""Q04"",""Q05"",""Q06"",""Q07"",""Q08"",""Q09"",""Q10"",""Q11"",""Q11"",""Q12"",""Q13""]","[15901.599999427795,20412.699999809265,25724.29999923706,32746,41554.5,50502.599999427795,52966.599999427795,59601.29999923706,65884.69999980927,70978.69999980927,72769,74765.5999994278,83073.29999923706,87395.19999980927]","[]","[15901.599999427795,20412.699999809265,25724.29999923706,32746,41554.5,50502.599999427795,52966.599999427795,59601.29999923706,65884.69999980927,68740.39999961853,70978.69999980927,72769,74765.5999994278,83073.29999923706,87395.19999980927,88682.69999980927]","0.6153846153846154","0.5833333333333334","0","","","","","","","","","","","","","","","","","","","","","","","","","","","","",""
"6002","1752054082398","<p style='font-size:1.1em;line-height:1.25'>In the following, we will ask you a few questions relating to your experiences over the past month.<br></p><p style='font-size:1.1em;line-height:1.25'>Press the <strong>Next</strong> button to continue.</p>","0","custom-html-button-response","15","277039","0.0-7.0-4.0","227","1","2025-07-09 09:36:49","7701e855f2ef39aa3fd6c71abdc6918a","105.245.164.140","Mozilla/5.0 (Windows NT 10.0; Win64; x64) AppleWebKit/537.36 (KHTML, like Gecko) Chrome/137.0.0.0 Safari/537.36","WebKit","Chrome","137.0.0.0","Windows","10.0","https://app.prolific.com/","en-US,en;q=0.9","67c3552b821be870e6f02737","686d226cabeef709c732f8e1","686e35c134648450c9da7773","67c3552b821be870e6f02737","2025-07-09T09:41:22.398Z","","","","","","","","","","","","","","","","","","","","","","","","","","","","","","","","","","","","","","","","","","","",""
"90628.9000005722","","","","survey-template","16","367671","0.0-7.0-5.0","227","1","2025-07-09 09:36:49","7701e855f2ef39aa3fd6c71abdc6918a","105.245.164.140","Mozilla/5.0 (Windows NT 10.0; Win64; x64) AppleWebKit/537.36 (KHTML, like Gecko) Chrome/137.0.0.0 Safari/537.36","WebKit","Chrome","137.0.0.0","Windows","10.0","https://app.prolific.com/","en-US,en;q=0.9","67c3552b821be870e6f02737","686d226cabeef709c732f8e1","686e35c134648450c9da7773","67c3552b821be870e6f02737","2025-07-09T09:42:53.030Z","","","","","","pss","{""Q01"":""3"",""Q02"":""3"",""Q03"":""3"",""Q04"":""1"",""Q05"":""1"",""Q06"":""4"",""Q07"":""2"",""Q08"":""2"",""Q09"":""4"",""Q10"":""3""}","[0,1,2,3,4,5,6,7,8,9]","[""Q01"",""Q02"",""Q03"",""Q04"",""Q05"",""Q05"",""Q06"",""Q07"",""Q08"",""Q09"",""Q10""]","[8504.199999809265,16901.900000572205,19916.10000038147,26608.199999809265,33859.199999809265,42845.900000572205,52635.5,61242.10000038147,68658.69999980927,82033.19999980927,89258.60000038147]","[]","[0,8504.199999809265,16901.900000572205,19916.10000038147,26608.199999809265,33859.199999809265,42845.900000572205,52635.5,61242.10000038147,68658.69999980927,80036.60000038147,82033.19999980927,87644.4000005722,89258.60000038147,90624.80000019073]","0.6","0.2222222222222222","0","","","","","","","","","","","","","","","","","","","","","","","","","","","","",""
"4155","1752054177187","<p style='font-size:1.1em;line-height:1.25'>Thank you for your answers! Now we will ask you a few more questions relating to your feelings in the last 24 hours.<br></p><p style='font-size:1.1em;line-height:1.25'>Press the <strong>Next</strong> button to continue.</p>","0","custom-html-button-response","17","371828","0.0-7.0-6.0","227","1","2025-07-09 09:36:49","7701e855f2ef39aa3fd6c71abdc6918a","105.245.164.140","Mozilla/5.0 (Windows NT 10.0; Win64; x64) AppleWebKit/537.36 (KHTML, like Gecko) Chrome/137.0.0.0 Safari/537.36","WebKit","Chrome","137.0.0.0","Windows","10.0","https://app.prolific.com/","en-US,en;q=0.9","67c3552b821be870e6f02737","686d226cabeef709c732f8e1","686e35c134648450c9da7773","67c3552b821be870e6f02737","2025-07-09T09:42:57.188Z","","","","","","","","","","","","","","","","","","","","","","","","","","","","","","","","","","","","","","","","","","","",""
"114276.69999980927","","","","survey-template","18","486114","0.0-7.0-7.0","227","1","2025-07-09 09:36:49","7701e855f2ef39aa3fd6c71abdc6918a","105.245.164.140","Mozilla/5.0 (Windows NT 10.0; Win64; x64) AppleWebKit/537.36 (KHTML, like Gecko) Chrome/137.0.0.0 Safari/537.36","WebKit","Chrome","137.0.0.0","Windows","10.0","https://app.prolific.com/","en-US,en;q=0.9","67c3552b821be870e6f02737","686d226cabeef709c732f8e1","686e35c134648450c9da7773","67c3552b821be870e6f02737","2025-07-09T09:44:51.473Z","","","","","","drsp","{""Q01"":""3"",""Q02"":""1"",""Q03"":""2"",""Q04"":""3"",""Q05"":""4"",""Q06"":""4"",""Q07"":""5"",""Q08"":""5"",""Q09"":""4"",""Q10"":""5"",""Q11"":""5"",""Q12"":""0"",""Q13"":""0"",""Q14"":""5"",""Q15"":""1"",""Q16"":""5"",""Q17"":""4"",""Q18"":""3"",""Q19"":""4"",""Q20"":""4"",""Q21"":""4""}","[0,1,2,3,4,5,6,7,8,9,10,11,12,13,14,15,16,17,18,19,20]","[""Q01"",""Q02"",""Q03"",""Q04"",""Q05"",""Q06"",""Q07"",""Q08"",""Q09"",""Q10"",""Q11"",""Q12"",""Q13"",""Q14"",""Q15"",""Q16"",""Q17"",""Q18"",""Q19"",""Q20"",""Q21""]","[6007.199999809265,12498.10000038147,18299.699999809265,28786.300000190735,30517.699999809265,36136.800000190735,38201.10000038147,41081.10000038147,51310.10000038147,53016.900000572205,55096.699999809265,57977.699999809265,60386,64194.800000190735,77756,82715.10000038147,90740.30000019073,97731,106679.19999980927,109949.80000019073,113029.4000005722]","[]","[0.10000038146972656,6007.199999809265,12498.10000038147,18299.699999809265,28786.300000190735,30517.699999809265,36136.800000190735,38201.10000038147,39982.400000572205,41081.10000038147,51310.10000038147,53016.900000572205,55096.699999809265,57977.699999809265,60386,63005.400000572205,64194.800000190735,77756,82715.10000038147,90740.30000019073,97731,106679.19999980927,109949.80000019073,113029.4000005722,114256.4000005722]","0.3333333333333333","0.55","0","","","","","","","","","","","","","","","","","","","","","","","","","","","","",""
"26019.5","","","","survey-template","19","512137","0.0-7.0-8.0","227","1","2025-07-09 09:36:49","7701e855f2ef39aa3fd6c71abdc6918a","105.245.164.140","Mozilla/5.0 (Windows NT 10.0; Win64; x64) AppleWebKit/537.36 (KHTML, like Gecko) Chrome/137.0.0.0 Safari/537.36","WebKit","Chrome","137.0.0.0","Windows","10.0","https://app.prolific.com/","en-US,en;q=0.9","67c3552b821be870e6f02737","686d226cabeef709c732f8e1","686e35c134648450c9da7773","67c3552b821be870e6f02737","2025-07-09T09:45:17.496Z","","","","","","stress","{""Q01"":""2"",""Q02"":""4"",""Q03"":""3""}","[0,1,2]","[""Q01"",""Q02"",""Q03""]","[10511.599999427795,14982.199999809265,21800.79999923706]","[]","[10511.599999427795,14982.199999809265,21800.79999923706,26018.29999923706]","0.3333333333333333","0.5","0","","","","","","","","","","","","","","","","","","","","","","","","","","","","",""
"133367","","","","instructions","20","645505","0.0-8.0-0.0","227","1","2025-07-09 09:36:49","7701e855f2ef39aa3fd6c71abdc6918a","105.245.164.140","Mozilla/5.0 (Windows NT 10.0; Win64; x64) AppleWebKit/537.36 (KHTML, like Gecko) Chrome/137.0.0.0 Safari/537.36","WebKit","Chrome","137.0.0.0","Windows","10.0","https://app.prolific.com/","en-US,en;q=0.9","67c3552b821be870e6f02737","686d226cabeef709c732f8e1","686e35c134648450c9da7773","67c3552b821be870e6f02737","","[{""page_index"":0,""viewing_time"":38827},{""page_index"":1,""viewing_time"":34525},{""page_index"":2,""viewing_time"":35243},{""page_index"":3,""viewing_time"":24771}]","","","","","","","","","","","","","","","","","","","","","","","","","","","","","","","","","","","","","","","","","","",""
"","","","","ctl-task-cpt","21","668541","0.0-8.0-1.0","227","1","2025-07-09 09:36:49","7701e855f2ef39aa3fd6c71abdc6918a","105.245.164.140","Mozilla/5.0 (Windows NT 10.0; Win64; x64) AppleWebKit/537.36 (KHTML, like Gecko) Chrome/137.0.0.0 Safari/537.36","WebKit","Chrome","137.0.0.0","Windows","10.0","https://app.prolific.com/","en-US,en;q=0.9","67c3552b821be870e6f02737","686d226cabeef709c732f8e1","686e35c134648450c9da7773","67c3552b821be870e6f02737","","","","","","","","","","","","","","","","","win-only","1","g1:NE,g2:SW","1","0","1","648673.1","4686.9","8689.1","20028.9","2","4","4","6","1","2","1","1","0","0.007575757575757576","2405.5","4000","2590","[""up"",""right""]","{""num_key_presses"":6,""num_perfect"":4,""num_errors"":1,""num_randdir"":0,""num_randdir_good_moves"":0,""num_whilered"":1,""num_whileblue"":0,""num_blue"":0,""num_good_moves"":4}","[277.1745535714286,275.0651785714286,0.4,277.1745535714286,275.0651785714286,105.9,277.1745535714286,275.0651785714286,205.8,277.1745535714286,275.0651785714286,305.9,277.1745535714286,275.0651785714286,417.7,277.1745535714286,275.0651785714286,519.4,277.1745535714286,275.0651785714286,621.7,277.1745535714286,275.0651785714286,724.5,277.1745535714286,275.0651785714286,828.1,139.1745535714286,497.0651785714286,938.7,105.17455357142858,559.0651785714285,1039.1,96.17455357142858,574.0651785714285,1139.2,81.17455357142858,564.0651785714285,1248.8,64.17455357142858,519.0651785714285,1356.3,59.174553571428575,509.0651785714286,1459.5,249.1745535714286,329.0651785714286,1568.8,541.1745535714285,38.065178571428575,1671.6,564.1745535714285,33.065178571428575,1779.2,568.1745535714285,36.065178571428575,1888,552.1745535714285,39.065178571428575,1992.1,535.1745535714285,39.065178571428575,2099.7,526.1745535714285,39.065178571428575,2203.8,526.1745535714285,39.065178571428575,2304.8,526.1745535714285,39.065178571428575,2421.8,526.1745535714285,39.065178571428575,2530.5,526.1745535714285,39.065178571428575,2636.3,526.1745535714285,39.065178571428575,2749.4,526.1745535714285,39.065178571428575,2852.9,526.1745535714285,39.065178571428575,2959.3,526.1745535714285,39.065178571428575,3067.4,526.1745535714285,39.065178571428575,3167.9,526.1745535714285,39.065178571428575,3268.8,526.1745535714285,39.065178571428575,3368.8,526.1745535714285,39.065178571428575,3470,526.1745535714285,39.065178571428575,3579.1,526.1745535714285,39.065178571428575,3681.9,526.1745535714285,39.065178571428575,3784.1,526.1745535714285,39.065178571428575,3885.1,526.1745535714285,39.065178571428575,3997.5]","[1606.7,1606.6,1000,0.1,606.6,""smooth"",""right"",""right"",""good_move"",1894.4,287,1625.9,1607.6,-1339.1,""error"",""-"",""-"",""no_move"",2355.8,460.8,1625.9,1607.6,-877.7,""while_red"",""-"",""-"",""no_move"",5842,3947,2439.5,2895.8,506.7,""smooth"",""right"",""right"",""good_move"",8721.8,2879.2,2265.7,5842.7,613.5,""smooth"",""up"",""up"",""good_move"",11222.1,2499,2061.6,8723.1,437.4,""smooth"",""up"",""up"",""good_move""]","",""
"23737","","","","instructions","22","692279","0.0-8.0-2.0","227","1","2025-07-09 09:36:49","7701e855f2ef39aa3fd6c71abdc6918a","105.245.164.140","Mozilla/5.0 (Windows NT 10.0; Win64; x64) AppleWebKit/537.36 (KHTML, like Gecko) Chrome/137.0.0.0 Safari/537.36","WebKit","Chrome","137.0.0.0","Windows","10.0","https://app.prolific.com/","en-US,en;q=0.9","67c3552b821be870e6f02737","686d226cabeef709c732f8e1","686e35c134648450c9da7773","67c3552b821be870e6f02737","","[{""page_index"":0,""viewing_time"":23737}]","","","","","","","","","","","","","","","","","","","","","","","","","","","","","","","","","","","","","","","","","","",""
"","","","","ctl-task-cpt","23","731452","0.0-8.0-3.0","227","1","2025-07-09 09:36:49","7701e855f2ef39aa3fd6c71abdc6918a","105.245.164.140","Mozilla/5.0 (Windows NT 10.0; Win64; x64) AppleWebKit/537.36 (KHTML, like Gecko) Chrome/137.0.0.0 Safari/537.36","WebKit","Chrome","137.0.0.0","Windows","10.0","https://app.prolific.com/","en-US,en;q=0.9","67c3552b821be870e6f02737","686d226cabeef709c732f8e1","686e35c134648450c9da7773","67c3552b821be870e6f02737","","","","","","","","","","","","","","","","","win-only","1","g1:NE,g2:SW","0.35","0","3","695444.9","4585.2","8585.9","36162.6","2","4","8","6","1","2","1","1","0","0.007575757575757576","1604.8","4000","160","[""up"",""right""]","{""num_key_presses"":9,""num_perfect"":3,""num_errors"":1,""num_randdir"":5,""num_randdir_good_moves"":3,""num_whilered"":0,""num_whileblue"":0,""num_blue"":1,""num_good_moves"":6}","[272.1745535714286,270.0651785714286,0.5,272.1745535714286,270.0651785714286,108.9,272.1745535714286,270.0651785714286,216,272.1745535714286,270.0651785714286,318.9,272.1745535714286,270.0651785714286,420.2,272.1745535714286,270.0651785714286,529.5,272.1745535714286,270.0651785714286,631.5,272.1745535714286,270.0651785714286,743.4,367.1745535714286,152.0651785714286,847.7,450.1745535714286,98.06517857142858,952,477.1745535714286,87.06517857142858,1060.6,477.1745535714286,87.06517857142858,1170.3,477.1745535714286,87.06517857142858,1271.1,486.1745535714286,69.06517857142858,1375,486.1745535714286,68.06517857142858,1475.5,486.1745535714286,68.06517857142858,1580.2,486.1745535714286,68.06517857142858,1681.1,486.1745535714286,68.06517857142858,1789,486.1745535714286,68.06517857142858,1890.5,486.1745535714286,68.06517857142858,1991.8,486.1745535714286,68.06517857142858,2095.3,486.1745535714286,68.06517857142858,2197.8,486.1745535714286,68.06517857142858,2309.3,486.1745535714286,68.06517857142858,2414.5,486.1745535714286,68.06517857142858,2515.2,486.1745535714286,68.06517857142858,2615.6,486.1745535714286,68.06517857142858,2724.3,486.1745535714286,68.06517857142858,2829,486.1745535714286,68.06517857142858,2930.7,486.1745535714286,68.06517857142858,3033.3,486.1745535714286,68.06517857142858,3140,486.1745535714286,68.06517857142858,3240.3,486.1745535714286,68.06517857142858,3343.8,486.1745535714286,68.06517857142858,3448.6,486.1745535714286,68.06517857142858,3555.2,486.1745535714286,68.06517857142858,3659.3,486.1745535714286,68.06517857142858,3760.8,486.1745535714286,68.06517857142858,3860.9,486.1745535714286,68.06517857142858,3961]","[5297.9,5297.9,2810.2,2017.6,470.1,""oops"",""right"",""down"",""bad_move"",6523.9,1225.5,2731,5298.6,-1505.6,""error"",""-"",""-"",""no_move"",10427,3902.8,2002.8,7528.3,896,""smooth"",""up"",""up"",""good_move"",13816.2,3388.8,2455.8,10427.4,933.1,""oops"",""right"",""left"",""bad_move"",16642,2825.3,2126.6,13816.7,698.7,""oops"",""right"",""right"",""good_move"",19804.6,3162.2,2275,16642.5,887.1,""smooth"",""right"",""right"",""good_move"",22644.6,2839.1,2224.4,19805.5,614.7,""oops"",""right"",""up"",""good_move"",25337,2692,1893,22645,799,""smooth"",""right"",""right"",""good_move"",27452.4,2115,1637.6,25337.4,477.4,""oops"",""up"",""up"",""good_move""]","",""
"5140","","","","instructions","24","736593","0.0-8.0-4.0","227","1","2025-07-09 09:36:49","7701e855f2ef39aa3fd6c71abdc6918a","105.245.164.140","Mozilla/5.0 (Windows NT 10.0; Win64; x64) AppleWebKit/537.36 (KHTML, like Gecko) Chrome/137.0.0.0 Safari/537.36","WebKit","Chrome","137.0.0.0","Windows","10.0","https://app.prolific.com/","en-US,en;q=0.9","67c3552b821be870e6f02737","686d226cabeef709c732f8e1","686e35c134648450c9da7773","67c3552b821be870e6f02737","","[{""page_index"":0,""viewing_time"":2389},{""page_index"":1,""viewing_time"":2750}]","","","","","","","","","","","","","","","","","","","","","","","","","","","","","","","","","","","","","","","","","","",""
"23816","","","{""green_ball"":[""Ball sometimes shakes and moves in a random direction""]}","survey-multi-select","25","760412","0.0-8.0-5.0-0.0","227","1","2025-07-09 09:36:49","7701e855f2ef39aa3fd6c71abdc6918a","105.245.164.140","Mozilla/5.0 (Windows NT 10.0; Win64; x64) AppleWebKit/537.36 (KHTML, like Gecko) Chrome/137.0.0.0 Safari/537.36","WebKit","Chrome","137.0.0.0","Windows","10.0","https://app.prolific.com/","en-US,en;q=0.9","67c3552b821be870e6f02737","686d226cabeef709c732f8e1","686e35c134648450c9da7773","67c3552b821be870e6f02737","","","[0]","","","","quiz","","","","","","","","","","","","","","","","","","","","","","","","","","","","","","","","","","","","","true",""
"2372","","<p align='center'><b>CORRECT!</b> Indeed, the green ball may sometimes shake and move in a random direction.</p>","0","html-button-response","26","762786","0.0-8.0-5.0-1.0","227","1","2025-07-09 09:36:49","7701e855f2ef39aa3fd6c71abdc6918a","105.245.164.140","Mozilla/5.0 (Windows NT 10.0; Win64; x64) AppleWebKit/537.36 (KHTML, like Gecko) Chrome/137.0.0.0 Safari/537.36","WebKit","Chrome","137.0.0.0","Windows","10.0","https://app.prolific.com/","en-US,en;q=0.9","67c3552b821be870e6f02737","686d226cabeef709c732f8e1","686e35c134648450c9da7773","67c3552b821be870e6f02737","","","","","","","","","","","","","","","","","","","","","","","","","","","","","","","","","","","","","","","","","","","","",""
"8603","","","{""yellow_ball"":[""Ball doesn‘t move and I get -1 penalty point""]}","survey-multi-select","27","771391","0.0-8.0-6.0-0.0","227","1","2025-07-09 09:36:49","7701e855f2ef39aa3fd6c71abdc6918a","105.245.164.140","Mozilla/5.0 (Windows NT 10.0; Win64; x64) AppleWebKit/537.36 (KHTML, like Gecko) Chrome/137.0.0.0 Safari/537.36","WebKit","Chrome","137.0.0.0","Windows","10.0","https://app.prolific.com/","en-US,en;q=0.9","67c3552b821be870e6f02737","686d226cabeef709c732f8e1","686e35c134648450c9da7773","67c3552b821be870e6f02737","","","[0]","","","","quiz","","","","","","","","","","","","","","","","","","","","","","","","","","","","","","","","","","","","","true",""
"1732","","<p align='center'><b>CORRECT!</b> Indeed, the yellow ball never moves and you receive a penalty.</p>","0","html-button-response","28","773124","0.0-8.0-6.0-1.0","227","1","2025-07-09 09:36:49","7701e855f2ef39aa3fd6c71abdc6918a","105.245.164.140","Mozilla/5.0 (Windows NT 10.0; Win64; x64) AppleWebKit/537.36 (KHTML, like Gecko) Chrome/137.0.0.0 Safari/537.36","WebKit","Chrome","137.0.0.0","Windows","10.0","https://app.prolific.com/","en-US,en;q=0.9","67c3552b821be870e6f02737","686d226cabeef709c732f8e1","686e35c134648450c9da7773","67c3552b821be870e6f02737","","","","","","","","","","","","","","","","","","","","","","","","","","","","","","","","","","","","","","","","","","","","",""
"7172","","","{""blue_ball"":[""Ball doesn‘t move and I get -1 penalty point""]}","survey-multi-select","29","780298","0.0-8.0-7.0-0.0","227","1","2025-07-09 09:36:49","7701e855f2ef39aa3fd6c71abdc6918a","105.245.164.140","Mozilla/5.0 (Windows NT 10.0; Win64; x64) AppleWebKit/537.36 (KHTML, like Gecko) Chrome/137.0.0.0 Safari/537.36","WebKit","Chrome","137.0.0.0","Windows","10.0","https://app.prolific.com/","en-US,en;q=0.9","67c3552b821be870e6f02737","686d226cabeef709c732f8e1","686e35c134648450c9da7773","67c3552b821be870e6f02737","","","[0]","","","","quiz","","","","","","","","","","","","","","","","","","","","","","","","","","","","","","","","","","","","","false",""
"3792","","<p align='center'><b>INCORRECT.</b> The blue ball always shakes and moves randomly.</p>","0","html-button-response","30","784092","0.0-8.0-7.0-1.0","227","1","2025-07-09 09:36:49","7701e855f2ef39aa3fd6c71abdc6918a","105.245.164.140","Mozilla/5.0 (Windows NT 10.0; Win64; x64) AppleWebKit/537.36 (KHTML, like Gecko) Chrome/137.0.0.0 Safari/537.36","WebKit","Chrome","137.0.0.0","Windows","10.0","https://app.prolific.com/","en-US,en;q=0.9","67c3552b821be870e6f02737","686d226cabeef709c732f8e1","686e35c134648450c9da7773","67c3552b821be870e6f02737","","","","","","","","","","","","","","","","","","","","","","","","","","","","","","","","","","","","","","","","","","","","",""
"88021","","","{""blue_ball"":[""Ball always shakes and moves in a random direction""]}","survey-multi-select","31","872116","0.0-8.0-7.1-0.1","227","1","2025-07-09 09:36:49","7701e855f2ef39aa3fd6c71abdc6918a","105.245.164.140","Mozilla/5.0 (Windows NT 10.0; Win64; x64) AppleWebKit/537.36 (KHTML, like Gecko) Chrome/137.0.0.0 Safari/537.36","WebKit","Chrome","137.0.0.0","Windows","10.0","https://app.prolific.com/","en-US,en;q=0.9","67c3552b821be870e6f02737","686d226cabeef709c732f8e1","686e35c134648450c9da7773","67c3552b821be870e6f02737","","","[0]","","","","quiz","","","","","","","","","","","","","","","","","","","","","","","","","","","","","","","","","","","","","true",""
"1777","","<p align='center'><b>CORRECT!</b> Indeed, the blue ball always shakes and moves in a random direction. Also there is a penalty of -1 point.</p>","0","html-button-response","32","873896","0.0-8.0-7.1-1.1","227","1","2025-07-09 09:36:49","7701e855f2ef39aa3fd6c71abdc6918a","105.245.164.140","Mozilla/5.0 (Windows NT 10.0; Win64; x64) AppleWebKit/537.36 (KHTML, like Gecko) Chrome/137.0.0.0 Safari/537.36","WebKit","Chrome","137.0.0.0","Windows","10.0","https://app.prolific.com/","en-US,en;q=0.9","67c3552b821be870e6f02737","686d226cabeef709c732f8e1","686e35c134648450c9da7773","67c3552b821be870e6f02737","","","","","","","","","","","","","","","","","","","","","","","","","","","","","","","","","","","","","","","","","","","","",""
"165115","","","{""bonus"":[""When I reach 50% of points""]}","survey-multi-select","33","1039012","0.0-8.0-8.0-0.0","227","1","2025-07-09 09:36:49","7701e855f2ef39aa3fd6c71abdc6918a","105.245.164.140","Mozilla/5.0 (Windows NT 10.0; Win64; x64) AppleWebKit/537.36 (KHTML, like Gecko) Chrome/137.0.0.0 Safari/537.36","WebKit","Chrome","137.0.0.0","Windows","10.0","https://app.prolific.com/","en-US,en;q=0.9","67c3552b821be870e6f02737","686d226cabeef709c732f8e1","686e35c134648450c9da7773","67c3552b821be870e6f02737","","","[0]","","","","quiz","","","","","","","","","","","","","","","","","","","","","","","","","","","","","","","","","","","","","true",""
"3118","","<p align='center'><b>CORRECT!</b> Indeed, you receive 2 pounds extra when you reach 50% of points.</p>","0","html-button-response","34","1042133","0.0-8.0-8.0-1.0","227","1","2025-07-09 09:36:49","7701e855f2ef39aa3fd6c71abdc6918a","105.245.164.140","Mozilla/5.0 (Windows NT 10.0; Win64; x64) AppleWebKit/537.36 (KHTML, like Gecko) Chrome/137.0.0.0 Safari/537.36","WebKit","Chrome","137.0.0.0","Windows","10.0","https://app.prolific.com/","en-US,en;q=0.9","67c3552b821be870e6f02737","686d226cabeef709c732f8e1","686e35c134648450c9da7773","67c3552b821be870e6f02737","","","","","","","","","","","","","","","","","","","","","","","","","","","","","","","","","","","","","","","","","","","","",""
"3570","","","","instructions","35","1045704","0.0-8.0-9.0","227","1","2025-07-09 09:36:49","7701e855f2ef39aa3fd6c71abdc6918a","105.245.164.140","Mozilla/5.0 (Windows NT 10.0; Win64; x64) AppleWebKit/537.36 (KHTML, like Gecko) Chrome/137.0.0.0 Safari/537.36","WebKit","Chrome","137.0.0.0","Windows","10.0","https://app.prolific.com/","en-US,en;q=0.9","67c3552b821be870e6f02737","686d226cabeef709c732f8e1","686e35c134648450c9da7773","67c3552b821be870e6f02737","","[{""page_index"":0,""viewing_time"":3569}]","","","","","","","","","","","","","","","","","","","","","","","","","","","","","","","","","","","","","","","","","","",""
"28389","","<p>Before you start with this game please answer the following three questions yourself. </p>
  <p>Through this game, we measure several aspects of your cognitive performance, such as reaction times, multi-tasking capabilities </p>
  <p>and the ability to assess the situation you are in.</p>
  <p></p>
  <p><b>How good do you usually are in such tasks?</b></p>","89","html-slider-response","36","1074095","0.0-9.0-0.0","227","1","2025-07-09 09:36:49","7701e855f2ef39aa3fd6c71abdc6918a","105.245.164.140","Mozilla/5.0 (Windows NT 10.0; Win64; x64) AppleWebKit/537.36 (KHTML, like Gecko) Chrome/137.0.0.0 Safari/537.36","WebKit","Chrome","137.0.0.0","Windows","10.0","https://app.prolific.com/","en-US,en;q=0.9","67c3552b821be870e6f02737","686d226cabeef709c732f8e1","686e35c134648450c9da7773","67c3552b821be870e6f02737","2025-07-09T09:54:39.454Z","","","","","","PreSkillQ","","","","","","","","","","","","","","","","","","","","","","","","","","","","","","","","","","","","","","50"
"6284","","<div style=""width:500px;"">
  <p>How well do you think you will perform in this task compared to other participants?</p>
  </div>","89","html-slider-response","37","1080381","0.0-9.0-1.0","227","1","2025-07-09 09:36:49","7701e855f2ef39aa3fd6c71abdc6918a","105.245.164.140","Mozilla/5.0 (Windows NT 10.0; Win64; x64) AppleWebKit/537.36 (KHTML, like Gecko) Chrome/137.0.0.0 Safari/537.36","WebKit","Chrome","137.0.0.0","Windows","10.0","https://app.prolific.com/","en-US,en;q=0.9","67c3552b821be870e6f02737","686d226cabeef709c732f8e1","686e35c134648450c9da7773","67c3552b821be870e6f02737","2025-07-09T09:54:45.740Z","","","","","","PrePerfQ","","","","","","","","","","","","","","","","","","","","","","","","","","","","","","","","","","","","","","50"
"8102","","<div style=""width:500px;"">
  <p>What best describes how you currently feel?</p>
  </div>","52","html-slider-response","38","1088485","0.0-9.0-2.0","227","1","2025-07-09 09:36:49","7701e855f2ef39aa3fd6c71abdc6918a","105.245.164.140","Mozilla/5.0 (Windows NT 10.0; Win64; x64) AppleWebKit/537.36 (KHTML, like Gecko) Chrome/137.0.0.0 Safari/537.36","WebKit","Chrome","137.0.0.0","Windows","10.0","https://app.prolific.com/","en-US,en;q=0.9","67c3552b821be870e6f02737","686d226cabeef709c732f8e1","686e35c134648450c9da7773","67c3552b821be870e6f02737","2025-07-09T09:54:53.844Z","","","","","","PreMotivationQ","","","","","","","","","","","","","","","","","","","","","","","","","","","","","","","","","","","","","","50"
"","","","","ctl-task-cpt","39","1116544","0.0-10.0-0.0","227","1","2025-07-09 09:36:49","7701e855f2ef39aa3fd6c71abdc6918a","105.245.164.140","Mozilla/5.0 (Windows NT 10.0; Win64; x64) AppleWebKit/537.36 (KHTML, like Gecko) Chrome/137.0.0.0 Safari/537.36","WebKit","Chrome","137.0.0.0","Windows","10.0","https://app.prolific.com/","en-US,en;q=0.9","67c3552b821be870e6f02737","686d226cabeef709c732f8e1","686e35c134648450c9da7773","67c3552b821be870e6f02737","2025-07-09T09:55:21.903Z","","","","","","","","","","","","","","","","win-only","1","g1:NE,g2:SW","1","1","0","1091653.7","2666.4","7674.5","25050","1","4","8","6","1","1","0","0","0","0","1882.6","3000","1265","[""up"",""right""]","{""num_key_presses"":5,""num_perfect"":4,""num_errors"":1,""num_randdir"":0,""num_randdir_good_moves"":0,""num_whilered"":0,""num_whileblue"":0,""num_blue"":1,""num_good_moves"":4}","[274.1745535714286,277.0651785714286,0.6,274.1745535714286,277.0651785714286,108.9,274.1745535714286,277.0651785714286,210.4,274.1745535714286,277.0651785714286,317,274.1745535714286,277.0651785714286,419.2,274.1745535714286,277.0651785714286,519.6,274.1745535714286,277.0651785714286,625.2,274.1745535714286,277.0651785714286,726.5,274.1745535714286,277.0651785714286,826.9,274.1745535714286,277.0651785714286,927,274.1745535714286,277.0651785714286,1029.5,392.1745535714286,191.0651785714286,1132.3,454.1745535714286,138.0651785714286,1234.1,518.1745535714285,85.06517857142858,1341.4,525.1745535714285,78.06517857142858,1449,521.1745535714285,65.06517857142858,1550.8,515.1745535714285,59.065178571428575,1659.7,514.1745535714285,59.065178571428575,1771.1,514.1745535714285,59.065178571428575,1875.8,514.1745535714285,59.065178571428575,1978.5,514.1745535714285,59.065178571428575,2079.6,514.1745535714285,59.065178571428575,2191.5,514.1745535714285,59.065178571428575,2293.3,514.1745535714285,59.065178571428575,2401,514.1745535714285,59.065178571428575,2508.6,514.1745535714285,59.065178571428575,2611.8,514.1745535714285,59.065178571428575,2720.5,514.1745535714285,59.065178571428575,2828.3,514.1745535714285,59.065178571428575,2928.4,514.1745535714285,59.065178571428575,3028.4,514.1745535714285,59.065178571428575,3132.9,514.1745535714285,59.065178571428575,3234.8,514.1745535714285,59.065178571428575,3340.3,514.1745535714285,59.065178571428575,3440.3,514.1745535714285,59.065178571428575,3550.5,514.1745535714285,59.065178571428575,3653.8,514.1745535714285,59.065178571428575,3756.5,514.1745535714285,59.065178571428575,3869.6,514.1745535714285,59.065178571428575,3973.1,514.1745535714285,59.065178571428575,4077.3,514.1745535714285,59.065178571428575,4179.6,514.1745535714285,59.065178571428575,4282.8,514.1745535714285,59.065178571428575,4389.3,514.1745535714285,59.065178571428575,4489.7,514.1745535714285,59.065178571428575,4590.4,514.1745535714285,59.065178571428575,4700.3,514.1745535714285,59.065178571428575,4805.5,514.1745535714285,59.065178571428575,4908.3]","[5603.3,5603.3,3059.8,2022.9,520.6,""smooth"",""right"",""right"",""good_move"",6253,649.1,2518.2,5603.9,-1869.1,""error"",""-"",""-"",""no_move"",10489.9,4236.7,2429.7,7260.9,799.4,""smooth"",""right"",""right"",""good_move"",13368.6,2878.2,2373.4,10490.4,504.8,""smooth"",""up"",""up"",""good_move"",17229,3859.7,2925.1,13369.4,934.6,""smooth"",""up"",""up"",""good_move""]","",""
"8911","","<div style=""width:500px;"">
  <p>What determined the result of this run?</p>
  </div>","100","html-slider-response","40","1125457","0.0-10.0-1.0","227","1","2025-07-09 09:36:49","7701e855f2ef39aa3fd6c71abdc6918a","105.245.164.140","Mozilla/5.0 (Windows NT 10.0; Win64; x64) AppleWebKit/537.36 (KHTML, like Gecko) Chrome/137.0.0.0 Safari/537.36","WebKit","Chrome","137.0.0.0","Windows","10.0","https://app.prolific.com/","en-US,en;q=0.9","67c3552b821be870e6f02737","686d226cabeef709c732f8e1","686e35c134648450c9da7773","67c3552b821be870e6f02737","2025-07-09T09:55:30.816Z","","","","","","AttribQ","","","","","","","","","","","","","","","","","","","","","","","","","","","","","","","","","","","","","","50"
"14290","","<div style=""width:500px;"">
  <p>How much control did you have over the ball?</p>
  </div>","99","html-slider-response","41","1139749","0.0-10.0-2.0","227","1","2025-07-09 09:36:49","7701e855f2ef39aa3fd6c71abdc6918a","105.245.164.140","Mozilla/5.0 (Windows NT 10.0; Win64; x64) AppleWebKit/537.36 (KHTML, like Gecko) Chrome/137.0.0.0 Safari/537.36","WebKit","Chrome","137.0.0.0","Windows","10.0","https://app.prolific.com/","en-US,en;q=0.9","67c3552b821be870e6f02737","686d226cabeef709c732f8e1","686e35c134648450c9da7773","67c3552b821be870e6f02737","2025-07-09T09:55:45.109Z","","","","","","ControlQ","","","","","","","","","","","","","","","","","","","","","","","","","","","","","","","","","","","","","","50"
"7647","","<div style=""width:500px;"">
  <p>How would you describe your current emotional state?</p>
  </div>","48","html-slider-response","42","1147398","0.0-10.0-3.0","227","1","2025-07-09 09:36:49","7701e855f2ef39aa3fd6c71abdc6918a","105.245.164.140","Mozilla/5.0 (Windows NT 10.0; Win64; x64) AppleWebKit/537.36 (KHTML, like Gecko) Chrome/137.0.0.0 Safari/537.36","WebKit","Chrome","137.0.0.0","Windows","10.0","https://app.prolific.com/","en-US,en;q=0.9","67c3552b821be870e6f02737","686d226cabeef709c732f8e1","686e35c134648450c9da7773","67c3552b821be870e6f02737","2025-07-09T09:55:52.757Z","","","","","","StressQ","","","","","","","","","","","","","","","","","","","","","","","","","","","","","","","","","","","","","","50"
"18452","","<div style=""width:500px;"">
  <p>What best describes how you currently feel?</p>
  </div>","51","html-slider-response","43","1165853","0.0-10.0-4.0","227","1","2025-07-09 09:36:49","7701e855f2ef39aa3fd6c71abdc6918a","105.245.164.140","Mozilla/5.0 (Windows NT 10.0; Win64; x64) AppleWebKit/537.36 (KHTML, like Gecko) Chrome/137.0.0.0 Safari/537.36","WebKit","Chrome","137.0.0.0","Windows","10.0","https://app.prolific.com/","en-US,en;q=0.9","67c3552b821be870e6f02737","686d226cabeef709c732f8e1","686e35c134648450c9da7773","67c3552b821be870e6f02737","2025-07-09T09:56:11.212Z","","","","","","MotivationQ","","","","","","","","","","","","","","","","","","","","","","","","","","","","","","","","","","","","","","50"
"","","","","ctl-task-cpt","44","1220955","0.0-10.0-0.1","227","1","2025-07-09 09:36:49","7701e855f2ef39aa3fd6c71abdc6918a","105.245.164.140","Mozilla/5.0 (Windows NT 10.0; Win64; x64) AppleWebKit/537.36 (KHTML, like Gecko) Chrome/137.0.0.0 Safari/537.36","WebKit","Chrome","137.0.0.0","Windows","10.0","https://app.prolific.com/","en-US,en;q=0.9","67c3552b821be870e6f02737","686d226cabeef709c732f8e1","686e35c134648450c9da7773","67c3552b821be870e6f02737","2025-07-09T09:57:06.314Z","","","","","","","","","","","","","","","","win-only","0","g1:NW,g2:SE","0.9","2","0","1169022","26499.3","31502.5","52072.3","1","4","4","6","2","4","4","4","0","0.030303030303030304","1890","3000","880","[""down"",""right""]","{""num_key_presses"":6,""num_perfect"":6,""num_errors"":0,""num_randdir"":0,""num_randdir_good_moves"":0,""num_whilered"":0,""num_whileblue"":0,""num_blue"":1,""num_good_moves"":6}","[275.1745535714286,278.0651785714286,0.6,275.1745535714286,278.0651785714286,106.6,275.1745535714286,278.0651785714286,208.1,275.1745535714286,278.0651785714286,313.1,275.1745535714286,278.0651785714286,421.3,275.1745535714286,278.0651785714286,522.7,275.1745535714286,278.0651785714286,632.4,275.1745535714286,278.0651785714286,739.5,275.1745535714286,278.0651785714286,841.6,396.1745535714286,387.0651785714286,944,496.1745535714286,467.0651785714286,1056.4,516.1745535714285,479.0651785714286,1157,517.1745535714285,480.0651785714286,1271,516.1745535714285,493.0651785714286,1383.9,515.1745535714285,496.0651785714286,1488.5,515.1745535714285,496.0651785714286,1589,515.1745535714285,496.0651785714286,1702,515.1745535714285,496.0651785714286,1805.4,515.1745535714285,496.0651785714286,1913.7,515.1745535714285,496.0651785714286,2017.7,515.1745535714285,496.0651785714286,2120,515.1745535714285,496.0651785714286,2221.1,515.1745535714285,496.0651785714286,2322.7,515.1745535714285,496.0651785714286,2432.2,515.1745535714285,496.0651785714286,2537,515.1745535714285,496.0651785714286,2637,515.1745535714285,496.0651785714286,2749,515.1745535714285,496.0651785714286,2850.9,515.1745535714285,496.0651785714286,2953,515.1745535714285,496.0651785714286,3053.1,515.1745535714285,496.0651785714286,3154.9,515.1745535714285,496.0651785714286,3260.7,515.1745535714285,496.0651785714286,3362.8,515.1745535714285,496.0651785714286,3484.5,515.1745535714285,496.0651785714286,3595.3,515.1745535714285,496.0651785714286,3700.6,515.1745535714285,496.0651785714286,3802.1,515.1745535714285,496.0651785714286,3903.9,515.1745535714285,496.0651785714286,4004.2,515.1745535714285,496.0651785714286,4107.8,515.1745535714285,496.0651785714286,4208.8,515.1745535714285,496.0651785714286,4313.4,515.1745535714285,496.0651785714286,4432.8,515.1745535714285,496.0651785714286,4545.8,515.1745535714285,496.0651785714286,4650.4,515.1745535714285,496.0651785714286,4752,515.1745535714285,496.0651785714286,4861.1,515.1745535714285,496.0651785714286,4962.3]","[1624.2,1624.2,1000,0,624.2,""smooth"",""down"",""down"",""good_move"",3890.6,2265.7,1644.5,1624.9,621.2,""smooth"",""right"",""right"",""good_move"",6524.5,2633.3,2163.3,3891.2,470,""smooth"",""right"",""right"",""good_move"",9903.6,3378.6,2841.3,6525,537.3,""smooth"",""right"",""right"",""good_move"",12809.3,2905.2,2426.5,9904.1,478.7,""smooth"",""down"",""down"",""good_move"",20434.4,7624.5,2791.9,17114.5,528,""smooth"",""down"",""down"",""good_move""]","",""
"5942","","<div style=""width:500px;"">
  <p>What determined the result of this run?</p>
  </div>","100","html-slider-response","45","1226899","0.0-10.0-1.1","227","1","2025-07-09 09:36:49","7701e855f2ef39aa3fd6c71abdc6918a","105.245.164.140","Mozilla/5.0 (Windows NT 10.0; Win64; x64) AppleWebKit/537.36 (KHTML, like Gecko) Chrome/137.0.0.0 Safari/537.36","WebKit","Chrome","137.0.0.0","Windows","10.0","https://app.prolific.com/","en-US,en;q=0.9","67c3552b821be870e6f02737","686d226cabeef709c732f8e1","686e35c134648450c9da7773","67c3552b821be870e6f02737","2025-07-09T09:57:12.259Z","","","","","","AttribQ","","","","","","","","","","","","","","","","","","","","","","","","","","","","","","","","","","","","","","50"
"4987","","<div style=""width:500px;"">
  <p>How much control did you have over the ball?</p>
  </div>","100","html-slider-response","46","1231889","0.0-10.0-2.1","227","1","2025-07-09 09:36:49","7701e855f2ef39aa3fd6c71abdc6918a","105.245.164.140","Mozilla/5.0 (Windows NT 10.0; Win64; x64) AppleWebKit/537.36 (KHTML, like Gecko) Chrome/137.0.0.0 Safari/537.36","WebKit","Chrome","137.0.0.0","Windows","10.0","https://app.prolific.com/","en-US,en;q=0.9","67c3552b821be870e6f02737","686d226cabeef709c732f8e1","686e35c134648450c9da7773","67c3552b821be870e6f02737","2025-07-09T09:57:17.248Z","","","","","","ControlQ","","","","","","","","","","","","","","","","","","","","","","","","","","","","","","","","","","","","","","50"
"4731","","<div style=""width:500px;"">
  <p>How would you describe your current emotional state?</p>
  </div>","27","html-slider-response","47","1236622","0.0-10.0-3.1","227","1","2025-07-09 09:36:49","7701e855f2ef39aa3fd6c71abdc6918a","105.245.164.140","Mozilla/5.0 (Windows NT 10.0; Win64; x64) AppleWebKit/537.36 (KHTML, like Gecko) Chrome/137.0.0.0 Safari/537.36","WebKit","Chrome","137.0.0.0","Windows","10.0","https://app.prolific.com/","en-US,en;q=0.9","67c3552b821be870e6f02737","686d226cabeef709c732f8e1","686e35c134648450c9da7773","67c3552b821be870e6f02737","2025-07-09T09:57:21.981Z","","","","","","StressQ","","","","","","","","","","","","","","","","","","","","","","","","","","","","","","","","","","","","","","50"
"4727","","<div style=""width:500px;"">
  <p>What best describes how you currently feel?</p>
  </div>","100","html-slider-response","48","1241350","0.0-10.0-4.1","227","1","2025-07-09 09:36:49","7701e855f2ef39aa3fd6c71abdc6918a","105.245.164.140","Mozilla/5.0 (Windows NT 10.0; Win64; x64) AppleWebKit/537.36 (KHTML, like Gecko) Chrome/137.0.0.0 Safari/537.36","WebKit","Chrome","137.0.0.0","Windows","10.0","https://app.prolific.com/","en-US,en;q=0.9","67c3552b821be870e6f02737","686d226cabeef709c732f8e1","686e35c134648450c9da7773","67c3552b821be870e6f02737","2025-07-09T09:57:26.710Z","","","","","","MotivationQ","","","","","","","","","","","","","","","","","","","","","","","","","","","","","","","","","","","","","","50"
"","","","","ctl-task-cpt","49","1268478","0.0-10.0-0.2","227","1","2025-07-09 09:36:49","7701e855f2ef39aa3fd6c71abdc6918a","105.245.164.140","Mozilla/5.0 (Windows NT 10.0; Win64; x64) AppleWebKit/537.36 (KHTML, like Gecko) Chrome/137.0.0.0 Safari/537.36","WebKit","Chrome","137.0.0.0","Windows","10.0","https://app.prolific.com/","en-US,en;q=0.9","67c3552b821be870e6f02737","686d226cabeef709c732f8e1","686e35c134648450c9da7773","67c3552b821be870e6f02737","2025-07-09T09:57:53.837Z","","","","","","","","","","","","","","","","win-only","1","g1:NE,g2:SW","0.8","3","0","1244518.3","2065.5","7070.4","24109.9","1","4","8","6","2","8","8","12","4","0.09090909090909091","1605.4","3000","340","[""down"",""left""]","{""num_key_presses"":6,""num_perfect"":4,""num_errors"":0,""num_randdir"":2,""num_randdir_good_moves"":2,""num_whilered"":0,""num_whileblue"":0,""num_blue"":0,""num_good_moves"":6}","[272.1745535714286,275.0651785714286,1,272.1745535714286,275.0651785714286,103.1,272.1745535714286,275.0651785714286,210.9,272.1745535714286,275.0651785714286,312.8,272.1745535714286,275.0651785714286,413.1,272.1745535714286,275.0651785714286,518.5,272.1745535714286,275.0651785714286,626.3,167.1745535714286,423.0651785714286,734,123.17455357142858,488.0651785714286,835.1,86.17455357142858,543.0651785714285,938.8,70.17455357142858,554.0651785714285,1045.3,60.174553571428575,541.0651785714285,1150.8,62.174553571428575,499.0651785714286,1252.2,62.174553571428575,492.0651785714286,1353.7,61.174553571428575,493.0651785714286,1458.3,61.174553571428575,493.0651785714286,1562.9,61.174553571428575,493.0651785714286,1666.8,61.174553571428575,493.0651785714286,1767.7,61.174553571428575,493.0651785714286,1882.9,61.174553571428575,493.0651785714286,1983.3,61.174553571428575,493.0651785714286,2086.2,61.174553571428575,493.0651785714286,2198,61.174553571428575,493.0651785714286,2299.5,61.174553571428575,493.0651785714286,2400.9,61.174553571428575,493.0651785714286,2501.7,61.174553571428575,493.0651785714286,2615.7,61.174553571428575,493.0651785714286,2722.4,61.174553571428575,493.0651785714286,2832.1,61.174553571428575,493.0651785714286,2932.5,61.174553571428575,493.0651785714286,3035.8,61.174553571428575,493.0651785714286,3135.8,61.174553571428575,493.0651785714286,3237.9,61.174553571428575,493.0651785714286,3349.3,61.174553571428575,493.0651785714286,3452.2,61.174553571428575,493.0651785714286,3552.8,61.174553571428575,493.0651785714286,3661.6,61.174553571428575,493.0651785714286,3762.2,61.174553571428575,493.0651785714286,3862.7,61.174553571428575,493.0651785714286,3963.4,61.174553571428575,493.0651785714286,4064.2,61.174553571428575,493.0651785714286,4172.2,61.174553571428575,493.0651785714286,4272.5,61.174553571428575,493.0651785714286,4372.7,61.174553571428575,493.0651785714286,4480.4,61.174553571428575,493.0651785714286,4582.1,61.174553571428575,493.0651785714286,4686,61.174553571428575,493.0651785714286,4792.8,61.174553571428575,493.0651785714286,4896.9]","[1566.2,1566.2,1000,0,566.2,""smooth"",""down"",""down"",""good_move"",4569.1,3002.2,2267.2,1566.9,735,""oops"",""down"",""left"",""good_move"",7586.9,3017.3,2322.5,4569.7,694.7,""oops"",""down"",""down"",""good_move"",10652.3,3064.9,2244.3,7587.4,820.6,""smooth"",""down"",""down"",""good_move"",13676.2,3022.7,2494.4,10653.6,528.2,""smooth"",""left"",""left"",""good_move"",16906.3,3228.9,2759.1,13677.4,469.8,""smooth"",""left"",""left"",""good_move""]","",""
"6504","","<div style=""width:500px;"">
  <p>What determined the result of this run?</p>
  </div>","100","html-slider-response","50","1274984","0.0-10.0-1.2","227","1","2025-07-09 09:36:49","7701e855f2ef39aa3fd6c71abdc6918a","105.245.164.140","Mozilla/5.0 (Windows NT 10.0; Win64; x64) AppleWebKit/537.36 (KHTML, like Gecko) Chrome/137.0.0.0 Safari/537.36","WebKit","Chrome","137.0.0.0","Windows","10.0","https://app.prolific.com/","en-US,en;q=0.9","67c3552b821be870e6f02737","686d226cabeef709c732f8e1","686e35c134648450c9da7773","67c3552b821be870e6f02737","2025-07-09T09:58:00.343Z","","","","","","AttribQ","","","","","","","","","","","","","","","","","","","","","","","","","","","","","","","","","","","","","","50"
"3546","","<div style=""width:500px;"">
  <p>How much control did you have over the ball?</p>
  </div>","100","html-slider-response","51","1278532","0.0-10.0-2.2","227","1","2025-07-09 09:36:49","7701e855f2ef39aa3fd6c71abdc6918a","105.245.164.140","Mozilla/5.0 (Windows NT 10.0; Win64; x64) AppleWebKit/537.36 (KHTML, like Gecko) Chrome/137.0.0.0 Safari/537.36","WebKit","Chrome","137.0.0.0","Windows","10.0","https://app.prolific.com/","en-US,en;q=0.9","67c3552b821be870e6f02737","686d226cabeef709c732f8e1","686e35c134648450c9da7773","67c3552b821be870e6f02737","2025-07-09T09:58:03.891Z","","","","","","ControlQ","","","","","","","","","","","","","","","","","","","","","","","","","","","","","","","","","","","","","","50"
"4113","","<div style=""width:500px;"">
  <p>How would you describe your current emotional state?</p>
  </div>","0","html-slider-response","52","1282646","0.0-10.0-3.2","227","1","2025-07-09 09:36:49","7701e855f2ef39aa3fd6c71abdc6918a","105.245.164.140","Mozilla/5.0 (Windows NT 10.0; Win64; x64) AppleWebKit/537.36 (KHTML, like Gecko) Chrome/137.0.0.0 Safari/537.36","WebKit","Chrome","137.0.0.0","Windows","10.0","https://app.prolific.com/","en-US,en;q=0.9","67c3552b821be870e6f02737","686d226cabeef709c732f8e1","686e35c134648450c9da7773","67c3552b821be870e6f02737","2025-07-09T09:58:08.005Z","","","","","","StressQ","","","","","","","","","","","","","","","","","","","","","","","","","","","","","","","","","","","","","","50"
"4606","","<div style=""width:500px;"">
  <p>What best describes how you currently feel?</p>
  </div>","100","html-slider-response","53","1287253","0.0-10.0-4.2","227","1","2025-07-09 09:36:49","7701e855f2ef39aa3fd6c71abdc6918a","105.245.164.140","Mozilla/5.0 (Windows NT 10.0; Win64; x64) AppleWebKit/537.36 (KHTML, like Gecko) Chrome/137.0.0.0 Safari/537.36","WebKit","Chrome","137.0.0.0","Windows","10.0","https://app.prolific.com/","en-US,en;q=0.9","67c3552b821be870e6f02737","686d226cabeef709c732f8e1","686e35c134648450c9da7773","67c3552b821be870e6f02737","2025-07-09T09:58:12.613Z","","","","","","MotivationQ","","","","","","","","","","","","","","","","","","","","","","","","","","","","","","","","","","","","","","50"
"","","","","ctl-task-cpt","54","1314141","0.0-10.0-0.3","227","1","2025-07-09 09:36:49","7701e855f2ef39aa3fd6c71abdc6918a","105.245.164.140","Mozilla/5.0 (Windows NT 10.0; Win64; x64) AppleWebKit/537.36 (KHTML, like Gecko) Chrome/137.0.0.0 Safari/537.36","WebKit","Chrome","137.0.0.0","Windows","10.0","https://app.prolific.com/","en-US,en;q=0.9","67c3552b821be870e6f02737","686d226cabeef709c732f8e1","686e35c134648450c9da7773","67c3552b821be870e6f02737","2025-07-09T09:58:39.500Z","","","","","","","","","","","","","","","","win-only","3","g1:SW,g2:NE","0.7","4","0","1290421.5","1696.5","6707","23871","1","4","4","6","2","4","4","16","12","0.12121212121212122","1777.5","3000","745","[""up"",""right""]","{""num_key_presses"":6,""num_perfect"":5,""num_errors"":0,""num_randdir"":1,""num_randdir_good_moves"":1,""num_whilered"":0,""num_whileblue"":0,""num_blue"":0,""num_good_moves"":6}","[271.1745535714286,277.0651785714286,0.6,271.1745535714286,277.0651785714286,101.3,271.1745535714286,277.0651785714286,211.7,271.1745535714286,277.0651785714286,312.4,271.1745535714286,277.0651785714286,414.1,271.1745535714286,277.0651785714286,516.2,271.1745535714286,277.0651785714286,616.5,271.1745535714286,277.0651785714286,720.8,271.1745535714286,277.0651785714286,828.6,271.1745535714286,277.0651785714286,932.3,271.1745535714286,277.0651785714286,1032.5,440.1745535714286,60.065178571428575,1133.5,513.1745535714285,-10.934821428571425,1238.5,524.1745535714285,-7.934821428571425,1346.8,525.1745535714285,22.065178571428575,1451.7,521.1745535714285,30.065178571428575,1554.7,521.1745535714285,31.065178571428575,1655.2,521.1745535714285,31.065178571428575,1762.8,521.1745535714285,31.065178571428575,1864.7,521.1745535714285,31.065178571428575,1964.7,521.1745535714285,31.065178571428575,2075.6,521.1745535714285,31.065178571428575,2187.1,521.1745535714285,31.065178571428575,2292.2,521.1745535714285,31.065178571428575,2395.6,521.1745535714285,31.065178571428575,2495.8,521.1745535714285,31.065178571428575,2599.7,521.1745535714285,31.065178571428575,2700.3,521.1745535714285,31.065178571428575,2800.5,521.1745535714285,31.065178571428575,2912.6,521.1745535714285,31.065178571428575,3014.4,521.1745535714285,31.065178571428575,3114.5,521.1745535714285,31.065178571428575,3219.2,521.1745535714285,31.065178571428575,3322.6,521.1745535714285,31.065178571428575,3434,521.1745535714285,31.065178571428575,3542.1,521.1745535714285,31.065178571428575,3645.7,521.1745535714285,31.065178571428575,3751.9,521.1745535714285,31.065178571428575,3858.4,521.1745535714285,31.065178571428575,3969.2,521.1745535714285,31.065178571428575,4070.1,521.1745535714285,31.065178571428575,4174.6,521.1745535714285,31.065178571428575,4280.2,521.1745535714285,31.065178571428575,4392.5,521.1745535714285,31.065178571428575,4495.9,521.1745535714285,31.065178571428575,4596.5,521.1745535714285,31.065178571428575,4696.4,521.1745535714285,31.065178571428575,4797.1,521.1745535714285,31.065178571428575,4907.6]","[1660.7,1660.7,1000,0,660.7,""smooth"",""up"",""up"",""good_move"",5077.5,3416.2,2702.6,1661.3,713.6,""smooth"",""up"",""up"",""good_move"",8279.9,3201.9,2673.9,5078,528,""smooth"",""right"",""right"",""good_move"",11331.2,3050.2,2473.5,8281.1,576.6,""smooth"",""right"",""right"",""good_move"",13833,2501.4,2046,11331.6,455.4,""oops"",""right"",""up"",""good_move"",17020.7,3187.3,2817.8,13833.4,369.5,""smooth"",""right"",""right"",""good_move""]","",""
"32728","","<div style=""width:500px;"">
  <p>What determined the result of this run?</p>
  </div>","100","html-slider-response","55","1346872","0.0-10.0-1.3","227","1","2025-07-09 09:36:49","7701e855f2ef39aa3fd6c71abdc6918a","105.245.164.140","Mozilla/5.0 (Windows NT 10.0; Win64; x64) AppleWebKit/537.36 (KHTML, like Gecko) Chrome/137.0.0.0 Safari/537.36","WebKit","Chrome","137.0.0.0","Windows","10.0","https://app.prolific.com/","en-US,en;q=0.9","67c3552b821be870e6f02737","686d226cabeef709c732f8e1","686e35c134648450c9da7773","67c3552b821be870e6f02737","2025-07-09T09:59:12.231Z","","","","","","AttribQ","","","","","","","","","","","","","","","","","","","","","","","","","","","","","","","","","","","","","","50"
"8129","","<div style=""width:500px;"">
  <p>How much control did you have over the ball?</p>
  </div>","95","html-slider-response","56","1355004","0.0-10.0-2.3","227","1","2025-07-09 09:36:49","7701e855f2ef39aa3fd6c71abdc6918a","105.245.164.140","Mozilla/5.0 (Windows NT 10.0; Win64; x64) AppleWebKit/537.36 (KHTML, like Gecko) Chrome/137.0.0.0 Safari/537.36","WebKit","Chrome","137.0.0.0","Windows","10.0","https://app.prolific.com/","en-US,en;q=0.9","67c3552b821be870e6f02737","686d226cabeef709c732f8e1","686e35c134648450c9da7773","67c3552b821be870e6f02737","2025-07-09T09:59:20.363Z","","","","","","ControlQ","","","","","","","","","","","","","","","","","","","","","","","","","","","","","","","","","","","","","","50"
"4625","","<div style=""width:500px;"">
  <p>How would you describe your current emotional state?</p>
  </div>","0","html-slider-response","57","1359632","0.0-10.0-3.3","227","1","2025-07-09 09:36:49","7701e855f2ef39aa3fd6c71abdc6918a","105.245.164.140","Mozilla/5.0 (Windows NT 10.0; Win64; x64) AppleWebKit/537.36 (KHTML, like Gecko) Chrome/137.0.0.0 Safari/537.36","WebKit","Chrome","137.0.0.0","Windows","10.0","https://app.prolific.com/","en-US,en;q=0.9","67c3552b821be870e6f02737","686d226cabeef709c732f8e1","686e35c134648450c9da7773","67c3552b821be870e6f02737","2025-07-09T09:59:24.991Z","","","","","","StressQ","","","","","","","","","","","","","","","","","","","","","","","","","","","","","","","","","","","","","","50"
"3083","","<div style=""width:500px;"">
  <p>What best describes how you currently feel?</p>
  </div>","100","html-slider-response","58","1362717","0.0-10.0-4.3","227","1","2025-07-09 09:36:49","7701e855f2ef39aa3fd6c71abdc6918a","105.245.164.140","Mozilla/5.0 (Windows NT 10.0; Win64; x64) AppleWebKit/537.36 (KHTML, like Gecko) Chrome/137.0.0.0 Safari/537.36","WebKit","Chrome","137.0.0.0","Windows","10.0","https://app.prolific.com/","en-US,en;q=0.9","67c3552b821be870e6f02737","686d226cabeef709c732f8e1","686e35c134648450c9da7773","67c3552b821be870e6f02737","2025-07-09T09:59:28.076Z","","","","","","MotivationQ","","","","","","","","","","","","","","","","","","","","","","","","","","","","","","","","","","","","","","50"
"","","","","ctl-task-cpt","59","1408323","0.0-10.0-0.4","227","1","2025-07-09 09:36:49","7701e855f2ef39aa3fd6c71abdc6918a","105.245.164.140","Mozilla/5.0 (Windows NT 10.0; Win64; x64) AppleWebKit/537.36 (KHTML, like Gecko) Chrome/137.0.0.0 Safari/537.36","WebKit","Chrome","137.0.0.0","Windows","10.0","https://app.prolific.com/","en-US,en;q=0.9","67c3552b821be870e6f02737","686d226cabeef709c732f8e1","686e35c134648450c9da7773","67c3552b821be870e6f02737","2025-07-09T10:00:13.683Z","","","","","","","","","","","","","","","","win-only","1","g1:NE,g2:SW","0.6","5","0","1365886","1615.2","6628.3","42578.9","1","4","8","6","2","-8","-8","8","16","0.06060606060606061","1903.6","3000","-2185","[""down"",""left""]","{""num_key_presses"":9,""num_perfect"":6,""num_errors"":0,""num_randdir"":3,""num_randdir_good_moves"":1,""num_whilered"":0,""num_whileblue"":0,""num_blue"":2,""num_good_moves"":7}","[279.1745535714286,280.0651785714286,0.5,279.1745535714286,280.0651785714286,101,279.1745535714286,280.0651785714286,204.5,279.1745535714286,280.0651785714286,309.1,279.1745535714286,280.0651785714286,420.6,279.1745535714286,280.0651785714286,527.7,181.1745535714286,378.0651785714286,644.6,150.1745535714286,420.0651785714286,744.8,140.1745535714286,431.0651785714286,852.8,123.17455357142858,449.0651785714286,953.5,100.17455357142858,478.0651785714286,1058.8,96.17455357142858,482.0651785714286,1160.6,91.17455357142858,482.0651785714286,1264.6,91.17455357142858,482.0651785714286,1367.9,91.17455357142858,482.0651785714286,1473.1,82.17455357142858,485.0651785714286,1573.7,73.17455357142858,486.0651785714286,1691.6,73.17455357142858,486.0651785714286,1795.9,73.17455357142858,486.0651785714286,1908,73.17455357142858,486.0651785714286,2019.3,73.17455357142858,486.0651785714286,2136.4,73.17455357142858,486.0651785714286,2249.5,73.17455357142858,486.0651785714286,2354.5,73.17455357142858,486.0651785714286,2459.2,73.17455357142858,486.0651785714286,2562.1,73.17455357142858,486.0651785714286,2662.2,73.17455357142858,486.0651785714286,2763,73.17455357142858,486.0651785714286,2863.1,73.17455357142858,486.0651785714286,2985.9,73.17455357142858,486.0651785714286,3087.6,73.17455357142858,486.0651785714286,3198.8,73.17455357142858,486.0651785714286,3301.7,73.17455357142858,486.0651785714286,3415.6,73.17455357142858,486.0651785714286,3517.3,73.17455357142858,486.0651785714286,3617.4,73.17455357142858,486.0651785714286,3719.5,73.17455357142858,486.0651785714286,3829.5,73.17455357142858,486.0651785714286,3931.8,73.17455357142858,486.0651785714286,4038.4,73.17455357142858,486.0651785714286,4144.6,73.17455357142858,486.0651785714286,4251.9,73.17455357142858,486.0651785714286,4354.2,73.17455357142858,486.0651785714286,4460,73.17455357142858,486.0651785714286,4572.2,73.17455357142858,486.0651785714286,4686.9,73.17455357142858,486.0651785714286,4790,73.17455357142858,486.0651785714286,4899]","[1532.2,1532.2,1000,0,532.2,""oops"",""down"",""down"",""good_move"",4371.4,2838.5,2066.5,1532.9,772,""smooth"",""down"",""down"",""good_move"",7121.8,2750,2186.8,4371.8,563.2,""smooth"",""down"",""down"",""good_move"",13571.8,6449.4,2673.1,10443,455.7,""oops"",""left"",""up"",""bad_move"",16154.5,2581.9,2029,13572.6,552.9,""smooth"",""left"",""left"",""good_move"",19508.4,3352.7,2819.7,16155.7,533,""oops"",""left"",""up"",""bad_move"",22873.7,3364.8,2875,19508.9,489.8,""smooth"",""left"",""left"",""good_move"",25997.9,3123.8,2679.1,22874.1,444.7,""smooth"",""left"",""left"",""good_move"",29240.5,3241.9,2808.6,25998.6,433.3,""smooth"",""down"",""down"",""good_move""]","",""
"19417","","<div style=""width:500px;"">
  <p>What determined the result of this run?</p>
  </div>","46","html-slider-response","60","1427742","0.0-10.0-1.4","227","1","2025-07-09 09:36:49","7701e855f2ef39aa3fd6c71abdc6918a","105.245.164.140","Mozilla/5.0 (Windows NT 10.0; Win64; x64) AppleWebKit/537.36 (KHTML, like Gecko) Chrome/137.0.0.0 Safari/537.36","WebKit","Chrome","137.0.0.0","Windows","10.0","https://app.prolific.com/","en-US,en;q=0.9","67c3552b821be870e6f02737","686d226cabeef709c732f8e1","686e35c134648450c9da7773","67c3552b821be870e6f02737","2025-07-09T10:00:33.101Z","","","","","","AttribQ","","","","","","","","","","","","","","","","","","","","","","","","","","","","","","","","","","","","","","50"
"8458","","<div style=""width:500px;"">
  <p>How much control did you have over the ball?</p>
  </div>","46","html-slider-response","61","1436203","0.0-10.0-2.4","227","1","2025-07-09 09:36:49","7701e855f2ef39aa3fd6c71abdc6918a","105.245.164.140","Mozilla/5.0 (Windows NT 10.0; Win64; x64) AppleWebKit/537.36 (KHTML, like Gecko) Chrome/137.0.0.0 Safari/537.36","WebKit","Chrome","137.0.0.0","Windows","10.0","https://app.prolific.com/","en-US,en;q=0.9","67c3552b821be870e6f02737","686d226cabeef709c732f8e1","686e35c134648450c9da7773","67c3552b821be870e6f02737","2025-07-09T10:00:41.562Z","","","","","","ControlQ","","","","","","","","","","","","","","","","","","","","","","","","","","","","","","","","","","","","","","50"
"7433","","<div style=""width:500px;"">
  <p>How would you describe your current emotional state?</p>
  </div>","52","html-slider-response","62","1443638","0.0-10.0-3.4","227","1","2025-07-09 09:36:49","7701e855f2ef39aa3fd6c71abdc6918a","105.245.164.140","Mozilla/5.0 (Windows NT 10.0; Win64; x64) AppleWebKit/537.36 (KHTML, like Gecko) Chrome/137.0.0.0 Safari/537.36","WebKit","Chrome","137.0.0.0","Windows","10.0","https://app.prolific.com/","en-US,en;q=0.9","67c3552b821be870e6f02737","686d226cabeef709c732f8e1","686e35c134648450c9da7773","67c3552b821be870e6f02737","2025-07-09T10:00:48.998Z","","","","","","StressQ","","","","","","","","","","","","","","","","","","","","","","","","","","","","","","","","","","","","","","50"
"6315","","<div style=""width:500px;"">
  <p>What best describes how you currently feel?</p>
  </div>","52","html-slider-response","63","1449955","0.0-10.0-4.4","227","1","2025-07-09 09:36:49","7701e855f2ef39aa3fd6c71abdc6918a","105.245.164.140","Mozilla/5.0 (Windows NT 10.0; Win64; x64) AppleWebKit/537.36 (KHTML, like Gecko) Chrome/137.0.0.0 Safari/537.36","WebKit","Chrome","137.0.0.0","Windows","10.0","https://app.prolific.com/","en-US,en;q=0.9","67c3552b821be870e6f02737","686d226cabeef709c732f8e1","686e35c134648450c9da7773","67c3552b821be870e6f02737","2025-07-09T10:00:55.315Z","","","","","","MotivationQ","","","","","","","","","","","","","","","","","","","","","","","","","","","","","","","","","","","","","","50"
"","","","","ctl-task-cpt","64","1493388","0.0-10.0-0.5","227","1","2025-07-09 09:36:49","7701e855f2ef39aa3fd6c71abdc6918a","105.245.164.140","Mozilla/5.0 (Windows NT 10.0; Win64; x64) AppleWebKit/537.36 (KHTML, like Gecko) Chrome/137.0.0.0 Safari/537.36","WebKit","Chrome","137.0.0.0","Windows","10.0","https://app.prolific.com/","en-US,en;q=0.9","67c3552b821be870e6f02737","686d226cabeef709c732f8e1","686e35c134648450c9da7773","67c3552b821be870e6f02737","2025-07-09T10:01:38.748Z","","","","","","","","","","","","","","","","win-only","2","g1:SE,g2:NW","0.5","6","0","1453123.2","1792.5","6797.1","40416.4","1","4","4","6","2","-4","-4","4","8","0.030303030303030304","2068.7","3000","-1940","[""left"",""up""]","{""num_key_presses"":9,""num_perfect"":5,""num_errors"":0,""num_randdir"":4,""num_randdir_good_moves"":1,""num_whilered"":0,""num_whileblue"":0,""num_blue"":1,""num_good_moves"":6}","[276.1745535714286,273.0651785714286,0.7,276.1745535714286,273.0651785714286,105.2,276.1745535714286,273.0651785714286,210.5,276.1745535714286,273.0651785714286,312.6,276.1745535714286,273.0651785714286,416.9,276.1745535714286,273.0651785714286,521.1,276.1745535714286,273.0651785714286,621.9,276.1745535714286,273.0651785714286,724.2,276.1745535714286,273.0651785714286,832.2,276.1745535714286,273.0651785714286,936.3,200.1745535714286,207.0651785714286,1050.6,161.1745535714286,179.0651785714286,1153.2,136.1745535714286,157.0651785714286,1265.6,130.1745535714286,146.0651785714286,1368.9,130.1745535714286,146.0651785714286,1474.2,130.1745535714286,146.0651785714286,1575,61.174553571428575,102.06517857142858,1684.6,52.174553571428575,88.06517857142858,1790.3,51.174553571428575,86.06517857142858,1891.1,51.174553571428575,86.06517857142858,1991.6,51.174553571428575,86.06517857142858,2093.6,51.174553571428575,86.06517857142858,2207.1,51.174553571428575,86.06517857142858,2314.6,51.174553571428575,86.06517857142858,2415.9,51.174553571428575,86.06517857142858,2522.5,51.174553571428575,86.06517857142858,2623.4,51.174553571428575,86.06517857142858,2729.2,51.174553571428575,86.06517857142858,2832.2,51.174553571428575,86.06517857142858,2938.3,51.174553571428575,86.06517857142858,3040.6,51.174553571428575,86.06517857142858,3144.6,51.174553571428575,86.06517857142858,3247.8,51.174553571428575,86.06517857142858,3349.8,51.174553571428575,86.06517857142858,3450.6,27.174553571428575,145.0651785714286,3550.8,23.174553571428575,181.0651785714286,3655.3,23.174553571428575,181.0651785714286,3759.7,23.174553571428575,181.0651785714286,3861.9,23.174553571428575,181.0651785714286,3963.9,23.174553571428575,181.0651785714286,4064.4,23.174553571428575,181.0651785714286,4176.6,23.174553571428575,181.0651785714286,4276.9,23.174553571428575,181.0651785714286,4378.8,23.174553571428575,181.0651785714286,4479,23.174553571428575,181.0651785714286,4582,23.174553571428575,181.0651785714286,4692,23.174553571428575,181.0651785714286,4794.5,23.174553571428575,181.0651785714286,4897.1]","[1621.2,1621.2,1000,0,621.2,""smooth"",""left"",""left"",""good_move"",4699.5,3077.7,2571,1621.9,506.7,""smooth"",""left"",""left"",""good_move"",7288.6,2588.5,2129.3,4700.1,459.2,""oops"",""left"",""up"",""good_move"",10004.2,2714.7,2162.4,7289.5,552.3,""oops"",""up"",""right"",""bad_move"",13328,3322.6,2898.3,10005.5,424.3,""smooth"",""up"",""up"",""good_move"",16516.2,3187.7,2668.4,13328.6,519.3,""smooth"",""left"",""left"",""good_move"",20695.6,4178.6,3743.2,16517,435.4,""smooth"",""left"",""left"",""good_move"",23674.9,2978.6,2536,20696.3,442.6,""oops"",""up"",""right"",""bad_move"",30618.9,6943.5,2509.5,27790.1,319.3,""oops"",""up"",""right"",""bad_move""]","",""
"7018","","<div style=""width:500px;"">
  <p>What determined the result of this run?</p>
  </div>","42","html-slider-response","65","1500409","0.0-10.0-1.5","227","1","2025-07-09 09:36:49","7701e855f2ef39aa3fd6c71abdc6918a","105.245.164.140","Mozilla/5.0 (Windows NT 10.0; Win64; x64) AppleWebKit/537.36 (KHTML, like Gecko) Chrome/137.0.0.0 Safari/537.36","WebKit","Chrome","137.0.0.0","Windows","10.0","https://app.prolific.com/","en-US,en;q=0.9","67c3552b821be870e6f02737","686d226cabeef709c732f8e1","686e35c134648450c9da7773","67c3552b821be870e6f02737","2025-07-09T10:01:45.768Z","","","","","","AttribQ","","","","","","","","","","","","","","","","","","","","","","","","","","","","","","","","","","","","","","50"
"4284","","<div style=""width:500px;"">
  <p>How much control did you have over the ball?</p>
  </div>","0","html-slider-response","66","1504696","0.0-10.0-2.5","227","1","2025-07-09 09:36:49","7701e855f2ef39aa3fd6c71abdc6918a","105.245.164.140","Mozilla/5.0 (Windows NT 10.0; Win64; x64) AppleWebKit/537.36 (KHTML, like Gecko) Chrome/137.0.0.0 Safari/537.36","WebKit","Chrome","137.0.0.0","Windows","10.0","https://app.prolific.com/","en-US,en;q=0.9","67c3552b821be870e6f02737","686d226cabeef709c732f8e1","686e35c134648450c9da7773","67c3552b821be870e6f02737","2025-07-09T10:01:50.055Z","","","","","","ControlQ","","","","","","","","","","","","","","","","","","","","","","","","","","","","","","","","","","","","","","50"
"6057","","<div style=""width:500px;"">
  <p>How would you describe your current emotional state?</p>
  </div>","57","html-slider-response","67","1510755","0.0-10.0-3.5","227","1","2025-07-09 09:36:49","7701e855f2ef39aa3fd6c71abdc6918a","105.245.164.140","Mozilla/5.0 (Windows NT 10.0; Win64; x64) AppleWebKit/537.36 (KHTML, like Gecko) Chrome/137.0.0.0 Safari/537.36","WebKit","Chrome","137.0.0.0","Windows","10.0","https://app.prolific.com/","en-US,en;q=0.9","67c3552b821be870e6f02737","686d226cabeef709c732f8e1","686e35c134648450c9da7773","67c3552b821be870e6f02737","2025-07-09T10:01:56.115Z","","","","","","StressQ","","","","","","","","","","","","","","","","","","","","","","","","","","","","","","","","","","","","","","50"
"4879","","<div style=""width:500px;"">
  <p>What best describes how you currently feel?</p>
  </div>","60","html-slider-response","68","1515639","0.0-10.0-4.5","227","1","2025-07-09 09:36:49","7701e855f2ef39aa3fd6c71abdc6918a","105.245.164.140","Mozilla/5.0 (Windows NT 10.0; Win64; x64) AppleWebKit/537.36 (KHTML, like Gecko) Chrome/137.0.0.0 Safari/537.36","WebKit","Chrome","137.0.0.0","Windows","10.0","https://app.prolific.com/","en-US,en;q=0.9","67c3552b821be870e6f02737","686d226cabeef709c732f8e1","686e35c134648450c9da7773","67c3552b821be870e6f02737","2025-07-09T10:02:00.998Z","","","","","","MotivationQ","","","","","","","","","","","","","","","","","","","","","","","","","","","","","","","","","","","","","","50"
"","","","","ctl-task-cpt","69","1536104","0.0-10.0-0.6","227","1","2025-07-09 09:36:49","7701e855f2ef39aa3fd6c71abdc6918a","105.245.164.140","Mozilla/5.0 (Windows NT 10.0; Win64; x64) AppleWebKit/537.36 (KHTML, like Gecko) Chrome/137.0.0.0 Safari/537.36","WebKit","Chrome","137.0.0.0","Windows","10.0","https://app.prolific.com/","en-US,en;q=0.9","67c3552b821be870e6f02737","686d226cabeef709c732f8e1","686e35c134648450c9da7773","67c3552b821be870e6f02737","2025-07-09T10:02:21.463Z","","","","","","","","","","","","","","","","win-only","2","g1:SE,g2:NW","0.4","7","0","1518808.2","1770.3","6780.5","17436.3","1","4","4","6","1","1","1","5","4","0.03787878787878788","2304.4","3000","2020","[""down"",""right""]","{""num_key_presses"":4,""num_perfect"":1,""num_errors"":0,""num_randdir"":3,""num_randdir_good_moves"":3,""num_whilered"":0,""num_whileblue"":0,""num_blue"":0,""num_good_moves"":4}","[269.1745535714286,276.0651785714286,0.6,269.1745535714286,276.0651785714286,102.3,269.1745535714286,276.0651785714286,211,269.1745535714286,276.0651785714286,318,269.1745535714286,276.0651785714286,424.8,269.1745535714286,276.0651785714286,531,269.1745535714286,276.0651785714286,638.1,269.1745535714286,276.0651785714286,739.9,280.1745535714286,290.0651785714286,842.9,293.1745535714286,298.0651785714286,943.4,321.1745535714286,313.0651785714286,1058.8,336.1745535714286,326.0651785714286,1162.4,339.1745535714286,329.0651785714286,1276.7,412.1745535714286,388.0651785714286,1383.5,449.1745535714286,409.0651785714286,1485,485.1745535714286,446.0651785714286,1588.6,487.1745535714286,451.0651785714286,1692.8,487.1745535714286,451.0651785714286,1808,492.1745535714286,461.0651785714286,1909.3,509.1745535714286,487.0651785714286,2020.8,509.1745535714286,489.0651785714286,2135.4,509.1745535714286,489.0651785714286,2249.2,509.1745535714286,489.0651785714286,2357.2,509.1745535714286,489.0651785714286,2457.5,509.1745535714286,489.0651785714286,2575,509.1745535714286,489.0651785714286,2676.1,509.1745535714286,489.0651785714286,2780,509.1745535714286,489.0651785714286,2897.3,509.1745535714286,489.0651785714286,2999.9,509.1745535714286,489.0651785714286,3102.4,509.1745535714286,489.0651785714286,3213.4,509.1745535714286,489.0651785714286,3314.6,509.1745535714286,489.0651785714286,3427.6,509.1745535714286,489.0651785714286,3545.8,509.1745535714286,489.0651785714286,3650.6,509.1745535714286,489.0651785714286,3758.3,509.1745535714286,489.0651785714286,3865.3,509.1745535714286,489.0651785714286,3970.7,509.1745535714286,489.0651785714286,4075.6,509.1745535714286,489.0651785714286,4190.2,509.1745535714286,489.0651785714286,4300,509.1745535714286,489.0651785714286,4400.3,509.1745535714286,489.0651785714286,4504.1,509.1745535714286,489.0651785714286,4609.6,509.1745535714286,489.0651785714286,4714.6,509.1745535714286,489.0651785714286,4816.2,509.1745535714286,489.0651785714286,4921.3]","[1553.6,1553.7,1000,0,553.7,""oops"",""down"",""right"",""good_move"",4356.1,2801.5,2344.1,1554.7,457.4,""oops"",""down"",""down"",""good_move"",7692.7,3335.4,2809.1,4357.3,526.3,""oops"",""right"",""right"",""good_move"",10411.3,2717.8,2234.7,7693.5,483.2,""smooth"",""down"",""down"",""good_move""]","",""
"8137","","<div style=""width:500px;"">
  <p>What determined the result of this run?</p>
  </div>","59","html-slider-response","70","1544245","0.0-10.0-1.6","227","1","2025-07-09 09:36:49","7701e855f2ef39aa3fd6c71abdc6918a","105.245.164.140","Mozilla/5.0 (Windows NT 10.0; Win64; x64) AppleWebKit/537.36 (KHTML, like Gecko) Chrome/137.0.0.0 Safari/537.36","WebKit","Chrome","137.0.0.0","Windows","10.0","https://app.prolific.com/","en-US,en;q=0.9","67c3552b821be870e6f02737","686d226cabeef709c732f8e1","686e35c134648450c9da7773","67c3552b821be870e6f02737","2025-07-09T10:02:29.604Z","","","","","","AttribQ","","","","","","","","","","","","","","","","","","","","","","","","","","","","","","","","","","","","","","50"
"5064","","<div style=""width:500px;"">
  <p>How much control did you have over the ball?</p>
  </div>","48","html-slider-response","71","1549312","0.0-10.0-2.6","227","1","2025-07-09 09:36:49","7701e855f2ef39aa3fd6c71abdc6918a","105.245.164.140","Mozilla/5.0 (Windows NT 10.0; Win64; x64) AppleWebKit/537.36 (KHTML, like Gecko) Chrome/137.0.0.0 Safari/537.36","WebKit","Chrome","137.0.0.0","Windows","10.0","https://app.prolific.com/","en-US,en;q=0.9","67c3552b821be870e6f02737","686d226cabeef709c732f8e1","686e35c134648450c9da7773","67c3552b821be870e6f02737","2025-07-09T10:02:34.671Z","","","","","","ControlQ","","","","","","","","","","","","","","","","","","","","","","","","","","","","","","","","","","","","","","50"
"5281","","<div style=""width:500px;"">
  <p>How would you describe your current emotional state?</p>
  </div>","46","html-slider-response","72","1554594","0.0-10.0-3.6","227","1","2025-07-09 09:36:49","7701e855f2ef39aa3fd6c71abdc6918a","105.245.164.140","Mozilla/5.0 (Windows NT 10.0; Win64; x64) AppleWebKit/537.36 (KHTML, like Gecko) Chrome/137.0.0.0 Safari/537.36","WebKit","Chrome","137.0.0.0","Windows","10.0","https://app.prolific.com/","en-US,en;q=0.9","67c3552b821be870e6f02737","686d226cabeef709c732f8e1","686e35c134648450c9da7773","67c3552b821be870e6f02737","2025-07-09T10:02:39.953Z","","","","","","StressQ","","","","","","","","","","","","","","","","","","","","","","","","","","","","","","","","","","","","","","50"
"5936","","<div style=""width:500px;"">
  <p>What best describes how you currently feel?</p>
  </div>","58","html-slider-response","73","1560533","0.0-10.0-4.6","227","1","2025-07-09 09:36:49","7701e855f2ef39aa3fd6c71abdc6918a","105.245.164.140","Mozilla/5.0 (Windows NT 10.0; Win64; x64) AppleWebKit/537.36 (KHTML, like Gecko) Chrome/137.0.0.0 Safari/537.36","WebKit","Chrome","137.0.0.0","Windows","10.0","https://app.prolific.com/","en-US,en;q=0.9","67c3552b821be870e6f02737","686d226cabeef709c732f8e1","686e35c134648450c9da7773","67c3552b821be870e6f02737","2025-07-09T10:02:45.892Z","","","","","","MotivationQ","","","","","","","","","","","","","","","","","","","","","","","","","","","","","","","","","","","","","","50"
"","","","","ctl-task-cpt","74","1629513","0.0-10.0-0.7","227","1","2025-07-09 09:36:49","7701e855f2ef39aa3fd6c71abdc6918a","105.245.164.140","Mozilla/5.0 (Windows NT 10.0; Win64; x64) AppleWebKit/537.36 (KHTML, like Gecko) Chrome/137.0.0.0 Safari/537.36","WebKit","Chrome","137.0.0.0","Windows","10.0","https://app.prolific.com/","en-US,en;q=0.9","67c3552b821be870e6f02737","686d226cabeef709c732f8e1","686e35c134648450c9da7773","67c3552b821be870e6f02737","2025-07-09T10:03:54.872Z","","","","","","","","","","","","","","","","win-only","1","g1:NE,g2:SW","0.3","8","0","1563701.4","2195.8","7204.5","65963.2","1","4","8","6","2","-8","-8","0","5","0","1854.3","3000","-1560","[""down"",""left""]","{""num_key_presses"":12,""num_perfect"":4,""num_errors"":0,""num_randdir"":8,""num_randdir_good_moves"":3,""num_whilered"":0,""num_whileblue"":0,""num_blue"":5,""num_good_moves"":7}","[278.1745535714286,272.0651785714286,0.6,278.1745535714286,272.0651785714286,101.1,278.1745535714286,272.0651785714286,208,278.1745535714286,272.0651785714286,309.1,278.1745535714286,272.0651785714286,416.8,278.1745535714286,272.0651785714286,521.2,278.1745535714286,272.0651785714286,623.2,278.1745535714286,272.0651785714286,724.2,278.1745535714286,272.0651785714286,833.3,278.1745535714286,276.0651785714286,939,142.1745535714286,442.0651785714286,1049.5,142.1745535714286,442.0651785714286,1155.3,142.1745535714286,442.0651785714286,1262,68.17455357142858,492.0651785714286,1366.9,65.17455357142858,496.0651785714286,1468,58.174553571428575,504.0651785714286,1570.4,56.174553571428575,506.0651785714286,1686.4,56.174553571428575,506.0651785714286,1796,56.174553571428575,506.0651785714286,1902.1,56.174553571428575,506.0651785714286,2014.9,56.174553571428575,506.0651785714286,2126.2,56.174553571428575,506.0651785714286,2237.2,56.174553571428575,506.0651785714286,2337.4,56.174553571428575,506.0651785714286,2438,56.174553571428575,506.0651785714286,2551.8,56.174553571428575,506.0651785714286,2661,56.174553571428575,506.0651785714286,2775.2,56.174553571428575,506.0651785714286,2886.4,56.174553571428575,506.0651785714286,2997.4,56.174553571428575,506.0651785714286,3109.9,56.174553571428575,506.0651785714286,3221.6,56.174553571428575,506.0651785714286,3336.7,56.174553571428575,506.0651785714286,3437.6,56.174553571428575,506.0651785714286,3538,56.174553571428575,506.0651785714286,3641.1,56.174553571428575,506.0651785714286,3756.3,56.174553571428575,506.0651785714286,3856.4,56.174553571428575,506.0651785714286,3959.1,56.174553571428575,506.0651785714286,4080.3,56.174553571428575,506.0651785714286,4198,56.174553571428575,506.0651785714286,4301.4,56.174553571428575,506.0651785714286,4407,56.174553571428575,506.0651785714286,4510.1,56.174553571428575,506.0651785714286,4623.8,56.174553571428575,506.0651785714286,4730.2,56.174553571428575,506.0651785714286,4833.9,56.174553571428575,506.0651785714286,4939.5]","[1551.1,1551.2,1000,0.1,551.1,""oops"",""down"",""right"",""bad_move"",9167.3,7615.1,3473.1,5213.2,481,""smooth"",""down"",""down"",""good_move"",22395.5,13227.7,2492.7,19503.6,399.3,""oops"",""down"",""up"",""bad_move"",25755.9,3359.5,2097.4,22396.4,1262.1,""smooth"",""down"",""down"",""good_move"",29195.3,3439,2817.2,25756.3,621.8,""oops"",""down"",""up"",""bad_move"",34292.2,5096.5,2843.7,29195.7,2252.8,""oops"",""down"",""left"",""good_move"",37489.5,3196.8,2720.1,34292.7,476.7,""oops"",""down"",""up"",""bad_move"",40737.7,3247.4,2688.3,37490.3,559.1,""smooth"",""down"",""down"",""good_move"",43838.2,3100.2,2554.8,40738.1,545.3,""oops"",""down"",""up"",""bad_move"",47089.6,3250.2,2565.3,43839.4,684.9,""oops"",""down"",""left"",""good_move"",49871.8,2781.7,2348,47090.1,433.7,""oops"",""down"",""left"",""good_move"",56070.9,6198.2,2035,53583.8,452.1,""smooth"",""down"",""down"",""good_move""]","",""
"4515","","<div style=""width:500px;"">
  <p>What determined the result of this run?</p>
  </div>","42","html-slider-response","75","1634032","0.0-10.0-1.7","227","1","2025-07-09 09:36:49","7701e855f2ef39aa3fd6c71abdc6918a","105.245.164.140","Mozilla/5.0 (Windows NT 10.0; Win64; x64) AppleWebKit/537.36 (KHTML, like Gecko) Chrome/137.0.0.0 Safari/537.36","WebKit","Chrome","137.0.0.0","Windows","10.0","https://app.prolific.com/","en-US,en;q=0.9","67c3552b821be870e6f02737","686d226cabeef709c732f8e1","686e35c134648450c9da7773","67c3552b821be870e6f02737","2025-07-09T10:03:59.391Z","","","","","","AttribQ","","","","","","","","","","","","","","","","","","","","","","","","","","","","","","","","","","","","","","50"
"16267","","<div style=""width:500px;"">
  <p>How much control did you have over the ball?</p>
  </div>","0","html-slider-response","76","1650301","0.0-10.0-2.7","227","1","2025-07-09 09:36:49","7701e855f2ef39aa3fd6c71abdc6918a","105.245.164.140","Mozilla/5.0 (Windows NT 10.0; Win64; x64) AppleWebKit/537.36 (KHTML, like Gecko) Chrome/137.0.0.0 Safari/537.36","WebKit","Chrome","137.0.0.0","Windows","10.0","https://app.prolific.com/","en-US,en;q=0.9","67c3552b821be870e6f02737","686d226cabeef709c732f8e1","686e35c134648450c9da7773","67c3552b821be870e6f02737","2025-07-09T10:04:15.660Z","","","","","","ControlQ","","","","","","","","","","","","","","","","","","","","","","","","","","","","","","","","","","","","","","50"
"9301","","<div style=""width:500px;"">
  <p>How would you describe your current emotional state?</p>
  </div>","56","html-slider-response","77","1659605","0.0-10.0-3.7","227","1","2025-07-09 09:36:49","7701e855f2ef39aa3fd6c71abdc6918a","105.245.164.140","Mozilla/5.0 (Windows NT 10.0; Win64; x64) AppleWebKit/537.36 (KHTML, like Gecko) Chrome/137.0.0.0 Safari/537.36","WebKit","Chrome","137.0.0.0","Windows","10.0","https://app.prolific.com/","en-US,en;q=0.9","67c3552b821be870e6f02737","686d226cabeef709c732f8e1","686e35c134648450c9da7773","67c3552b821be870e6f02737","2025-07-09T10:04:24.965Z","","","","","","StressQ","","","","","","","","","","","","","","","","","","","","","","","","","","","","","","","","","","","","","","50"
"7911","","<div style=""width:500px;"">
  <p>What best describes how you currently feel?</p>
  </div>","62","html-slider-response","78","1667520","0.0-10.0-4.7","227","1","2025-07-09 09:36:49","7701e855f2ef39aa3fd6c71abdc6918a","105.245.164.140","Mozilla/5.0 (Windows NT 10.0; Win64; x64) AppleWebKit/537.36 (KHTML, like Gecko) Chrome/137.0.0.0 Safari/537.36","WebKit","Chrome","137.0.0.0","Windows","10.0","https://app.prolific.com/","en-US,en;q=0.9","67c3552b821be870e6f02737","686d226cabeef709c732f8e1","686e35c134648450c9da7773","67c3552b821be870e6f02737","2025-07-09T10:04:32.880Z","","","","","","MotivationQ","","","","","","","","","","","","","","","","","","","","","","","","","","","","","","","","","","","","","","50"
"","","","","ctl-task-cpt","79","1726847","0.0-10.0-0.8","227","1","2025-07-09 09:36:49","7701e855f2ef39aa3fd6c71abdc6918a","105.245.164.140","Mozilla/5.0 (Windows NT 10.0; Win64; x64) AppleWebKit/537.36 (KHTML, like Gecko) Chrome/137.0.0.0 Safari/537.36","WebKit","Chrome","137.0.0.0","Windows","10.0","https://app.prolific.com/","en-US,en;q=0.9","67c3552b821be870e6f02737","686d226cabeef709c732f8e1","686e35c134648450c9da7773","67c3552b821be870e6f02737","2025-07-09T10:05:32.206Z","","","","","","","","","","","","","","","","win-only","3","g1:SW,g2:NE","0.2","9","0","1670690.9","2124.8","7141.2","56304.5","1","4","4","6","1","1","-1","0","0","0","1667.1","3000","385","[""down"",""left""]","{""num_key_presses"":15,""num_perfect"":2,""num_errors"":2,""num_randdir"":11,""num_randdir_good_moves"":6,""num_whilered"":0,""num_whileblue"":1,""num_blue"":3,""num_good_moves"":9}","[275.1745535714286,275.0651785714286,0.8,275.1745535714286,275.0651785714286,101.7,275.1745535714286,275.0651785714286,207.7,275.1745535714286,275.0651785714286,308.5,275.1745535714286,275.0651785714286,414.1,275.1745535714286,275.0651785714286,521.8,275.1745535714286,275.0651785714286,637.6,148.1745535714286,397.0651785714286,750.9,112.17455357142858,424.0651785714286,861.5,80.17455357142858,452.0651785714286,963.3,73.17455357142858,482.0651785714286,1077,71.17455357142858,485.0651785714286,1189.4,68.17455357142858,485.0651785714286,1298.3,57.174553571428575,490.0651785714286,1403.8,57.174553571428575,490.0651785714286,1514.6,57.174553571428575,490.0651785714286,1625.7,57.174553571428575,490.0651785714286,1726.2,57.174553571428575,490.0651785714286,1829,57.174553571428575,490.0651785714286,1938,57.174553571428575,490.0651785714286,2040.4,57.174553571428575,490.0651785714286,2149.7,57.174553571428575,490.0651785714286,2257.2,57.174553571428575,490.0651785714286,2359.8,57.174553571428575,490.0651785714286,2462.7,57.174553571428575,490.0651785714286,2569.3,57.174553571428575,490.0651785714286,2670.7,57.174553571428575,490.0651785714286,2778,57.174553571428575,490.0651785714286,2884.4,57.174553571428575,490.0651785714286,2992,57.174553571428575,490.0651785714286,3092.2,57.174553571428575,490.0651785714286,3212.9,57.174553571428575,490.0651785714286,3317.8,57.174553571428575,490.0651785714286,3437.3,57.174553571428575,490.0651785714286,3551.2,57.174553571428575,490.0651785714286,3657.1,57.174553571428575,490.0651785714286,3768.4,57.174553571428575,490.0651785714286,3872.2,57.174553571428575,490.0651785714286,3982.7,57.174553571428575,490.0651785714286,4100.6,57.174553571428575,490.0651785714286,4214.1,57.174553571428575,490.0651785714286,4320,57.174553571428575,490.0651785714286,4434.1,57.174553571428575,490.0651785714286,4546.2,57.174553571428575,490.0651785714286,4656.7,57.174553571428575,490.0651785714286,4769,57.174553571428575,490.0651785714286,4881.6,57.174553571428575,490.0651785714286,4996.1]","[1604.8,1604.8,1000,0,604.8,""oops"",""down"",""left"",""good_move"",4913.3,3307.8,2699.5,1605.5,608.3,""oops"",""down"",""left"",""good_move"",7625.4,2711.3,1937.7,4914.2,773.5,""oops"",""down"",""right"",""bad_move"",10585.6,2958.7,2499.9,7626.9,458.8,""oops"",""down"",""left"",""good_move"",13335.6,2749.2,2267.6,10586.4,481.6,""oops"",""down"",""up"",""bad_move"",17051.5,3715.4,2444.4,13336.3,1270.9,""oops"",""down"",""up"",""bad_move"",17613.7,561.7,1531.7,17052.1,-970.1,""error"",""-"",""-"",""no_move"",25615.9,8001.7,2490.4,22632.5,493.1,""oops"",""down"",""up"",""bad_move"",28213.7,2597.4,2029.8,25616.4,567.6,""smooth"",""down"",""down"",""good_move"",34265.9,6051.5,2294.5,31628.4,343.1,""while_blue"",""down"",""down"",""good_move"",37622.1,3355.5,2753.3,34266.6,602.2,""oops"",""down"",""right"",""bad_move"",40545.7,2923.1,2001,37622.6,922.1,""smooth"",""down"",""down"",""good_move"",43566.6,3018.8,2419.1,40547.8,599.7,""oops"",""down"",""down"",""good_move"",46492.9,2925.6,2390.9,43567.3,534.7,""oops"",""down"",""down"",""good_move"",48834.7,2341.3,1890.5,46493.4,450.8,""oops"",""left"",""left"",""good_move""]","",""
"10261","","<div style=""width:500px;"">
  <p>What determined the result of this run?</p>
  </div>","46","html-slider-response","80","1737111","0.0-10.0-1.8","227","1","2025-07-09 09:36:49","7701e855f2ef39aa3fd6c71abdc6918a","105.245.164.140","Mozilla/5.0 (Windows NT 10.0; Win64; x64) AppleWebKit/537.36 (KHTML, like Gecko) Chrome/137.0.0.0 Safari/537.36","WebKit","Chrome","137.0.0.0","Windows","10.0","https://app.prolific.com/","en-US,en;q=0.9","67c3552b821be870e6f02737","686d226cabeef709c732f8e1","686e35c134648450c9da7773","67c3552b821be870e6f02737","2025-07-09T10:05:42.470Z","","","","","","AttribQ","","","","","","","","","","","","","","","","","","","","","","","","","","","","","","","","","","","","","","50"
"5330","","<div style=""width:500px;"">
  <p>How much control did you have over the ball?</p>
  </div>","15","html-slider-response","81","1742443","0.0-10.0-2.8","227","1","2025-07-09 09:36:49","7701e855f2ef39aa3fd6c71abdc6918a","105.245.164.140","Mozilla/5.0 (Windows NT 10.0; Win64; x64) AppleWebKit/537.36 (KHTML, like Gecko) Chrome/137.0.0.0 Safari/537.36","WebKit","Chrome","137.0.0.0","Windows","10.0","https://app.prolific.com/","en-US,en;q=0.9","67c3552b821be870e6f02737","686d226cabeef709c732f8e1","686e35c134648450c9da7773","67c3552b821be870e6f02737","2025-07-09T10:05:47.802Z","","","","","","ControlQ","","","","","","","","","","","","","","","","","","","","","","","","","","","","","","","","","","","","","","50"
"7495","","<div style=""width:500px;"">
  <p>How would you describe your current emotional state?</p>
  </div>","57","html-slider-response","82","1749940","0.0-10.0-3.8","227","1","2025-07-09 09:36:49","7701e855f2ef39aa3fd6c71abdc6918a","105.245.164.140","Mozilla/5.0 (Windows NT 10.0; Win64; x64) AppleWebKit/537.36 (KHTML, like Gecko) Chrome/137.0.0.0 Safari/537.36","WebKit","Chrome","137.0.0.0","Windows","10.0","https://app.prolific.com/","en-US,en;q=0.9","67c3552b821be870e6f02737","686d226cabeef709c732f8e1","686e35c134648450c9da7773","67c3552b821be870e6f02737","2025-07-09T10:05:55.299Z","","","","","","StressQ","","","","","","","","","","","","","","","","","","","","","","","","","","","","","","","","","","","","","","50"
"3155","","<div style=""width:500px;"">
  <p>What best describes how you currently feel?</p>
  </div>","63","html-slider-response","83","1753098","0.0-10.0-4.8","227","1","2025-07-09 09:36:49","7701e855f2ef39aa3fd6c71abdc6918a","105.245.164.140","Mozilla/5.0 (Windows NT 10.0; Win64; x64) AppleWebKit/537.36 (KHTML, like Gecko) Chrome/137.0.0.0 Safari/537.36","WebKit","Chrome","137.0.0.0","Windows","10.0","https://app.prolific.com/","en-US,en;q=0.9","67c3552b821be870e6f02737","686d226cabeef709c732f8e1","686e35c134648450c9da7773","67c3552b821be870e6f02737","2025-07-09T10:05:58.458Z","","","","","","MotivationQ","","","","","","","","","","","","","","","","","","","","","","","","","","","","","","","","","","","","","","50"
"","","","","ctl-task-cpt","84","1814836","0.0-10.0-0.9","227","1","2025-07-09 09:36:49","7701e855f2ef39aa3fd6c71abdc6918a","105.245.164.140","Mozilla/5.0 (Windows NT 10.0; Win64; x64) AppleWebKit/537.36 (KHTML, like Gecko) Chrome/137.0.0.0 Safari/537.36","WebKit","Chrome","137.0.0.0","Windows","10.0","https://app.prolific.com/","en-US,en;q=0.9","67c3552b821be870e6f02737","686d226cabeef709c732f8e1","686e35c134648450c9da7773","67c3552b821be870e6f02737","2025-07-09T10:07:00.195Z","","","","","","","","","","","","","","","","win-only","3","g1:SW,g2:NE","0.4","10","0","1756266.6","1692.8","6703.1","58706.2","1","4","8","6","2","8","8","8","0","0.06060606060606061","1458.7","3000","65","[""up"",""right""]","{""num_key_presses"":14,""num_perfect"":7,""num_errors"":0,""num_randdir"":7,""num_randdir_good_moves"":3,""num_whilered"":0,""num_whileblue"":0,""num_blue"":2,""num_good_moves"":10}","[277.1745535714286,276.0651785714286,0.3,277.1745535714286,276.0651785714286,111.5,277.1745535714286,276.0651785714286,217.4,277.1745535714286,276.0651785714286,324.5,277.1745535714286,276.0651785714286,431.8,277.1745535714286,276.0651785714286,544.3,277.1745535714286,276.0651785714286,647.5,482.1745535714286,40.065178571428575,759.8,504.1745535714286,26.065178571428575,876.5,516.1745535714285,22.065178571428575,988.1,505.1745535714286,36.065178571428575,1089.4,501.1745535714286,41.065178571428575,1201.9,501.1745535714286,41.065178571428575,1315.5,501.1745535714286,41.065178571428575,1423.2,501.1745535714286,41.065178571428575,1535.2,501.1745535714286,41.065178571428575,1646.8,501.1745535714286,41.065178571428575,1759,501.1745535714286,41.065178571428575,1864.8,501.1745535714286,41.065178571428575,1971.8,501.1745535714286,41.065178571428575,2078.8,501.1745535714286,41.065178571428575,2181.8,501.1745535714286,41.065178571428575,2290.7,501.1745535714286,41.065178571428575,2405.7,501.1745535714286,41.065178571428575,2509,501.1745535714286,41.065178571428575,2625.2,501.1745535714286,41.065178571428575,2731.5,501.1745535714286,41.065178571428575,2838,501.1745535714286,41.065178571428575,2941.2,501.1745535714286,41.065178571428575,3051.6,501.1745535714286,41.065178571428575,3160.2,501.1745535714286,41.065178571428575,3265,501.1745535714286,41.065178571428575,3379.2,501.1745535714286,41.065178571428575,3486.5,501.1745535714286,41.065178571428575,3593.5,501.1745535714286,41.065178571428575,3703.6,501.1745535714286,41.065178571428575,3810.8,501.1745535714286,41.065178571428575,3920.4,501.1745535714286,41.065178571428575,4030,501.1745535714286,41.065178571428575,4143.3,501.1745535714286,41.065178571428575,4254.2,501.1745535714286,41.065178571428575,4373.7,501.1745535714286,41.065178571428575,4487.4,501.1745535714286,41.065178571428575,4594.4,501.1745535714286,41.065178571428575,4708.1,501.1745535714286,41.065178571428575,4821,501.1745535714286,41.065178571428575,4931.7]","[1666.9,1666.9,1000,0,667,""smooth"",""up"",""up"",""good_move"",4343.8,2676.2,2036.7,1667.6,639.5,""smooth"",""up"",""up"",""good_move"",7938.2,3593.7,3182.9,4344.5,410.9,""oops"",""right"",""left"",""bad_move"",14378.3,6439.2,1938.7,12012.7,427,""oops"",""right"",""right"",""good_move"",18741,4361.7,3837.2,14379.4,524.4,""oops"",""right"",""down"",""bad_move"",21887.6,3146,2504.1,18741.6,641.9,""smooth"",""right"",""right"",""good_move"",25315.8,3427.7,2951.4,21888.1,476.3,""oops"",""right"",""left"",""bad_move"",28643.2,3326.3,2700.3,25316.9,626,""smooth"",""right"",""right"",""good_move"",33143.5,4499.9,3191.5,28643.6,1308.4,""oops"",""right"",""down"",""bad_move"",36024.3,2880.3,2398.5,33144,481.8,""oops"",""right"",""up"",""good_move"",38989.1,2963.5,2371.5,36025.6,592.1,""oops"",""right"",""up"",""good_move"",41887,2897.4,2121.5,38989.7,775.9,""smooth"",""right"",""right"",""good_move"",48681.7,6794,3388.4,44795.6,497.7,""smooth"",""right"",""right"",""good_move"",51661.2,2979,2573.4,48682.3,405.6,""smooth"",""up"",""up"",""good_move""]","",""
"15839","","<div style=""width:500px;"">
  <p>What determined the result of this run?</p>
