"rt","response_timestamp","stimulus","response","trial_type","trial_index","time_elapsed","internal_node_id","run_id","condition","recorded_at","source_code_version","ip","user_agent","device","browser","browser_version","platform","platform_version","referer","accept_language","PROLIFIC_PID","STUDY_ID","SESSION_ID","prolific_id","realtime","view_history","question_order","consent","success","question_id","eventType","responses","item_order","radio_event_ids","radio_event_times","key_event_times","mouse_event_times","straightlining","zigzagging","honeypot","which_type","canvas_config","goals_layout","control_level","trial_number","tutorial_trial_number","trial_start_time","phase1_start_time","phase2_start_time","phase3_start_time","goal_1_value","goal_1_distance","goal_2_value","goal_2_distance","goal_selected","outcome","outcome_total","participant_final_score","participant_initial_score","participant_final_score_prop","goal_choice_rt","allocated_time","allocated_time_remaining","goal_direction","counts","mouse_movements","key_presses","correct","slider_start"
"832756","1752053503153","<p style='font-size:40px;line-height:1.25'><strong>Welcome to the experiment!</strong></p><p style='font-size:1.1em;line-height:1.25'>Thank you for your interest in our experiment! Before you begin, it is important that we obtain your informed consent to participate in the study.</p><p style='font-size:1.1em;line-height:1.25'>On the next screen will be an <strong>information sheet</strong> for you to read. To participate in the study we need you to read this information sheet and the following consent form carefully. If you agree with all the statements, please click the <strong>I agree</strong> button.</p><p style='font-size:1.1em;line-height:1.25'>Press <strong>Next</strong> to read the information sheet.</p>","0","custom-html-button-response","0","832764","0.0-0.0","201","1","2025-07-09 09:17:46","7701e855f2ef39aa3fd6c71abdc6918a","41.150.35.125","Mozilla/5.0 (Windows NT 10.0; Win64; x64) AppleWebKit/537.36 (KHTML, like Gecko) Chrome/138.0.0.0 Safari/537.36","WebKit","Chrome","138.0.0.0","Windows","10.0","https://app.prolific.com/","en-US,en;q=0.8","67c7672373207a4fb29efe7f","686d226cabeef709c732f8e1","686e32267de84b1dc20f5c5c","67c7672373207a4fb29efe7f","2025-07-09T09:31:43.159Z","","","","","","","","","","","","","","","","","","","","","","","","","","","","","","","","","","","","","","","","","","","",""
"66613","","","","instructions","1","899382","0.0-1.0","201","1","2025-07-09 09:17:46","7701e855f2ef39aa3fd6c71abdc6918a","41.150.35.125","Mozilla/5.0 (Windows NT 10.0; Win64; x64) AppleWebKit/537.36 (KHTML, like Gecko) Chrome/138.0.0.0 Safari/537.36","WebKit","Chrome","138.0.0.0","Windows","10.0","https://app.prolific.com/","en-US,en;q=0.8","67c7672373207a4fb29efe7f","686d226cabeef709c732f8e1","686e32267de84b1dc20f5c5c","67c7672373207a4fb29efe7f","","[{""page_index"":0,""viewing_time"":38062},{""page_index"":1,""viewing_time"":28550}]","","","","","","","","","","","","","","","","","","","","","","","","","","","","","","","","","","","","","","","","","","",""
"16496","","","{""Q0"":"""",""Q1"":"""",""Q2"":"""",""Q3"":"""",""Q4"":"""",""Q5"":"""",""Q6"":""I agree""}","survey-multi-choice","2","915887","0.0-2.0","201","1","2025-07-09 09:17:46","7701e855f2ef39aa3fd6c71abdc6918a","41.150.35.125","Mozilla/5.0 (Windows NT 10.0; Win64; x64) AppleWebKit/537.36 (KHTML, like Gecko) Chrome/138.0.0.0 Safari/537.36","WebKit","Chrome","138.0.0.0","Windows","10.0","https://app.prolific.com/","en-US,en;q=0.8","67c7672373207a4fb29efe7f","686d226cabeef709c732f8e1","686e32267de84b1dc20f5c5c","67c7672373207a4fb29efe7f","","","[0,1,2,3,4,5,6]","true","","","","","","","","","","","","","","","","","","","","","","","","","","","","","","","","","","","","","","","","",""
"39890","","","","fullscreen","3","956804","0.0-4.0","201","1","2025-07-09 09:17:46","7701e855f2ef39aa3fd6c71abdc6918a","41.150.35.125","Mozilla/5.0 (Windows NT 10.0; Win64; x64) AppleWebKit/537.36 (KHTML, like Gecko) Chrome/138.0.0.0 Safari/537.36","WebKit","Chrome","138.0.0.0","Windows","10.0","https://app.prolific.com/","en-US,en;q=0.8","67c7672373207a4fb29efe7f","686d226cabeef709c732f8e1","686e32267de84b1dc20f5c5c","67c7672373207a4fb29efe7f","","","","","true","","","","","","","","","","","","","","","","","","","","","","","","","","","","","","","","","","","","","","","",""
"7465","1752053634666"," <p style='font-size:1.1em;line-height:1.25'>Thank you for completing the consent form and closing all other tabs.</p><p style='font-size:1.1em;line-height:1.25'>We will now invite you to fill in some demographic information and questionnaires, before starting the game.<br>This will take about 5 minutes.<br></p><p style='font-size:1.1em;line-height:1.25'>Press the <strong>Next</strong> button to continue.</p>","0","custom-html-button-response","4","964273","0.0-5.0","201","1","2025-07-09 09:17:46","7701e855f2ef39aa3fd6c71abdc6918a","41.150.35.125","Mozilla/5.0 (Windows NT 10.0; Win64; x64) AppleWebKit/537.36 (KHTML, like Gecko) Chrome/138.0.0.0 Safari/537.36","WebKit","Chrome","138.0.0.0","Windows","10.0","https://app.prolific.com/","en-US,en;q=0.8","67c7672373207a4fb29efe7f","686d226cabeef709c732f8e1","686e32267de84b1dc20f5c5c","67c7672373207a4fb29efe7f","2025-07-09T09:33:54.668Z","","","","","","","","","","","","","","","","","","","","","","","","","","","","","","","","","","","","","","","","","","","",""
"22998","","","{""age"":""35""}","survey-text","5","987284","0.0-6.0-0.0","201","1","2025-07-09 09:17:46","7701e855f2ef39aa3fd6c71abdc6918a","41.150.35.125","Mozilla/5.0 (Windows NT 10.0; Win64; x64) AppleWebKit/537.36 (KHTML, like Gecko) Chrome/138.0.0.0 Safari/537.36","WebKit","Chrome","138.0.0.0","Windows","10.0","https://app.prolific.com/","en-US,en;q=0.8","67c7672373207a4fb29efe7f","686d226cabeef709c732f8e1","686e32267de84b1dc20f5c5c","67c7672373207a4fb29efe7f","","","","","","0","demographics","","","","","","","","","","","","","","","","","","","","","","","","","","","","","","","","","","","","","",""
"3714","","","{""gender_identity"":""female/woman""}","survey-multi-choice","6","991002","0.0-6.0-1.0","201","1","2025-07-09 09:17:46","7701e855f2ef39aa3fd6c71abdc6918a","41.150.35.125","Mozilla/5.0 (Windows NT 10.0; Win64; x64) AppleWebKit/537.36 (KHTML, like Gecko) Chrome/138.0.0.0 Safari/537.36","WebKit","Chrome","138.0.0.0","Windows","10.0","https://app.prolific.com/","en-US,en;q=0.8","67c7672373207a4fb29efe7f","686d226cabeef709c732f8e1","686e32267de84b1dc20f5c5c","67c7672373207a4fb29efe7f","","","[0]","","","1","demographics","","","","","","","","","","","","","","","","","","","","","","","","","","","","","","","","","","","","","",""
"3581","","","{""assigned_sex"":""female""}","survey-multi-choice","7","994587","0.0-6.0-2.0","201","1","2025-07-09 09:17:46","7701e855f2ef39aa3fd6c71abdc6918a","41.150.35.125","Mozilla/5.0 (Windows NT 10.0; Win64; x64) AppleWebKit/537.36 (KHTML, like Gecko) Chrome/138.0.0.0 Safari/537.36","WebKit","Chrome","138.0.0.0","Windows","10.0","https://app.prolific.com/","en-US,en;q=0.8","67c7672373207a4fb29efe7f","686d226cabeef709c732f8e1","686e32267de84b1dc20f5c5c","67c7672373207a4fb29efe7f","","","[0]","","","2","demographics","","","","","","","","","","","","","","","","","","","","","","","","","","","","","","","","","","","","","",""
"7961","","","{""menstrual_cycle"":""Yes""}","survey-multi-choice","8","1002552","0.0-6.0-3.0","201","1","2025-07-09 09:17:46","7701e855f2ef39aa3fd6c71abdc6918a","41.150.35.125","Mozilla/5.0 (Windows NT 10.0; Win64; x64) AppleWebKit/537.36 (KHTML, like Gecko) Chrome/138.0.0.0 Safari/537.36","WebKit","Chrome","138.0.0.0","Windows","10.0","https://app.prolific.com/","en-US,en;q=0.8","67c7672373207a4fb29efe7f","686d226cabeef709c732f8e1","686e32267de84b1dc20f5c5c","67c7672373207a4fb29efe7f","","","[0]","","","4","demographics","","","","","","","","","","","","","","","","","","","","","","","","","","","","","","","","","","","","","",""
"8856","","","{""education"":""Master's Degree (e.g., MSc)""}","survey-multi-choice","9","1011415","0.0-6.0-4.0","201","1","2025-07-09 09:17:46","7701e855f2ef39aa3fd6c71abdc6918a","41.150.35.125","Mozilla/5.0 (Windows NT 10.0; Win64; x64) AppleWebKit/537.36 (KHTML, like Gecko) Chrome/138.0.0.0 Safari/537.36","WebKit","Chrome","138.0.0.0","Windows","10.0","https://app.prolific.com/","en-US,en;q=0.8","67c7672373207a4fb29efe7f","686d226cabeef709c732f8e1","686e32267de84b1dc20f5c5c","67c7672373207a4fb29efe7f","","","[0]","","","5","demographics","","","","","","","","","","","","","","","","","","","","","","","","","","","","","","","","","","","","","",""
"4501","","","{""education"":""Bachelor's Degree (e.g., BA)""}","survey-multi-choice","10","1015920","0.0-6.0-5.0","201","1","2025-07-09 09:17:46","7701e855f2ef39aa3fd6c71abdc6918a","41.150.35.125","Mozilla/5.0 (Windows NT 10.0; Win64; x64) AppleWebKit/537.36 (KHTML, like Gecko) Chrome/138.0.0.0 Safari/537.36","WebKit","Chrome","138.0.0.0","Windows","10.0","https://app.prolific.com/","en-US,en;q=0.8","67c7672373207a4fb29efe7f","686d226cabeef709c732f8e1","686e32267de84b1dc20f5c5c","67c7672373207a4fb29efe7f","2025-07-09T09:34:46.315Z","","[0]","","","6","demographics","","","","","","","","","","","","","","","","","","","","","","","","","","","","","","","","","","","","","",""
"31861","","","{""mental_health_condition"":""no"",""mental_health_treatment"":""no"",""psychiatric_medication"":""no""}","survey-text","11","1047815","0.0-7.0-0.0","201","1","2025-07-09 09:17:46","7701e855f2ef39aa3fd6c71abdc6918a","41.150.35.125","Mozilla/5.0 (Windows NT 10.0; Win64; x64) AppleWebKit/537.36 (KHTML, like Gecko) Chrome/138.0.0.0 Safari/537.36","WebKit","Chrome","138.0.0.0","Windows","10.0","https://app.prolific.com/","en-US,en;q=0.8","67c7672373207a4fb29efe7f","686d226cabeef709c732f8e1","686e32267de84b1dc20f5c5c","67c7672373207a4fb29efe7f","2025-07-09T09:35:18.209Z","","","","","1","mental_health","","","","","","","","","","","","","","","","","","","","","","","","","","","","","","","","","","","","","",""
"35789","","","{""depression_history"":[""Yes"",""No""]}","survey-multi-select","12","1083612","0.0-7.0-1.0","201","1","2025-07-09 09:17:46","7701e855f2ef39aa3fd6c71abdc6918a","41.150.35.125","Mozilla/5.0 (Windows NT 10.0; Win64; x64) AppleWebKit/537.36 (KHTML, like Gecko) Chrome/138.0.0.0 Safari/537.36","WebKit","Chrome","138.0.0.0","Windows","10.0","https://app.prolific.com/","en-US,en;q=0.8","67c7672373207a4fb29efe7f","686d226cabeef709c732f8e1","686e32267de84b1dc20f5c5c","67c7672373207a4fb29efe7f","","","[0]","","","","mental_health","","","","","","","","","","","","","","","","","","","","","","","","","","","","","","","","","","","","","",""
"9938","","","{""depression_episodes"":""1-2"",""depression_recent"":""Within the past year""}","survey-multi-choice","13","1093554","0.0-7.0-2.0-0.0","201","1","2025-07-09 09:17:46","7701e855f2ef39aa3fd6c71abdc6918a","41.150.35.125","Mozilla/5.0 (Windows NT 10.0; Win64; x64) AppleWebKit/537.36 (KHTML, like Gecko) Chrome/138.0.0.0 Safari/537.36","WebKit","Chrome","138.0.0.0","Windows","10.0","https://app.prolific.com/","en-US,en;q=0.8","67c7672373207a4fb29efe7f","686d226cabeef709c732f8e1","686e32267de84b1dc20f5c5c","67c7672373207a4fb29efe7f","2025-07-09T09:36:03.949Z","","[0,1]","","","3","mental_health","","","","","","","","","","","","","","","","","","","","","","","","","","","","","","","","","","","","","",""
"72370.39999999944","","","","survey-template","14","1165936","0.0-7.0-3.0","201","1","2025-07-09 09:17:46","7701e855f2ef39aa3fd6c71abdc6918a","41.150.35.125","Mozilla/5.0 (Windows NT 10.0; Win64; x64) AppleWebKit/537.36 (KHTML, like Gecko) Chrome/138.0.0.0 Safari/537.36","WebKit","Chrome","138.0.0.0","Windows","10.0","https://app.prolific.com/","en-US,en;q=0.8","67c7672373207a4fb29efe7f","686d226cabeef709c732f8e1","686e32267de84b1dc20f5c5c","67c7672373207a4fb29efe7f","2025-07-09T09:37:16.331Z","","","","","","ius","{""Q01"":""2"",""Q02"":""3"",""Q03"":""1"",""Q04"":""3"",""Q05"":""4"",""Q06"":""1"",""Q07"":""1"",""Q08"":""0"",""Q09"":""3"",""Q10"":""1"",""Q11"":""0"",""Q12"":""4"",""Q13"":""2""}","[0,1,2,3,4,5,6,7,8,9,10,11,12]","[""Q01"",""Q02"",""Q03"",""Q04"",""Q05"",""Q06"",""Q07"",""Q08"",""Q09"",""Q10"",""Q11"",""Q12"",""Q13""]","[10586.5,13965.599999999627,20242.39999999944,24066.200000000186,29942.599999999627,38464.59999999963,40673,44400.59999999963,52048.799999999814,59785.89999999944,62809.200000000186,68130,71118.59999999963]","[]","[10586.5,13965.599999999627,20242.39999999944,24066.200000000186,29942.599999999627,38464.59999999963,40673,44400.59999999963,52048.799999999814,56198.09999999963,59785.89999999944,62809.200000000186,68130,71118.59999999963,72362.70000000019]","0.3076923076923077","0.4166666666666667","0","","","","","","","","","","","","","","","","","","","","","","","","","","","","",""
"4779","1752053841113","<p style='font-size:1.1em;line-height:1.25'>In the following, we will ask you a few questions relating to your experiences over the past month.<br></p><p style='font-size:1.1em;line-height:1.25'>Press the <strong>Next</strong> button to continue.</p>","0","custom-html-button-response","15","1170720","0.0-7.0-4.0","201","1","2025-07-09 09:17:46","7701e855f2ef39aa3fd6c71abdc6918a","41.150.35.125","Mozilla/5.0 (Windows NT 10.0; Win64; x64) AppleWebKit/537.36 (KHTML, like Gecko) Chrome/138.0.0.0 Safari/537.36","WebKit","Chrome","138.0.0.0","Windows","10.0","https://app.prolific.com/","en-US,en;q=0.8","67c7672373207a4fb29efe7f","686d226cabeef709c732f8e1","686e32267de84b1dc20f5c5c","67c7672373207a4fb29efe7f","2025-07-09T09:37:21.114Z","","","","","","","","","","","","","","","","","","","","","","","","","","","","","","","","","","","","","","","","","","","",""
"75648.79999999981","","","","survey-template","16","1246375","0.0-7.0-5.0","201","1","2025-07-09 09:17:46","7701e855f2ef39aa3fd6c71abdc6918a","41.150.35.125","Mozilla/5.0 (Windows NT 10.0; Win64; x64) AppleWebKit/537.36 (KHTML, like Gecko) Chrome/138.0.0.0 Safari/537.36","WebKit","Chrome","138.0.0.0","Windows","10.0","https://app.prolific.com/","en-US,en;q=0.8","67c7672373207a4fb29efe7f","686d226cabeef709c732f8e1","686e32267de84b1dc20f5c5c","67c7672373207a4fb29efe7f","2025-07-09T09:38:36.769Z","","","","","","pss","{""Q01"":""2"",""Q02"":""2"",""Q03"":""2"",""Q04"":""1"",""Q05"":""1"",""Q06"":""2"",""Q07"":""1"",""Q08"":""1"",""Q09"":""2"",""Q10"":""1""}","[0,1,2,3,4,5,6,7,8,9]","[""Q01"",""Q02"",""Q03"",""Q03"",""Q04"",""Q04"",""Q05"",""Q06"",""Q07"",""Q08"",""Q09"",""Q10""]","[21990.60000000056,27082.200000000186,34775.700000000186,36842.799999999814,40533.700000000186,42282.40000000037,47248.40000000037,57090,60810.60000000056,65293.90000000037,70030.10000000056,73698.5]","[]","[1.6000000005587935,21990.60000000056,27082.200000000186,32751.60000000056,34775.700000000186,36842.799999999814,40533.700000000186,42282.40000000037,47248.40000000037,57090,60810.60000000056,65293.90000000037,70030.10000000056,73698.5,75646.70000000019]","0.5","0.5555555555555556","0","","","","","","","","","","","","","","","","","","","","","","","","","","","","",""
"3901","1752053920672","<p style='font-size:1.1em;line-height:1.25'>Thank you for your answers! Now we will ask you a few more questions relating to your feelings in the last 24 hours.<br></p><p style='font-size:1.1em;line-height:1.25'>Press the <strong>Next</strong> button to continue.</p>","0","custom-html-button-response","17","1250279","0.0-7.0-6.0","201","1","2025-07-09 09:17:46","7701e855f2ef39aa3fd6c71abdc6918a","41.150.35.125","Mozilla/5.0 (Windows NT 10.0; Win64; x64) AppleWebKit/537.36 (KHTML, like Gecko) Chrome/138.0.0.0 Safari/537.36","WebKit","Chrome","138.0.0.0","Windows","10.0","https://app.prolific.com/","en-US,en;q=0.8","67c7672373207a4fb29efe7f","686d226cabeef709c732f8e1","686e32267de84b1dc20f5c5c","67c7672373207a4fb29efe7f","2025-07-09T09:38:40.673Z","","","","","","","","","","","","","","","","","","","","","","","","","","","","","","","","","","","","","","","","","","","",""
"65386.90000000037","","","","survey-template","18","1315679","0.0-7.0-7.0","201","1","2025-07-09 09:17:46","7701e855f2ef39aa3fd6c71abdc6918a","41.150.35.125","Mozilla/5.0 (Windows NT 10.0; Win64; x64) AppleWebKit/537.36 (KHTML, like Gecko) Chrome/138.0.0.0 Safari/537.36","WebKit","Chrome","138.0.0.0","Windows","10.0","https://app.prolific.com/","en-US,en;q=0.8","67c7672373207a4fb29efe7f","686d226cabeef709c732f8e1","686e32267de84b1dc20f5c5c","67c7672373207a4fb29efe7f","2025-07-09T09:39:46.073Z","","","","","","drsp","{""Q01"":""0"",""Q02"":""0"",""Q03"":""0"",""Q04"":""0"",""Q05"":""0"",""Q06"":""0"",""Q07"":""0"",""Q08"":""0"",""Q09"":""1"",""Q10"":""0"",""Q11"":""1"",""Q12"":""0"",""Q13"":""0"",""Q14"":""2"",""Q15"":""0"",""Q16"":""0"",""Q17"":""0"",""Q18"":""0"",""Q19"":""1"",""Q20"":""0"",""Q21"":""0""}","[0,1,2,3,4,5,6,7,8,9,10,11,12,13,14,15,16,17,18,19,20]","[""Q01"",""Q02"",""Q03"",""Q04"",""Q05"",""Q06"",""Q07"",""Q08"",""Q09"",""Q10"",""Q11"",""Q12"",""Q13"",""Q14"",""Q14"",""Q15"",""Q16"",""Q17"",""Q18"",""Q19"",""Q20"",""Q21""]","[3111.800000000745,4378.9000000003725,5698.600000000559,8544.5,9774.900000000373,11242.100000000559,12316.900000000373,13687.900000000373,21298.400000000373,23967.300000000745,25968.60000000056,27961.900000000373,29259.10000000056,30570.800000000745,32423.700000000186,35129.300000000745,36144.10000000056,43956.10000000056,46876,57711.40000000037,61461.300000000745,63545.10000000056]","[]","[4.1000000005587935,3111.800000000745,4378.9000000003725,5698.600000000559,8544.5,9774.900000000373,11242.100000000559,12316.900000000373,13687.900000000373,21298.400000000373,23967.300000000745,25968.60000000056,27961.900000000373,29259.10000000056,30570.800000000745,32423.700000000186,35129.300000000745,36144.10000000056,43956.10000000056,46876,57711.40000000037,61461.300000000745,63545.10000000056,65375.200000000186]","0.8095238095238095","0.3","0","","","","","","","","","","","","","","","","","","","","","","","","","","","","",""
"19072.799999999814","","","","survey-template","19","1334759","0.0-7.0-8.0","201","1","2025-07-09 09:17:46","7701e855f2ef39aa3fd6c71abdc6918a","41.150.35.125","Mozilla/5.0 (Windows NT 10.0; Win64; x64) AppleWebKit/537.36 (KHTML, like Gecko) Chrome/138.0.0.0 Safari/537.36","WebKit","Chrome","138.0.0.0","Windows","10.0","https://app.prolific.com/","en-US,en;q=0.8","67c7672373207a4fb29efe7f","686d226cabeef709c732f8e1","686e32267de84b1dc20f5c5c","67c7672373207a4fb29efe7f","2025-07-09T09:40:05.153Z","","","","","","stress","{""Q01"":""0"",""Q02"":""1"",""Q03"":""1""}","[0,1,2]","[""Q01"",""Q02"",""Q02"",""Q03""]","[5491.799999999814,9108.700000000186,10479.700000000186,16831.10000000056]","[]","[5491.799999999814,9108.700000000186,10479.700000000186,15578.400000000373,16831.10000000056,19069.60000000056]","0.3333333333333333","0","0","","","","","","","","","","","","","","","","","","","","","","","","","","","","",""
"224601","","","","instructions","20","1559364","0.0-8.0-0.0","201","1","2025-07-09 09:17:46","7701e855f2ef39aa3fd6c71abdc6918a","41.150.35.125","Mozilla/5.0 (Windows NT 10.0; Win64; x64) AppleWebKit/537.36 (KHTML, like Gecko) Chrome/138.0.0.0 Safari/537.36","WebKit","Chrome","138.0.0.0","Windows","10.0","https://app.prolific.com/","en-US,en;q=0.8","67c7672373207a4fb29efe7f","686d226cabeef709c732f8e1","686e32267de84b1dc20f5c5c","67c7672373207a4fb29efe7f","","[{""page_index"":0,""viewing_time"":75797},{""page_index"":1,""viewing_time"":94455},{""page_index"":2,""viewing_time"":34994},{""page_index"":3,""viewing_time"":19355}]","","","","","","","","","","","","","","","","","","","","","","","","","","","","","","","","","","","","","","","","","","",""
"","","","","ctl-task-cpt","21","1601504","0.0-8.0-1.0","201","1","2025-07-09 09:17:46","7701e855f2ef39aa3fd6c71abdc6918a","41.150.35.125","Mozilla/5.0 (Windows NT 10.0; Win64; x64) AppleWebKit/537.36 (KHTML, like Gecko) Chrome/138.0.0.0 Safari/537.36","WebKit","Chrome","138.0.0.0","Windows","10.0","https://app.prolific.com/","en-US,en;q=0.8","67c7672373207a4fb29efe7f","686d226cabeef709c732f8e1","686e32267de84b1dc20f5c5c","67c7672373207a4fb29efe7f","","","","","","","","","","","","","","","","","win-only","2","g1:SE,g2:NW","1","0","1","1566873.3","5523.1","9528.3","39129.7","2","4","4","6","2","4","3","3","0","0.022727272727272728","4005.1","4000","985","[""left"",""up""]","{""num_key_presses"":10,""num_perfect"":6,""num_errors"":1,""num_randdir"":0,""num_randdir_good_moves"":0,""num_whilered"":3,""num_whileblue"":0,""num_blue"":2,""num_good_moves"":6}","[292.22232142857143,293.12857142857143,1,292.22232142857143,293.12857142857143,100,292.22232142857143,293.12857142857143,202.7,292.22232142857143,293.12857142857143,306.4,292.22232142857143,293.12857142857143,408.3,292.22232142857143,293.12857142857143,517.4,292.22232142857143,293.12857142857143,617.5,292.22232142857143,293.12857142857143,717.5,292.22232142857143,293.12857142857143,817.6,292.22232142857143,293.12857142857143,917.6,292.22232142857143,293.12857142857143,1020.9,292.22232142857143,293.12857142857143,1126.6,292.22232142857143,293.12857142857143,1227.9,292.22232142857143,293.12857142857143,1333.9,292.22232142857143,293.12857142857143,1434.1,292.22232142857143,293.12857142857143,1538,292.22232142857143,293.12857142857143,1647.8,292.22232142857143,293.12857142857143,1757.8,292.22232142857143,293.12857142857143,1857.8,292.22232142857143,293.12857142857143,1957.9,292.22232142857143,293.12857142857143,2068.9,292.22232142857143,293.12857142857143,2177.8,293.22232142857143,293.12857142857143,2278.8,297.22232142857143,296.12857142857143,2385,303.22232142857143,301.12857142857143,2486.3,309.22232142857143,308.12857142857143,2591.4,320.22232142857143,320.12857142857143,2698.1,325.22232142857143,323.12857142857143,2808,325.22232142857143,323.12857142857143,2917.9,325.22232142857143,323.12857142857143,3019.8,325.22232142857143,323.12857142857143,3127.7,325.22232142857143,323.12857142857143,3234.7,325.22232142857143,323.12857142857143,3335.4,325.22232142857143,323.12857142857143,3447.5,325.22232142857143,324.12857142857143,3547.5,326.22232142857143,325.12857142857143,3647.7,328.22232142857143,326.12857142857143,3755.2,331.22232142857143,329.12857142857143,3867.9,338.22232142857143,336.12857142857143,3971.1]","[2805.6,2805.5,1000,0.1,1805.5,""smooth"",""up"",""up"",""good_move"",3722,914.4,2651,2807.9,-1736.9,""error"",""-"",""-"",""no_move"",3910.2,186.7,2651,2807.9,-1548.7,""while_red"",""-"",""-"",""no_move"",4160.2,436.7,2651,2807.9,-1298.7,""while_red"",""-"",""-"",""no_move"",4517.7,794.2,2651,2807.9,-941.2,""while_red"",""-"",""-"",""no_move"",7569.4,3845.9,2360.2,4725,484.3,""smooth"",""up"",""up"",""good_move"",11356.1,3785.6,2764.8,7570.6,1020.7,""smooth"",""left"",""left"",""good_move"",23062.8,11704.5,2928.8,19562.6,571.4,""smooth"",""left"",""left"",""good_move"",26714.1,3650.7,2722.3,23063.4,928.4,""smooth"",""left"",""left"",""good_move"",29468.3,2753.3,2322,26715,431.3,""smooth"",""up"",""up"",""good_move""]","",""
"19267","","","","instructions","22","1620773","0.0-8.0-2.0","201","1","2025-07-09 09:17:46","7701e855f2ef39aa3fd6c71abdc6918a","41.150.35.125","Mozilla/5.0 (Windows NT 10.0; Win64; x64) AppleWebKit/537.36 (KHTML, like Gecko) Chrome/138.0.0.0 Safari/537.36","WebKit","Chrome","138.0.0.0","Windows","10.0","https://app.prolific.com/","en-US,en;q=0.8","67c7672373207a4fb29efe7f","686d226cabeef709c732f8e1","686e32267de84b1dc20f5c5c","67c7672373207a4fb29efe7f","","[{""page_index"":0,""viewing_time"":19265}]","","","","","","","","","","","","","","","","","","","","","","","","","","","","","","","","","","","","","","","","","","",""
"","","","","ctl-task-cpt","23","1649672","0.0-8.0-3.0","201","1","2025-07-09 09:17:46","7701e855f2ef39aa3fd6c71abdc6918a","41.150.35.125","Mozilla/5.0 (Windows NT 10.0; Win64; x64) AppleWebKit/537.36 (KHTML, like Gecko) Chrome/138.0.0.0 Safari/537.36","WebKit","Chrome","138.0.0.0","Windows","10.0","https://app.prolific.com/","en-US,en;q=0.8","67c7672373207a4fb29efe7f","686d226cabeef709c732f8e1","686e32267de84b1dc20f5c5c","67c7672373207a4fb29efe7f","","","","","","","","","","","","","","","","","win-only","2","g1:SE,g2:NW","0.35","0","3","1628280.5","3095.6","7098.4","25886.5","2","4","8","6","1","2","2","2","0","0.015151515151515152","2315.4","4000","2165","[""down"",""right""]","{""num_key_presses"":4,""num_perfect"":2,""num_errors"":0,""num_randdir"":2,""num_randdir_good_moves"":2,""num_whilered"":0,""num_whileblue"":0,""num_blue"":2,""num_good_moves"":4}","[293.22232142857143,291.12857142857143,1.1,293.22232142857143,291.12857142857143,111.3,293.22232142857143,291.12857142857143,213.7,293.22232142857143,291.12857142857143,314.2,293.22232142857143,291.12857142857143,415.1,293.22232142857143,291.12857142857143,515.4,293.22232142857143,291.12857142857143,619.1,293.22232142857143,291.12857142857143,722.6,293.22232142857143,291.12857142857143,822.6,293.22232142857143,291.12857142857143,929.8,293.22232142857143,291.12857142857143,1030.8,293.22232142857143,291.12857142857143,1142.6,309.22232142857143,307.12857142857143,1246.7,382.22232142857143,369.12857142857143,1351,422.22232142857143,416.12857142857143,1455.1,523.2223214285714,567.1285714285714,1567.2,570.2223214285714,647.1285714285714,1669.2,570.2223214285714,648.1285714285714,1771.4,570.2223214285714,648.1285714285714,1871.9,568.2223214285714,632.1285714285714,1981.5,540.2223214285714,572.1285714285714,2083.1,540.2223214285714,572.1285714285714,2191.5,540.2223214285714,572.1285714285714,2292.3,540.2223214285714,572.1285714285714,2397.5,540.2223214285714,572.1285714285714,2498,540.2223214285714,572.1285714285714,2600.8,540.2223214285714,572.1285714285714,2704.9,540.2223214285714,572.1285714285714,2811.7,540.2223214285714,572.1285714285714,2915.8,540.2223214285714,572.1285714285714,3019.6,540.2223214285714,572.1285714285714,3123.1,540.2223214285714,572.1285714285714,3231.5,540.2223214285714,572.1285714285714,3341.6,540.2223214285714,572.1285714285714,3441.7,540.2223214285714,572.1285714285714,3548.6,540.2223214285714,572.1285714285714,3648.7,540.2223214285714,572.1285714285714,3761.6,540.2223214285714,572.1285714285714,3861.7,540.2223214285714,572.1285714285714,3962.3]","[5069.4,5069.4,2441,2009,619.5,""oops"",""down"",""down"",""good_move"",9116.2,4045.4,3250.1,5070.8,795.3,""smooth"",""right"",""right"",""good_move"",15504,6386.6,2406,12534.3,563.7,""smooth"",""right"",""right"",""good_move"",18662.6,3156.4,2362.4,15506.2,794,""oops"",""down"",""down"",""good_move""]","",""
"74595","","","","instructions","24","1724268","0.0-8.0-4.0","201","1","2025-07-09 09:17:46","7701e855f2ef39aa3fd6c71abdc6918a","41.150.35.125","Mozilla/5.0 (Windows NT 10.0; Win64; x64) AppleWebKit/537.36 (KHTML, like Gecko) Chrome/138.0.0.0 Safari/537.36","WebKit","Chrome","138.0.0.0","Windows","10.0","https://app.prolific.com/","en-US,en;q=0.8","67c7672373207a4fb29efe7f","686d226cabeef709c732f8e1","686e32267de84b1dc20f5c5c","67c7672373207a4fb29efe7f","","[{""page_index"":0,""viewing_time"":20607},{""page_index"":1,""viewing_time"":53988}]","","","","","","","","","","","","","","","","","","","","","","","","","","","","","","","","","","","","","","","","","","",""
"13400","","","{""green_ball"":[""Ball sometimes shakes and moves in a random direction""]}","survey-multi-select","25","1737673","0.0-8.0-5.0-0.0","201","1","2025-07-09 09:17:46","7701e855f2ef39aa3fd6c71abdc6918a","41.150.35.125","Mozilla/5.0 (Windows NT 10.0; Win64; x64) AppleWebKit/537.36 (KHTML, like Gecko) Chrome/138.0.0.0 Safari/537.36","WebKit","Chrome","138.0.0.0","Windows","10.0","https://app.prolific.com/","en-US,en;q=0.8","67c7672373207a4fb29efe7f","686d226cabeef709c732f8e1","686e32267de84b1dc20f5c5c","67c7672373207a4fb29efe7f","","","[0]","","","","quiz","","","","","","","","","","","","","","","","","","","","","","","","","","","","","","","","","","","","","true",""
"4382","","<p align='center'><b>CORRECT!</b> Indeed, the green ball may sometimes shake and move in a random direction.</p>","0","html-button-response","26","1742063","0.0-8.0-5.0-1.0","201","1","2025-07-09 09:17:46","7701e855f2ef39aa3fd6c71abdc6918a","41.150.35.125","Mozilla/5.0 (Windows NT 10.0; Win64; x64) AppleWebKit/537.36 (KHTML, like Gecko) Chrome/138.0.0.0 Safari/537.36","WebKit","Chrome","138.0.0.0","Windows","10.0","https://app.prolific.com/","en-US,en;q=0.8","67c7672373207a4fb29efe7f","686d226cabeef709c732f8e1","686e32267de84b1dc20f5c5c","67c7672373207a4fb29efe7f","","","","","","","","","","","","","","","","","","","","","","","","","","","","","","","","","","","","","","","","","","","","",""
"11896","","","{""yellow_ball"":[""Ball doesn‘t move and I get -1 penalty point""]}","survey-multi-select","27","1753968","0.0-8.0-6.0-0.0","201","1","2025-07-09 09:17:46","7701e855f2ef39aa3fd6c71abdc6918a","41.150.35.125","Mozilla/5.0 (Windows NT 10.0; Win64; x64) AppleWebKit/537.36 (KHTML, like Gecko) Chrome/138.0.0.0 Safari/537.36","WebKit","Chrome","138.0.0.0","Windows","10.0","https://app.prolific.com/","en-US,en;q=0.8","67c7672373207a4fb29efe7f","686d226cabeef709c732f8e1","686e32267de84b1dc20f5c5c","67c7672373207a4fb29efe7f","","","[0]","","","","quiz","","","","","","","","","","","","","","","","","","","","","","","","","","","","","","","","","","","","","true",""
"2756","","<p align='center'><b>CORRECT!</b> Indeed, the yellow ball never moves and you receive a penalty.</p>","0","html-button-response","28","1756728","0.0-8.0-6.0-1.0","201","1","2025-07-09 09:17:46","7701e855f2ef39aa3fd6c71abdc6918a","41.150.35.125","Mozilla/5.0 (Windows NT 10.0; Win64; x64) AppleWebKit/537.36 (KHTML, like Gecko) Chrome/138.0.0.0 Safari/537.36","WebKit","Chrome","138.0.0.0","Windows","10.0","https://app.prolific.com/","en-US,en;q=0.8","67c7672373207a4fb29efe7f","686d226cabeef709c732f8e1","686e32267de84b1dc20f5c5c","67c7672373207a4fb29efe7f","","","","","","","","","","","","","","","","","","","","","","","","","","","","","","","","","","","","","","","","","","","","",""
"7835","","","{""blue_ball"":[""Ball doesn‘t move and I get -1 penalty point""]}","survey-multi-select","29","1764571","0.0-8.0-7.0-0.0","201","1","2025-07-09 09:17:46","7701e855f2ef39aa3fd6c71abdc6918a","41.150.35.125","Mozilla/5.0 (Windows NT 10.0; Win64; x64) AppleWebKit/537.36 (KHTML, like Gecko) Chrome/138.0.0.0 Safari/537.36","WebKit","Chrome","138.0.0.0","Windows","10.0","https://app.prolific.com/","en-US,en;q=0.8","67c7672373207a4fb29efe7f","686d226cabeef709c732f8e1","686e32267de84b1dc20f5c5c","67c7672373207a4fb29efe7f","","","[0]","","","","quiz","","","","","","","","","","","","","","","","","","","","","","","","","","","","","","","","","","","","","false",""
"4574","","<p align='center'><b>INCORRECT.</b> The blue ball always shakes and moves randomly.</p>","0","html-button-response","30","1769150","0.0-8.0-7.0-1.0","201","1","2025-07-09 09:17:46","7701e855f2ef39aa3fd6c71abdc6918a","41.150.35.125","Mozilla/5.0 (Windows NT 10.0; Win64; x64) AppleWebKit/537.36 (KHTML, like Gecko) Chrome/138.0.0.0 Safari/537.36","WebKit","Chrome","138.0.0.0","Windows","10.0","https://app.prolific.com/","en-US,en;q=0.8","67c7672373207a4fb29efe7f","686d226cabeef709c732f8e1","686e32267de84b1dc20f5c5c","67c7672373207a4fb29efe7f","","","","","","","","","","","","","","","","","","","","","","","","","","","","","","","","","","","","","","","","","","","","",""
"15712","","","{""blue_ball"":[""Ball always shakes and moves in a random direction""]}","survey-multi-select","31","1784870","0.0-8.0-7.1-0.1","201","1","2025-07-09 09:17:46","7701e855f2ef39aa3fd6c71abdc6918a","41.150.35.125","Mozilla/5.0 (Windows NT 10.0; Win64; x64) AppleWebKit/537.36 (KHTML, like Gecko) Chrome/138.0.0.0 Safari/537.36","WebKit","Chrome","138.0.0.0","Windows","10.0","https://app.prolific.com/","en-US,en;q=0.8","67c7672373207a4fb29efe7f","686d226cabeef709c732f8e1","686e32267de84b1dc20f5c5c","67c7672373207a4fb29efe7f","","","[0]","","","","quiz","","","","","","","","","","","","","","","","","","","","","","","","","","","","","","","","","","","","","true",""
"4508","","<p align='center'><b>CORRECT!</b> Indeed, the blue ball always shakes and moves in a random direction. Also there is a penalty of -1 point.</p>","0","html-button-response","32","1789383","0.0-8.0-7.1-1.1","201","1","2025-07-09 09:17:46","7701e855f2ef39aa3fd6c71abdc6918a","41.150.35.125","Mozilla/5.0 (Windows NT 10.0; Win64; x64) AppleWebKit/537.36 (KHTML, like Gecko) Chrome/138.0.0.0 Safari/537.36","WebKit","Chrome","138.0.0.0","Windows","10.0","https://app.prolific.com/","en-US,en;q=0.8","67c7672373207a4fb29efe7f","686d226cabeef709c732f8e1","686e32267de84b1dc20f5c5c","67c7672373207a4fb29efe7f","","","","","","","","","","","","","","","","","","","","","","","","","","","","","","","","","","","","","","","","","","","","",""
"6507","","","{""bonus"":[""When I reach 50% of points""]}","survey-multi-select","33","1795895","0.0-8.0-8.0-0.0","201","1","2025-07-09 09:17:46","7701e855f2ef39aa3fd6c71abdc6918a","41.150.35.125","Mozilla/5.0 (Windows NT 10.0; Win64; x64) AppleWebKit/537.36 (KHTML, like Gecko) Chrome/138.0.0.0 Safari/537.36","WebKit","Chrome","138.0.0.0","Windows","10.0","https://app.prolific.com/","en-US,en;q=0.8","67c7672373207a4fb29efe7f","686d226cabeef709c732f8e1","686e32267de84b1dc20f5c5c","67c7672373207a4fb29efe7f","","","[0]","","","","quiz","","","","","","","","","","","","","","","","","","","","","","","","","","","","","","","","","","","","","true",""
"1946","","<p align='center'><b>CORRECT!</b> Indeed, you receive 2 pounds extra when you reach 50% of points.</p>","0","html-button-response","34","1797846","0.0-8.0-8.0-1.0","201","1","2025-07-09 09:17:46","7701e855f2ef39aa3fd6c71abdc6918a","41.150.35.125","Mozilla/5.0 (Windows NT 10.0; Win64; x64) AppleWebKit/537.36 (KHTML, like Gecko) Chrome/138.0.0.0 Safari/537.36","WebKit","Chrome","138.0.0.0","Windows","10.0","https://app.prolific.com/","en-US,en;q=0.8","67c7672373207a4fb29efe7f","686d226cabeef709c732f8e1","686e32267de84b1dc20f5c5c","67c7672373207a4fb29efe7f","","","","","","","","","","","","","","","","","","","","","","","","","","","","","","","","","","","","","","","","","","","","",""
"8355","","","","instructions","35","1806206","0.0-8.0-9.0","201","1","2025-07-09 09:17:46","7701e855f2ef39aa3fd6c71abdc6918a","41.150.35.125","Mozilla/5.0 (Windows NT 10.0; Win64; x64) AppleWebKit/537.36 (KHTML, like Gecko) Chrome/138.0.0.0 Safari/537.36","WebKit","Chrome","138.0.0.0","Windows","10.0","https://app.prolific.com/","en-US,en;q=0.8","67c7672373207a4fb29efe7f","686d226cabeef709c732f8e1","686e32267de84b1dc20f5c5c","67c7672373207a4fb29efe7f","","[{""page_index"":0,""viewing_time"":8354}]","","","","","","","","","","","","","","","","","","","","","","","","","","","","","","","","","","","","","","","","","","",""
"25207","","<p>Before you start with this game please answer the following three questions yourself. </p>
  <p>Through this game, we measure several aspects of your cognitive performance, such as reaction times, multi-tasking capabilities </p>
  <p>and the ability to assess the situation you are in.</p>
  <p></p>
  <p><b>How good do you usually are in such tasks?</b></p>","100","html-slider-response","36","1831417","0.0-9.0-0.0","201","1","2025-07-09 09:17:46","7701e855f2ef39aa3fd6c71abdc6918a","41.150.35.125","Mozilla/5.0 (Windows NT 10.0; Win64; x64) AppleWebKit/537.36 (KHTML, like Gecko) Chrome/138.0.0.0 Safari/537.36","WebKit","Chrome","138.0.0.0","Windows","10.0","https://app.prolific.com/","en-US,en;q=0.8","67c7672373207a4fb29efe7f","686d226cabeef709c732f8e1","686e32267de84b1dc20f5c5c","67c7672373207a4fb29efe7f","2025-07-09T09:48:21.811Z","","","","","","PreSkillQ","","","","","","","","","","","","","","","","","","","","","","","","","","","","","","","","","","","","","","50"
"6165","","<div style=""width:500px;"">
  <p>How well do you think you will perform in this task compared to other participants?</p>
  </div>","91","html-slider-response","37","1837586","0.0-9.0-1.0","201","1","2025-07-09 09:17:46","7701e855f2ef39aa3fd6c71abdc6918a","41.150.35.125","Mozilla/5.0 (Windows NT 10.0; Win64; x64) AppleWebKit/537.36 (KHTML, like Gecko) Chrome/138.0.0.0 Safari/537.36","WebKit","Chrome","138.0.0.0","Windows","10.0","https://app.prolific.com/","en-US,en;q=0.8","67c7672373207a4fb29efe7f","686d226cabeef709c732f8e1","686e32267de84b1dc20f5c5c","67c7672373207a4fb29efe7f","2025-07-09T09:48:27.980Z","","","","","","PrePerfQ","","","","","","","","","","","","","","","","","","","","","","","","","","","","","","","","","","","","","","50"
"5323","","<div style=""width:500px;"">
  <p>What best describes how you currently feel?</p>
  </div>","100","html-slider-response","38","1842914","0.0-9.0-2.0","201","1","2025-07-09 09:17:46","7701e855f2ef39aa3fd6c71abdc6918a","41.150.35.125","Mozilla/5.0 (Windows NT 10.0; Win64; x64) AppleWebKit/537.36 (KHTML, like Gecko) Chrome/138.0.0.0 Safari/537.36","WebKit","Chrome","138.0.0.0","Windows","10.0","https://app.prolific.com/","en-US,en;q=0.8","67c7672373207a4fb29efe7f","686d226cabeef709c732f8e1","686e32267de84b1dc20f5c5c","67c7672373207a4fb29efe7f","2025-07-09T09:48:33.308Z","","","","","","PreMotivationQ","","","","","","","","","","","","","","","","","","","","","","","","","","","","","","","","","","","","","","50"
"","","","","ctl-task-cpt","39","1868923","0.0-10.0-0.0","201","1","2025-07-09 09:17:46","7701e855f2ef39aa3fd6c71abdc6918a","41.150.35.125","Mozilla/5.0 (Windows NT 10.0; Win64; x64) AppleWebKit/537.36 (KHTML, like Gecko) Chrome/138.0.0.0 Safari/537.36","WebKit","Chrome","138.0.0.0","Windows","10.0","https://app.prolific.com/","en-US,en;q=0.8","67c7672373207a4fb29efe7f","686d226cabeef709c732f8e1","686e32267de84b1dc20f5c5c","67c7672373207a4fb29efe7f","2025-07-09T09:48:59.317Z","","","","","","","","","","","","","","","","win-only","2","g1:SE,g2:NW","1","1","0","1850424.5","3170.5","8171.7","22990.5","1","4","4","6","2","-4","-4","0","0","0","2067.3","3000","-1990","[""left"",""up""]","{""num_key_presses"":4,""num_perfect"":4,""num_errors"":0,""num_randdir"":0,""num_randdir_good_moves"":0,""num_whilered"":0,""num_whileblue"":0,""num_blue"":0,""num_good_moves"":4}","[300.22232142857143,299.12857142857143,1.3,300.22232142857143,299.12857142857143,109.5,300.22232142857143,299.12857142857143,212.4,300.22232142857143,299.12857142857143,316.2,300.22232142857143,299.12857142857143,418.9,300.22232142857143,299.12857142857143,529.4,300.22232142857143,299.12857142857143,630.5,300.22232142857143,299.12857142857143,737.6,300.22232142857143,299.12857142857143,845.2,300.22232142857143,299.12857142857143,946.5,249.22232142857143,242.12857142857143,1052,174.22232142857143,167.12857142857143,1157.2,142.22232142857143,119.12857142857143,1258.4,117.22232142857143,81.12857142857143,1363.9,97.22232142857143,65.12857142857143,1465.4,87.22232142857143,60.128571428571426,1570.6,84.22232142857143,60.128571428571426,1672.9,82.22232142857143,60.128571428571426,1779.8,80.22232142857143,60.128571428571426,1880.3,80.22232142857143,60.128571428571426,1983.1,80.22232142857143,60.128571428571426,2096.6,80.22232142857143,60.128571428571426,2199,80.22232142857143,60.128571428571426,2308.1,80.22232142857143,60.128571428571426,2408.1,80.22232142857143,60.128571428571426,2513.3,80.22232142857143,60.128571428571426,2613.6,80.22232142857143,60.128571428571426,2714.3,80.22232142857143,60.128571428571426,2815.3,80.22232142857143,60.128571428571426,2926.8,80.22232142857143,60.128571428571426,3030.7,80.22232142857143,60.128571428571426,3135.5,80.22232142857143,60.128571428571426,3236.8,80.22232142857143,60.128571428571426,3337.6,80.22232142857143,60.128571428571426,3437.9,80.22232142857143,60.128571428571426,3538.2,80.22232142857143,60.128571428571426,3648.6,80.22232142857143,60.128571428571426,3757,80.22232142857143,60.128571428571426,3857.2,80.22232142857143,60.128571428571426,3957.6,80.22232142857143,60.128571428571426,4065.1,80.22232142857143,60.128571428571426,4165.4,80.22232142857143,60.128571428571426,4279,80.22232142857143,60.128571428571426,4385.2,80.22232142857143,60.128571428571426,4486.7,80.22232142857143,60.128571428571426,4600,80.22232142857143,60.128571428571426,4701.1,80.22232142857143,60.128571428571426,4807.9,80.22232142857143,60.128571428571426,4907.9]","[3042.2,3042.3,1000,0,2042.3,""smooth"",""left"",""left"",""good_move"",6287.7,3244.1,2423.9,3043.6,820.2,""smooth"",""up"",""up"",""good_move"",9122.7,2833.6,1980.7,6289.1,852.9,""smooth"",""left"",""left"",""good_move"",12562.2,3438.6,2819.4,9123.7,619.1,""smooth"",""up"",""up"",""good_move""]","",""
"6225","","<div style=""width:500px;"">
  <p>What determined the result of this run?</p>
  </div>","91","html-slider-response","40","1875150","0.0-10.0-1.0","201","1","2025-07-09 09:17:46","7701e855f2ef39aa3fd6c71abdc6918a","41.150.35.125","Mozilla/5.0 (Windows NT 10.0; Win64; x64) AppleWebKit/537.36 (KHTML, like Gecko) Chrome/138.0.0.0 Safari/537.36","WebKit","Chrome","138.0.0.0","Windows","10.0","https://app.prolific.com/","en-US,en;q=0.8","67c7672373207a4fb29efe7f","686d226cabeef709c732f8e1","686e32267de84b1dc20f5c5c","67c7672373207a4fb29efe7f","2025-07-09T09:49:05.545Z","","","","","","AttribQ","","","","","","","","","","","","","","","","","","","","","","","","","","","","","","","","","","","","","","50"
"5013","","<div style=""width:500px;"">
  <p>How much control did you have over the ball?</p>
  </div>","79","html-slider-response","41","1880170","0.0-10.0-2.0","201","1","2025-07-09 09:17:46","7701e855f2ef39aa3fd6c71abdc6918a","41.150.35.125","Mozilla/5.0 (Windows NT 10.0; Win64; x64) AppleWebKit/537.36 (KHTML, like Gecko) Chrome/138.0.0.0 Safari/537.36","WebKit","Chrome","138.0.0.0","Windows","10.0","https://app.prolific.com/","en-US,en;q=0.8","67c7672373207a4fb29efe7f","686d226cabeef709c732f8e1","686e32267de84b1dc20f5c5c","67c7672373207a4fb29efe7f","2025-07-09T09:49:10.564Z","","","","","","ControlQ","","","","","","","","","","","","","","","","","","","","","","","","","","","","","","","","","","","","","","50"
"5046","","<div style=""width:500px;"">
  <p>How would you describe your current emotional state?</p>
  </div>","0","html-slider-response","42","1885224","0.0-10.0-3.0","201","1","2025-07-09 09:17:46","7701e855f2ef39aa3fd6c71abdc6918a","41.150.35.125","Mozilla/5.0 (Windows NT 10.0; Win64; x64) AppleWebKit/537.36 (KHTML, like Gecko) Chrome/138.0.0.0 Safari/537.36","WebKit","Chrome","138.0.0.0","Windows","10.0","https://app.prolific.com/","en-US,en;q=0.8","67c7672373207a4fb29efe7f","686d226cabeef709c732f8e1","686e32267de84b1dc20f5c5c","67c7672373207a4fb29efe7f","2025-07-09T09:49:15.619Z","","","","","","StressQ","","","","","","","","","","","","","","","","","","","","","","","","","","","","","","","","","","","","","","50"
"3980","","<div style=""width:500px;"">
  <p>What best describes how you currently feel?</p>
  </div>","94","html-slider-response","43","1889209","0.0-10.0-4.0","201","1","2025-07-09 09:17:46","7701e855f2ef39aa3fd6c71abdc6918a","41.150.35.125","Mozilla/5.0 (Windows NT 10.0; Win64; x64) AppleWebKit/537.36 (KHTML, like Gecko) Chrome/138.0.0.0 Safari/537.36","WebKit","Chrome","138.0.0.0","Windows","10.0","https://app.prolific.com/","en-US,en;q=0.8","67c7672373207a4fb29efe7f","686d226cabeef709c732f8e1","686e32267de84b1dc20f5c5c","67c7672373207a4fb29efe7f","2025-07-09T09:49:19.603Z","","","","","","MotivationQ","","","","","","","","","","","","","","","","","","","","","","","","","","","","","","","","","","","","","","50"
"","","","","ctl-task-cpt","44","1930413","0.0-10.0-0.1","201","1","2025-07-09 09:17:46","7701e855f2ef39aa3fd6c71abdc6918a","41.150.35.125","Mozilla/5.0 (Windows NT 10.0; Win64; x64) AppleWebKit/537.36 (KHTML, like Gecko) Chrome/138.0.0.0 Safari/537.36","WebKit","Chrome","138.0.0.0","Windows","10.0","https://app.prolific.com/","en-US,en;q=0.8","67c7672373207a4fb29efe7f","686d226cabeef709c732f8e1","686e32267de84b1dc20f5c5c","67c7672373207a4fb29efe7f","2025-07-09T09:50:00.807Z","","","","","","","","","","","","","","","","win-only","1","g1:NE,g2:SW","0.9","2","0","1896718.3","2352.3","7363","38190.9","1","4","8","6","1","1","0","0","0","0","2460.9","3000","510","[""up"",""right""]","{""num_key_presses"":7,""num_perfect"":5,""num_errors"":1,""num_randdir"":1,""num_randdir_good_moves"":0,""num_whilered"":0,""num_whileblue"":0,""num_blue"":3,""num_good_moves"":5}","[299.22232142857143,300.12857142857143,1.1,299.22232142857143,300.12857142857143,105.9,299.22232142857143,300.12857142857143,206.1,299.22232142857143,300.12857142857143,306.6,299.22232142857143,300.12857142857143,408.1,299.22232142857143,300.12857142857143,511.3,299.22232142857143,300.12857142857143,618.3,299.22232142857143,300.12857142857143,718.4,299.22232142857143,300.12857142857143,819.5,299.22232142857143,300.12857142857143,925.7,299.22232142857143,300.12857142857143,1039.6,299.22232142857143,300.12857142857143,1140.1,299.22232142857143,300.12857142857143,1241.3,299.22232142857143,300.12857142857143,1341.8,299.22232142857143,300.12857142857143,1441.9,299.22232142857143,300.12857142857143,1544.1,365.22232142857143,210.12857142857143,1645.7,476.22232142857143,104.12857142857143,1746.4,492.22232142857143,96.12857142857143,1856.5,492.22232142857143,96.12857142857143,1960.1,501.22232142857143,87.12857142857143,2067.4,531.2223214285714,55.128571428571426,2176,532.2223214285714,54.128571428571426,2290.3,532.2223214285714,54.128571428571426,2390.9,532.2223214285714,54.128571428571426,2492.8,532.2223214285714,54.128571428571426,2593.1,532.2223214285714,54.128571428571426,2695.1,532.2223214285714,54.128571428571426,2797.4,532.2223214285714,54.128571428571426,2899.4,532.2223214285714,54.128571428571426,3006.8,532.2223214285714,54.128571428571426,3107.6,532.2223214285714,54.128571428571426,3211.1,532.2223214285714,61.128571428571426,3313.5,527.2223214285714,73.12857142857143,3416,518.2223214285714,91.12857142857143,3524.5,515.2223214285714,101.12857142857143,3625.8,514.2223214285714,105.12857142857143,3729.5,514.2223214285714,105.12857142857143,3874.1,514.2223214285714,105.12857142857143,3975.8,514.2223214285714,105.12857142857143,4082.5,514.2223214285714,105.12857142857143,4184.2,514.2223214285714,105.12857142857143,4287.8,514.2223214285714,105.12857142857143,4388.4,514.2223214285714,105.12857142857143,4488.5,514.2223214285714,105.12857142857143,4588.8,514.2223214285714,105.12857142857143,4689.3,514.2223214285714,105.12857142857143,4791.6,514.2223214285714,105.12857142857143,4893.9,514.2223214285714,105.12857142857143,4998.4]","[1838.5,1838.5,1000,0,838.5,""smooth"",""right"",""right"",""good_move"",5424.4,3584.8,2822,1839.7,762.7,""smooth"",""up"",""up"",""good_move"",11770.3,6344.4,3149.8,8185.2,435.3,""smooth"",""right"",""right"",""good_move"",15294.8,3523.6,2987.4,11771.2,536.2,""oops"",""up"",""left"",""bad_move"",15985.3,689,2774.4,15296.3,-2085.4,""error"",""-"",""-"",""no_move"",27008.8,11020.2,2884.4,23591.3,533.1,""smooth"",""up"",""up"",""good_move"",30669.4,3655.5,2925.1,27013.9,730.4,""smooth"",""right"",""right"",""good_move""]","",""
"3733","","<div style=""width:500px;"">
  <p>What determined the result of this run?</p>
  </div>","98","html-slider-response","45","1934150","0.0-10.0-1.1","201","1","2025-07-09 09:17:46","7701e855f2ef39aa3fd6c71abdc6918a","41.150.35.125","Mozilla/5.0 (Windows NT 10.0; Win64; x64) AppleWebKit/537.36 (KHTML, like Gecko) Chrome/138.0.0.0 Safari/537.36","WebKit","Chrome","138.0.0.0","Windows","10.0","https://app.prolific.com/","en-US,en;q=0.8","67c7672373207a4fb29efe7f","686d226cabeef709c732f8e1","686e32267de84b1dc20f5c5c","67c7672373207a4fb29efe7f","2025-07-09T09:50:04.544Z","","","","","","AttribQ","","","","","","","","","","","","","","","","","","","","","","","","","","","","","","","","","","","","","","50"
"3798","","<div style=""width:500px;"">
  <p>How much control did you have over the ball?</p>
  </div>","100","html-slider-response","46","1937950","0.0-10.0-2.1","201","1","2025-07-09 09:17:46","7701e855f2ef39aa3fd6c71abdc6918a","41.150.35.125","Mozilla/5.0 (Windows NT 10.0; Win64; x64) AppleWebKit/537.36 (KHTML, like Gecko) Chrome/138.0.0.0 Safari/537.36","WebKit","Chrome","138.0.0.0","Windows","10.0","https://app.prolific.com/","en-US,en;q=0.8","67c7672373207a4fb29efe7f","686d226cabeef709c732f8e1","686e32267de84b1dc20f5c5c","67c7672373207a4fb29efe7f","2025-07-09T09:50:08.345Z","","","","","","ControlQ","","","","","","","","","","","","","","","","","","","","","","","","","","","","","","","","","","","","","","50"
"4101","","<div style=""width:500px;"">
  <p>How would you describe your current emotional state?</p>
  </div>","0","html-slider-response","47","1942055","0.0-10.0-3.1","201","1","2025-07-09 09:17:46","7701e855f2ef39aa3fd6c71abdc6918a","41.150.35.125","Mozilla/5.0 (Windows NT 10.0; Win64; x64) AppleWebKit/537.36 (KHTML, like Gecko) Chrome/138.0.0.0 Safari/537.36","WebKit","Chrome","138.0.0.0","Windows","10.0","https://app.prolific.com/","en-US,en;q=0.8","67c7672373207a4fb29efe7f","686d226cabeef709c732f8e1","686e32267de84b1dc20f5c5c","67c7672373207a4fb29efe7f","2025-07-09T09:50:12.449Z","","","","","","StressQ","","","","","","","","","","","","","","","","","","","","","","","","","","","","","","","","","","","","","","50"
"3990","","<div style=""width:500px;"">
  <p>What best describes how you currently feel?</p>
  </div>","97","html-slider-response","48","1946047","0.0-10.0-4.1","201","1","2025-07-09 09:17:46","7701e855f2ef39aa3fd6c71abdc6918a","41.150.35.125","Mozilla/5.0 (Windows NT 10.0; Win64; x64) AppleWebKit/537.36 (KHTML, like Gecko) Chrome/138.0.0.0 Safari/537.36","WebKit","Chrome","138.0.0.0","Windows","10.0","https://app.prolific.com/","en-US,en;q=0.8","67c7672373207a4fb29efe7f","686d226cabeef709c732f8e1","686e32267de84b1dc20f5c5c","67c7672373207a4fb29efe7f","2025-07-09T09:50:16.443Z","","","","","","MotivationQ","","","","","","","","","","","","","","","","","","","","","","","","","","","","","","","","","","","","","","50"
"","","","","ctl-task-cpt","49","1989624","0.0-10.0-0.2","201","1","2025-07-09 09:17:46","7701e855f2ef39aa3fd6c71abdc6918a","41.150.35.125","Mozilla/5.0 (Windows NT 10.0; Win64; x64) AppleWebKit/537.36 (KHTML, like Gecko) Chrome/138.0.0.0 Safari/537.36","WebKit","Chrome","138.0.0.0","Windows","10.0","https://app.prolific.com/","en-US,en;q=0.8","67c7672373207a4fb29efe7f","686d226cabeef709c732f8e1","686e32267de84b1dc20f5c5c","67c7672373207a4fb29efe7f","2025-07-09T09:51:00.018Z","","","","","","","","","","","","","","","","win-only","0","g1:NW,g2:SE","0.8","3","0","1953557.4","1638.7","6652","40556.2","1","4","8","6","2","-8","-8","0","0","0","2084.2","3000","-1790","[""down"",""right""]","{""num_key_presses"":7,""num_perfect"":5,""num_errors"":0,""num_randdir"":2,""num_randdir_good_moves"":1,""num_whilered"":0,""num_whileblue"":0,""num_blue"":2,""num_good_moves"":6}","[291.22232142857143,293.12857142857143,3,291.22232142857143,293.12857142857143,109.9,291.22232142857143,293.12857142857143,219,291.22232142857143,293.12857142857143,327.6,291.22232142857143,293.12857142857143,427.9,291.22232142857143,293.12857142857143,531.3,291.22232142857143,293.12857142857143,639.3,291.22232142857143,293.12857142857143,745.9,291.22232142857143,293.12857142857143,857.2,294.22232142857143,295.12857142857143,966.1,385.22232142857143,386.12857142857143,1068.9,454.22232142857143,460.12857142857143,1171.6,463.22232142857143,469.12857142857143,1278.7,475.22232142857143,478.12857142857143,1379.5,522.2223214285714,502.12857142857143,1501.2,556.2223214285714,524.1285714285714,1603.9,556.2223214285714,525.1285714285714,1711.9,558.2223214285714,530.1285714285714,1817.8,558.2223214285714,530.1285714285714,1924.9,558.2223214285714,530.1285714285714,2033.3,558.2223214285714,530.1285714285714,2145.4,558.2223214285714,530.1285714285714,2248.8,558.2223214285714,530.1285714285714,2349.9,558.2223214285714,530.1285714285714,2461.6,558.2223214285714,530.1285714285714,2564,536.2223214285714,516.1285714285714,2664,437.22232142857143,464.12857142857143,2771.5,397.22232142857143,442.12857142857143,2878.6,390.22232142857143,439.12857142857143,2979.1,390.22232142857143,439.12857142857143,3085.8,390.22232142857143,439.12857142857143,3186.9,390.22232142857143,439.12857142857143,3287.2,390.22232142857143,439.12857142857143,3388.3,390.22232142857143,439.12857142857143,3490.7,390.22232142857143,439.12857142857143,3598.4,390.22232142857143,439.12857142857143,3716.3,390.22232142857143,439.12857142857143,3825.2,390.22232142857143,439.12857142857143,3925.7,390.22232142857143,439.12857142857143,4031.5,390.22232142857143,439.12857142857143,4133.2,390.22232142857143,439.12857142857143,4242,390.22232142857143,439.12857142857143,4359.5,390.22232142857143,439.12857142857143,4463.5,390.22232142857143,439.12857142857143,4571.6,390.22232142857143,439.12857142857143,4695.6,390.22232142857143,439.12857142857143,4796,390.22232142857143,439.12857142857143,4900.4]","[1837.4,1837.4,1000,0,837.4,""smooth"",""down"",""down"",""good_move"",5724.4,3883.8,2804.1,1840.6,1079.7,""oops"",""right"",""up"",""bad_move"",9236.4,3510.3,2764.5,5726.1,745.8,""smooth"",""right"",""right"",""good_move"",13212.9,3974.8,3254,9238.1,720.8,""smooth"",""right"",""right"",""good_move"",16395,3181,2600,13214.1,581,""smooth"",""down"",""down"",""good_move"",19654,3257.9,2583.2,16396.1,674.7,""oops"",""down"",""down"",""good_move"",30377.8,10722.6,2717.5,27142.4,517.9,""smooth"",""down"",""down"",""good_move""]","",""
"4580","","<div style=""width:500px;"">
  <p>What determined the result of this run?</p>
  </div>","94","html-slider-response","50","1994207","0.0-10.0-1.2","201","1","2025-07-09 09:17:46","7701e855f2ef39aa3fd6c71abdc6918a","41.150.35.125","Mozilla/5.0 (Windows NT 10.0; Win64; x64) AppleWebKit/537.36 (KHTML, like Gecko) Chrome/138.0.0.0 Safari/537.36","WebKit","Chrome","138.0.0.0","Windows","10.0","https://app.prolific.com/","en-US,en;q=0.8","67c7672373207a4fb29efe7f","686d226cabeef709c732f8e1","686e32267de84b1dc20f5c5c","67c7672373207a4fb29efe7f","2025-07-09T09:51:04.601Z","","","","","","AttribQ","","","","","","","","","","","","","","","","","","","","","","","","","","","","","","","","","","","","","","50"
"2332","","<div style=""width:500px;"">
  <p>How much control did you have over the ball?</p>
  </div>","100","html-slider-response","51","1996542","0.0-10.0-2.2","201","1","2025-07-09 09:17:46","7701e855f2ef39aa3fd6c71abdc6918a","41.150.35.125","Mozilla/5.0 (Windows NT 10.0; Win64; x64) AppleWebKit/537.36 (KHTML, like Gecko) Chrome/138.0.0.0 Safari/537.36","WebKit","Chrome","138.0.0.0","Windows","10.0","https://app.prolific.com/","en-US,en;q=0.8","67c7672373207a4fb29efe7f","686d226cabeef709c732f8e1","686e32267de84b1dc20f5c5c","67c7672373207a4fb29efe7f","2025-07-09T09:51:06.936Z","","","","","","ControlQ","","","","","","","","","","","","","","","","","","","","","","","","","","","","","","","","","","","","","","50"
"3741","","<div style=""width:500px;"">
  <p>How would you describe your current emotional state?</p>
  </div>","26","html-slider-response","52","2000285","0.0-10.0-3.2","201","1","2025-07-09 09:17:46","7701e855f2ef39aa3fd6c71abdc6918a","41.150.35.125","Mozilla/5.0 (Windows NT 10.0; Win64; x64) AppleWebKit/537.36 (KHTML, like Gecko) Chrome/138.0.0.0 Safari/537.36","WebKit","Chrome","138.0.0.0","Windows","10.0","https://app.prolific.com/","en-US,en;q=0.8","67c7672373207a4fb29efe7f","686d226cabeef709c732f8e1","686e32267de84b1dc20f5c5c","67c7672373207a4fb29efe7f","2025-07-09T09:51:10.679Z","","","","","","StressQ","","","","","","","","","","","","","","","","","","","","","","","","","","","","","","","","","","","","","","50"
"3274","","<div style=""width:500px;"">
  <p>What best describes how you currently feel?</p>
  </div>","71","html-slider-response","53","2003561","0.0-10.0-4.2","201","1","2025-07-09 09:17:46","7701e855f2ef39aa3fd6c71abdc6918a","41.150.35.125","Mozilla/5.0 (Windows NT 10.0; Win64; x64) AppleWebKit/537.36 (KHTML, like Gecko) Chrome/138.0.0.0 Safari/537.36","WebKit","Chrome","138.0.0.0","Windows","10.0","https://app.prolific.com/","en-US,en;q=0.8","67c7672373207a4fb29efe7f","686d226cabeef709c732f8e1","686e32267de84b1dc20f5c5c","67c7672373207a4fb29efe7f","2025-07-09T09:51:13.955Z","","","","","","MotivationQ","","","","","","","","","","","","","","","","","","","","","","","","","","","","","","","","","","","","","","50"
"","","","","ctl-task-cpt","54","2035909","0.0-10.0-0.3","201","1","2025-07-09 09:17:46","7701e855f2ef39aa3fd6c71abdc6918a","41.150.35.125","Mozilla/5.0 (Windows NT 10.0; Win64; x64) AppleWebKit/537.36 (KHTML, like Gecko) Chrome/138.0.0.0 Safari/537.36","WebKit","Chrome","138.0.0.0","Windows","10.0","https://app.prolific.com/","en-US,en;q=0.8","67c7672373207a4fb29efe7f","686d226cabeef709c732f8e1","686e32267de84b1dc20f5c5c","67c7672373207a4fb29efe7f","2025-07-09T09:51:46.304Z","","","","","","","","","","","","","","","","win-only","0","g1:NW,g2:SE","0.7","4","0","2011066.9","2146.7","7153","29327.2","1","4","4","6","1","1","1","1","0","0.007575757575757576","1792.6","3000","410","[""left"",""up""]","{""num_key_presses"":6,""num_perfect"":4,""num_errors"":0,""num_randdir"":2,""num_randdir_good_moves"":1,""num_whilered"":0,""num_whileblue"":0,""num_blue"":1,""num_good_moves"":5}","[298.22232142857143,301.12857142857143,1.7,298.22232142857143,301.12857142857143,101.6,298.22232142857143,301.12857142857143,205,298.22232142857143,301.12857142857143,307.2,298.22232142857143,301.12857142857143,416.7,298.22232142857143,301.12857142857143,520.7,298.22232142857143,301.12857142857143,624.3,298.22232142857143,301.12857142857143,728.5,210.22232142857143,200.12857142857143,834.3,94.22232142857143,114.12857142857143,935.8,64.22232142857143,96.12857142857143,1076.3,64.22232142857143,96.12857142857143,1181.9,56.222321428571426,87.12857142857143,1290.6,46.222321428571426,77.12857142857143,1392.5,45.222321428571426,76.12857142857143,1529.1,45.222321428571426,76.12857142857143,1633.5,45.222321428571426,76.12857142857143,1735.7,45.222321428571426,76.12857142857143,1836.7,45.222321428571426,76.12857142857143,1941.3,45.222321428571426,76.12857142857143,2053.5,45.222321428571426,76.12857142857143,2183,45.222321428571426,76.12857142857143,2290.6,47.222321428571426,79.12857142857143,2404.1,68.22232142857143,104.12857142857143,2504.3,84.22232142857143,125.12857142857143,2611,99.22232142857143,144.12857142857143,2711,101.22232142857143,148.12857142857143,2811.1,101.22232142857143,148.12857142857143,2913.4,101.22232142857143,148.12857142857143,3017.9,101.22232142857143,148.12857142857143,3118.6,101.22232142857143,148.12857142857143,3221.1,101.22232142857143,148.12857142857143,3322,101.22232142857143,148.12857142857143,3442.6,101.22232142857143,148.12857142857143,3544.5,101.22232142857143,148.12857142857143,3653.1,101.22232142857143,148.12857142857143,3756.7,101.22232142857143,148.12857142857143,3862.3,101.22232142857143,148.12857142857143,3965.9,101.22232142857143,148.12857142857143,4073.2,101.22232142857143,148.12857142857143,4177.7,101.22232142857143,148.12857142857143,4288.1,101.22232142857143,148.12857142857143,4392.7,101.22232142857143,148.12857142857143,4511.4,101.22232142857143,148.12857142857143,4635.3,101.22232142857143,148.12857142857143,4736.3,101.22232142857143,148.12857142857143,4840.8,101.22232142857143,148.12857142857143,4960.4]","[1672,1671.9,1000,0.1,672,""smooth"",""up"",""up"",""good_move"",5339.5,3665.4,2792.6,1674.1,872.9,""oops"",""left"",""left"",""good_move"",8605.4,3263.3,2192.2,5342.1,1071.1,""smooth"",""left"",""left"",""good_move"",11754.7,3148,2229.1,8606.7,918.9,""oops"",""up"",""down"",""bad_move"",18706.3,6949.7,2680.9,15501.5,523.9,""smooth"",""up"",""up"",""good_move"",22003.6,3296,2286.9,18707.7,1009,""smooth"",""up"",""up"",""good_move""]","",""
"3058","","<div style=""width:500px;"">
  <p>What determined the result of this run?</p>
  </div>","100","html-slider-response","55","2038971","0.0-10.0-1.3","201","1","2025-07-09 09:17:46","7701e855f2ef39aa3fd6c71abdc6918a","41.150.35.125","Mozilla/5.0 (Windows NT 10.0; Win64; x64) AppleWebKit/537.36 (KHTML, like Gecko) Chrome/138.0.0.0 Safari/537.36","WebKit","Chrome","138.0.0.0","Windows","10.0","https://app.prolific.com/","en-US,en;q=0.8","67c7672373207a4fb29efe7f","686d226cabeef709c732f8e1","686e32267de84b1dc20f5c5c","67c7672373207a4fb29efe7f","2025-07-09T09:51:49.365Z","","","","","","AttribQ","","","","","","","","","","","","","","","","","","","","","","","","","","","","","","","","","","","","","","50"
"3426","","<div style=""width:500px;"">
  <p>How much control did you have over the ball?</p>
  </div>","99","html-slider-response","56","2042401","0.0-10.0-2.3","201","1","2025-07-09 09:17:46","7701e855f2ef39aa3fd6c71abdc6918a","41.150.35.125","Mozilla/5.0 (Windows NT 10.0; Win64; x64) AppleWebKit/537.36 (KHTML, like Gecko) Chrome/138.0.0.0 Safari/537.36","WebKit","Chrome","138.0.0.0","Windows","10.0","https://app.prolific.com/","en-US,en;q=0.8","67c7672373207a4fb29efe7f","686d226cabeef709c732f8e1","686e32267de84b1dc20f5c5c","67c7672373207a4fb29efe7f","2025-07-09T09:51:52.795Z","","","","","","ControlQ","","","","","","","","","","","","","","","","","","","","","","","","","","","","","","","","","","","","","","50"
"3576","","<div style=""width:500px;"">
  <p>How would you describe your current emotional state?</p>
  </div>","22","html-slider-response","57","2045980","0.0-10.0-3.3","201","1","2025-07-09 09:17:46","7701e855f2ef39aa3fd6c71abdc6918a","41.150.35.125","Mozilla/5.0 (Windows NT 10.0; Win64; x64) AppleWebKit/537.36 (KHTML, like Gecko) Chrome/138.0.0.0 Safari/537.36","WebKit","Chrome","138.0.0.0","Windows","10.0","https://app.prolific.com/","en-US,en;q=0.8","67c7672373207a4fb29efe7f","686d226cabeef709c732f8e1","686e32267de84b1dc20f5c5c","67c7672373207a4fb29efe7f","2025-07-09T09:51:56.374Z","","","","","","StressQ","","","","","","","","","","","","","","","","","","","","","","","","","","","","","","","","","","","","","","50"
"2752","","<div style=""width:500px;"">
  <p>What best describes how you currently feel?</p>
  </div>","69","html-slider-response","58","2048735","0.0-10.0-4.3","201","1","2025-07-09 09:17:46","7701e855f2ef39aa3fd6c71abdc6918a","41.150.35.125","Mozilla/5.0 (Windows NT 10.0; Win64; x64) AppleWebKit/537.36 (KHTML, like Gecko) Chrome/138.0.0.0 Safari/537.36","WebKit","Chrome","138.0.0.0","Windows","10.0","https://app.prolific.com/","en-US,en;q=0.8","67c7672373207a4fb29efe7f","686d226cabeef709c732f8e1","686e32267de84b1dc20f5c5c","67c7672373207a4fb29efe7f","2025-07-09T09:51:59.129Z","","","","","","MotivationQ","","","","","","","","","","","","","","","","","","","","","","","","","","","","","","","","","","","","","","50"
"","","","","ctl-task-cpt","59","2071267","0.0-10.0-0.4","201","1","2025-07-09 09:17:46","7701e855f2ef39aa3fd6c71abdc6918a","41.150.35.125","Mozilla/5.0 (Windows NT 10.0; Win64; x64) AppleWebKit/537.36 (KHTML, like Gecko) Chrome/138.0.0.0 Safari/537.36","WebKit","Chrome","138.0.0.0","Windows","10.0","https://app.prolific.com/","en-US,en;q=0.8","67c7672373207a4fb29efe7f","686d226cabeef709c732f8e1","686e32267de84b1dc20f5c5c","67c7672373207a4fb29efe7f","2025-07-09T09:52:21.661Z","","","","","","","","","","","","","","","","win-only","0","g1:NW,g2:SE","0.6","5","0","2056241.8","1730.5","6742.3","19495.5","1","4","4","6","1","1","1","2","1","0.015151515151515152","1888.8","3000","1970","[""left"",""up""]","{""num_key_presses"":4,""num_perfect"":3,""num_errors"":0,""num_randdir"":1,""num_randdir_good_moves"":1,""num_whilered"":0,""num_whileblue"":0,""num_blue"":0,""num_good_moves"":4}","[301.22232142857143,295.12857142857143,1.2,301.22232142857143,295.12857142857143,100.6,301.22232142857143,295.12857142857143,205.7,301.22232142857143,295.12857142857143,311.7,301.22232142857143,295.12857142857143,419.7,301.22232142857143,295.12857142857143,525.9,301.22232142857143,295.12857142857143,626.2,301.22232142857143,295.12857142857143,793.5,301.22232142857143,295.12857142857143,897.1,299.22232142857143,294.12857142857143,1012.1,212.22232142857143,211.12857142857143,1119.3,97.22232142857143,122.12857142857143,1220.4,75.22232142857143,108.12857142857143,1320.7,57.222321428571426,93.12857142857143,1421.9,57.222321428571426,89.12857142857143,1533.8,57.222321428571426,79.12857142857143,1645.1,57.222321428571426,79.12857142857143,1745.3,57.222321428571426,79.12857142857143,1852.9,57.222321428571426,79.12857142857143,1955.8,57.222321428571426,79.12857142857143,2060.8,57.222321428571426,79.12857142857143,2162.4,57.222321428571426,79.12857142857143,2268.1,57.222321428571426,79.12857142857143,2378.4,57.222321428571426,79.12857142857143,2480.8,57.222321428571426,79.12857142857143,2581.6,57.222321428571426,79.12857142857143,2690.6,57.222321428571426,79.12857142857143,2793.4,57.222321428571426,79.12857142857143,2895.5,57.222321428571426,79.12857142857143,2997.2,57.222321428571426,79.12857142857143,3105.3,57.222321428571426,79.12857142857143,3220.5,57.222321428571426,79.12857142857143,3323.4,57.222321428571426,79.12857142857143,3429.7,57.222321428571426,79.12857142857143,3532.3,57.222321428571426,79.12857142857143,3645.6,57.222321428571426,79.12857142857143,3756.3,57.222321428571426,79.12857142857143,3861.7,57.222321428571426,79.12857142857143,3966.5,57.222321428571426,79.12857142857143,4070.7,57.222321428571426,79.12857142857143,4179.9,57.222321428571426,79.12857142857143,4285.4,57.222321428571426,79.12857142857143,4395.2,57.222321428571426,79.12857142857143,4506.6,57.222321428571426,79.12857142857143,4617.8,57.222321428571426,79.12857142857143,4725.3,57.222321428571426,79.12857142857143,4830.2,57.222321428571426,79.12857142857143,4939.4]","[1939.4,1939.4,1000,0,939.4,""smooth"",""up"",""up"",""good_move"",5418.9,3478,2260.4,1940.9,1217.6,""smooth"",""up"",""up"",""good_move"",8684,3263.6,2186.2,5420.5,1077.3,""oops"",""left"",""left"",""good_move"",12379.4,3691.2,2016,8688.2,1675.2,""smooth"",""left"",""left"",""good_move""]","",""
"4659","","<div style=""width:500px;"">
  <p>What determined the result of this run?</p>
  </div>","100","html-slider-response","60","2075932","0.0-10.0-1.4","201","1","2025-07-09 09:17:46","7701e855f2ef39aa3fd6c71abdc6918a","41.150.35.125","Mozilla/5.0 (Windows NT 10.0; Win64; x64) AppleWebKit/537.36 (KHTML, like Gecko) Chrome/138.0.0.0 Safari/537.36","WebKit","Chrome","138.0.0.0","Windows","10.0","https://app.prolific.com/","en-US,en;q=0.8","67c7672373207a4fb29efe7f","686d226cabeef709c732f8e1","686e32267de84b1dc20f5c5c","67c7672373207a4fb29efe7f","2025-07-09T09:52:26.326Z","","","","","","AttribQ","","","","","","","","","","","","","","","","","","","","","","","","","","","","","","","","","","","","","","50"
"5310","","<div style=""width:500px;"">
  <p>How much control did you have over the ball?</p>
  </div>","90","html-slider-response","61","2081247","0.0-10.0-2.4","201","1","2025-07-09 09:17:46","7701e855f2ef39aa3fd6c71abdc6918a","41.150.35.125","Mozilla/5.0 (Windows NT 10.0; Win64; x64) AppleWebKit/537.36 (KHTML, like Gecko) Chrome/138.0.0.0 Safari/537.36","WebKit","Chrome","138.0.0.0","Windows","10.0","https://app.prolific.com/","en-US,en;q=0.8","67c7672373207a4fb29efe7f","686d226cabeef709c732f8e1","686e32267de84b1dc20f5c5c","67c7672373207a4fb29efe7f","2025-07-09T09:52:31.641Z","","","","","","ControlQ","","","","","","","","","","","","","","","","","","","","","","","","","","","","","","","","","","","","","","50"
"3867","","<div style=""width:500px;"">
  <p>How would you describe your current emotional state?</p>
  </div>","16","html-slider-response","62","2085118","0.0-10.0-3.4","201","1","2025-07-09 09:17:46","7701e855f2ef39aa3fd6c71abdc6918a","41.150.35.125","Mozilla/5.0 (Windows NT 10.0; Win64; x64) AppleWebKit/537.36 (KHTML, like Gecko) Chrome/138.0.0.0 Safari/537.36","WebKit","Chrome","138.0.0.0","Windows","10.0","https://app.prolific.com/","en-US,en;q=0.8","67c7672373207a4fb29efe7f","686d226cabeef709c732f8e1","686e32267de84b1dc20f5c5c","67c7672373207a4fb29efe7f","2025-07-09T09:52:35.512Z","","","","","","StressQ","","","","","","","","","","","","","","","","","","","","","","","","","","","","","","","","","","","","","","50"
"3020","","<div style=""width:500px;"">
  <p>What best describes how you currently feel?</p>
  </div>","83","html-slider-response","63","2088143","0.0-10.0-4.4","201","1","2025-07-09 09:17:46","7701e855f2ef39aa3fd6c71abdc6918a","41.150.35.125","Mozilla/5.0 (Windows NT 10.0; Win64; x64) AppleWebKit/537.36 (KHTML, like Gecko) Chrome/138.0.0.0 Safari/537.36","WebKit","Chrome","138.0.0.0","Windows","10.0","https://app.prolific.com/","en-US,en;q=0.8","67c7672373207a4fb29efe7f","686d226cabeef709c732f8e1","686e32267de84b1dc20f5c5c","67c7672373207a4fb29efe7f","2025-07-09T09:52:38.537Z","","","","","","MotivationQ","","","","","","","","","","","","","","","","","","","","","","","","","","","","","","","","","","","","","","50"
"","","","","ctl-task-cpt","64","2129642","0.0-10.0-0.5","201","1","2025-07-09 09:17:46","7701e855f2ef39aa3fd6c71abdc6918a","41.150.35.125","Mozilla/5.0 (Windows NT 10.0; Win64; x64) AppleWebKit/537.36 (KHTML, like Gecko) Chrome/138.0.0.0 Safari/537.36","WebKit","Chrome","138.0.0.0","Windows","10.0","https://app.prolific.com/","en-US,en;q=0.8","67c7672373207a4fb29efe7f","686d226cabeef709c732f8e1","686e32267de84b1dc20f5c5c","67c7672373207a4fb29efe7f","2025-07-09T09:53:20.037Z","","","","","","","","","","","","","","","","win-only","0","g1:NW,g2:SE","0.5","6","0","2095651","1928.6","6944.9","38432.7","1","4","8","6","2","8","8","10","2","0.07575757575757576","2121.4","3000","460","[""down"",""right""]","{""num_key_presses"":8,""num_perfect"":4,""num_errors"":0,""num_randdir"":4,""num_randdir_good_moves"":3,""num_whilered"":0,""num_whileblue"":0,""num_blue"":2,""num_good_moves"":7}","[296.22232142857143,297.12857142857143,0.9,296.22232142857143,297.12857142857143,101.1,296.22232142857143,297.12857142857143,205.3,296.22232142857143,297.12857142857143,421.9,296.22232142857143,297.12857142857143,529,296.22232142857143,297.12857142857143,630.3,296.22232142857143,297.12857142857143,826.1,296.22232142857143,297.12857142857143,933.1,296.22232142857143,297.12857142857143,1047.6,296.22232142857143,297.12857142857143,1148.4,299.22232142857143,297.12857142857143,1256.4,473.22232142857143,444.12857142857143,1363.2,514.2223214285714,488.12857142857143,1464.7,521.2223214285714,503.12857142857143,1586.1,541.2223214285714,545.1285714285714,1693.1,541.2223214285714,545.1285714285714,1798,541.2223214285714,546.1285714285714,1906.8,541.2223214285714,546.1285714285714,2007.1,541.2223214285714,546.1285714285714,2108,541.2223214285714,546.1285714285714,2215.7,541.2223214285714,546.1285714285714,2322.1,541.2223214285714,546.1285714285714,2426.8,541.2223214285714,546.1285714285714,2532.8,541.2223214285714,546.1285714285714,2643.2,541.2223214285714,546.1285714285714,2747.6,541.2223214285714,546.1285714285714,2857.2,541.2223214285714,546.1285714285714,2967.5,541.2223214285714,546.1285714285714,3068,541.2223214285714,546.1285714285714,3177.7,538.2223214285714,544.1285714285714,3278.7,536.2223214285714,542.1285714285714,3394.9,533.2223214285714,540.1285714285714,3511.7,533.2223214285714,539.1285714285714,3614.3,532.2223214285714,539.1285714285714,3717.1,532.2223214285714,539.1285714285714,3824.3,531.2223214285714,538.1285714285714,3933.2,530.2223214285714,537.1285714285714,4046.2,530.2223214285714,536.1285714285714,4148.5,529.2223214285714,536.1285714285714,4248.8,529.2223214285714,536.1285714285714,4358.7,529.2223214285714,536.1285714285714,4465.7,529.2223214285714,536.1285714285714,4576.4,529.2223214285714,536.1285714285714,4698.1,529.2223214285714,536.1285714285714,4807.9,529.2223214285714,536.1285714285714,4916.3]","[1935.2,1935.3,1000,0,935.3,""smooth"",""down"",""down"",""good_move"",8600.6,6655.5,1893.6,5860.7,846.3,""oops"",""down"",""left"",""bad_move"",12255.2,3653.3,2561.7,8601.9,1091.6,""smooth"",""down"",""down"",""good_move"",18680.2,6423.7,1920.8,16163.9,595.5,""oops"",""right"",""down"",""good_move"",21973.7,3292.7,2394.5,18681.1,898.1,""smooth"",""right"",""right"",""good_move"",25361,3385,2610.5,21976,774.5,""oops"",""right"",""right"",""good_move"",28387.6,3024.8,2356,25362.8,668.8,""smooth"",""right"",""right"",""good_move"",31247.6,2855.2,2260.7,28392.4,594.5,""oops"",""right"",""right"",""good_move""]","",""
"3934","","<div style=""width:500px;"">
  <p>What determined the result of this run?</p>
  </div>","100","html-slider-response","65","2133581","0.0-10.0-1.5","201","1","2025-07-09 09:17:46","7701e855f2ef39aa3fd6c71abdc6918a","41.150.35.125","Mozilla/5.0 (Windows NT 10.0; Win64; x64) AppleWebKit/537.36 (KHTML, like Gecko) Chrome/138.0.0.0 Safari/537.36","WebKit","Chrome","138.0.0.0","Windows","10.0","https://app.prolific.com/","en-US,en;q=0.8","67c7672373207a4fb29efe7f","686d226cabeef709c732f8e1","686e32267de84b1dc20f5c5c","67c7672373207a4fb29efe7f","2025-07-09T09:53:23.975Z","","","","","","AttribQ","","","","","","","","","","","","","","","","","","","","","","","","","","","","","","","","","","","","","","50"
"15115","","<div style=""width:500px;"">
  <p>How much control did you have over the ball?</p>
  </div>","74","html-slider-response","66","2148701","0.0-10.0-2.5","201","1","2025-07-09 09:17:46","7701e855f2ef39aa3fd6c71abdc6918a","41.150.35.125","Mozilla/5.0 (Windows NT 10.0; Win64; x64) AppleWebKit/537.36 (KHTML, like Gecko) Chrome/138.0.0.0 Safari/537.36","WebKit","Chrome","138.0.0.0","Windows","10.0","https://app.prolific.com/","en-US,en;q=0.8","67c7672373207a4fb29efe7f","686d226cabeef709c732f8e1","686e32267de84b1dc20f5c5c","67c7672373207a4fb29efe7f","2025-07-09T09:53:39.095Z","","","","","","ControlQ","","","","","","","","","","","","","","","","","","","","","","","","","","","","","","","","","","","","","","50"
"5300","","<div style=""width:500px;"">
  <p>How would you describe your current emotional state?</p>
  </div>","6","html-slider-response","67","2154006","0.0-10.0-3.5","201","1","2025-07-09 09:17:46","7701e855f2ef39aa3fd6c71abdc6918a","41.150.35.125","Mozilla/5.0 (Windows NT 10.0; Win64; x64) AppleWebKit/537.36 (KHTML, like Gecko) Chrome/138.0.0.0 Safari/537.36","WebKit","Chrome","138.0.0.0","Windows","10.0","https://app.prolific.com/","en-US,en;q=0.8","67c7672373207a4fb29efe7f","686d226cabeef709c732f8e1","686e32267de84b1dc20f5c5c","67c7672373207a4fb29efe7f","2025-07-09T09:53:44.400Z","","","","","","StressQ","","","","","","","","","","","","","","","","","","","","","","","","","","","","","","","","","","","","","","50"
"5232","","<div style=""width:500px;"">
  <p>What best describes how you currently feel?</p>
  </div>","85","html-slider-response","68","2159246","0.0-10.0-4.5","201","1","2025-07-09 09:17:46","7701e855f2ef39aa3fd6c71abdc6918a","41.150.35.125","Mozilla/5.0 (Windows NT 10.0; Win64; x64) AppleWebKit/537.36 (KHTML, like Gecko) Chrome/138.0.0.0 Safari/537.36","WebKit","Chrome","138.0.0.0","Windows","10.0","https://app.prolific.com/","en-US,en;q=0.8","67c7672373207a4fb29efe7f","686d226cabeef709c732f8e1","686e32267de84b1dc20f5c5c","67c7672373207a4fb29efe7f","2025-07-09T09:53:49.640Z","","","","","","MotivationQ","","","","","","","","","","","","","","","","","","","","","","","","","","","","","","","","","","","","","","50"
"","","","","ctl-task-cpt","69","2183560","0.0-10.0-0.6","201","1","2025-07-09 09:17:46","7701e855f2ef39aa3fd6c71abdc6918a","41.150.35.125","Mozilla/5.0 (Windows NT 10.0; Win64; x64) AppleWebKit/537.36 (KHTML, like Gecko) Chrome/138.0.0.0 Safari/537.36","WebKit","Chrome","138.0.0.0","Windows","10.0","https://app.prolific.com/","en-US,en;q=0.8","67c7672373207a4fb29efe7f","686d226cabeef709c732f8e1","686e32267de84b1dc20f5c5c","67c7672373207a4fb29efe7f","2025-07-09T09:54:13.954Z","","","","","","","","","","","","","","","","win-only","3","g1:SW,g2:NE","0.4","7","0","2166753.9","3770.8","8776.6","21273.9","1","4","8","6","1","1","1","11","10","0.08333333333333333","2118.6","3000","1950","[""down"",""left""]","{""num_key_presses"":4,""num_perfect"":3,""num_errors"":0,""num_randdir"":1,""num_randdir_good_moves"":1,""num_whilered"":0,""num_whileblue"":0,""num_blue"":0,""num_good_moves"":4}","[297.22232142857143,296.12857142857143,0.9,297.22232142857143,296.12857142857143,102.7,297.22232142857143,296.12857142857143,215.8,297.22232142857143,296.12857142857143,322.4,297.22232142857143,296.12857142857143,431.5,297.22232142857143,296.12857142857143,536.2,297.22232142857143,296.12857142857143,637.8,297.22232142857143,296.12857142857143,745.1,297.22232142857143,296.12857142857143,845.9,283.22232142857143,302.12857142857143,951.8,136.22232142857143,417.12857142857143,1067.6,60.222321428571426,482.12857142857143,1190.8,4.222321428571426,574.1285714285714,1305.2,9.222321428571426,573.1285714285714,1414,9.222321428571426,573.1285714285714,1517.1,9.222321428571426,573.1285714285714,1620.4,16.222321428571426,568.1285714285714,1722.3,33.222321428571426,552.1285714285714,1849.9,33.222321428571426,552.1285714285714,1963.4,33.222321428571426,552.1285714285714,2075.3,33.222321428571426,552.1285714285714,2184.7,33.222321428571426,552.1285714285714,2293.4,33.222321428571426,552.1285714285714,2400.7,33.222321428571426,552.1285714285714,2523.3,33.222321428571426,552.1285714285714,2635.7,33.222321428571426,552.1285714285714,2766.8,33.222321428571426,552.1285714285714,2867.7,33.222321428571426,552.1285714285714,3044.7,33.222321428571426,552.1285714285714,3197.6,33.222321428571426,552.1285714285714,3297.6,33.222321428571426,552.1285714285714,3397.7,33.222321428571426,552.1285714285714,3586.3,33.222321428571426,552.1285714285714,3687.4,33.222321428571426,552.1285714285714,3792.4,33.222321428571426,552.1285714285714,3894.2,33.222321428571426,552.1285714285714,3995.6,33.222321428571426,552.1285714285714,4171.6,67.22232142857143,549.1285714285714,4284,150.22232142857143,558.1285714285714,4394.5,171.22232142857143,567.1285714285714,4496.7,187.22232142857143,580.1285714285714,4604,187.22232142857143,580.1285714285714,4714.5,187.22232142857143,580.1285714285714,4822.8,187.22232142857143,580.1285714285714,4924.4]","[2011.8,2011.8,1000,0.1,1011.7,""smooth"",""down"",""down"",""good_move"",5209.7,3190.5,2304,2019.2,886.5,""smooth"",""left"",""left"",""good_move"",8852.7,3641.2,2804.3,5211.5,836.9,""oops"",""down"",""down"",""good_move"",12140.9,3287.1,2315.2,8853.9,971.8,""smooth"",""left"",""left"",""good_move""]","",""
"10787","","<div style=""width:500px;"">
  <p>What determined the result of this run?</p>
  </div>","97","html-slider-response","70","2194352","0.0-10.0-1.6","201","1","2025-07-09 09:17:46","7701e855f2ef39aa3fd6c71abdc6918a","41.150.35.125","Mozilla/5.0 (Windows NT 10.0; Win64; x64) AppleWebKit/537.36 (KHTML, like Gecko) Chrome/138.0.0.0 Safari/537.36","WebKit","Chrome","138.0.0.0","Windows","10.0","https://app.prolific.com/","en-US,en;q=0.8","67c7672373207a4fb29efe7f","686d226cabeef709c732f8e1","686e32267de84b1dc20f5c5c","67c7672373207a4fb29efe7f","2025-07-09T09:54:24.746Z","","","","","","AttribQ","","","","","","","","","","","","","","","","","","","","","","","","","","","","","","","","","","","","","","50"
"6499","","<div style=""width:500px;"">
  <p>How much control did you have over the ball?</p>
  </div>","95","html-slider-response","71","2200856","0.0-10.0-2.6","201","1","2025-07-09 09:17:46","7701e855f2ef39aa3fd6c71abdc6918a","41.150.35.125","Mozilla/5.0 (Windows NT 10.0; Win64; x64) AppleWebKit/537.36 (KHTML, like Gecko) Chrome/138.0.0.0 Safari/537.36","WebKit","Chrome","138.0.0.0","Windows","10.0","https://app.prolific.com/","en-US,en;q=0.8","67c7672373207a4fb29efe7f","686d226cabeef709c732f8e1","686e32267de84b1dc20f5c5c","67c7672373207a4fb29efe7f","2025-07-09T09:54:31.250Z","","","","","","ControlQ","","","","","","","","","","","","","","","","","","","","","","","","","","","","","","","","","","","","","","50"
"3723","","<div style=""width:500px;"">
  <p>How would you describe your current emotional state?</p>
  </div>","16","html-slider-response","72","2204583","0.0-10.0-3.6","201","1","2025-07-09 09:17:46","7701e855f2ef39aa3fd6c71abdc6918a","41.150.35.125","Mozilla/5.0 (Windows NT 10.0; Win64; x64) AppleWebKit/537.36 (KHTML, like Gecko) Chrome/138.0.0.0 Safari/537.36","WebKit","Chrome","138.0.0.0","Windows","10.0","https://app.prolific.com/","en-US,en;q=0.8","67c7672373207a4fb29efe7f","686d226cabeef709c732f8e1","686e32267de84b1dc20f5c5c","67c7672373207a4fb29efe7f","2025-07-09T09:54:34.977Z","","","","","","StressQ","","","","","","","","","","","","","","","","","","","","","","","","","","","","","","","","","","","","","","50"
"3137","","<div style=""width:500px;"">
  <p>What best describes how you currently feel?</p>
  </div>","87","html-slider-response","73","2207725","0.0-10.0-4.6","201","1","2025-07-09 09:17:46","7701e855f2ef39aa3fd6c71abdc6918a","41.150.35.125","Mozilla/5.0 (Windows NT 10.0; Win64; x64) AppleWebKit/537.36 (KHTML, like Gecko) Chrome/138.0.0.0 Safari/537.36","WebKit","Chrome","138.0.0.0","Windows","10.0","https://app.prolific.com/","en-US,en;q=0.8","67c7672373207a4fb29efe7f","686d226cabeef709c732f8e1","686e32267de84b1dc20f5c5c","67c7672373207a4fb29efe7f","2025-07-09T09:54:38.119Z","","","","","","MotivationQ","","","","","","","","","","","","","","","","","","","","","","","","","","","","","","","","","","","","","","50"
"","","","","ctl-task-cpt","74","2288135","0.0-10.0-0.7","201","1","2025-07-09 09:17:46","7701e855f2ef39aa3fd6c71abdc6918a","41.150.35.125","Mozilla/5.0 (Windows NT 10.0; Win64; x64) AppleWebKit/537.36 (KHTML, like Gecko) Chrome/138.0.0.0 Safari/537.36","WebKit","Chrome","138.0.0.0","Windows","10.0","https://app.prolific.com/","en-US,en;q=0.8","67c7672373207a4fb29efe7f","686d226cabeef709c732f8e1","686e32267de84b1dc20f5c5c","67c7672373207a4fb29efe7f","2025-07-09T09:55:58.529Z","","","","","","","","","","","","","","","","win-only","1","g1:NE,g2:SW","0.3","8","0","2215233","2096.8","7098.9","77382.3","1","4","4","6","2","-4","-5","6","11","0.045454545454545456","2761.6","3000","-935","[""down"",""left""]","{""num_key_presses"":14,""num_perfect"":4,""num_errors"":1,""num_randdir"":9,""num_randdir_good_moves"":3,""num_whilered"":0,""num_whileblue"":1,""num_blue"":4,""num_good_moves"":8}","[299.22232142857143,293.12857142857143,3.7,299.22232142857143,293.12857142857143,249.4,299.22232142857143,293.12857142857143,352.7,299.22232142857143,293.12857142857143,457.1,299.22232142857143,293.12857142857143,560.7,299.22232142857143,293.12857142857143,753.8,299.22232142857143,293.12857142857143,857.1,299.22232142857143,293.12857142857143,1069.4,326.22232142857143,271.12857142857143,1191.8,495.22232142857143,123.12857142857143,1301.7,531.2223214285714,92.12857142857143,1411,531.2223214285714,92.12857142857143,1527.6,520.2223214285714,99.12857142857143,1630.1,262.22232142857143,328.12857142857143,1740.8,132.22232142857143,423.12857142857143,1848.7,132.22232142857143,423.12857142857143,1960.9,93.22232142857143,470.12857142857143,2161.8,75.22232142857143,504.12857142857143,2267.6,68.22232142857143,516.1285714285714,2379.7,64.22232142857143,522.1285714285714,2486.8,64.22232142857143,522.1285714285714,2599.6,64.22232142857143,522.1285714285714,2775.6,64.22232142857143,522.1285714285714,2885.3,64.22232142857143,522.1285714285714,2993,64.22232142857143,522.1285714285714,3102.9,64.22232142857143,522.1285714285714,3217.2,64.22232142857143,522.1285714285714,3321.8,64.22232142857143,522.1285714285714,3427.3,64.22232142857143,522.1285714285714,3593,64.22232142857143,522.1285714285714,3696.4,64.22232142857143,522.1285714285714,3905.3,64.22232142857143,522.1285714285714,4011.6,66.22232142857143,522.1285714285714,4118.4,77.22232142857143,522.1285714285714,4229.7,78.22232142857143,522.1285714285714,4332.8,78.22232142857143,522.1285714285714,4514.7,78.22232142857143,522.1285714285714,4621.7,78.22232142857143,522.1285714285714,4808.9,78.22232142857143,522.1285714285714,4918.9]","[2968.5,2968.5,1000,0,1968.5,""smooth"",""left"",""left"",""good_move"",5824.4,2853.4,2094.4,2971,759,""oops"",""left"",""right"",""bad_move"",12138.1,6309.6,2058.3,9476.1,603.7,""oops"",""down"",""up"",""bad_move"",16610.9,4471.7,1872,12139.3,2599.6,""oops"",""left"",""up"",""bad_move"",20775.4,4161.5,3610.9,16613.9,550.6,""while_blue"",""down"",""left"",""good_move"",26972.3,6195.7,2419.7,20776.6,3776,""oops"",""down"",""left"",""good_move"",33238.5,6265.4,2647.7,26973.2,3617.7,""smooth"",""down"",""down"",""good_move"",36816.1,3576.2,2592.9,33239.9,983.3,""oops"",""down"",""down"",""good_move"",40134.2,3316.8,2481.5,36817.4,835.3,""oops"",""down"",""up"",""bad_move"",48333.4,8197.8,2273.6,45501.3,558.5,""oops"",""left"",""down"",""good_move"",51621.4,3286.7,2639.4,48334.8,647.3,""smooth"",""left"",""left"",""good_move"",55516.5,3893.9,1613,51622.6,2280.9,""oops"",""down"",""up"",""bad_move"",59186.9,3669.3,3084.1,55517.6,585.2,""smooth"",""down"",""down"",""good_move"",67022.9,7834.8,3542,62825.9,655,""oops"",""down"",""right"",""bad_move""]","",""
"6327","","<div style=""width:500px;"">
  <p>What determined the result of this run?</p>
  </div>","35","html-slider-response","75","2294481","0.0-10.0-1.7","201","1","2025-07-09 09:17:46","7701e855f2ef39aa3fd6c71abdc6918a","41.150.35.125","Mozilla/5.0 (Windows NT 10.0; Win64; x64) AppleWebKit/537.36 (KHTML, like Gecko) Chrome/138.0.0.0 Safari/537.36","WebKit","Chrome","138.0.0.0","Windows","10.0","https://app.prolific.com/","en-US,en;q=0.8","67c7672373207a4fb29efe7f","686d226cabeef709c732f8e1","686e32267de84b1dc20f5c5c","67c7672373207a4fb29efe7f","2025-07-09T09:56:04.876Z","","","","","","AttribQ","","","","","","","","","","","","","","","","","","","","","","","","","","","","","","","","","","","","","","50"
"4963","","<div style=""width:500px;"">
  <p>How much control did you have over the ball?</p>
  </div>","0","html-slider-response","76","2299448","0.0-10.0-2.7","201","1","2025-07-09 09:17:46","7701e855f2ef39aa3fd6c71abdc6918a","41.150.35.125","Mozilla/5.0 (Windows NT 10.0; Win64; x64) AppleWebKit/537.36 (KHTML, like Gecko) Chrome/138.0.0.0 Safari/537.36","WebKit","Chrome","138.0.0.0","Windows","10.0","https://app.prolific.com/","en-US,en;q=0.8","67c7672373207a4fb29efe7f","686d226cabeef709c732f8e1","686e32267de84b1dc20f5c5c","67c7672373207a4fb29efe7f","2025-07-09T09:56:09.842Z","","","","","","ControlQ","","","","","","","","","","","","","","","","","","","","","","","","","","","","","","","","","","","","","","50"
"3829","","<div style=""width:500px;"">
  <p>How would you describe your current emotional state?</p>
  </div>","54","html-slider-response","77","2303282","0.0-10.0-3.7","201","1","2025-07-09 09:17:46","7701e855f2ef39aa3fd6c71abdc6918a","41.150.35.125","Mozilla/5.0 (Windows NT 10.0; Win64; x64) AppleWebKit/537.36 (KHTML, like Gecko) Chrome/138.0.0.0 Safari/537.36","WebKit","Chrome","138.0.0.0","Windows","10.0","https://app.prolific.com/","en-US,en;q=0.8","67c7672373207a4fb29efe7f","686d226cabeef709c732f8e1","686e32267de84b1dc20f5c5c","67c7672373207a4fb29efe7f","2025-07-09T09:56:13.676Z","","","","","","StressQ","","","","","","","","","","","","","","","","","","","","","","","","","","","","","","","","","","","","","","50"
"4552","","<div style=""width:500px;"">
  <p>What best describes how you currently feel?</p>
  </div>","44","html-slider-response","78","2307839","0.0-10.0-4.7","201","1","2025-07-09 09:17:46","7701e855f2ef39aa3fd6c71abdc6918a","41.150.35.125","Mozilla/5.0 (Windows NT 10.0; Win64; x64) AppleWebKit/537.36 (KHTML, like Gecko) Chrome/138.0.0.0 Safari/537.36","WebKit","Chrome","138.0.0.0","Windows","10.0","https://app.prolific.com/","en-US,en;q=0.8","67c7672373207a4fb29efe7f","686d226cabeef709c732f8e1","686e32267de84b1dc20f5c5c","67c7672373207a4fb29efe7f","2025-07-09T09:56:18.233Z","","","","","","MotivationQ","","","","","","","","","","","","","","","","","","","","","","","","","","","","","","","","","","","","","","50"
"","","","","ctl-task-cpt","79","2392526","0.0-10.0-0.8","201","1","2025-07-09 09:17:46","7701e855f2ef39aa3fd6c71abdc6918a","41.150.35.125","Mozilla/5.0 (Windows NT 10.0; Win64; x64) AppleWebKit/537.36 (KHTML, like Gecko) Chrome/138.0.0.0 Safari/537.36","WebKit","Chrome","138.0.0.0","Windows","10.0","https://app.prolific.com/","en-US,en;q=0.8","67c7672373207a4fb29efe7f","686d226cabeef709c732f8e1","686e32267de84b1dc20f5c5c","67c7672373207a4fb29efe7f","2025-07-09T09:57:42.921Z","","","","","","","","","","","","","","","","win-only","1","g1:NE,g2:SW","0.2","9","0","2315347.8","1803","6829.7","81650.4","1","4","4","6","1","1","1","7","6","0.05303030303030303","2378.6","3000","660","[""up"",""right""]","{""num_key_presses"":14,""num_perfect"":4,""num_errors"":0,""num_randdir"":10,""num_randdir_good_moves"":5,""num_whilered"":0,""num_whileblue"":0,""num_blue"":5,""num_good_moves"":9}","[293.22232142857143,296.12857142857143,0.8,293.22232142857143,296.12857142857143,109,293.22232142857143,296.12857142857143,239.1,293.22232142857143,296.12857142857143,369,293.22232142857143,296.12857142857143,492.1,293.22232142857143,296.12857142857143,610.5,293.22232142857143,296.12857142857143,723.3,293.22232142857143,296.12857142857143,834.2,293.22232142857143,296.12857142857143,944.1,293.22232142857143,296.12857142857143,1051.6,293.22232142857143,296.12857142857143,1167.3,293.22232142857143,296.12857142857143,1286.1,294.22232142857143,296.12857142857143,1413.5,520.2223214285714,16.128571428571426,1560.9,543.2223214285714,-3.8714285714285737,1691.3,543.2223214285714,-3.8714285714285737,1816.8,539.2223214285714,18.128571428571426,1928,536.2223214285714,29.128571428571426,2034,536.2223214285714,32.128571428571426,2174,536.2223214285714,32.128571428571426,2281.1,536.2223214285714,32.128571428571426,2405.4,536.2223214285714,32.128571428571426,2508.5,536.2223214285714,32.128571428571426,2615.3,536.2223214285714,32.128571428571426,2724.8,536.2223214285714,32.128571428571426,2862.5,536.2223214285714,32.128571428571426,2966,536.2223214285714,32.128571428571426,3074,536.2223214285714,32.128571428571426,3216.2,536.2223214285714,32.128571428571426,3318,536.2223214285714,32.128571428571426,3424.5,536.2223214285714,32.128571428571426,3529.3,536.2223214285714,32.128571428571426,3655.7,536.2223214285714,32.128571428571426,3759.8,536.2223214285714,32.128571428571426,3860.4,536.2223214285714,32.128571428571426,3965.4,536.2223214285714,32.128571428571426,4071.9,536.2223214285714,32.128571428571426,4207.3,536.2223214285714,32.128571428571426,4307.7,536.2223214285714,32.128571428571426,4418.2,536.2223214285714,32.128571428571426,4525.3,540.2223214285714,35.128571428571426,4630.8,588.2223214285714,62.128571428571426,4731,622.2223214285714,87.12857142857143,4904]","[5420.2,5420.2,2518,2018.6,883.6,""oops"",""right"",""right"",""good_move"",9045.5,3623.9,2827.7,5421.7,796.1,""oops"",""right"",""up"",""good_move"",14059.9,5012.3,2701.7,9047.6,2310.6,""oops"",""right"",""left"",""bad_move"",19760.2,5696.9,2129.3,14063.3,3567.6,""oops"",""up"",""left"",""bad_move"",23005.2,3244.2,2602.2,19761.1,641.9,""smooth"",""right"",""right"",""good_move"",29759.3,6752.3,2401.8,26803.3,554.2,""oops"",""right"",""right"",""good_move"",32709.4,2949.3,2183.7,29760.1,765.6,""oops"",""right"",""up"",""good_move"",39127.1,6416.3,3026.2,32710.8,3390.1,""oops"",""right"",""left"",""bad_move"",49513.4,10385.5,2774.1,46106.7,632.6,""oops"",""right"",""left"",""bad_move"",56657.3,7140.6,2571.4,53461.5,624.4,""smooth"",""right"",""right"",""good_move"",59526.6,2867.3,2259.6,56659.3,607.7,""oops"",""right"",""left"",""bad_move"",65110.9,5583.2,2169.7,59527.7,3413.5,""smooth"",""right"",""right"",""good_move"",68526.5,3414.6,2468.6,65111.9,946,""oops"",""right"",""right"",""good_move"",74412.4,5884.3,1948.6,71963,500.8,""smooth"",""right"",""right"",""good_move""]","",""
"6641","","<div style=""width:500px;"">
  <p>What determined the result of this run?</p>
  </div>","26","html-slider-response","80","2399171","0.0-10.0-1.8","201","1","2025-07-09 09:17:46","7701e855f2ef39aa3fd6c71abdc6918a","41.150.35.125","Mozilla/5.0 (Windows NT 10.0; Win64; x64) AppleWebKit/537.36 (KHTML, like Gecko) Chrome/138.0.0.0 Safari/537.36","WebKit","Chrome","138.0.0.0","Windows","10.0","https://app.prolific.com/","en-US,en;q=0.8","67c7672373207a4fb29efe7f","686d226cabeef709c732f8e1","686e32267de84b1dc20f5c5c","67c7672373207a4fb29efe7f","2025-07-09T09:57:49.565Z","","","","","","AttribQ","","","","","","","","","","","","","","","","","","","","","","","","","","","","","","","","","","","","","","50"
"3493","","<div style=""width:500px;"">
  <p>How much control did you have over the ball?</p>
  </div>","32","html-slider-response","81","2402668","0.0-10.0-2.8","201","1","2025-07-09 09:17:46","7701e855f2ef39aa3fd6c71abdc6918a","41.150.35.125","Mozilla/5.0 (Windows NT 10.0; Win64; x64) AppleWebKit/537.36 (KHTML, like Gecko) Chrome/138.0.0.0 Safari/537.36","WebKit","Chrome","138.0.0.0","Windows","10.0","https://app.prolific.com/","en-US,en;q=0.8","67c7672373207a4fb29efe7f","686d226cabeef709c732f8e1","686e32267de84b1dc20f5c5c","67c7672373207a4fb29efe7f","2025-07-09T09:57:53.062Z","","","","","","ControlQ","","","","","","","","","","","","","","","","","","","","","","","","","","","","","","","","","","","","","","50"
"3662","","<div style=""width:500px;"">
  <p>How would you describe your current emotional state?</p>
  </div>","48","html-slider-response","82","2406336","0.0-10.0-3.8","201","1","2025-07-09 09:17:46","7701e855f2ef39aa3fd6c71abdc6918a","41.150.35.125","Mozilla/5.0 (Windows NT 10.0; Win64; x64) AppleWebKit/537.36 (KHTML, like Gecko) Chrome/138.0.0.0 Safari/537.36","WebKit","Chrome","138.0.0.0","Windows","10.0","https://app.prolific.com/","en-US,en;q=0.8","67c7672373207a4fb29efe7f","686d226cabeef709c732f8e1","686e32267de84b1dc20f5c5c","67c7672373207a4fb29efe7f","2025-07-09T09:57:56.730Z","","","","","","StressQ","","","","","","","","","","","","","","","","","","","","","","","","","","","","","","","","","","","","","","50"
"4440","","<div style=""width:500px;"">
  <p>What best describes how you currently feel?</p>
  </div>","80","html-slider-response","83","2410782","0.0-10.0-4.8","201","1","2025-07-09 09:17:46","7701e855f2ef39aa3fd6c71abdc6918a","41.150.35.125","Mozilla/5.0 (Windows NT 10.0; Win64; x64) AppleWebKit/537.36 (KHTML, like Gecko) Chrome/138.0.0.0 Safari/537.36","WebKit","Chrome","138.0.0.0","Windows","10.0","https://app.prolific.com/","en-US,en;q=0.8","67c7672373207a4fb29efe7f","686d226cabeef709c732f8e1","686e32267de84b1dc20f5c5c","67c7672373207a4fb29efe7f","2025-07-09T09:58:01.176Z","","","","","","MotivationQ","","","","","","","","","","","","","","","","","","","","","","","","","","","","","","","","","","","","","","50"
"","","","","ctl-task-cpt","84","2465996","0.0-10.0-0.9","201","1","2025-07-09 09:17:46","7701e855f2ef39aa3fd6c71abdc6918a","41.150.35.125","Mozilla/5.0 (Windows NT 10.0; Win64; x64) AppleWebKit/537.36 (KHTML, like Gecko) Chrome/138.0.0.0 Safari/537.36","WebKit","Chrome","138.0.0.0","Windows","10.0","https://app.prolific.com/","en-US,en;q=0.8","67c7672373207a4fb29efe7f","686d226cabeef709c732f8e1","686e32267de84b1dc20f5c5c","67c7672373207a4fb29efe7f","2025-07-09T09:58:56.390Z","","","","","","","","","","","","","","","","win-only","3","g1:SW,g2:NE","0.4","10","0","2418290.6","2204","7242.7","52166.7","1","4","8","6","2","8","8","15","7","0.11363636363636363","2554.7","3000","1995","[""up"",""right""]","{""num_key_presses"":6,""num_perfect"":4,""num_errors"":0,""num_randdir"":2,""num_randdir_good_moves"":2,""num_whilered"":0,""num_whileblue"":0,""num_blue"":5,""num_good_moves"":6}","[299.22232142857143,292.12857142857143,0.8,299.22232142857143,292.12857142857143,137.6,299.22232142857143,292.12857142857143,270,299.22232142857143,292.12857142857143,411.1,299.22232142857143,292.12857142857143,543.6,299.22232142857143,292.12857142857143,669.1,299.22232142857143,292.12857142857143,789.6,299.22232142857143,292.12857142857143,910,299.22232142857143,292.12857142857143,1035.9,299.22232142857143,292.12857142857143,1161.7,280.22232142857143,305.12857142857143,1267.9,287.22232142857143,297.12857142857143,1408.8,444.22232142857143,145.12857142857143,1511.9,451.22232142857143,138.12857142857143,1654.6,451.22232142857143,138.12857142857143,1784.1,466.22232142857143,121.12857142857143,1890.5,486.22232142857143,103.12857142857143,1993,495.22232142857143,98.12857142857143,2103.9,522.2223214285714,77.12857142857143,2220.4,529.2223214285714,70.12857142857143,2366.3,529.2223214285714,70.12857142857143,2504.4,529.2223214285714,70.12857142857143,2607,529.2223214285714,70.12857142857143,2730.4,529.2223214285714,70.12857142857143,2874.5,529.2223214285714,70.12857142857143,3012.5,529.2223214285714,70.12857142857143,3155.6,529.2223214285714,70.12857142857143,3280.7,529.2223214285714,70.12857142857143,3410,529.2223214285714,70.12857142857143,3536,529.2223214285714,70.12857142857143,3663.2,529.2223214285714,70.12857142857143,3792.8,529.2223214285714,70.12857142857143,3916.4,529.2223214285714,70.12857142857143,4048.8,529.2223214285714,70.12857142857143,4185.2,529.2223214285714,70.12857142857143,4309.9,529.2223214285714,70.12857142857143,4438.9,529.2223214285714,70.12857142857143,4563.1,529.2223214285714,70.12857142857143,4692.3,529.2223214285714,70.12857142857143,4814.5,529.2223214285714,70.12857142857143,4942.1]","[9461.5,9461.5,2662.6,6108.7,690.2,""smooth"",""right"",""right"",""good_move"",13699.4,4235.7,2919.6,9463.7,1316.1,""smooth"",""right"",""right"",""good_move"",24514.5,10813.2,2813.1,21068.5,632.9,""smooth"",""up"",""up"",""good_move"",30566.9,6049.4,2319.6,24517.5,3729.8,""smooth"",""up"",""up"",""good_move"",36363.9,5796.4,3131.7,30567.6,2664.6,""oops"",""right"",""up"",""good_move"",44480.6,8113.6,3208.8,40687.8,584,""oops"",""right"",""right"",""good_move""]","",""
"11930","","<div style=""width:500px;"">
  <p>What determined the result of this run?</p>
  </div>","94","html-slider-response","85","2477932","0.0-10.0-1.9","201","1","2025-07-09 09:17:46","7701e855f2ef39aa3fd6c71abdc6918a","41.150.35.125","Mozilla/5.0 (Windows NT 10.0; Win64; x64) AppleWebKit/537.36 (KHTML, like Gecko) Chrome/138.0.0.0 Safari/537.36","WebKit","Chrome","138.0.0.0","Windows","10.0","https://app.prolific.com/","en-US,en;q=0.8","67c7672373207a4fb29efe7f","686d226cabeef709c732f8e1","686e32267de84b1dc20f5c5c","67c7672373207a4fb29efe7f","2025-07-09T09:59:08.326Z","","","","","","AttribQ","","","","","","","","","","","","","","","","","","","","","","","","","","","","","","","","","","","","","","50"
"4084","","<div style=""width:500px;"">
  <p>How much control did you have over the ball?</p>
  </div>","86","html-slider-response","86","2482022","0.0-10.0-2.9","201","1","2025-07-09 09:17:46","7701e855f2ef39aa3fd6c71abdc6918a","41.150.35.125","Mozilla/5.0 (Windows NT 10.0; Win64; x64) AppleWebKit/537.36 (KHTML, like Gecko) Chrome/138.0.0.0 Safari/537.36","WebKit","Chrome","138.0.0.0","Windows","10.0","https://app.prolific.com/","en-US,en;q=0.8","67c7672373207a4fb29efe7f","686d226cabeef709c732f8e1","686e32267de84b1dc20f5c5c","67c7672373207a4fb29efe7f","2025-07-09T09:59:12.416Z","","","","","","ControlQ","","","","","","","","","","","","","","","","","","","","","","","","","","","","","","","","","","","","","","50"
"5375","","<div style=""width:500px;"">
  <p>How would you describe your current emotional state?</p>
