"rt","response_timestamp","stimulus","response","trial_type","trial_index","time_elapsed","internal_node_id","run_id","condition","recorded_at","source_code_version","ip","user_agent","device","browser","browser_version","platform","platform_version","referer","accept_language","PROLIFIC_PID","STUDY_ID","SESSION_ID","prolific_id","realtime","view_history","question_order","consent","success","question_id","eventType","responses","item_order","radio_event_ids","radio_event_times","key_event_times","mouse_event_times","straightlining","zigzagging","honeypot","which_type","canvas_config","goals_layout","control_level","trial_number","tutorial_trial_number","trial_start_time","phase1_start_time","phase2_start_time","phase3_start_time","goal_1_value","goal_1_distance","goal_2_value","goal_2_distance","goal_selected","outcome","outcome_total","participant_final_score","participant_initial_score","participant_final_score_prop","goal_choice_rt","allocated_time","allocated_time_remaining","goal_direction","counts","mouse_movements","key_presses","correct","slider_start","sub_question"
"11039","1752053538995","<p style='font-size:40px;line-height:1.25'><strong>Welcome to the experiment!</strong></p><p style='font-size:1.1em;line-height:1.25'>Thank you for your interest in our experiment! Before you begin, it is important that we obtain your informed consent to participate in the study.</p><p style='font-size:1.1em;line-height:1.25'>On the next screen will be an <strong>information sheet</strong> for you to read. To participate in the study we need you to read this information sheet and the following consent form carefully. If you agree with all the statements, please click the <strong>I agree</strong> button.</p><p style='font-size:1.1em;line-height:1.25'>Press <strong>Next</strong> to read the information sheet.</p>","0","custom-html-button-response","0","11049","0.0-0.0","222","1","2025-07-09 09:32:01","7701e855f2ef39aa3fd6c71abdc6918a","165.165.245.202","Mozilla/5.0 (Windows NT 10.0; Win64; x64) AppleWebKit/537.36 (KHTML, like Gecko) Chrome/134.0.0.0 Safari/537.36 OPR/119.0.0.0","WebKit","Opera","119.0.0.0","Windows","10.0","https://app.prolific.com/","en-US,en;q=0.9","67e575f103799e89aacd209c","686d226cabeef709c732f8e1","686e356b6ee5f0bd0df3d14c","67e575f103799e89aacd209c","2025-07-09T09:32:19.004Z","","","","","","","","","","","","","","","","","","","","","","","","","","","","","","","","","","","","","","","","","","","","",""
"17773","","","","instructions","1","28834","0.0-1.0","222","1","2025-07-09 09:32:01","7701e855f2ef39aa3fd6c71abdc6918a","165.165.245.202","Mozilla/5.0 (Windows NT 10.0; Win64; x64) AppleWebKit/537.36 (KHTML, like Gecko) Chrome/134.0.0.0 Safari/537.36 OPR/119.0.0.0","WebKit","Opera","119.0.0.0","Windows","10.0","https://app.prolific.com/","en-US,en;q=0.9","67e575f103799e89aacd209c","686d226cabeef709c732f8e1","686e356b6ee5f0bd0df3d14c","67e575f103799e89aacd209c","","[{""page_index"":0,""viewing_time"":14279},{""page_index"":1,""viewing_time"":3493}]","","","","","","","","","","","","","","","","","","","","","","","","","","","","","","","","","","","","","","","","","","","",""
"16095","","","{""Q0"":"""",""Q1"":"""",""Q2"":"""",""Q3"":"""",""Q4"":"""",""Q5"":"""",""Q6"":""I agree""}","survey-multi-choice","2","45020","0.0-2.0","222","1","2025-07-09 09:32:01","7701e855f2ef39aa3fd6c71abdc6918a","165.165.245.202","Mozilla/5.0 (Windows NT 10.0; Win64; x64) AppleWebKit/537.36 (KHTML, like Gecko) Chrome/134.0.0.0 Safari/537.36 OPR/119.0.0.0","WebKit","Opera","119.0.0.0","Windows","10.0","https://app.prolific.com/","en-US,en;q=0.9","67e575f103799e89aacd209c","686d226cabeef709c732f8e1","686e356b6ee5f0bd0df3d14c","67e575f103799e89aacd209c","","","[0,1,2,3,4,5,6]","true","","","","","","","","","","","","","","","","","","","","","","","","","","","","","","","","","","","","","","","","","",""
"10661","","","","fullscreen","3","56701","0.0-4.0","222","1","2025-07-09 09:32:01","7701e855f2ef39aa3fd6c71abdc6918a","165.165.245.202","Mozilla/5.0 (Windows NT 10.0; Win64; x64) AppleWebKit/537.36 (KHTML, like Gecko) Chrome/134.0.0.0 Safari/537.36 OPR/119.0.0.0","WebKit","Opera","119.0.0.0","Windows","10.0","https://app.prolific.com/","en-US,en;q=0.9","67e575f103799e89aacd209c","686d226cabeef709c732f8e1","686e356b6ee5f0bd0df3d14c","67e575f103799e89aacd209c","","","","","true","","","","","","","","","","","","","","","","","","","","","","","","","","","","","","","","","","","","","","","","",""
"8848","1752053593501"," <p style='font-size:1.1em;line-height:1.25'>Thank you for completing the consent form and closing all other tabs.</p><p style='font-size:1.1em;line-height:1.25'>We will now invite you to fill in some demographic information and questionnaires, before starting the game.<br>This will take about 5 minutes.<br></p><p style='font-size:1.1em;line-height:1.25'>Press the <strong>Next</strong> button to continue.</p>","0","custom-html-button-response","4","65552","0.0-5.0","222","1","2025-07-09 09:32:01","7701e855f2ef39aa3fd6c71abdc6918a","165.165.245.202","Mozilla/5.0 (Windows NT 10.0; Win64; x64) AppleWebKit/537.36 (KHTML, like Gecko) Chrome/134.0.0.0 Safari/537.36 OPR/119.0.0.0","WebKit","Opera","119.0.0.0","Windows","10.0","https://app.prolific.com/","en-US,en;q=0.9","67e575f103799e89aacd209c","686d226cabeef709c732f8e1","686e356b6ee5f0bd0df3d14c","67e575f103799e89aacd209c","2025-07-09T09:33:13.502Z","","","","","","","","","","","","","","","","","","","","","","","","","","","","","","","","","","","","","","","","","","","","",""
"4990","","","{""age"":""25""}","survey-text","5","70567","0.0-6.0-0.0","222","1","2025-07-09 09:32:01","7701e855f2ef39aa3fd6c71abdc6918a","165.165.245.202","Mozilla/5.0 (Windows NT 10.0; Win64; x64) AppleWebKit/537.36 (KHTML, like Gecko) Chrome/134.0.0.0 Safari/537.36 OPR/119.0.0.0","WebKit","Opera","119.0.0.0","Windows","10.0","https://app.prolific.com/","en-US,en;q=0.9","67e575f103799e89aacd209c","686d226cabeef709c732f8e1","686e356b6ee5f0bd0df3d14c","67e575f103799e89aacd209c","","","","","","0","demographics","","","","","","","","","","","","","","","","","","","","","","","","","","","","","","","","","","","","","","",""
"5061","","","{""gender_identity"":""female/woman""}","survey-multi-choice","6","75632","0.0-6.0-1.0","222","1","2025-07-09 09:32:01","7701e855f2ef39aa3fd6c71abdc6918a","165.165.245.202","Mozilla/5.0 (Windows NT 10.0; Win64; x64) AppleWebKit/537.36 (KHTML, like Gecko) Chrome/134.0.0.0 Safari/537.36 OPR/119.0.0.0","WebKit","Opera","119.0.0.0","Windows","10.0","https://app.prolific.com/","en-US,en;q=0.9","67e575f103799e89aacd209c","686d226cabeef709c732f8e1","686e356b6ee5f0bd0df3d14c","67e575f103799e89aacd209c","","","[0]","","","1","demographics","","","","","","","","","","","","","","","","","","","","","","","","","","","","","","","","","","","","","","",""
"4119","","","{""assigned_sex"":""female""}","survey-multi-choice","7","79754","0.0-6.0-2.0","222","1","2025-07-09 09:32:01","7701e855f2ef39aa3fd6c71abdc6918a","165.165.245.202","Mozilla/5.0 (Windows NT 10.0; Win64; x64) AppleWebKit/537.36 (KHTML, like Gecko) Chrome/134.0.0.0 Safari/537.36 OPR/119.0.0.0","WebKit","Opera","119.0.0.0","Windows","10.0","https://app.prolific.com/","en-US,en;q=0.9","67e575f103799e89aacd209c","686d226cabeef709c732f8e1","686e356b6ee5f0bd0df3d14c","67e575f103799e89aacd209c","","","[0]","","","2","demographics","","","","","","","","","","","","","","","","","","","","","","","","","","","","","","","","","","","","","","",""
"3852","","","{""menstrual_cycle"":""Yes""}","survey-multi-choice","8","83608","0.0-6.0-3.0","222","1","2025-07-09 09:32:01","7701e855f2ef39aa3fd6c71abdc6918a","165.165.245.202","Mozilla/5.0 (Windows NT 10.0; Win64; x64) AppleWebKit/537.36 (KHTML, like Gecko) Chrome/134.0.0.0 Safari/537.36 OPR/119.0.0.0","WebKit","Opera","119.0.0.0","Windows","10.0","https://app.prolific.com/","en-US,en;q=0.9","67e575f103799e89aacd209c","686d226cabeef709c732f8e1","686e356b6ee5f0bd0df3d14c","67e575f103799e89aacd209c","","","[0]","","","4","demographics","","","","","","","","","","","","","","","","","","","","","","","","","","","","","","","","","","","","","","",""
"6149","","","{""education"":""Bachelor's Degree (e.g., BA)""}","survey-multi-choice","9","89761","0.0-6.0-4.0","222","1","2025-07-09 09:32:01","7701e855f2ef39aa3fd6c71abdc6918a","165.165.245.202","Mozilla/5.0 (Windows NT 10.0; Win64; x64) AppleWebKit/537.36 (KHTML, like Gecko) Chrome/134.0.0.0 Safari/537.36 OPR/119.0.0.0","WebKit","Opera","119.0.0.0","Windows","10.0","https://app.prolific.com/","en-US,en;q=0.9","67e575f103799e89aacd209c","686d226cabeef709c732f8e1","686e356b6ee5f0bd0df3d14c","67e575f103799e89aacd209c","","","[0]","","","5","demographics","","","","","","","","","","","","","","","","","","","","","","","","","","","","","","","","","","","","","","",""
"4595","","","{""education"":""Bachelor's Degree (e.g., BA)""}","survey-multi-choice","10","94358","0.0-6.0-5.0","222","1","2025-07-09 09:32:01","7701e855f2ef39aa3fd6c71abdc6918a","165.165.245.202","Mozilla/5.0 (Windows NT 10.0; Win64; x64) AppleWebKit/537.36 (KHTML, like Gecko) Chrome/134.0.0.0 Safari/537.36 OPR/119.0.0.0","WebKit","Opera","119.0.0.0","Windows","10.0","https://app.prolific.com/","en-US,en;q=0.9","67e575f103799e89aacd209c","686d226cabeef709c732f8e1","686e356b6ee5f0bd0df3d14c","67e575f103799e89aacd209c","2025-07-09T09:33:42.308Z","","[0]","","","6","demographics","","","","","","","","","","","","","","","","","","","","","","","","","","","","","","","","","","","","","","",""
"31135","","","{""mental_health_condition"":""anxiety"",""mental_health_treatment"":""yes"",""psychiatric_medication"":""no""}","survey-text","11","125506","0.0-7.0-0.0","222","1","2025-07-09 09:32:01","7701e855f2ef39aa3fd6c71abdc6918a","165.165.245.202","Mozilla/5.0 (Windows NT 10.0; Win64; x64) AppleWebKit/537.36 (KHTML, like Gecko) Chrome/134.0.0.0 Safari/537.36 OPR/119.0.0.0","WebKit","Opera","119.0.0.0","Windows","10.0","https://app.prolific.com/","en-US,en;q=0.9","67e575f103799e89aacd209c","686d226cabeef709c732f8e1","686e356b6ee5f0bd0df3d14c","67e575f103799e89aacd209c","2025-07-09T09:34:13.456Z","","","","","1","mental_health","","","","","","","","","","","","","","","","","","","","","","","","","","","","","","","","","","","","","","",""
"9834","","","{""depression_history"":[""Yes""]}","survey-multi-select","12","135356","0.0-7.0-1.0","222","1","2025-07-09 09:32:01","7701e855f2ef39aa3fd6c71abdc6918a","165.165.245.202","Mozilla/5.0 (Windows NT 10.0; Win64; x64) AppleWebKit/537.36 (KHTML, like Gecko) Chrome/134.0.0.0 Safari/537.36 OPR/119.0.0.0","WebKit","Opera","119.0.0.0","Windows","10.0","https://app.prolific.com/","en-US,en;q=0.9","67e575f103799e89aacd209c","686d226cabeef709c732f8e1","686e356b6ee5f0bd0df3d14c","67e575f103799e89aacd209c","","","[0]","","","","mental_health","","","","","","","","","","","","","","","","","","","","","","","","","","","","","","","","","","","","","","",""
"9725","","","{""depression_episodes"":""3-5"",""depression_recent"":""Within the past year""}","survey-multi-choice","13","145086","0.0-7.0-2.0-0.0","222","1","2025-07-09 09:32:01","7701e855f2ef39aa3fd6c71abdc6918a","165.165.245.202","Mozilla/5.0 (Windows NT 10.0; Win64; x64) AppleWebKit/537.36 (KHTML, like Gecko) Chrome/134.0.0.0 Safari/537.36 OPR/119.0.0.0","WebKit","Opera","119.0.0.0","Windows","10.0","https://app.prolific.com/","en-US,en;q=0.9","67e575f103799e89aacd209c","686d226cabeef709c732f8e1","686e356b6ee5f0bd0df3d14c","67e575f103799e89aacd209c","2025-07-09T09:34:33.036Z","","[0,1]","","","3","mental_health","","","","","","","","","","","","","","","","","","","","","","","","","","","","","","","","","","","","","","",""
"97735.20000000019","","","","survey-template","14","242837","0.0-7.0-3.0","222","1","2025-07-09 09:32:01","7701e855f2ef39aa3fd6c71abdc6918a","165.165.245.202","Mozilla/5.0 (Windows NT 10.0; Win64; x64) AppleWebKit/537.36 (KHTML, like Gecko) Chrome/134.0.0.0 Safari/537.36 OPR/119.0.0.0","WebKit","Opera","119.0.0.0","Windows","10.0","https://app.prolific.com/","en-US,en;q=0.9","67e575f103799e89aacd209c","686d226cabeef709c732f8e1","686e356b6ee5f0bd0df3d14c","67e575f103799e89aacd209c","2025-07-09T09:36:10.787Z","","","","","","ius","{""Q01"":""0"",""Q02"":""2"",""Q03"":""4"",""Q04"":""3"",""Q05"":""4"",""Q06"":""2"",""Q07"":""3"",""Q08"":""0"",""Q09"":""4"",""Q10"":""4"",""Q11"":""0"",""Q12"":""3"",""Q13"":""1""}","[0,1,2,3,4,5,6,7,8,9,10,11,12]","[""Q01"",""Q02"",""Q03"",""Q04"",""Q05"",""Q06"",""Q07"",""Q08"",""Q09"",""Q10"",""Q11"",""Q12"",""Q13""]","[8383.30000000028,11694.30000000028,18128.30000000028,22712.100000000093,28997.700000000186,33026.40000000037,62654.700000000186,67451.1000000001,74456.5,78837.80000000028,81913.20000000019,88636.30000000028,92296.70000000019]","[]","[8383.30000000028,11694.30000000028,18128.30000000028,22712.100000000093,28997.700000000186,33026.40000000037,58153.700000000186,62654.700000000186,65981.40000000037,67451.1000000001,74456.5,78837.80000000028,81913.20000000019,88636.30000000028,92296.70000000019,97730.6000000001]","0.3076923076923077","0.4166666666666667","0","","","","","","","","","","","","","","","","","","","","","","","","","","","","","",""
"10615","1752053781404","<p style='font-size:1.1em;line-height:1.25'>In the following, we will ask you a few questions relating to your experiences over the past month.<br></p><p style='font-size:1.1em;line-height:1.25'>Press the <strong>Next</strong> button to continue.</p>","0","custom-html-button-response","15","253456","0.0-7.0-4.0","222","1","2025-07-09 09:32:01","7701e855f2ef39aa3fd6c71abdc6918a","165.165.245.202","Mozilla/5.0 (Windows NT 10.0; Win64; x64) AppleWebKit/537.36 (KHTML, like Gecko) Chrome/134.0.0.0 Safari/537.36 OPR/119.0.0.0","WebKit","Opera","119.0.0.0","Windows","10.0","https://app.prolific.com/","en-US,en;q=0.9","67e575f103799e89aacd209c","686d226cabeef709c732f8e1","686e356b6ee5f0bd0df3d14c","67e575f103799e89aacd209c","2025-07-09T09:36:21.406Z","","","","","","","","","","","","","","","","","","","","","","","","","","","","","","","","","","","","","","","","","","","","",""
"65173.5","","","","survey-template","16","318635","0.0-7.0-5.0","222","1","2025-07-09 09:32:01","7701e855f2ef39aa3fd6c71abdc6918a","165.165.245.202","Mozilla/5.0 (Windows NT 10.0; Win64; x64) AppleWebKit/537.36 (KHTML, like Gecko) Chrome/134.0.0.0 Safari/537.36 OPR/119.0.0.0","WebKit","Opera","119.0.0.0","Windows","10.0","https://app.prolific.com/","en-US,en;q=0.9","67e575f103799e89aacd209c","686d226cabeef709c732f8e1","686e356b6ee5f0bd0df3d14c","67e575f103799e89aacd209c","2025-07-09T09:37:26.586Z","","","","","","pss","{""Q01"":""4"",""Q02"":""3"",""Q03"":""4"",""Q04"":""0"",""Q05"":""3"",""Q06"":""2"",""Q07"":""1"",""Q08"":""3"",""Q09"":""4"",""Q10"":""4""}","[0,1,2,3,4,5,6,7,8,9]","[""Q01"",""Q02"",""Q02"",""Q03"",""Q04"",""Q05"",""Q06"",""Q07"",""Q08"",""Q09"",""Q10""]","[5617.899999999907,10882.700000000186,12504.100000000093,16250.399999999907,22067.600000000093,27015.799999999814,33804.60000000009,42112.700000000186,52530,57961.89999999991,63723.89999999991]","[]","[0,5617.899999999907,10882.700000000186,12504.100000000093,16250.399999999907,22067.600000000093,27015.799999999814,32716.100000000093,33804.60000000009,40609,42112.700000000186,52530,57961.89999999991,63723.89999999991,65170.10000000009]","0.5","0.4444444444444444","0","","","","","","","","","","","","","","","","","","","","","","","","","","","","","",""
"2748","1752053849336","<p style='font-size:1.1em;line-height:1.25'>Thank you for your answers! Now we will ask you a few more questions relating to your feelings in the last 24 hours.<br></p><p style='font-size:1.1em;line-height:1.25'>Press the <strong>Next</strong> button to continue.</p>","0","custom-html-button-response","17","321387","0.0-7.0-6.0","222","1","2025-07-09 09:32:01","7701e855f2ef39aa3fd6c71abdc6918a","165.165.245.202","Mozilla/5.0 (Windows NT 10.0; Win64; x64) AppleWebKit/537.36 (KHTML, like Gecko) Chrome/134.0.0.0 Safari/537.36 OPR/119.0.0.0","WebKit","Opera","119.0.0.0","Windows","10.0","https://app.prolific.com/","en-US,en;q=0.9","67e575f103799e89aacd209c","686d226cabeef709c732f8e1","686e356b6ee5f0bd0df3d14c","67e575f103799e89aacd209c","2025-07-09T09:37:29.338Z","","","","","","","","","","","","","","","","","","","","","","","","","","","","","","","","","","","","","","","","","","","","",""
"96617.80000000028","","","","survey-template","18","418013","0.0-7.0-7.0","222","1","2025-07-09 09:32:01","7701e855f2ef39aa3fd6c71abdc6918a","165.165.245.202","Mozilla/5.0 (Windows NT 10.0; Win64; x64) AppleWebKit/537.36 (KHTML, like Gecko) Chrome/134.0.0.0 Safari/537.36 OPR/119.0.0.0","WebKit","Opera","119.0.0.0","Windows","10.0","https://app.prolific.com/","en-US,en;q=0.9","67e575f103799e89aacd209c","686d226cabeef709c732f8e1","686e356b6ee5f0bd0df3d14c","67e575f103799e89aacd209c","2025-07-09T09:39:05.963Z","","","","","","drsp","{""Q01"":""5"",""Q02"":""5"",""Q03"":""3"",""Q04"":""5"",""Q05"":""2"",""Q06"":""4"",""Q07"":""5"",""Q08"":""2"",""Q09"":""5"",""Q10"":""0"",""Q11"":""2"",""Q12"":""3"",""Q13"":""3"",""Q14"":""0"",""Q15"":""0"",""Q16"":""2"",""Q17"":""2"",""Q18"":""0"",""Q19"":""3"",""Q20"":""0"",""Q21"":""0""}","[0,1,2,3,4,5,6,7,8,9,10,11,12,13,14,15,16,17,18,19,20]","[""Q01"",""Q02"",""Q03"",""Q04"",""Q05"",""Q06"",""Q07"",""Q08"",""Q09"",""Q10"",""Q11"",""Q12"",""Q13"",""Q14"",""Q15"",""Q16"",""Q17"",""Q18"",""Q19"",""Q20"",""Q21""]","[5363.300000000279,7136.200000000186,10229.399999999907,12167.399999999907,15260.80000000028,19640.100000000093,23134.399999999907,26480.5,50504.39999999991,54333.30000000028,57043,60635.39999999991,62442.39999999991,65954.20000000019,68662.70000000019,76115.8999999999,79095.3999999999,83491.70000000019,86834.6000000001,90512.70000000019,94977.80000000028]","[]","[0.10000000009313226,5363.300000000279,7136.200000000186,10229.399999999907,12167.399999999907,15260.80000000028,19640.100000000093,23134.399999999907,26480.5,50504.39999999991,54333.30000000028,57043,60635.39999999991,62442.39999999991,65954.20000000019,68662.70000000019,76115.8999999999,79095.3999999999,80933,83491.70000000019,86834.6000000001,90512.70000000019,94977.80000000028,96611.1000000001]","0.2857142857142857","0.15","0","","","","","","","","","","","","","","","","","","","","","","","","","","","","","",""
"14006","","","","survey-template","19","432024","0.0-7.0-8.0","222","1","2025-07-09 09:32:01","7701e855f2ef39aa3fd6c71abdc6918a","165.165.245.202","Mozilla/5.0 (Windows NT 10.0; Win64; x64) AppleWebKit/537.36 (KHTML, like Gecko) Chrome/134.0.0.0 Safari/537.36 OPR/119.0.0.0","WebKit","Opera","119.0.0.0","Windows","10.0","https://app.prolific.com/","en-US,en;q=0.9","67e575f103799e89aacd209c","686d226cabeef709c732f8e1","686e356b6ee5f0bd0df3d14c","67e575f103799e89aacd209c","2025-07-09T09:39:19.974Z","","","","","","stress","{""Q01"":""5"",""Q02"":""5"",""Q03"":""0""}","[0,1,2]","[""Q01"",""Q02"",""Q03""]","[5208.399999999907,8734.200000000186,11900]","[]","[5208.399999999907,8734.200000000186,11900,14004]","0.6666666666666666","0.5","0","","","","","","","","","","","","","","","","","","","","","","","","","","","","","",""
"37997","","","","instructions","20","470024","0.0-8.0-0.0","222","1","2025-07-09 09:32:01","7701e855f2ef39aa3fd6c71abdc6918a","165.165.245.202","Mozilla/5.0 (Windows NT 10.0; Win64; x64) AppleWebKit/537.36 (KHTML, like Gecko) Chrome/134.0.0.0 Safari/537.36 OPR/119.0.0.0","WebKit","Opera","119.0.0.0","Windows","10.0","https://app.prolific.com/","en-US,en;q=0.9","67e575f103799e89aacd209c","686d226cabeef709c732f8e1","686e356b6ee5f0bd0df3d14c","67e575f103799e89aacd209c","","[{""page_index"":0,""viewing_time"":20622},{""page_index"":1,""viewing_time"":6774},{""page_index"":2,""viewing_time"":5147},{""page_index"":3,""viewing_time"":5453}]","","","","","","","","","","","","","","","","","","","","","","","","","","","","","","","","","","","","","","","","","","","",""
"","","","","ctl-task-cpt","21","493812","0.0-8.0-1.0","222","1","2025-07-09 09:32:01","7701e855f2ef39aa3fd6c71abdc6918a","165.165.245.202","Mozilla/5.0 (Windows NT 10.0; Win64; x64) AppleWebKit/537.36 (KHTML, like Gecko) Chrome/134.0.0.0 Safari/537.36 OPR/119.0.0.0","WebKit","Opera","119.0.0.0","Windows","10.0","https://app.prolific.com/","en-US,en;q=0.9","67e575f103799e89aacd209c","686d226cabeef709c732f8e1","686e356b6ee5f0bd0df3d14c","67e575f103799e89aacd209c","","","","","","","","","","","","","","","","","win-only","3","g1:SW,g2:NE","1","0","1","478257.9","2661","6664","20771.8","2","4","4","6","1","-2","-3","0","0","0","4003","4000","-2410","[""down"",""left""]","{""num_key_presses"":2,""num_perfect"":1,""num_errors"":1,""num_randdir"":0,""num_randdir_good_moves"":0,""num_whilered"":0,""num_whileblue"":0,""num_blue"":1,""num_good_moves"":0}","[294.22232142857143,300.12857142857143,2.3,294.22232142857143,300.12857142857143,101.2,294.22232142857143,300.12857142857143,202.1,294.22232142857143,300.12857142857143,305.7,294.22232142857143,300.12857142857143,406.8,294.22232142857143,300.12857142857143,520.6,294.22232142857143,300.12857142857143,625.6,294.22232142857143,300.12857142857143,725.9,294.22232142857143,300.12857142857143,837.4,294.22232142857143,300.12857142857143,939.4,294.22232142857143,300.12857142857143,1040.6,265.22232142857143,325.12857142857143,1141.2,260.22232142857143,329.12857142857143,1245.2,260.22232142857143,329.12857142857143,1357.8,260.22232142857143,329.12857142857143,1462.4,260.22232142857143,329.12857142857143,1569.1,260.22232142857143,329.12857142857143,1670.5,260.22232142857143,329.12857142857143,1771.2,260.22232142857143,329.12857142857143,1871.4,260.22232142857143,329.12857142857143,1976.4,260.22232142857143,329.12857142857143,2090.4,260.22232142857143,329.12857142857143,2192,260.22232142857143,329.12857142857143,2295.4,260.22232142857143,329.12857142857143,2397.3,260.22232142857143,329.12857142857143,2496.9,260.22232142857143,329.12857142857143,2610.2,260.22232142857143,329.12857142857143,2710.6,260.22232142857143,329.12857142857143,2826.1,260.22232142857143,329.12857142857143,2926.4,260.22232142857143,329.12857142857143,3027.7,260.22232142857143,329.12857142857143,3131.3,260.22232142857143,329.12857142857143,3243.9,260.22232142857143,329.12857142857143,3344.4,260.22232142857143,329.12857142857143,3445.4,260.22232142857143,329.12857142857143,3551.3,260.22232142857143,329.12857142857143,3656.9,260.22232142857143,329.12857142857143,3763.7,260.22232142857143,329.12857142857143,3864.1,260.22232142857143,329.12857142857143,3966.5]","[724.6,724.5,1000,0.1,-275.5,""error"",""-"",""-"",""no_move"",7349,6623.2,2000.3,4740.7,608,""smooth"",""right"",""right"",""bad_move""]","","",""
"10014","","","","instructions","22","503827","0.0-8.0-2.0","222","1","2025-07-09 09:32:01","7701e855f2ef39aa3fd6c71abdc6918a","165.165.245.202","Mozilla/5.0 (Windows NT 10.0; Win64; x64) AppleWebKit/537.36 (KHTML, like Gecko) Chrome/134.0.0.0 Safari/537.36 OPR/119.0.0.0","WebKit","Opera","119.0.0.0","Windows","10.0","https://app.prolific.com/","en-US,en;q=0.9","67e575f103799e89aacd209c","686d226cabeef709c732f8e1","686e356b6ee5f0bd0df3d14c","67e575f103799e89aacd209c","","[{""page_index"":0,""viewing_time"":10014}]","","","","","","","","","","","","","","","","","","","","","","","","","","","","","","","","","","","","","","","","","","","",""
"","","","","ctl-task-cpt","23","540637","0.0-8.0-3.0","222","1","2025-07-09 09:32:01","7701e855f2ef39aa3fd6c71abdc6918a","165.165.245.202","Mozilla/5.0 (Windows NT 10.0; Win64; x64) AppleWebKit/537.36 (KHTML, like Gecko) Chrome/134.0.0.0 Safari/537.36 OPR/119.0.0.0","WebKit","Opera","119.0.0.0","Windows","10.0","https://app.prolific.com/","en-US,en;q=0.9","67e575f103799e89aacd209c","686d226cabeef709c732f8e1","686e356b6ee5f0bd0df3d14c","67e575f103799e89aacd209c","","","","","","","","","","","","","","","","","win-only","3","g1:SW,g2:NE","0.35","0","3","512055.1","2704.8","6710.1","33788.2","2","4","8","6","2","-8","-11","0","0","0","4005.1","4000","-1880","[""up"",""right""]","{""num_key_presses"":8,""num_perfect"":3,""num_errors"":3,""num_randdir"":1,""num_randdir_good_moves"":1,""num_whilered"":1,""num_whileblue"":0,""num_blue"":1,""num_good_moves"":2}","[290.22232142857143,299.12857142857143,1.1,290.22232142857143,299.12857142857143,102,290.22232142857143,299.12857142857143,202.4,290.22232142857143,299.12857142857143,302.8,290.22232142857143,299.12857142857143,405.7,290.22232142857143,299.12857142857143,507,290.22232142857143,299.12857142857143,624.1,290.22232142857143,299.12857142857143,726.9,290.22232142857143,299.12857142857143,843.2,290.22232142857143,299.12857142857143,944.2,290.22232142857143,299.12857142857143,1060.4,290.22232142857143,299.12857142857143,1170.2,290.22232142857143,299.12857142857143,1270.7,290.22232142857143,299.12857142857143,1384.7,290.22232142857143,299.12857142857143,1486.4,290.22232142857143,299.12857142857143,1586.5,290.22232142857143,299.12857142857143,1686.8,290.22232142857143,299.12857142857143,1791.7,290.22232142857143,299.12857142857143,1893.8,290.22232142857143,299.12857142857143,1997.2,290.22232142857143,299.12857142857143,2101.5,290.22232142857143,299.12857142857143,2215.1,290.22232142857143,299.12857142857143,2316.4,290.22232142857143,299.12857142857143,2417.4,290.22232142857143,299.12857142857143,2520.8,290.22232142857143,299.12857142857143,2624.9,290.22232142857143,299.12857142857143,2727.6,290.22232142857143,299.12857142857143,2848.3,290.22232142857143,299.12857142857143,2962.2,290.22232142857143,299.12857142857143,3077.4,290.22232142857143,299.12857142857143,3193.9,290.22232142857143,299.12857142857143,3294.7,290.22232142857143,299.12857142857143,3396.4,290.22232142857143,299.12857142857143,3516.9,290.22232142857143,299.12857142857143,3622.7,290.22232142857143,299.12857142857143,3728.1,290.22232142857143,299.12857142857143,3828.6,290.22232142857143,299.12857142857143,3931.6]","[2457.4,2457.4,1000,0,1457.4,""smooth"",""down"",""down"",""bad_move"",3079.1,620,2692.4,2459.2,-2072.4,""error"",""-"",""-"",""no_move"",9661.9,6581.6,2973.3,4085.5,2603.1,""smooth"",""left"",""left"",""bad_move"",13609.8,3946,2614.6,9663.8,1331.5,""oops"",""up"",""up"",""good_move"",14206.6,594.5,2751.1,13612.2,-2156.7,""error"",""-"",""-"",""no_move"",15020.9,812.1,2751.1,13612.2,-1342.4,""while_red"",""-"",""-"",""no_move"",21838.9,7630.1,2128.8,18950.8,759.3,""smooth"",""up"",""up"",""good_move"",22394.3,554.2,1666.5,21840.2,-1112.4,""error"",""-"",""-"",""no_move""]","","",""
"21505","","","","instructions","24","562143","0.0-8.0-4.0","222","1","2025-07-09 09:32:01","7701e855f2ef39aa3fd6c71abdc6918a","165.165.245.202","Mozilla/5.0 (Windows NT 10.0; Win64; x64) AppleWebKit/537.36 (KHTML, like Gecko) Chrome/134.0.0.0 Safari/537.36 OPR/119.0.0.0","WebKit","Opera","119.0.0.0","Windows","10.0","https://app.prolific.com/","en-US,en;q=0.9","67e575f103799e89aacd209c","686d226cabeef709c732f8e1","686e356b6ee5f0bd0df3d14c","67e575f103799e89aacd209c","","[{""page_index"":0,""viewing_time"":9183},{""page_index"":1,""viewing_time"":12320}]","","","","","","","","","","","","","","","","","","","","","","","","","","","","","","","","","","","","","","","","","","","",""
"33269","","","{""green_ball"":[""Ball always moves in the direction I press""]}","survey-multi-select","25","595421","0.0-8.0-5.0-0.0","222","1","2025-07-09 09:32:01","7701e855f2ef39aa3fd6c71abdc6918a","165.165.245.202","Mozilla/5.0 (Windows NT 10.0; Win64; x64) AppleWebKit/537.36 (KHTML, like Gecko) Chrome/134.0.0.0 Safari/537.36 OPR/119.0.0.0","WebKit","Opera","119.0.0.0","Windows","10.0","https://app.prolific.com/","en-US,en;q=0.9","67e575f103799e89aacd209c","686d226cabeef709c732f8e1","686e356b6ee5f0bd0df3d14c","67e575f103799e89aacd209c","","","[0]","","","","quiz","","","","","","","","","","","","","","","","","","","","","","","","","","","","","","","","","","","","","false","",""
"4402","","<p align='center'><b>INCORRECT.</b> Usually the green ball moves in the indicated direction, but sometimes it shakes and moves randomly. </p>","0","html-button-response","26","599829","0.0-8.0-5.0-1.0","222","1","2025-07-09 09:32:01","7701e855f2ef39aa3fd6c71abdc6918a","165.165.245.202","Mozilla/5.0 (Windows NT 10.0; Win64; x64) AppleWebKit/537.36 (KHTML, like Gecko) Chrome/134.0.0.0 Safari/537.36 OPR/119.0.0.0","WebKit","Opera","119.0.0.0","Windows","10.0","https://app.prolific.com/","en-US,en;q=0.9","67e575f103799e89aacd209c","686d226cabeef709c732f8e1","686e356b6ee5f0bd0df3d14c","67e575f103799e89aacd209c","","","","","","","","","","","","","","","","","","","","","","","","","","","","","","","","","","","","","","","","","","","","","",""
"5045","","","{""green_ball"":[""Ball sometimes shakes and moves in a random direction""]}","survey-multi-select","27","604878","0.0-8.0-5.1-0.1","222","1","2025-07-09 09:32:01","7701e855f2ef39aa3fd6c71abdc6918a","165.165.245.202","Mozilla/5.0 (Windows NT 10.0; Win64; x64) AppleWebKit/537.36 (KHTML, like Gecko) Chrome/134.0.0.0 Safari/537.36 OPR/119.0.0.0","WebKit","Opera","119.0.0.0","Windows","10.0","https://app.prolific.com/","en-US,en;q=0.9","67e575f103799e89aacd209c","686d226cabeef709c732f8e1","686e356b6ee5f0bd0df3d14c","67e575f103799e89aacd209c","","","[0]","","","","quiz","","","","","","","","","","","","","","","","","","","","","","","","","","","","","","","","","","","","","true","",""
"1666","","<p align='center'><b>CORRECT!</b> Indeed, the green ball may sometimes shake and move in a random direction.</p>","0","html-button-response","28","606549","0.0-8.0-5.1-1.1","222","1","2025-07-09 09:32:01","7701e855f2ef39aa3fd6c71abdc6918a","165.165.245.202","Mozilla/5.0 (Windows NT 10.0; Win64; x64) AppleWebKit/537.36 (KHTML, like Gecko) Chrome/134.0.0.0 Safari/537.36 OPR/119.0.0.0","WebKit","Opera","119.0.0.0","Windows","10.0","https://app.prolific.com/","en-US,en;q=0.9","67e575f103799e89aacd209c","686d226cabeef709c732f8e1","686e356b6ee5f0bd0df3d14c","67e575f103799e89aacd209c","","","","","","","","","","","","","","","","","","","","","","","","","","","","","","","","","","","","","","","","","","","","","",""
"7347","","","{""yellow_ball"":[""Ball doesn‘t move and I get -1 penalty point""]}","survey-multi-select","29","613901","0.0-8.0-6.0-0.0","222","1","2025-07-09 09:32:01","7701e855f2ef39aa3fd6c71abdc6918a","165.165.245.202","Mozilla/5.0 (Windows NT 10.0; Win64; x64) AppleWebKit/537.36 (KHTML, like Gecko) Chrome/134.0.0.0 Safari/537.36 OPR/119.0.0.0","WebKit","Opera","119.0.0.0","Windows","10.0","https://app.prolific.com/","en-US,en;q=0.9","67e575f103799e89aacd209c","686d226cabeef709c732f8e1","686e356b6ee5f0bd0df3d14c","67e575f103799e89aacd209c","","","[0]","","","","quiz","","","","","","","","","","","","","","","","","","","","","","","","","","","","","","","","","","","","","true","",""
"1875","","<p align='center'><b>CORRECT!</b> Indeed, the yellow ball never moves and you receive a penalty.</p>","0","html-button-response","30","615779","0.0-8.0-6.0-1.0","222","1","2025-07-09 09:32:01","7701e855f2ef39aa3fd6c71abdc6918a","165.165.245.202","Mozilla/5.0 (Windows NT 10.0; Win64; x64) AppleWebKit/537.36 (KHTML, like Gecko) Chrome/134.0.0.0 Safari/537.36 OPR/119.0.0.0","WebKit","Opera","119.0.0.0","Windows","10.0","https://app.prolific.com/","en-US,en;q=0.9","67e575f103799e89aacd209c","686d226cabeef709c732f8e1","686e356b6ee5f0bd0df3d14c","67e575f103799e89aacd209c","","","","","","","","","","","","","","","","","","","","","","","","","","","","","","","","","","","","","","","","","","","","","",""
"5391","","","{""blue_ball"":[""Ball doesn‘t move and I get -1 penalty point""]}","survey-multi-select","31","621175","0.0-8.0-7.0-0.0","222","1","2025-07-09 09:32:01","7701e855f2ef39aa3fd6c71abdc6918a","165.165.245.202","Mozilla/5.0 (Windows NT 10.0; Win64; x64) AppleWebKit/537.36 (KHTML, like Gecko) Chrome/134.0.0.0 Safari/537.36 OPR/119.0.0.0","WebKit","Opera","119.0.0.0","Windows","10.0","https://app.prolific.com/","en-US,en;q=0.9","67e575f103799e89aacd209c","686d226cabeef709c732f8e1","686e356b6ee5f0bd0df3d14c","67e575f103799e89aacd209c","","","[0]","","","","quiz","","","","","","","","","","","","","","","","","","","","","","","","","","","","","","","","","","","","","false","",""
"2972","","<p align='center'><b>INCORRECT.</b> The blue ball always shakes and moves randomly.</p>","0","html-button-response","32","624151","0.0-8.0-7.0-1.0","222","1","2025-07-09 09:32:01","7701e855f2ef39aa3fd6c71abdc6918a","165.165.245.202","Mozilla/5.0 (Windows NT 10.0; Win64; x64) AppleWebKit/537.36 (KHTML, like Gecko) Chrome/134.0.0.0 Safari/537.36 OPR/119.0.0.0","WebKit","Opera","119.0.0.0","Windows","10.0","https://app.prolific.com/","en-US,en;q=0.9","67e575f103799e89aacd209c","686d226cabeef709c732f8e1","686e356b6ee5f0bd0df3d14c","67e575f103799e89aacd209c","","","","","","","","","","","","","","","","","","","","","","","","","","","","","","","","","","","","","","","","","","","","","",""
"6137","","","{""blue_ball"":[""Ball always shakes and moves in a random direction""]}","survey-multi-select","33","630293","0.0-8.0-7.1-0.1","222","1","2025-07-09 09:32:01","7701e855f2ef39aa3fd6c71abdc6918a","165.165.245.202","Mozilla/5.0 (Windows NT 10.0; Win64; x64) AppleWebKit/537.36 (KHTML, like Gecko) Chrome/134.0.0.0 Safari/537.36 OPR/119.0.0.0","WebKit","Opera","119.0.0.0","Windows","10.0","https://app.prolific.com/","en-US,en;q=0.9","67e575f103799e89aacd209c","686d226cabeef709c732f8e1","686e356b6ee5f0bd0df3d14c","67e575f103799e89aacd209c","","","[0]","","","","quiz","","","","","","","","","","","","","","","","","","","","","","","","","","","","","","","","","","","","","true","",""
"2506","","<p align='center'><b>CORRECT!</b> Indeed, the blue ball always shakes and moves in a random direction. Also there is a penalty of -1 point.</p>","0","html-button-response","34","632802","0.0-8.0-7.1-1.1","222","1","2025-07-09 09:32:01","7701e855f2ef39aa3fd6c71abdc6918a","165.165.245.202","Mozilla/5.0 (Windows NT 10.0; Win64; x64) AppleWebKit/537.36 (KHTML, like Gecko) Chrome/134.0.0.0 Safari/537.36 OPR/119.0.0.0","WebKit","Opera","119.0.0.0","Windows","10.0","https://app.prolific.com/","en-US,en;q=0.9","67e575f103799e89aacd209c","686d226cabeef709c732f8e1","686e356b6ee5f0bd0df3d14c","67e575f103799e89aacd209c","","","","","","","","","","","","","","","","","","","","","","","","","","","","","","","","","","","","","","","","","","","","","",""
"8650","","","{""bonus"":[""When I reach 80% of points""]}","survey-multi-select","35","641456","0.0-8.0-8.0-0.0","222","1","2025-07-09 09:32:01","7701e855f2ef39aa3fd6c71abdc6918a","165.165.245.202","Mozilla/5.0 (Windows NT 10.0; Win64; x64) AppleWebKit/537.36 (KHTML, like Gecko) Chrome/134.0.0.0 Safari/537.36 OPR/119.0.0.0","WebKit","Opera","119.0.0.0","Windows","10.0","https://app.prolific.com/","en-US,en;q=0.9","67e575f103799e89aacd209c","686d226cabeef709c732f8e1","686e356b6ee5f0bd0df3d14c","67e575f103799e89aacd209c","","","[0]","","","","quiz","","","","","","","","","","","","","","","","","","","","","","","","","","","","","","","","","","","","","false","",""
"2024","","<p align='center'><b>INCORRECT.</b> You receive 2 pounds extra when you reach 50% of points </p>","0","html-button-response","36","643484","0.0-8.0-8.0-1.0","222","1","2025-07-09 09:32:01","7701e855f2ef39aa3fd6c71abdc6918a","165.165.245.202","Mozilla/5.0 (Windows NT 10.0; Win64; x64) AppleWebKit/537.36 (KHTML, like Gecko) Chrome/134.0.0.0 Safari/537.36 OPR/119.0.0.0","WebKit","Opera","119.0.0.0","Windows","10.0","https://app.prolific.com/","en-US,en;q=0.9","67e575f103799e89aacd209c","686d226cabeef709c732f8e1","686e356b6ee5f0bd0df3d14c","67e575f103799e89aacd209c","","","","","","","","","","","","","","","","","","","","","","","","","","","","","","","","","","","","","","","","","","","","","",""
"3348","","","{""bonus"":[""When I reach 50% of points""]}","survey-multi-select","37","646837","0.0-8.0-8.1-0.1","222","1","2025-07-09 09:32:01","7701e855f2ef39aa3fd6c71abdc6918a","165.165.245.202","Mozilla/5.0 (Windows NT 10.0; Win64; x64) AppleWebKit/537.36 (KHTML, like Gecko) Chrome/134.0.0.0 Safari/537.36 OPR/119.0.0.0","WebKit","Opera","119.0.0.0","Windows","10.0","https://app.prolific.com/","en-US,en;q=0.9","67e575f103799e89aacd209c","686d226cabeef709c732f8e1","686e356b6ee5f0bd0df3d14c","67e575f103799e89aacd209c","","","[0]","","","","quiz","","","","","","","","","","","","","","","","","","","","","","","","","","","","","","","","","","","","","true","",""
"2157","","<p align='center'><b>CORRECT!</b> Indeed, you receive 2 pounds extra when you reach 50% of points.</p>","0","html-button-response","38","648997","0.0-8.0-8.1-1.1","222","1","2025-07-09 09:32:01","7701e855f2ef39aa3fd6c71abdc6918a","165.165.245.202","Mozilla/5.0 (Windows NT 10.0; Win64; x64) AppleWebKit/537.36 (KHTML, like Gecko) Chrome/134.0.0.0 Safari/537.36 OPR/119.0.0.0","WebKit","Opera","119.0.0.0","Windows","10.0","https://app.prolific.com/","en-US,en;q=0.9","67e575f103799e89aacd209c","686d226cabeef709c732f8e1","686e356b6ee5f0bd0df3d14c","67e575f103799e89aacd209c","","","","","","","","","","","","","","","","","","","","","","","","","","","","","","","","","","","","","","","","","","","","","",""
"2503","","","","instructions","39","651504","0.0-8.0-9.0","222","1","2025-07-09 09:32:01","7701e855f2ef39aa3fd6c71abdc6918a","165.165.245.202","Mozilla/5.0 (Windows NT 10.0; Win64; x64) AppleWebKit/537.36 (KHTML, like Gecko) Chrome/134.0.0.0 Safari/537.36 OPR/119.0.0.0","WebKit","Opera","119.0.0.0","Windows","10.0","https://app.prolific.com/","en-US,en;q=0.9","67e575f103799e89aacd209c","686d226cabeef709c732f8e1","686e356b6ee5f0bd0df3d14c","67e575f103799e89aacd209c","","[{""page_index"":0,""viewing_time"":2502}]","","","","","","","","","","","","","","","","","","","","","","","","","","","","","","","","","","","","","","","","","","","",""
"7807","","<p>Before you start with this game please answer the following three questions yourself. </p>
  <p>Through this game, we measure several aspects of your cognitive performance, such as reaction times, multi-tasking capabilities </p>
  <p>and the ability to assess the situation you are in.</p>
  <p></p>
  <p><b>How good do you usually are in such tasks?</b></p>","99","html-slider-response","40","659316","0.0-9.0-0.0","222","1","2025-07-09 09:32:01","7701e855f2ef39aa3fd6c71abdc6918a","165.165.245.202","Mozilla/5.0 (Windows NT 10.0; Win64; x64) AppleWebKit/537.36 (KHTML, like Gecko) Chrome/134.0.0.0 Safari/537.36 OPR/119.0.0.0","WebKit","Opera","119.0.0.0","Windows","10.0","https://app.prolific.com/","en-US,en;q=0.9","67e575f103799e89aacd209c","686d226cabeef709c732f8e1","686e356b6ee5f0bd0df3d14c","67e575f103799e89aacd209c","2025-07-09T09:43:07.267Z","","","","","","PreSkillQ","","","","","","","","","","","","","","","","","","","","","","","","","","","","","","","","","","","","","","50",""
"4160","","<div style=""width:500px;"">
  <p>How well do you think you will perform in this task compared to other participants?</p>
  </div>","96","html-slider-response","41","663480","0.0-9.0-1.0","222","1","2025-07-09 09:32:01","7701e855f2ef39aa3fd6c71abdc6918a","165.165.245.202","Mozilla/5.0 (Windows NT 10.0; Win64; x64) AppleWebKit/537.36 (KHTML, like Gecko) Chrome/134.0.0.0 Safari/537.36 OPR/119.0.0.0","WebKit","Opera","119.0.0.0","Windows","10.0","https://app.prolific.com/","en-US,en;q=0.9","67e575f103799e89aacd209c","686d226cabeef709c732f8e1","686e356b6ee5f0bd0df3d14c","67e575f103799e89aacd209c","2025-07-09T09:43:11.431Z","","","","","","PrePerfQ","","","","","","","","","","","","","","","","","","","","","","","","","","","","","","","","","","","","","","50",""
"4625","","<div style=""width:500px;"">
  <p>What best describes how you currently feel?</p>
  </div>","100","html-slider-response","42","668109","0.0-9.0-2.0","222","1","2025-07-09 09:32:01","7701e855f2ef39aa3fd6c71abdc6918a","165.165.245.202","Mozilla/5.0 (Windows NT 10.0; Win64; x64) AppleWebKit/537.36 (KHTML, like Gecko) Chrome/134.0.0.0 Safari/537.36 OPR/119.0.0.0","WebKit","Opera","119.0.0.0","Windows","10.0","https://app.prolific.com/","en-US,en;q=0.9","67e575f103799e89aacd209c","686d226cabeef709c732f8e1","686e356b6ee5f0bd0df3d14c","67e575f103799e89aacd209c","2025-07-09T09:43:16.059Z","","","","","","PreMotivationQ","","","","","","","","","","","","","","","","","","","","","","","","","","","","","","","","","","","","","","50",""
"","","","","ctl-task-cpt","43","684964","0.0-10.0-0.0","222","1","2025-07-09 09:32:01","7701e855f2ef39aa3fd6c71abdc6918a","165.165.245.202","Mozilla/5.0 (Windows NT 10.0; Win64; x64) AppleWebKit/537.36 (KHTML, like Gecko) Chrome/134.0.0.0 Safari/537.36 OPR/119.0.0.0","WebKit","Opera","119.0.0.0","Windows","10.0","https://app.prolific.com/","en-US,en;q=0.9","67e575f103799e89aacd209c","686d226cabeef709c732f8e1","686e356b6ee5f0bd0df3d14c","67e575f103799e89aacd209c","2025-07-09T09:43:32.914Z","","","","","","","","","","","","","","","","win-only","2","g1:SE,g2:NW","1","1","0","676337.7","2416.5","7423.3","13828.3","1","4","8","6","2","-8","-8","0","0","0","5006.8","3000","-1650","[""left"",""up""]","{""num_key_presses"":0,""num_perfect"":0,""num_errors"":0,""num_randdir"":0,""num_randdir_good_moves"":0,""num_whilered"":0,""num_whileblue"":0,""num_blue"":0,""num_good_moves"":0}","[295.22232142857143,299.12857142857143,1.1,295.22232142857143,299.12857142857143,111.6,295.22232142857143,299.12857142857143,236.1,295.22232142857143,299.12857142857143,351.6,295.22232142857143,299.12857142857143,490,295.22232142857143,299.12857142857143,590.2,295.22232142857143,299.12857142857143,696,295.22232142857143,299.12857142857143,814.3,295.22232142857143,299.12857142857143,923,295.22232142857143,299.12857142857143,1037.6,295.22232142857143,299.12857142857143,1156.6,295.22232142857143,299.12857142857143,1273.3,295.22232142857143,299.12857142857143,1374.2,295.22232142857143,299.12857142857143,1476.3,295.22232142857143,299.12857142857143,1587.6,295.22232142857143,299.12857142857143,1691.3,295.22232142857143,299.12857142857143,1794.8,295.22232142857143,299.12857142857143,1895.3,295.22232142857143,299.12857142857143,2000.1,295.22232142857143,299.12857142857143,2104.4,295.22232142857143,299.12857142857143,2211.3,295.22232142857143,299.12857142857143,2316,295.22232142857143,299.12857142857143,2418.4,295.22232142857143,299.12857142857143,2535.6,295.22232142857143,299.12857142857143,2650.5,295.22232142857143,299.12857142857143,2771.9,295.22232142857143,299.12857142857143,2872.7,295.22232142857143,299.12857142857143,2974.4,295.22232142857143,299.12857142857143,3074.4,295.22232142857143,299.12857142857143,3175.6,295.22232142857143,299.12857142857143,3281.1,295.22232142857143,299.12857142857143,3384.5,295.22232142857143,299.12857142857143,3491.1,295.22232142857143,299.12857142857143,3605.3,295.22232142857143,299.12857142857143,3717.5,295.22232142857143,299.12857142857143,3825.4,295.22232142857143,299.12857142857143,3943.8,295.22232142857143,299.12857142857143,4061.7,295.22232142857143,299.12857142857143,4187.2,295.22232142857143,299.12857142857143,4296.3,295.22232142857143,299.12857142857143,4399.7,295.22232142857143,299.12857142857143,4504.9,295.22232142857143,299.12857142857143,4606.1,295.22232142857143,299.12857142857143,4726,295.22232142857143,299.12857142857143,4829.4,295.22232142857143,299.12857142857143,4929.9]","[]","","",""
"6937","","<div style=""width:500px;"">
  <p>What determined the result of this run?</p>
  </div>","100","html-slider-response","44","691905","0.0-10.0-1.0","222","1","2025-07-09 09:32:01","7701e855f2ef39aa3fd6c71abdc6918a","165.165.245.202","Mozilla/5.0 (Windows NT 10.0; Win64; x64) AppleWebKit/537.36 (KHTML, like Gecko) Chrome/134.0.0.0 Safari/537.36 OPR/119.0.0.0","WebKit","Opera","119.0.0.0","Windows","10.0","https://app.prolific.com/","en-US,en;q=0.9","67e575f103799e89aacd209c","686d226cabeef709c732f8e1","686e356b6ee5f0bd0df3d14c","67e575f103799e89aacd209c","2025-07-09T09:43:39.856Z","","","","","","AttribQ","","","","","","","","","","","","","","","","","","","","","","","","","","","","","","","","","","","","","","50",""
"7298","","<div style=""width:500px;"">
  <p>How much control did you have over the ball?</p>
  </div>","72","html-slider-response","45","699207","0.0-10.0-2.0","222","1","2025-07-09 09:32:01","7701e855f2ef39aa3fd6c71abdc6918a","165.165.245.202","Mozilla/5.0 (Windows NT 10.0; Win64; x64) AppleWebKit/537.36 (KHTML, like Gecko) Chrome/134.0.0.0 Safari/537.36 OPR/119.0.0.0","WebKit","Opera","119.0.0.0","Windows","10.0","https://app.prolific.com/","en-US,en;q=0.9","67e575f103799e89aacd209c","686d226cabeef709c732f8e1","686e356b6ee5f0bd0df3d14c","67e575f103799e89aacd209c","2025-07-09T09:43:47.157Z","","","","","","ControlQ","","","","","","","","","","","","","","","","","","","","","","","","","","","","","","","","","","","","","","50",""
"6368","","<div style=""width:500px;"">
  <p>How would you describe your current emotional state?</p>
  </div>","0","html-slider-response","46","705577","0.0-10.0-3.0","222","1","2025-07-09 09:32:01","7701e855f2ef39aa3fd6c71abdc6918a","165.165.245.202","Mozilla/5.0 (Windows NT 10.0; Win64; x64) AppleWebKit/537.36 (KHTML, like Gecko) Chrome/134.0.0.0 Safari/537.36 OPR/119.0.0.0","WebKit","Opera","119.0.0.0","Windows","10.0","https://app.prolific.com/","en-US,en;q=0.9","67e575f103799e89aacd209c","686d226cabeef709c732f8e1","686e356b6ee5f0bd0df3d14c","67e575f103799e89aacd209c","2025-07-09T09:43:53.528Z","","","","","","StressQ","","","","","","","","","","","","","","","","","","","","","","","","","","","","","","","","","","","","","","50",""
"5494","","<div style=""width:500px;"">
  <p>What best describes how you currently feel?</p>
  </div>","100","html-slider-response","47","711077","0.0-10.0-4.0","222","1","2025-07-09 09:32:01","7701e855f2ef39aa3fd6c71abdc6918a","165.165.245.202","Mozilla/5.0 (Windows NT 10.0; Win64; x64) AppleWebKit/537.36 (KHTML, like Gecko) Chrome/134.0.0.0 Safari/537.36 OPR/119.0.0.0","WebKit","Opera","119.0.0.0","Windows","10.0","https://app.prolific.com/","en-US,en;q=0.9","67e575f103799e89aacd209c","686d226cabeef709c732f8e1","686e356b6ee5f0bd0df3d14c","67e575f103799e89aacd209c","2025-07-09T09:43:59.027Z","","","","","","MotivationQ","","","","","","","","","","","","","","","","","","","","","","","","","","","","","","","","","","","","","","50",""
"","","","","ctl-task-cpt","48","736804","0.0-10.0-0.1","222","1","2025-07-09 09:32:01","7701e855f2ef39aa3fd6c71abdc6918a","165.165.245.202","Mozilla/5.0 (Windows NT 10.0; Win64; x64) AppleWebKit/537.36 (KHTML, like Gecko) Chrome/134.0.0.0 Safari/537.36 OPR/119.0.0.0","WebKit","Opera","119.0.0.0","Windows","10.0","https://app.prolific.com/","en-US,en;q=0.9","67e575f103799e89aacd209c","686d226cabeef709c732f8e1","686e356b6ee5f0bd0df3d14c","67e575f103799e89aacd209c","2025-07-09T09:44:24.754Z","","","","","","","","","","","","","","","","win-only","0","g1:NW,g2:SE","0.9","2","0","719305.3","4750","9752.7","22703.1","1","4","4","6","2","-4","-6","0","0","0","5002.7","3000","-1320","[""down"",""right""]","{""num_key_presses"":3,""num_perfect"":1,""num_errors"":2,""num_randdir"":0,""num_randdir_good_moves"":0,""num_whilered"":0,""num_whileblue"":0,""num_blue"":0,""num_good_moves"":1}","[305.22232142857143,299.12857142857143,1.8,305.22232142857143,299.12857142857143,104.1,305.22232142857143,299.12857142857143,207.5,305.22232142857143,299.12857142857143,338.2,305.22232142857143,299.12857142857143,441.9,305.22232142857143,299.12857142857143,544.8,305.22232142857143,299.12857142857143,648.3,305.22232142857143,299.12857142857143,752,305.22232142857143,299.12857142857143,852.8,305.22232142857143,299.12857142857143,984.5,305.22232142857143,299.12857142857143,1085.8,305.22232142857143,299.12857142857143,1186.6,305.22232142857143,299.12857142857143,1293.1,305.22232142857143,299.12857142857143,1396.5,305.22232142857143,299.12857142857143,1497.2,305.22232142857143,299.12857142857143,1601.5,305.22232142857143,299.12857142857143,1745.7,305.22232142857143,299.12857142857143,1869.8,305.22232142857143,299.12857142857143,1973,305.22232142857143,299.12857142857143,2104.6,305.22232142857143,299.12857142857143,2224.1,305.22232142857143,299.12857142857143,2326.7,305.22232142857143,299.12857142857143,2428.2,305.22232142857143,299.12857142857143,2535.5,305.22232142857143,299.12857142857143,2638.5,305.22232142857143,299.12857142857143,2743.6,305.22232142857143,299.12857142857143,2856.6,305.22232142857143,299.12857142857143,2959.8,305.22232142857143,299.12857142857143,3065.2,305.22232142857143,299.12857142857143,3165.8,305.22232142857143,299.12857142857143,3272.4,305.22232142857143,299.12857142857143,3377.4,305.22232142857143,299.12857142857143,3484.5,305.22232142857143,299.12857142857143,3597.1,305.22232142857143,299.12857142857143,3698.5,305.22232142857143,299.12857142857143,3803,305.22232142857143,299.12857142857143,3907.8,305.22232142857143,299.12857142857143,4012.2,305.22232142857143,299.12857142857143,4112.7,305.22232142857143,299.12857142857143,4213.4,305.22232142857143,299.12857142857143,4344.8,305.22232142857143,299.12857142857143,4446.4,305.22232142857143,299.12857142857143,4553.4,305.22232142857143,299.12857142857143,4656.6,305.22232142857143,299.12857142857143,4758,305.22232142857143,299.12857142857143,4858.4,305.22232142857143,299.12857142857143,4962.6]","[3120.3,3120.3,1000,0,2120.3,""smooth"",""down"",""down"",""good_move"",3907.1,785.1,2888.1,3122,-2103,""error"",""-"",""-"",""no_move"",4992.7,1084.9,3041.5,4941.1,-2989.8,""error"",""-"",""-"",""no_move""]","","",""
"4905","","<div style=""width:500px;"">
  <p>What determined the result of this run?</p>
  </div>","100","html-slider-response","49","741712","0.0-10.0-1.1","222","1","2025-07-09 09:32:01","7701e855f2ef39aa3fd6c71abdc6918a","165.165.245.202","Mozilla/5.0 (Windows NT 10.0; Win64; x64) AppleWebKit/537.36 (KHTML, like Gecko) Chrome/134.0.0.0 Safari/537.36 OPR/119.0.0.0","WebKit","Opera","119.0.0.0","Windows","10.0","https://app.prolific.com/","en-US,en;q=0.9","67e575f103799e89aacd209c","686d226cabeef709c732f8e1","686e356b6ee5f0bd0df3d14c","67e575f103799e89aacd209c","2025-07-09T09:44:29.663Z","","","","","","AttribQ","","","","","","","","","","","","","","","","","","","","","","","","","","","","","","","","","","","","","","50",""
"8489","","<div style=""width:500px;"">
  <p>How much control did you have over the ball?</p>
  </div>","31","html-slider-response","50","750208","0.0-10.0-2.1","222","1","2025-07-09 09:32:01","7701e855f2ef39aa3fd6c71abdc6918a","165.165.245.202","Mozilla/5.0 (Windows NT 10.0; Win64; x64) AppleWebKit/537.36 (KHTML, like Gecko) Chrome/134.0.0.0 Safari/537.36 OPR/119.0.0.0","WebKit","Opera","119.0.0.0","Windows","10.0","https://app.prolific.com/","en-US,en;q=0.9","67e575f103799e89aacd209c","686d226cabeef709c732f8e1","686e356b6ee5f0bd0df3d14c","67e575f103799e89aacd209c","2025-07-09T09:44:38.161Z","","","","","","ControlQ","","","","","","","","","","","","","","","","","","","","","","","","","","","","","","","","","","","","","","50",""
"8670","","<div style=""width:500px;"">
  <p>How would you describe your current emotional state?</p>
  </div>","0","html-slider-response","51","758885","0.0-10.0-3.1","222","1","2025-07-09 09:32:01","7701e855f2ef39aa3fd6c71abdc6918a","165.165.245.202","Mozilla/5.0 (Windows NT 10.0; Win64; x64) AppleWebKit/537.36 (KHTML, like Gecko) Chrome/134.0.0.0 Safari/537.36 OPR/119.0.0.0","WebKit","Opera","119.0.0.0","Windows","10.0","https://app.prolific.com/","en-US,en;q=0.9","67e575f103799e89aacd209c","686d226cabeef709c732f8e1","686e356b6ee5f0bd0df3d14c","67e575f103799e89aacd209c","2025-07-09T09:44:46.835Z","","","","","","StressQ","","","","","","","","","","","","","","","","","","","","","","","","","","","","","","","","","","","","","","50",""
"10786","","<div style=""width:500px;"">
  <p>What best describes how you currently feel?</p>
  </div>","100","html-slider-response","52","769677","0.0-10.0-4.1","222","1","2025-07-09 09:32:01","7701e855f2ef39aa3fd6c71abdc6918a","165.165.245.202","Mozilla/5.0 (Windows NT 10.0; Win64; x64) AppleWebKit/537.36 (KHTML, like Gecko) Chrome/134.0.0.0 Safari/537.36 OPR/119.0.0.0","WebKit","Opera","119.0.0.0","Windows","10.0","https://app.prolific.com/","en-US,en;q=0.9","67e575f103799e89aacd209c","686d226cabeef709c732f8e1","686e356b6ee5f0bd0df3d14c","67e575f103799e89aacd209c","2025-07-09T09:44:57.627Z","","","","","","MotivationQ","","","","","","","","","","","","","","","","","","","","","","","","","","","","","","","","","","","","","","50",""
"","","","","ctl-task-cpt","53","801825","0.0-10.0-0.2","222","1","2025-07-09 09:32:01","7701e855f2ef39aa3fd6c71abdc6918a","165.165.245.202","Mozilla/5.0 (Windows NT 10.0; Win64; x64) AppleWebKit/537.36 (KHTML, like Gecko) Chrome/134.0.0.0 Safari/537.36 OPR/119.0.0.0","WebKit","Opera","119.0.0.0","Windows","10.0","https://app.prolific.com/","en-US,en;q=0.9","67e575f103799e89aacd209c","686d226cabeef709c732f8e1","686e356b6ee5f0bd0df3d14c","67e575f103799e89aacd209c","2025-07-09T09:45:29.776Z","","","","","","","","","","","","","","","","win-only","3","g1:SW,g2:NE","0.8","3","0","777911.7","10609.9","15643.3","29116.7","1","4","4","6","1","-1","-2","0","0","0","2191.6","3000","-1265","[""down"",""left""]","{""num_key_presses"":3,""num_perfect"":1,""num_errors"":1,""num_randdir"":0,""num_randdir_good_moves"":0,""num_whilered"":1,""num_whileblue"":0,""num_blue"":0,""num_good_moves"":1}","[296.22232142857143,291.12857142857143,1.1,296.22232142857143,291.12857142857143,100.4,296.22232142857143,291.12857142857143,215.4,296.22232142857143,291.12857142857143,320.3,296.22232142857143,291.12857142857143,422.8,296.22232142857143,291.12857142857143,528,296.22232142857143,291.12857142857143,631.3,296.22232142857143,291.12857142857143,763.7,296.22232142857143,291.12857142857143,866.5,296.22232142857143,291.12857142857143,972.6,279.22232142857143,296.12857142857143,1105.7,56.222321428571426,357.12857142857143,1211,11.222321428571426,357.12857142857143,1355.3,1.2223214285714263,391.12857142857143,1486.2,15.222321428571426,476.12857142857143,1586.3,19.222321428571426,500.12857142857143,1687.2,19.222321428571426,508.12857142857143,1790,23.222321428571426,521.1285714285714,1940.1,24.222321428571426,525.1285714285714,2042.1,24.222321428571426,525.1285714285714,2142.7,24.222321428571426,525.1285714285714,2273.7,24.222321428571426,525.1285714285714,2401.2,24.222321428571426,525.1285714285714,2505.1,24.222321428571426,525.1285714285714,2609.4,24.222321428571426,525.1285714285714,2753.9,24.222321428571426,525.1285714285714,2856.2,24.222321428571426,525.1285714285714,2961.6,24.222321428571426,525.1285714285714,3075.9,24.222321428571426,525.1285714285714,3185.5,24.222321428571426,525.1285714285714,3325.4,24.222321428571426,525.1285714285714,3426.7,24.222321428571426,525.1285714285714,3527.9,24.222321428571426,525.1285714285714,3656.5,24.222321428571426,525.1285714285714,3778.8,24.222321428571426,525.1285714285714,3881.7,24.222321428571426,525.1285714285714,3986.5,24.222321428571426,525.1285714285714,4123.9,24.222321428571426,525.1285714285714,4226.5,24.222321428571426,525.1285714285714,4349.3,24.222321428571426,525.1285714285714,4453.2,24.222321428571426,525.1285714285714,4556.5,24.222321428571426,525.1285714285714,4660.2,24.222321428571426,525.1285714285714,4796.5,24.222321428571426,525.1285714285714,4929.8]","[1686.6,1686.6,1000,0,686.6,""smooth"",""down"",""down"",""good_move"",2121.2,431.3,2683.6,1690,-2252.3,""error"",""-"",""-"",""no_move"",2588.1,464.2,2683.6,1690,-1785.5,""while_red"",""-"",""-"",""no_move""]","","",""
"8059","","<div style=""width:500px;"">
  <p>What determined the result of this run?</p>
  </div>","100","html-slider-response","54","809887","0.0-10.0-1.2","222","1","2025-07-09 09:32:01","7701e855f2ef39aa3fd6c71abdc6918a","165.165.245.202","Mozilla/5.0 (Windows NT 10.0; Win64; x64) AppleWebKit/537.36 (KHTML, like Gecko) Chrome/134.0.0.0 Safari/537.36 OPR/119.0.0.0","WebKit","Opera","119.0.0.0","Windows","10.0","https://app.prolific.com/","en-US,en;q=0.9","67e575f103799e89aacd209c","686d226cabeef709c732f8e1","686e356b6ee5f0bd0df3d14c","67e575f103799e89aacd209c","2025-07-09T09:45:37.838Z","","","","","","AttribQ","","","","","","","","","","","","","","","","","","","","","","","","","","","","","","","","","","","","","","50",""
"7144","","<div style=""width:500px;"">
  <p>How much control did you have over the ball?</p>
  </div>","75","html-slider-response","55","817038","0.0-10.0-2.2","222","1","2025-07-09 09:32:01","7701e855f2ef39aa3fd6c71abdc6918a","165.165.245.202","Mozilla/5.0 (Windows NT 10.0; Win64; x64) AppleWebKit/537.36 (KHTML, like Gecko) Chrome/134.0.0.0 Safari/537.36 OPR/119.0.0.0","WebKit","Opera","119.0.0.0","Windows","10.0","https://app.prolific.com/","en-US,en;q=0.9","67e575f103799e89aacd209c","686d226cabeef709c732f8e1","686e356b6ee5f0bd0df3d14c","67e575f103799e89aacd209c","2025-07-09T09:45:44.988Z","","","","","","ControlQ","","","","","","","","","","","","","","","","","","","","","","","","","","","","","","","","","","","","","","50",""
"12345","","<div style=""width:500px;"">
  <p>How would you describe your current emotional state?</p>
  </div>","82","html-slider-response","56","829386","0.0-10.0-3.2","222","1","2025-07-09 09:32:01","7701e855f2ef39aa3fd6c71abdc6918a","165.165.245.202","Mozilla/5.0 (Windows NT 10.0; Win64; x64) AppleWebKit/537.36 (KHTML, like Gecko) Chrome/134.0.0.0 Safari/537.36 OPR/119.0.0.0","WebKit","Opera","119.0.0.0","Windows","10.0","https://app.prolific.com/","en-US,en;q=0.9","67e575f103799e89aacd209c","686d226cabeef709c732f8e1","686e356b6ee5f0bd0df3d14c","67e575f103799e89aacd209c","2025-07-09T09:45:57.337Z","","","","","","StressQ","","","","","","","","","","","","","","","","","","","","","","","","","","","","","","","","","","","","","","50",""
"6092","","<div style=""width:500px;"">
  <p>What best describes how you currently feel?</p>
  </div>","75","html-slider-response","57","835486","0.0-10.0-4.2","222","1","2025-07-09 09:32:01","7701e855f2ef39aa3fd6c71abdc6918a","165.165.245.202","Mozilla/5.0 (Windows NT 10.0; Win64; x64) AppleWebKit/537.36 (KHTML, like Gecko) Chrome/134.0.0.0 Safari/537.36 OPR/119.0.0.0","WebKit","Opera","119.0.0.0","Windows","10.0","https://app.prolific.com/","en-US,en;q=0.9","67e575f103799e89aacd209c","686d226cabeef709c732f8e1","686e356b6ee5f0bd0df3d14c","67e575f103799e89aacd209c","2025-07-09T09:46:03.437Z","","","","","","MotivationQ","","","","","","","","","","","","","","","","","","","","","","","","","","","","","","","","","","","","","","50",""
"","","","","ctl-task-cpt","58","877216","0.0-10.0-0.3","222","1","2025-07-09 09:32:01","7701e855f2ef39aa3fd6c71abdc6918a","165.165.245.202","Mozilla/5.0 (Windows NT 10.0; Win64; x64) AppleWebKit/537.36 (KHTML, like Gecko) Chrome/134.0.0.0 Safari/537.36 OPR/119.0.0.0","WebKit","Opera","119.0.0.0","Windows","10.0","https://app.prolific.com/","en-US,en;q=0.9","67e575f103799e89aacd209c","686d226cabeef709c732f8e1","686e356b6ee5f0bd0df3d14c","67e575f103799e89aacd209c","2025-07-09T09:46:45.166Z","","","","","","","","","","","","","","","","win-only","2","g1:SE,g2:NW","0.7","4","0","843714.7","16867.2","21901.1","38682.9","1","4","8","6","2","-8","-9","0","0","0","5033.9","3000","-1050","[""left"",""up""]","{""num_key_presses"":4,""num_perfect"":1,""num_errors"":1,""num_randdir"":0,""num_randdir_good_moves"":0,""num_whilered"":2,""num_whileblue"":0,""num_blue"":1,""num_good_moves"":1}","[292.22232142857143,301.12857142857143,1,292.22232142857143,301.12857142857143,106.1,292.22232142857143,301.12857142857143,238.6,292.22232142857143,301.12857142857143,346.7,292.22232142857143,301.12857142857143,490.5,292.22232142857143,301.12857142857143,619.5,292.22232142857143,301.12857142857143,719.5,292.22232142857143,301.12857142857143,853.5,292.22232142857143,301.12857142857143,975.8,292.22232142857143,301.12857142857143,1083.5,292.22232142857143,301.12857142857143,1183.6,292.22232142857143,301.12857142857143,1297.6,292.22232142857143,301.12857142857143,1398.8,292.22232142857143,301.12857142857143,1535.3,292.22232142857143,301.12857142857143,1642.9,292.22232142857143,301.12857142857143,1785,292.22232142857143,301.12857142857143,1907.1,292.22232142857143,301.12857142857143,2035.6,292.22232142857143,301.12857142857143,2139.1,292.22232142857143,301.12857142857143,2255.8,292.22232142857143,301.12857142857143,2390.9,292.22232142857143,301.12857142857143,2517.8,292.22232142857143,301.12857142857143,2621.6,292.22232142857143,301.12857142857143,2724.5,292.22232142857143,301.12857142857143,2858.5,292.22232142857143,301.12857142857143,2959.4,292.22232142857143,301.12857142857143,3068.5,292.22232142857143,301.12857142857143,3207.1,292.22232142857143,301.12857142857143,3340.7,292.22232142857143,301.12857142857143,3455.4,292.22232142857143,301.12857142857143,3558.9,292.22232142857143,301.12857142857143,3659.1,292.22232142857143,301.12857142857143,3801.8,292.22232142857143,301.12857142857143,3947.2,292.22232142857143,301.12857142857143,4052.2,292.22232142857143,301.12857142857143,4181.1,292.22232142857143,301.12857142857143,4299.2,292.22232142857143,301.12857142857143,4436.7,292.22232142857143,301.12857142857143,4547.6,292.22232142857143,301.12857142857143,4649.5,292.22232142857143,301.12857142857143,4756.4,292.22232142857143,301.12857142857143,4886.5,292.22232142857143,301.12857142857143,4990.8]","[6765,6765,2298.6,2027,2439.4,""smooth"",""up"",""up"",""good_move"",7026.8,258.8,3093,6768,-2834.2,""error"",""-"",""-"",""no_move"",7268.7,239.7,3093,6768,-2592.3,""while_red"",""-"",""-"",""no_move"",7489.9,460.9,3093,6768,-2371.1,""while_red"",""-"",""-"",""no_move""]","","",""
"11698","","<div style=""width:500px;"">
  <p>What determined the result of this run?</p>
  </div>","100","html-slider-response","59","888916","0.0-10.0-1.3","222","1","2025-07-09 09:32:01","7701e855f2ef39aa3fd6c71abdc6918a","165.165.245.202","Mozilla/5.0 (Windows NT 10.0; Win64; x64) AppleWebKit/537.36 (KHTML, like Gecko) Chrome/134.0.0.0 Safari/537.36 OPR/119.0.0.0","WebKit","Opera","119.0.0.0","Windows","10.0","https://app.prolific.com/","en-US,en;q=0.9","67e575f103799e89aacd209c","686d226cabeef709c732f8e1","686e356b6ee5f0bd0df3d14c","67e575f103799e89aacd209c","2025-07-09T09:46:56.867Z","","","","","","AttribQ","","","","","","","","","","","","","","","","","","","","","","","","","","","","","","","","","","","","","","50",""
"7765","","<div style=""width:500px;"">
  <p>How much control did you have over the ball?</p>
  </div>","54","html-slider-response","60","896690","0.0-10.0-2.3","222","1","2025-07-09 09:32:01","7701e855f2ef39aa3fd6c71abdc6918a","165.165.245.202","Mozilla/5.0 (Windows NT 10.0; Win64; x64) AppleWebKit/537.36 (KHTML, like Gecko) Chrome/134.0.0.0 Safari/537.36 OPR/119.0.0.0","WebKit","Opera","119.0.0.0","Windows","10.0","https://app.prolific.com/","en-US,en;q=0.9","67e575f103799e89aacd209c","686d226cabeef709c732f8e1","686e356b6ee5f0bd0df3d14c","67e575f103799e89aacd209c","2025-07-09T09:47:04.641Z","","","","","","ControlQ","","","","","","","","","","","","","","","","","","","","","","","","","","","","","","","","","","","","","","50",""
"6882","","<div style=""width:500px;"">
  <p>How would you describe your current emotional state?</p>
  </div>","76","html-slider-response","61","903580","0.0-10.0-3.3","222","1","2025-07-09 09:32:01","7701e855f2ef39aa3fd6c71abdc6918a","165.165.245.202","Mozilla/5.0 (Windows NT 10.0; Win64; x64) AppleWebKit/537.36 (KHTML, like Gecko) Chrome/134.0.0.0 Safari/537.36 OPR/119.0.0.0","WebKit","Opera","119.0.0.0","Windows","10.0","https://app.prolific.com/","en-US,en;q=0.9","67e575f103799e89aacd209c","686d226cabeef709c732f8e1","686e356b6ee5f0bd0df3d14c","67e575f103799e89aacd209c","2025-07-09T09:47:11.530Z","","","","","","StressQ","","","","","","","","","","","","","","","","","","","","","","","","","","","","","","","","","","","","","","50",""
"12668","","<div style=""width:500px;"">
  <p>What best describes how you currently feel?</p>
  </div>","75","html-slider-response","62","916253","0.0-10.0-4.3","222","1","2025-07-09 09:32:01","7701e855f2ef39aa3fd6c71abdc6918a","165.165.245.202","Mozilla/5.0 (Windows NT 10.0; Win64; x64) AppleWebKit/537.36 (KHTML, like Gecko) Chrome/134.0.0.0 Safari/537.36 OPR/119.0.0.0","WebKit","Opera","119.0.0.0","Windows","10.0","https://app.prolific.com/","en-US,en;q=0.9","67e575f103799e89aacd209c","686d226cabeef709c732f8e1","686e356b6ee5f0bd0df3d14c","67e575f103799e89aacd209c","2025-07-09T09:47:24.203Z","","","","","","MotivationQ","","","","","","","","","","","","","","","","","","","","","","","","","","","","","","","","","","","","","","50",""
"","","","","ctl-task-cpt","63","974157","0.0-10.0-0.4","222","1","2025-07-09 09:32:01","7701e855f2ef39aa3fd6c71abdc6918a","165.165.245.202","Mozilla/5.0 (Windows NT 10.0; Win64; x64) AppleWebKit/537.36 (KHTML, like Gecko) Chrome/134.0.0.0 Safari/537.36 OPR/119.0.0.0","WebKit","Opera","119.0.0.0","Windows","10.0","https://app.prolific.com/","en-US,en;q=0.9","67e575f103799e89aacd209c","686d226cabeef709c732f8e1","686e356b6ee5f0bd0df3d14c","67e575f103799e89aacd209c","2025-07-09T09:48:22.107Z","","","","","","","","","","","","","","","","win-only","3","g1:SW,g2:NE","0.6","5","0","924486.4","18766.1","23776.6","54844.7","1","4","8","6","1","1","-4","0","0","0","1428.2","3000","2050","[""down"",""left""]","{""num_key_presses"":12,""num_perfect"":4,""num_errors"":5,""num_randdir"":2,""num_randdir_good_moves"":1,""num_whilered"":1,""num_whileblue"":0,""num_blue"":0,""num_good_moves"":5}","[301.22232142857143,294.12857142857143,1.2,301.22232142857143,294.12857142857143,146.2,301.22232142857143,294.12857142857143,304.5,301.22232142857143,294.12857142857143,407.8,301.22232142857143,294.12857142857143,539.4,239.22232142857143,346.12857142857143,643.7,158.22232142857143,414.12857142857143,771.9,130.22232142857143,451.12857142857143,878.3,104.22232142857143,494.12857142857143,982.3,91.22232142857143,513.1285714285714,1126.7,80.22232142857143,522.1285714285714,1277,80.22232142857143,522.1285714285714,1397.8,80.22232142857143,522.1285714285714,1561.7,80.22232142857143,522.1285714285714,1668.1,80.22232142857143,522.1285714285714,1771.1,80.22232142857143,522.1285714285714,1926,80.22232142857143,522.1285714285714,2028.1,80.22232142857143,522.1285714285714,2158,80.22232142857143,522.1285714285714,2262.4,80.22232142857143,522.1285714285714,2363.6,80.22232142857143,522.1285714285714,2463.8,80.22232142857143,522.1285714285714,2569.7,80.22232142857143,522.1285714285714,2697.6,93.22232142857143,518.1285714285714,2810.8,166.22232142857143,482.12857142857143,2920.4,193.22232142857143,462.12857142857143,3022.5,228.22232142857143,433.12857142857143,3167.6,243.22232142857143,403.12857142857143,3318.3,243.22232142857143,399.12857142857143,3424.6,243.22232142857143,396.12857142857143,3585.8,243.22232142857143,396.12857142857143,3687.9,243.22232142857143,396.12857142857143,3788.1,249.22232142857143,384.12857142857143,3894.2,251.22232142857143,380.12857142857143,3994.4,251.22232142857143,380.12857142857143,4094.4,251.22232142857143,380.12857142857143,4201.1,251.22232142857143,377.12857142857143,4312,251.22232142857143,376.12857142857143,4412,134.22232142857143,521.1285714285714,4710.9,134.22232142857143,525.1285714285714,4815.2,134.22232142857143,525.1285714285714,4957.5]","[1714.8,1714.8,1000,0,714.8,""oops"",""down"",""right"",""bad_move"",2943.2,1225.2,2371.1,1718,-1145.9,""error"",""-"",""-"",""no_move"",4117.5,1170.5,2371.1,1718,28.4,""while_red"",""-"",""-"",""no_move"",4357.1,1410.1,1645.7,4138.1,-1426.7,""error"",""-"",""-"",""no_move"",9382.9,5016.7,3035.4,5368.2,979.3,""smooth"",""left"",""left"",""good_move"",9922.6,535.8,2260.4,9386.8,-1724.6,""error"",""-"",""-"",""no_move"",11015,1088.1,2279.6,10946.1,-2210.7,""error"",""-"",""-"",""no_move"",13653.3,2633.9,2644.9,12031.1,-1022.6,""error"",""-"",""-"",""no_move"",17973.1,4313.7,2573.6,14676.4,723.1,""smooth"",""down"",""down"",""good_move"",21617.8,3640.4,2874.5,17977.4,765.9,""smooth"",""down"",""down"",""good_move"",25243.9,3620.6,3089.9,21623.3,530.7,""oops"",""left"",""left"",""good_move"",30580.1,5333.3,2560.9,25246.8,2772.4,""smooth"",""left"",""left"",""good_move""]","","",""
"6205","","<div style=""width:500px;"">
  <p>What determined the result of this run?</p>
  </div>","86","html-slider-response","64","980365","0.0-10.0-1.4","222","1","2025-07-09 09:32:01","7701e855f2ef39aa3fd6c71abdc6918a","165.165.245.202","Mozilla/5.0 (Windows NT 10.0; Win64; x64) AppleWebKit/537.36 (KHTML, like Gecko) Chrome/134.0.0.0 Safari/537.36 OPR/119.0.0.0","WebKit","Opera","119.0.0.0","Windows","10.0","https://app.prolific.com/","en-US,en;q=0.9","67e575f103799e89aacd209c","686d226cabeef709c732f8e1","686e356b6ee5f0bd0df3d14c","67e575f103799e89aacd209c","2025-07-09T09:48:28.317Z","","","","","","AttribQ","","","","","","","","","","","","","","","","","","","","","","","","","","","","","","","","","","","","","","50",""
"6409","","<div style=""width:500px;"">
  <p>How much control did you have over the ball?</p>
  </div>","91","html-slider-response","65","986781","0.0-10.0-2.4","222","1","2025-07-09 09:32:01","7701e855f2ef39aa3fd6c71abdc6918a","165.165.245.202","Mozilla/5.0 (Windows NT 10.0; Win64; x64) AppleWebKit/537.36 (KHTML, like Gecko) Chrome/134.0.0.0 Safari/537.36 OPR/119.0.0.0","WebKit","Opera","119.0.0.0","Windows","10.0","https://app.prolific.com/","en-US,en;q=0.9","67e575f103799e89aacd209c","686d226cabeef709c732f8e1","686e356b6ee5f0bd0df3d14c","67e575f103799e89aacd209c","2025-07-09T09:48:34.731Z","","","","","","ControlQ","","","","","","","","","","","","","","","","","","","","","","","","","","","","","","","","","","","","","","50",""
"5648","","<div style=""width:500px;"">
  <p>How would you describe your current emotional state?</p>
  </div>","64","html-slider-response","66","992434","0.0-10.0-3.4","222","1","2025-07-09 09:32:01","7701e855f2ef39aa3fd6c71abdc6918a","165.165.245.202","Mozilla/5.0 (Windows NT 10.0; Win64; x64) AppleWebKit/537.36 (KHTML, like Gecko) Chrome/134.0.0.0 Safari/537.36 OPR/119.0.0.0","WebKit","Opera","119.0.0.0","Windows","10.0","https://app.prolific.com/","en-US,en;q=0.9","67e575f103799e89aacd209c","686d226cabeef709c732f8e1","686e356b6ee5f0bd0df3d14c","67e575f103799e89aacd209c","2025-07-09T09:48:40.385Z","","","","","","StressQ","","","","","","","","","","","","","","","","","","","","","","","","","","","","","","","","","","","","","","50",""
"6883","","<div style=""width:500px;"">
  <p>What best describes how you currently feel?</p>
  </div>","71","html-slider-response","67","999330","0.0-10.0-4.4","222","1","2025-07-09 09:32:01","7701e855f2ef39aa3fd6c71abdc6918a","165.165.245.202","Mozilla/5.0 (Windows NT 10.0; Win64; x64) AppleWebKit/537.36 (KHTML, like Gecko) Chrome/134.0.0.0 Safari/537.36 OPR/119.0.0.0","WebKit","Opera","119.0.0.0","Windows","10.0","https://app.prolific.com/","en-US,en;q=0.9","67e575f103799e89aacd209c","686d226cabeef709c732f8e1","686e356b6ee5f0bd0df3d14c","67e575f103799e89aacd209c","2025-07-09T09:48:47.280Z","","","","","","MotivationQ","","","","","","","","","","","","","","","","","","","","","","","","","","","","","","","","","","","","","","50",""
"","","","","ctl-task-cpt","68","1029443","0.0-10.0-0.5","222","1","2025-07-09 09:32:01","7701e855f2ef39aa3fd6c71abdc6918a","165.165.245.202","Mozilla/5.0 (Windows NT 10.0; Win64; x64) AppleWebKit/537.36 (KHTML, like Gecko) Chrome/134.0.0.0 Safari/537.36 OPR/119.0.0.0","WebKit","Opera","119.0.0.0","Windows","10.0","https://app.prolific.com/","en-US,en;q=0.9","67e575f103799e89aacd209c","686d226cabeef709c732f8e1","686e356b6ee5f0bd0df3d14c","67e575f103799e89aacd209c","2025-07-09T09:49:17.393Z","","","","","","","","","","","","","","","","win-only","0","g1:NW,g2:SE","0.5","6","0","1007558.6","9138.4","14194.9","27090.6","1","4","4","6","1","1","1","1","0","0.007575757575757576","1500.9","3000","2370","[""left"",""up""]","{""num_key_presses"":4,""num_perfect"":3,""num_errors"":0,""num_randdir"":1,""num_randdir_good_moves"":1,""num_whilered"":0,""num_whileblue"":0,""num_blue"":0,""num_good_moves"":4}","[299.22232142857143,291.12857142857143,5.2,299.22232142857143,291.12857142857143,127.1,299.22232142857143,291.12857142857143,227.2,299.22232142857143,291.12857142857143,352.3,299.22232142857143,291.12857142857143,491.2,299.22232142857143,291.12857142857143,644.3,299.22232142857143,291.12857142857143,747.3,289.22232142857143,284.12857142857143,850,118.22232142857143,102.12857142857143,958.8,92.22232142857143,33.128571428571426,1140.2,86.22232142857143,28.128571428571426,1244.6,85.22232142857143,29.128571428571426,1356.7,85.22232142857143,29.128571428571426,1456.7,85.22232142857143,29.128571428571426,1557.2,85.22232142857143,29.128571428571426,1663.1,85.22232142857143,29.128571428571426,1976.9,85.22232142857143,29.128571428571426,2080.7,85.22232142857143,29.128571428571426,2191.1,85.22232142857143,29.128571428571426,2291.5,85.22232142857143,29.128571428571426,2425.6,85.22232142857143,29.128571428571426,2546.1,85.22232142857143,29.128571428571426,2650.2,85.22232142857143,29.128571428571426,2913.2,85.22232142857143,29.128571428571426,3023.7,85.22232142857143,29.128571428571426,3131.8,85.22232142857143,29.128571428571426,3235.1,85.22232142857143,29.128571428571426,3363.8,85.22232142857143,29.128571428571426,3472.6,85.22232142857143,29.128571428571426,3633.9,85.22232142857143,29.128571428571426,3804.5,85.22232142857143,29.128571428571426,3908.5,85.22232142857143,29.128571428571426,4051.6,85.22232142857143,29.128571428571426,4157,85.22232142857143,29.128571428571426,4262,85.22232142857143,29.128571428571426,4436.8,85.22232142857143,29.128571428571426,4543,85.22232142857143,29.128571428571426,4643.2,85.22232142857143,29.128571428571426,4743.9]","[1574.5,1574.4,1000,0.1,574.4,""smooth"",""left"",""left"",""good_move"",5363.2,3786.5,2931.4,1576.7,855.1,""smooth"",""left"",""left"",""good_move"",9019.2,3648.8,3094.8,5370.4,554,""oops"",""up"",""up"",""good_move"",12495.8,3474.3,2272.1,9021.5,1202.2,""smooth"",""up"",""up"",""good_move""]","","",""
"8143","","<div style=""width:500px;"">
  <p>What determined the result of this run?</p>
  </div>","100","html-slider-response","69","1037589","0.0-10.0-1.5","222","1","2025-07-09 09:32:01","7701e855f2ef39aa3fd6c71abdc6918a","165.165.245.202","Mozilla/5.0 (Windows NT 10.0; Win64; x64) AppleWebKit/537.36 (KHTML, like Gecko) Chrome/134.0.0.0 Safari/537.36 OPR/119.0.0.0","WebKit","Opera","119.0.0.0","Windows","10.0","https://app.prolific.com/","en-US,en;q=0.9","67e575f103799e89aacd209c","686d226cabeef709c732f8e1","686e356b6ee5f0bd0df3d14c","67e575f103799e89aacd209c","2025-07-09T09:49:25.539Z","","","","","","AttribQ","","","","","","","","","","","","","","","","","","","","","","","","","","","","","","","","","","","","","","50",""
"8208","","<div style=""width:500px;"">
  <p>How much control did you have over the ball?</p>
  </div>","96","html-slider-response","70","1045802","0.0-10.0-2.5","222","1","2025-07-09 09:32:01","7701e855f2ef39aa3fd6c71abdc6918a","165.165.245.202","Mozilla/5.0 (Windows NT 10.0; Win64; x64) AppleWebKit/537.36 (KHTML, like Gecko) Chrome/134.0.0.0 Safari/537.36 OPR/119.0.0.0","WebKit","Opera","119.0.0.0","Windows","10.0","https://app.prolific.com/","en-US,en;q=0.9","67e575f103799e89aacd209c","686d226cabeef709c732f8e1","686e356b6ee5f0bd0df3d14c","67e575f103799e89aacd209c","2025-07-09T09:49:33.752Z","","","","","","ControlQ","","","","","","","","","","","","","","","","","","","","","","","","","","","","","","","","","","","","","","50",""
"8070","","<div style=""width:500px;"">
  <p>How would you describe your current emotional state?</p>
  </div>","38","html-slider-response","71","1053879","0.0-10.0-3.5","222","1","2025-07-09 09:32:01","7701e855f2ef39aa3fd6c71abdc6918a","165.165.245.202","Mozilla/5.0 (Windows NT 10.0; Win64; x64) AppleWebKit/537.36 (KHTML, like Gecko) Chrome/134.0.0.0 Safari/537.36 OPR/119.0.0.0","WebKit","Opera","119.0.0.0","Windows","10.0","https://app.prolific.com/","en-US,en;q=0.9","67e575f103799e89aacd209c","686d226cabeef709c732f8e1","686e356b6ee5f0bd0df3d14c","67e575f103799e89aacd209c","2025-07-09T09:49:41.829Z","","","","","","StressQ","","","","","","","","","","","","","","","","","","","","","","","","","","","","","","","","","","","","","","50",""
"7349","","<div style=""width:500px;"">
  <p>What best describes how you currently feel?</p>
  </div>","87","html-slider-response","72","1061234","0.0-10.0-4.5","222","1","2025-07-09 09:32:01","7701e855f2ef39aa3fd6c71abdc6918a","165.165.245.202","Mozilla/5.0 (Windows NT 10.0; Win64; x64) AppleWebKit/537.36 (KHTML, like Gecko) Chrome/134.0.0.0 Safari/537.36 OPR/119.0.0.0","WebKit","Opera","119.0.0.0","Windows","10.0","https://app.prolific.com/","en-US,en;q=0.9","67e575f103799e89aacd209c","686d226cabeef709c732f8e1","686e356b6ee5f0bd0df3d14c","67e575f103799e89aacd209c","2025-07-09T09:49:49.184Z","","","","","","MotivationQ","","","","","","","","","","","","","","","","","","","","","","","","","","","","","","","","","","","","","","50",""
"","","","","ctl-task-cpt","73","1138359","0.0-10.0-0.6","222","1","2025-07-09 09:32:01","7701e855f2ef39aa3fd6c71abdc6918a","165.165.245.202","Mozilla/5.0 (Windows NT 10.0; Win64; x64) AppleWebKit/537.36 (KHTML, like Gecko) Chrome/134.0.0.0 Safari/537.36 OPR/119.0.0.0","WebKit","Opera","119.0.0.0","Windows","10.0","https://app.prolific.com/","en-US,en;q=0.9","67e575f103799e89aacd209c","686d226cabeef709c732f8e1","686e356b6ee5f0bd0df3d14c","67e575f103799e89aacd209c","2025-07-09T09:51:06.309Z","","","","","","","","","","","","","","","","win-only","3","g1:SW,g2:NE","0.4","7","0","1069467.4","9531.6","14552.5","74077.1","1","4","8","6","1","-1","-1","0","1","0","2014.7","3000","-675","[""down"",""left""]","{""num_key_presses"":13,""num_perfect"":6,""num_errors"":0,""num_randdir"":7,""num_randdir_good_moves"":3,""num_whilered"":0,""num_whileblue"":0,""num_blue"":2,""num_good_moves"":8}","[303.22232142857143,296.12857142857143,1.1,303.22232142857143,296.12857142857143,102.9,303.22232142857143,296.12857142857143,217.5,303.22232142857143,296.12857142857143,343.4,303.22232142857143,296.12857142857143,465.7,303.22232142857143,296.12857142857143,592.9,303.22232142857143,296.12857142857143,719.2,303.22232142857143,296.12857142857143,837.5,303.22232142857143,296.12857142857143,963.3,303.22232142857143,296.12857142857143,1086.4,277.22232142857143,316.12857142857143,1206.3,193.22232142857143,407.12857142857143,1325.3,190.22232142857143,412.12857142857143,1427.5,155.22232142857143,442.12857142857143,1551.4,64.22232142857143,516.1285714285714,1684,51.222321428571426,525.1285714285714,1787.8,51.222321428571426,525.1285714285714,1918.2,51.222321428571426,525.1285714285714,2020.4,51.222321428571426,525.1285714285714,2122.1,51.222321428571426,525.1285714285714,2227.7,51.222321428571426,525.1285714285714,2328,51.222321428571426,525.1285714285714,2457.5,51.222321428571426,525.1285714285714,2561.2,51.222321428571426,525.1285714285714,2661.6,51.222321428571426,525.1285714285714,2764.8,51.222321428571426,525.1285714285714,2892.6,51.222321428571426,525.1285714285714,3004.4,51.222321428571426,525.1285714285714,3121.9,51.222321428571426,525.1285714285714,3253.7,51.222321428571426,525.1285714285714,3361.8,51.222321428571426,525.1285714285714,3489.1,51.222321428571426,525.1285714285714,3604,51.222321428571426,525.1285714285714,3740.3,51.222321428571426,525.1285714285714,3853.8,51.222321428571426,525.1285714285714,3970.6,51.222321428571426,525.1285714285714,4134,51.222321428571426,525.1285714285714,4257.8,51.222321428571426,525.1285714285714,4389,51.222321428571426,525.1285714285714,4491.8,51.222321428571426,525.1285714285714,4619.7,51.222321428571426,525.1285714285714,4729.6,51.222321428571426,525.1285714285714,4852.8,51.222321428571426,525.1285714285714,4955.1]","[1530.1,1530.1,1000,0,530.1,""oops"",""down"",""right"",""bad_move"",5564.7,4033.1,3519.8,1531.6,513.3,""smooth"",""left"",""left"",""good_move"",9318.2,3751.5,3081.7,5566.7,669.8,""smooth"",""left"",""left"",""good_move"",12750.9,3430.5,2014.3,9320.5,1416.1,""oops"",""left"",""right"",""bad_move"",16808.6,4055.8,2009.1,12752.8,2046.7,""oops"",""down"",""left"",""good_move"",20021.9,3210.9,2596.5,16811,614.5,""oops"",""down"",""left"",""good_move"",23078,3054.6,2731.3,20023.4,323.3,""smooth"",""down"",""down"",""good_move"",27181.8,4101.7,3226,23080.2,875.6,""oops"",""down"",""up"",""bad_move"",31485.9,4299.8,1879,27186.1,2420.8,""oops"",""down"",""up"",""bad_move"",40055.6,8565.2,2915.8,36627.6,512.2,""smooth"",""up"",""up"",""bad_move"",44021.5,3963.3,2497.9,40058.3,1465.3,""smooth"",""down"",""down"",""good_move"",50718.8,6695.6,2319.1,47827.9,571.8,""smooth"",""down"",""down"",""good_move"",55115.5,4394.4,3454.2,50721.1,940.2,""oops"",""down"",""down"",""good_move""]","","",""
"8424","","<div style=""width:500px;"">
  <p>What determined the result of this run?</p>
  </div>","75","html-slider-response","74","1146791","0.0-10.0-1.6","222","1","2025-07-09 09:32:01","7701e855f2ef39aa3fd6c71abdc6918a","165.165.245.202","Mozilla/5.0 (Windows NT 10.0; Win64; x64) AppleWebKit/537.36 (KHTML, like Gecko) Chrome/134.0.0.0 Safari/537.36 OPR/119.0.0.0","WebKit","Opera","119.0.0.0","Windows","10.0","https://app.prolific.com/","en-US,en;q=0.9","67e575f103799e89aacd209c","686d226cabeef709c732f8e1","686e356b6ee5f0bd0df3d14c","67e575f103799e89aacd209c","2025-07-09T09:51:14.741Z","","","","","","AttribQ","","","","","","","","","","","","","","","","","","","","","","","","","","","","","","","","","","","","","","50",""
"8684","","<div style=""width:500px;"">
  <p>How much control did you have over the ball?</p>
  </div>","82","html-slider-response","75","1155480","0.0-10.0-2.6","222","1","2025-07-09 09:32:01","7701e855f2ef39aa3fd6c71abdc6918a","165.165.245.202","Mozilla/5.0 (Windows NT 10.0; Win64; x64) AppleWebKit/537.36 (KHTML, like Gecko) Chrome/134.0.0.0 Safari/537.36 OPR/119.0.0.0","WebKit","Opera","119.0.0.0","Windows","10.0","https://app.prolific.com/","en-US,en;q=0.9","67e575f103799e89aacd209c","686d226cabeef709c732f8e1","686e356b6ee5f0bd0df3d14c","67e575f103799e89aacd209c","2025-07-09T09:51:23.430Z","","","","","","ControlQ","","","","","","","","","","","","","","","","","","","","","","","","","","","","","","","","","","","","","","50",""
"8203","","<div style=""width:500px;"">
  <p>How would you describe your current emotional state?</p>
  </div>","92","html-slider-response","76","1163690","0.0-10.0-3.6","222","1","2025-07-09 09:32:01","7701e855f2ef39aa3fd6c71abdc6918a","165.165.245.202","Mozilla/5.0 (Windows NT 10.0; Win64; x64) AppleWebKit/537.36 (KHTML, like Gecko) Chrome/134.0.0.0 Safari/537.36 OPR/119.0.0.0","WebKit","Opera","119.0.0.0","Windows","10.0","https://app.prolific.com/","en-US,en;q=0.9","67e575f103799e89aacd209c","686d226cabeef709c732f8e1","686e356b6ee5f0bd0df3d14c","67e575f103799e89aacd209c","2025-07-09T09:51:31.641Z","","","","","","StressQ","","","","","","","","","","","","","","","","","","","","","","","","","","","","","","","","","","","","","","50",""
"6547","","<div style=""width:500px;"">
  <p>What best describes how you currently feel?</p>
  </div>","96","html-slider-response","77","1170244","0.0-10.0-4.6","222","1","2025-07-09 09:32:01","7701e855f2ef39aa3fd6c71abdc6918a","165.165.245.202","Mozilla/5.0 (Windows NT 10.0; Win64; x64) AppleWebKit/537.36 (KHTML, like Gecko) Chrome/134.0.0.0 Safari/537.36 OPR/119.0.0.0","WebKit","Opera","119.0.0.0","Windows","10.0","https://app.prolific.com/","en-US,en;q=0.9","67e575f103799e89aacd209c","686d226cabeef709c732f8e1","686e356b6ee5f0bd0df3d14c","67e575f103799e89aacd209c","2025-07-09T09:51:38.194Z","","","","","","MotivationQ","","","","","","","","","","","","","","","","","","","","","","","","","","","","","","","","","","","","","","50",""
"","","","","ctl-task-cpt","78","1222657","0.0-10.0-0.7","222","1","2025-07-09 09:32:01","7701e855f2ef39aa3fd6c71abdc6918a","165.165.245.202","Mozilla/5.0 (Windows NT 10.0; Win64; x64) AppleWebKit/537.36 (KHTML, like Gecko) Chrome/134.0.0.0 Safari/537.36 OPR/119.0.0.0","WebKit","Opera","119.0.0.0","Windows","10.0","https://app.prolific.com/","en-US,en;q=0.9","67e575f103799e89aacd209c","686d226cabeef709c732f8e1","686e356b6ee5f0bd0df3d14c","67e575f103799e89aacd209c","2025-07-09T09:52:30.607Z","","","","","","","","","","","","","","","","win-only","0","g1:NW,g2:SE","0.3","8","0","1178476.1","3642.9","8683","49343.2","1","4","4","6","2","4","4","4","0","0.030303030303030304","3690.8","3000","2185","[""down"",""right""]","{""num_key_presses"":8,""num_perfect"":3,""num_errors"":0,""num_randdir"":5,""num_randdir_good_moves"":4,""num_whilered"":0,""num_whileblue"":0,""num_blue"":1,""num_good_moves"":7}","[294.22232142857143,301.12857142857143,2.1,294.22232142857143,301.12857142857143,121.1,294.22232142857143,301.12857142857143,246.9,294.22232142857143,301.12857142857143,416.9,294.22232142857143,301.12857142857143,544.1,294.22232142857143,301.12857142857143,671.9,294.22232142857143,301.12857142857143,790,294.22232142857143,301.12857142857143,910.7,357.22232142857143,345.12857142857143,1042.2,468.22232142857143,491.12857142857143,1182.1,475.22232142857143,498.12857142857143,1313.4,480.22232142857143,518.1285714285714,1457.6,524.2223214285714,532.1285714285714,1602.8,533.2223214285714,532.1285714285714,1729.1,534.2223214285714,532.1285714285714,1849.4,534.2223214285714,532.1285714285714,1972.9,534.2223214285714,532.1285714285714,2097.7,534.2223214285714,532.1285714285714,2229.4,534.2223214285714,532.1285714285714,2346.2,534.2223214285714,532.1285714285714,2467.7,534.2223214285714,532.1285714285714,2595.7,534.2223214285714,532.1285714285714,2709.1,534.2223214285714,532.1285714285714,2835,534.2223214285714,532.1285714285714,2957.5,534.2223214285714,532.1285714285714,3082.5,534.2223214285714,532.1285714285714,3199.2,534.2223214285714,532.1285714285714,3326.6,534.2223214285714,532.1285714285714,3449.3,534.2223214285714,532.1285714285714,3571.2,534.2223214285714,532.1285714285714,3712.2,534.2223214285714,532.1285714285714,3841.8,534.2223214285714,532.1285714285714,3966.9,534.2223214285714,532.1285714285714,4099.1,534.2223214285714,532.1285714285714,4234.2,534.2223214285714,532.1285714285714,4363.5,534.2223214285714,532.1285714285714,4485.8,534.2223214285714,532.1285714285714,4617,534.2223214285714,532.1285714285714,4741.3,534.2223214285714,532.1285714285714,4870.6,534.2223214285714,532.1285714285714,4995.8]","[2431.3,2431.3,1000,0,1431.3,""oops"",""down"",""right"",""good_move"",6614.5,4179.8,2285,2434.7,1894.9,""smooth"",""down"",""down"",""good_move"",10394.6,3777.1,2871.1,6617.5,906,""oops"",""right"",""right"",""good_move"",17239.7,6842.8,2992.7,13647.6,599.8,""oops"",""down"",""left"",""bad_move"",27658.2,10415.4,2550.2,17242.8,7865.2,""smooth"",""down"",""down"",""good_move"",32117.1,4456.1,2588.5,27661.1,1867.5,""oops"",""right"",""right"",""good_move"",35469.7,3349.8,1812,32119.9,1537.8,""oops"",""right"",""down"",""good_move"",38946.5,3473.1,2720.7,35473.4,752.4,""smooth"",""right"",""right"",""good_move""]","","",""
"14042","","<div style=""width:500px;"">
  <p>What determined the result of this run?</p>
  </div>","80","html-slider-response","79","1236706","0.0-10.0-1.7","222","1","2025-07-09 09:32:01","7701e855f2ef39aa3fd6c71abdc6918a","165.165.245.202","Mozilla/5.0 (Windows NT 10.0; Win64; x64) AppleWebKit/537.36 (KHTML, like Gecko) Chrome/134.0.0.0 Safari/537.36 OPR/119.0.0.0","WebKit","Opera","119.0.0.0","Windows","10.0","https://app.prolific.com/","en-US,en;q=0.9","67e575f103799e89aacd209c","686d226cabeef709c732f8e1","686e356b6ee5f0bd0df3d14c","67e575f103799e89aacd209c","2025-07-09T09:52:44.656Z","","","","","","AttribQ","","","","","","","","","","","","","","","","","","","","","","","","","","","","","","","","","","","","","","50",""
"12853","","<div style=""width:500px;"">
  <p>How much control did you have over the ball?</p>
  </div>","82","html-slider-response","80","1249567","0.0-10.0-2.7","222","1","2025-07-09 09:32:01","7701e855f2ef39aa3fd6c71abdc6918a","165.165.245.202","Mozilla/5.0 (Windows NT 10.0; Win64; x64) AppleWebKit/537.36 (KHTML, like Gecko) Chrome/134.0.0.0 Safari/537.36 OPR/119.0.0.0","WebKit","Opera","119.0.0.0","Windows","10.0","https://app.prolific.com/","en-US,en;q=0.9","67e575f103799e89aacd209c","686d226cabeef709c732f8e1","686e356b6ee5f0bd0df3d14c","67e575f103799e89aacd209c","2025-07-09T09:52:57.518Z","","","","","","ControlQ","","","","","","","","","","","","","","","","","","","","","","","","","","","","","","","","","","","","","","50",""
"8215","","<div style=""width:500px;"">
  <p>How would you describe your current emotional state?</p>
  </div>","14","html-slider-response","81","1257791","0.0-10.0-3.7","222","1","2025-07-09 09:32:01","7701e855f2ef39aa3fd6c71abdc6918a","165.165.245.202","Mozilla/5.0 (Windows NT 10.0; Win64; x64) AppleWebKit/537.36 (KHTML, like Gecko) Chrome/134.0.0.0 Safari/537.36 OPR/119.0.0.0","WebKit","Opera","119.0.0.0","Windows","10.0","https://app.prolific.com/","en-US,en;q=0.9","67e575f103799e89aacd209c","686d226cabeef709c732f8e1","686e356b6ee5f0bd0df3d14c","67e575f103799e89aacd209c","2025-07-09T09:53:05.741Z","","","","","","StressQ","","","","","","","","","","","","","","","","","","","","","","","","","","","","","","","","","","","","","","50",""
"8596","","<div style=""width:500px;"">
  <p>What best describes how you currently feel?</p>
  </div>","98","html-slider-response","82","1266395","0.0-10.0-4.7","222","1","2025-07-09 09:32:01","7701e855f2ef39aa3fd6c71abdc6918a","165.165.245.202","Mozilla/5.0 (Windows NT 10.0; Win64; x64) AppleWebKit/537.36 (KHTML, like Gecko) Chrome/134.0.0.0 Safari/537.36 OPR/119.0.0.0","WebKit","Opera","119.0.0.0","Windows","10.0","https://app.prolific.com/","en-US,en;q=0.9","67e575f103799e89aacd209c","686d226cabeef709c732f8e1","686e356b6ee5f0bd0df3d14c","67e575f103799e89aacd209c","2025-07-09T09:53:14.345Z","","","","","","MotivationQ","","","","","","","","","","","","","","","","","","","","","","","","","","","","","","","","","","","","","","50",""
"","","","","ctl-task-cpt","83","1485127","0.0-10.0-0.8","222","1","2025-07-09 09:32:01","7701e855f2ef39aa3fd6c71abdc6918a","165.165.245.202","Mozilla/5.0 (Windows NT 10.0; Win64; x64) AppleWebKit/537.36 (KHTML, like Gecko) Chrome/134.0.0.0 Safari/537.36 OPR/119.0.0.0","WebKit","Opera","119.0.0.0","Windows","10.0","https://app.prolific.com/","en-US,en;q=0.9","67e575f103799e89aacd209c","686d226cabeef709c732f8e1","686e356b6ee5f0bd0df3d14c","67e575f103799e89aacd209c","2025-07-09T09:56:53.077Z","","","","","","","","","","","","","","","","win-only","3","g1:SW,g2:NE","0.2","9","0","1274629.5","3406.9","8465.6","215691.8","1","4","4","6","1","-1","-4","0","4","0","1878.1","3000","-660","[""down"",""left""]","{""num_key_presses"":30,""num_perfect"":6,""num_errors"":3,""num_randdir"":21,""num_randdir_good_moves"":9,""num_whilered"":0,""num_whileblue"":3,""num_blue"":6,""num_good_moves"":16}","[300.22232142857143,299.12857142857143,0.9,300.22232142857143,299.12857142857143,140,300.22232142857143,299.12857142857143,305.3,300.22232142857143,299.12857142857143,459.2,87.22232142857143,479.12857142857143,627.1,87.22232142857143,479.12857142857143,787.8,13.222321428571426,600.1285714285714,970.4,12.222321428571426,602.1285714285714,1132.1,34.222321428571426,561.1285714285714,1237.2,44.222321428571426,544.1285714285714,1409.4,44.222321428571426,544.1285714285714,1564.7,44.222321428571426,544.1285714285714,1719.1,44.222321428571426,544.1285714285714,1869.5,44.222321428571426,544.1285714285714,2028.1,44.222321428571426,544.1285714285714,2188.2,44.222321428571426,544.1285714285714,2338.6,44.222321428571426,544.1285714285714,2492.1,44.222321428571426,544.1285714285714,2640.1,44.222321428571426,544.1285714285714,2792.8,44.222321428571426,544.1285714285714,2943.4,44.222321428571426,544.1285714285714,3098,44.222321428571426,544.1285714285714,3250.7,44.222321428571426,544.1285714285714,3408.1,44.222321428571426,544.1285714285714,3558.2,44.222321428571426,544.1285714285714,3710.1,44.222321428571426,544.1285714285714,3866.1,44.222321428571426,544.1285714285714,4010.9,44.222321428571426,544.1285714285714,4155.7,44.222321428571426,544.1285714285714,4315.6,44.222321428571426,544.1285714285714,4472.9,44.222321428571426,544.1285714285714,4621.5,44.222321428571426,544.1285714285714,4767,44.222321428571426,544.1285714285714,4914.5]","[1553.6,1553.6,1000,0,553.6,""oops"",""down"",""left"",""good_move"",15164.6,13608.6,3053.8,1556,10554.8,""oops"",""down"",""left"",""good_move"",32702.6,17535.8,2702.6,15166.9,14833.1,""oops"",""down"",""up"",""bad_move"",51584.4,18878.5,18379.9,32705.9,499.2,""while_blue"",""right"",""right"",""bad_move"",55583.9,3996.8,2561,51587.1,1435.9,""oops"",""down"",""right"",""bad_move"",58608.6,3022.3,2011.3,55586.4,1010.9,""smooth"",""down"",""down"",""good_move"",62658.7,4047.2,3048.6,58611.5,998.6,""smooth"",""down"",""down"",""good_move"",65797.9,3136.8,2716.5,62661.2,420.2,""oops"",""down"",""right"",""bad_move"",68238.6,2438.9,1808.4,65799.8,630.4,""while_blue"",""down"",""down"",""good_move"",72091.1,3851.3,3100.1,68239.9,751.1,""oops"",""left"",""right"",""bad_move"",75927.2,3835,3050.3,72092.2,784.7,""oops"",""left"",""right"",""bad_move"",79080.6,3152.1,2419.3,75928.5,732.8,""oops"",""left"",""up"",""bad_move"",84008.4,4924.9,2975.9,79083.5,1949,""smooth"",""right"",""down"",""good_move"",87767.1,3757.2,2728.5,84010,1028.6,""smooth"",""left"",""left"",""good_move"",94876.7,7106.7,2297.4,87770,4809.3,""oops"",""left"",""up"",""bad_move"",102240.1,7360.7,1915.8,94879.4,5444.9,""oops"",""down"",""left"",""good_move"",109971,7727.2,2215.8,102243.8,5511.4,""oops"",""down"",""left"",""good_move"",118172,8198.3,2968,109973.7,5230.3,""oops"",""down"",""up"",""bad_move"",128463.6,10287.9,2611.7,118175.7,7676.2,""oops"",""left"",""up"",""bad_move"",139586.6,11120.7,2604.1,128466,8516.5,""oops"",""down"",""up"",""bad_move"",155464.8,15875.6,2167.7,151500.6,1796.5,""oops"",""left"",""up"",""bad_move"",167312.1,11845.1,2771.5,155467.4,9073.9,""oops"",""down"",""down"",""good_move"",171300.6,3986.2,3087.7,167314.5,898.5,""oops"",""down"",""right"",""bad_move"",178122.2,6819.7,2078.6,175339,704.6,""oops"",""right"",""down"",""good_move"",180804.5,2680.5,2031.1,178124.1,649.3,""oops"",""right"",""left"",""good_move"",185641.3,4827.9,4446.5,180813.4,381.4,""while_blue"",""right"",""left"",""good_move"",190581.1,4936.8,2158.6,185644.3,2778.2,""oops"",""right"",""left"",""good_move"",194487.9,3905.6,2237.2,190582.4,1668.3,""oops"",""right"",""down"",""good_move"",197671.6,3180.2,2734.3,194491.4,445.9,""smooth"",""right"",""right"",""bad_move"",204553.7,6880.3,2218.5,201690.8,644.4,""smooth"",""down"",""down"",""good_move""]","","",""
"12003","","<div style=""width:500px;"">
  <p>What determined the result of this run?</p>
  </div>","70","html-slider-response","84","1497135","0.0-10.0-1.8","222","1","2025-07-09 09:32:01","7701e855f2ef39aa3fd6c71abdc6918a","165.165.245.202","Mozilla/5.0 (Windows NT 10.0; Win64; x64) AppleWebKit/537.36 (KHTML, like Gecko) Chrome/134.0.0.0 Safari/537.36 OPR/119.0.0.0","WebKit","Opera","119.0.0.0","Windows","10.0","https://app.prolific.com/","en-US,en;q=0.9","67e575f103799e89aacd209c","686d226cabeef709c732f8e1","686e356b6ee5f0bd0df3d14c","67e575f103799e89aacd209c","2025-07-09T09:57:05.086Z","","","","","","AttribQ","","","","","","","","","","","","","","","","","","","","","","","","","","","","","","","","","","","","","","50",""
"4824","","<div style=""width:500px;"">
  <p>How much control did you have over the ball?</p>
  </div>","100","html-slider-response","85","1501971","0.0-10.0-2.8","222","1","2025-07-09 09:32:01","7701e855f2ef39aa3fd6c71abdc6918a","165.165.245.202","Mozilla/5.0 (Windows NT 10.0; Win64; x64) AppleWebKit/537.36 (KHTML, like Gecko) Chrome/134.0.0.0 Safari/537.36 OPR/119.0.0.0","WebKit","Opera","119.0.0.0","Windows","10.0","https://app.prolific.com/","en-US,en;q=0.9","67e575f103799e89aacd209c","686d226cabeef709c732f8e1","686e356b6ee5f0bd0df3d14c","67e575f103799e89aacd209c","2025-07-09T09:57:09.921Z","","","","","","ControlQ","","","","","","","","","","","","","","","","","","","","","","","","","","","","","","","","","","","","","","50",""
"8682","","<div style=""width:500px;"">
  <p>How would you describe your current emotional state?</p>
  </div>","2","html-slider-response","86","1510661","0.0-10.0-3.8","222","1","2025-07-09 09:32:01","7701e855f2ef39aa3fd6c71abdc6918a","165.165.245.202","Mozilla/5.0 (Windows NT 10.0; Win64; x64) AppleWebKit/537.36 (KHTML, like Gecko) Chrome/134.0.0.0 Safari/537.36 OPR/119.0.0.0","WebKit","Opera","119.0.0.0","Windows","10.0","https://app.prolific.com/","en-US,en;q=0.9","67e575f103799e89aacd209c","686d226cabeef709c732f8e1","686e356b6ee5f0bd0df3d14c","67e575f103799e89aacd209c","2025-07-09T09:57:18.612Z","","","","","","StressQ","","","","","","","","","","","","","","","","","","","","","","","","","","","","","","","","","","","","","","50",""
"9009","","<div style=""width:500px;"">
  <p>What best describes how you currently feel?</p>
  </div>","99","html-slider-response","87","1519675","0.0-10.0-4.8","222","1","2025-07-09 09:32:01","7701e855f2ef39aa3fd6c71abdc6918a","165.165.245.202","Mozilla/5.0 (Windows NT 10.0; Win64; x64) AppleWebKit/537.36 (KHTML, like Gecko) Chrome/134.0.0.0 Safari/537.36 OPR/119.0.0.0","WebKit","Opera","119.0.0.0","Windows","10.0","https://app.prolific.com/","en-US,en;q=0.9","67e575f103799e89aacd209c","686d226cabeef709c732f8e1","686e356b6ee5f0bd0df3d14c","67e575f103799e89aacd209c","2025-07-09T09:57:27.626Z","","","","","","MotivationQ","","","","","","","","","","","","","","","","","","","","","","","","","","","","","","","","","","","","","","50",""
