"rt","response_timestamp","stimulus","response","trial_type","trial_index","time_elapsed","internal_node_id","run_id","condition","recorded_at","source_code_version","ip","user_agent","device","browser","browser_version","platform","platform_version","referer","accept_language","PROLIFIC_PID","STUDY_ID","SESSION_ID","prolific_id","realtime","view_history","question_order","consent","success","question_id","eventType","responses","item_order","radio_event_ids","radio_event_times","key_event_times","mouse_event_times","straightlining","zigzagging","honeypot","which_type","canvas_config","goals_layout","control_level","trial_number","tutorial_trial_number","trial_start_time","phase1_start_time","phase2_start_time","phase3_start_time","goal_1_value","goal_1_distance","goal_2_value","goal_2_distance","goal_selected","outcome","outcome_total","participant_final_score","participant_initial_score","participant_final_score_prop","goal_choice_rt","allocated_time","allocated_time_remaining","goal_direction","counts","mouse_movements","key_presses","correct","slider_start","sub_question"
"4692","1752052896347","<p style='font-size:40px;line-height:1.25'><strong>Welcome to the experiment!</strong></p><p style='font-size:1.1em;line-height:1.25'>Thank you for your interest in our experiment! Before you begin, it is important that we obtain your informed consent to participate in the study.</p><p style='font-size:1.1em;line-height:1.25'>On the next screen will be an <strong>information sheet</strong> for you to read. To participate in the study we need you to read this information sheet and the following consent form carefully. If you agree with all the statements, please click the <strong>I agree</strong> button.</p><p style='font-size:1.1em;line-height:1.25'>Press <strong>Next</strong> to read the information sheet.</p>","0","custom-html-button-response","0","4694","0.0-0.0","209","1","2025-07-09 09:21:25","7701e855f2ef39aa3fd6c71abdc6918a","105.245.4.17","Mozilla/5.0 (Windows NT 10.0; Win64; x64) AppleWebKit/537.36 (KHTML, like Gecko) Chrome/138.0.0.0 Safari/537.36","WebKit","Chrome","138.0.0.0","Windows","10.0","https://app.prolific.com/","en-GB,en-US;q=0.9,en;q=0.8","67d04d58fc4188d981d914f0","686d226cabeef709c732f8e1","686e31470e6ceb1995ece526","67d04d58fc4188d981d914f0","2025-07-09T09:21:36.348Z","","","","","","","","","","","","","","","","","","","","","","","","","","","","","","","","","","","","","","","","","","","","",""
"16898","","","","instructions","1","21593","0.0-1.0","209","1","2025-07-09 09:21:25","7701e855f2ef39aa3fd6c71abdc6918a","105.245.4.17","Mozilla/5.0 (Windows NT 10.0; Win64; x64) AppleWebKit/537.36 (KHTML, like Gecko) Chrome/138.0.0.0 Safari/537.36","WebKit","Chrome","138.0.0.0","Windows","10.0","https://app.prolific.com/","en-GB,en-US;q=0.9,en;q=0.8","67d04d58fc4188d981d914f0","686d226cabeef709c732f8e1","686e31470e6ceb1995ece526","67d04d58fc4188d981d914f0","","[{""page_index"":0,""viewing_time"":8427},{""page_index"":1,""viewing_time"":8471}]","","","","","","","","","","","","","","","","","","","","","","","","","","","","","","","","","","","","","","","","","","","",""
"9912","","","{""Q0"":"""",""Q1"":"""",""Q2"":"""",""Q3"":"""",""Q4"":"""",""Q5"":"""",""Q6"":""I agree""}","survey-multi-choice","2","31507","0.0-2.0","209","1","2025-07-09 09:21:25","7701e855f2ef39aa3fd6c71abdc6918a","105.245.4.17","Mozilla/5.0 (Windows NT 10.0; Win64; x64) AppleWebKit/537.36 (KHTML, like Gecko) Chrome/138.0.0.0 Safari/537.36","WebKit","Chrome","138.0.0.0","Windows","10.0","https://app.prolific.com/","en-GB,en-US;q=0.9,en;q=0.8","67d04d58fc4188d981d914f0","686d226cabeef709c732f8e1","686e31470e6ceb1995ece526","67d04d58fc4188d981d914f0","","","[0,1,2,3,4,5,6]","true","","","","","","","","","","","","","","","","","","","","","","","","","","","","","","","","","","","","","","","","","",""
"510707","","","","fullscreen","3","543235","0.0-4.0","209","1","2025-07-09 09:21:25","7701e855f2ef39aa3fd6c71abdc6918a","105.245.4.17","Mozilla/5.0 (Windows NT 10.0; Win64; x64) AppleWebKit/537.36 (KHTML, like Gecko) Chrome/138.0.0.0 Safari/537.36","WebKit","Chrome","138.0.0.0","Windows","10.0","https://app.prolific.com/","en-GB,en-US;q=0.9,en;q=0.8","67d04d58fc4188d981d914f0","686d226cabeef709c732f8e1","686e31470e6ceb1995ece526","67d04d58fc4188d981d914f0","","","","","true","","","","","","","","","","","","","","","","","","","","","","","","","","","","","","","","","","","","","","","","",""
"7856","1752053442746"," <p style='font-size:1.1em;line-height:1.25'>Thank you for completing the consent form and closing all other tabs.</p><p style='font-size:1.1em;line-height:1.25'>We will now invite you to fill in some demographic information and questionnaires, before starting the game.<br>This will take about 5 minutes.<br></p><p style='font-size:1.1em;line-height:1.25'>Press the <strong>Next</strong> button to continue.</p>","0","custom-html-button-response","4","551093","0.0-5.0","209","1","2025-07-09 09:21:25","7701e855f2ef39aa3fd6c71abdc6918a","105.245.4.17","Mozilla/5.0 (Windows NT 10.0; Win64; x64) AppleWebKit/537.36 (KHTML, like Gecko) Chrome/138.0.0.0 Safari/537.36","WebKit","Chrome","138.0.0.0","Windows","10.0","https://app.prolific.com/","en-GB,en-US;q=0.9,en;q=0.8","67d04d58fc4188d981d914f0","686d226cabeef709c732f8e1","686e31470e6ceb1995ece526","67d04d58fc4188d981d914f0","2025-07-09T09:30:42.754Z","","","","","","","","","","","","","","","","","","","","","","","","","","","","","","","","","","","","","","","","","","","","",""
"5213","","","{""age"":""32""}","survey-text","5","556317","0.0-6.0-0.0","209","1","2025-07-09 09:21:25","7701e855f2ef39aa3fd6c71abdc6918a","105.245.4.17","Mozilla/5.0 (Windows NT 10.0; Win64; x64) AppleWebKit/537.36 (KHTML, like Gecko) Chrome/138.0.0.0 Safari/537.36","WebKit","Chrome","138.0.0.0","Windows","10.0","https://app.prolific.com/","en-GB,en-US;q=0.9,en;q=0.8","67d04d58fc4188d981d914f0","686d226cabeef709c732f8e1","686e31470e6ceb1995ece526","67d04d58fc4188d981d914f0","","","","","","0","demographics","","","","","","","","","","","","","","","","","","","","","","","","","","","","","","","","","","","","","","",""
"6488","","","{""gender_identity"":""nonbinary""}","survey-multi-choice","6","562806","0.0-6.0-1.0","209","1","2025-07-09 09:21:25","7701e855f2ef39aa3fd6c71abdc6918a","105.245.4.17","Mozilla/5.0 (Windows NT 10.0; Win64; x64) AppleWebKit/537.36 (KHTML, like Gecko) Chrome/138.0.0.0 Safari/537.36","WebKit","Chrome","138.0.0.0","Windows","10.0","https://app.prolific.com/","en-GB,en-US;q=0.9,en;q=0.8","67d04d58fc4188d981d914f0","686d226cabeef709c732f8e1","686e31470e6ceb1995ece526","67d04d58fc4188d981d914f0","","","[0]","","","1","demographics","","","","","","","","","","","","","","","","","","","","","","","","","","","","","","","","","","","","","","",""
"3370","","","{""assigned_sex"":""female""}","survey-multi-choice","7","566177","0.0-6.0-2.0","209","1","2025-07-09 09:21:25","7701e855f2ef39aa3fd6c71abdc6918a","105.245.4.17","Mozilla/5.0 (Windows NT 10.0; Win64; x64) AppleWebKit/537.36 (KHTML, like Gecko) Chrome/138.0.0.0 Safari/537.36","WebKit","Chrome","138.0.0.0","Windows","10.0","https://app.prolific.com/","en-GB,en-US;q=0.9,en;q=0.8","67d04d58fc4188d981d914f0","686d226cabeef709c732f8e1","686e31470e6ceb1995ece526","67d04d58fc4188d981d914f0","","","[0]","","","2","demographics","","","","","","","","","","","","","","","","","","","","","","","","","","","","","","","","","","","","","","",""
"4573","","","{""menstrual_cycle"":""Yes""}","survey-multi-choice","8","570751","0.0-6.0-3.0","209","1","2025-07-09 09:21:25","7701e855f2ef39aa3fd6c71abdc6918a","105.245.4.17","Mozilla/5.0 (Windows NT 10.0; Win64; x64) AppleWebKit/537.36 (KHTML, like Gecko) Chrome/138.0.0.0 Safari/537.36","WebKit","Chrome","138.0.0.0","Windows","10.0","https://app.prolific.com/","en-GB,en-US;q=0.9,en;q=0.8","67d04d58fc4188d981d914f0","686d226cabeef709c732f8e1","686e31470e6ceb1995ece526","67d04d58fc4188d981d914f0","","","[0]","","","4","demographics","","","","","","","","","","","","","","","","","","","","","","","","","","","","","","","","","","","","","","",""
"3737","","","{""education"":""Master's Degree (e.g., MSc)""}","survey-multi-choice","9","574488","0.0-6.0-4.0","209","1","2025-07-09 09:21:25","7701e855f2ef39aa3fd6c71abdc6918a","105.245.4.17","Mozilla/5.0 (Windows NT 10.0; Win64; x64) AppleWebKit/537.36 (KHTML, like Gecko) Chrome/138.0.0.0 Safari/537.36","WebKit","Chrome","138.0.0.0","Windows","10.0","https://app.prolific.com/","en-GB,en-US;q=0.9,en;q=0.8","67d04d58fc4188d981d914f0","686d226cabeef709c732f8e1","686e31470e6ceb1995ece526","67d04d58fc4188d981d914f0","","","[0]","","","5","demographics","","","","","","","","","","","","","","","","","","","","","","","","","","","","","","","","","","","","","","",""
"7973","","","{""education"":""Master's Degree (e.g., MSc)""}","survey-multi-choice","10","582462","0.0-6.0-5.0","209","1","2025-07-09 09:21:25","7701e855f2ef39aa3fd6c71abdc6918a","105.245.4.17","Mozilla/5.0 (Windows NT 10.0; Win64; x64) AppleWebKit/537.36 (KHTML, like Gecko) Chrome/138.0.0.0 Safari/537.36","WebKit","Chrome","138.0.0.0","Windows","10.0","https://app.prolific.com/","en-GB,en-US;q=0.9,en;q=0.8","67d04d58fc4188d981d914f0","686d226cabeef709c732f8e1","686e31470e6ceb1995ece526","67d04d58fc4188d981d914f0","2025-07-09T09:31:14.116Z","","[0]","","","6","demographics","","","","","","","","","","","","","","","","","","","","","","","","","","","","","","","","","","","","","","",""
"3745154","","","{""mental_health_condition"":""yes  "",""mental_health_treatment"":""yes"",""psychiatric_medication"":""yes""}","survey-text","11","4327617","0.0-7.0-0.0","209","1","2025-07-09 09:21:25","7701e855f2ef39aa3fd6c71abdc6918a","105.245.4.17","Mozilla/5.0 (Windows NT 10.0; Win64; x64) AppleWebKit/537.36 (KHTML, like Gecko) Chrome/138.0.0.0 Safari/537.36","WebKit","Chrome","138.0.0.0","Windows","10.0","https://app.prolific.com/","en-GB,en-US;q=0.9,en;q=0.8","67d04d58fc4188d981d914f0","686d226cabeef709c732f8e1","686e31470e6ceb1995ece526","67d04d58fc4188d981d914f0","2025-07-09T10:33:39.272Z","","","","","1","mental_health","","","","","","","","","","","","","","","","","","","","","","","","","","","","","","","","","","","","","","",""
"4768","","","{""depression_history"":[""Yes""]}","survey-multi-select","12","4332396","0.0-7.0-1.0","209","1","2025-07-09 09:21:25","7701e855f2ef39aa3fd6c71abdc6918a","105.245.4.17","Mozilla/5.0 (Windows NT 10.0; Win64; x64) AppleWebKit/537.36 (KHTML, like Gecko) Chrome/138.0.0.0 Safari/537.36","WebKit","Chrome","138.0.0.0","Windows","10.0","https://app.prolific.com/","en-GB,en-US;q=0.9,en;q=0.8","67d04d58fc4188d981d914f0","686d226cabeef709c732f8e1","686e31470e6ceb1995ece526","67d04d58fc4188d981d914f0","","","[0]","","","","mental_health","","","","","","","","","","","","","","","","","","","","","","","","","","","","","","","","","","","","","","",""
"5680","","","{""depression_episodes"":""more than 5"",""depression_recent"":""Currently experiencing an episode""}","survey-multi-choice","13","4338078","0.0-7.0-2.0-0.0","209","1","2025-07-09 09:21:25","7701e855f2ef39aa3fd6c71abdc6918a","105.245.4.17","Mozilla/5.0 (Windows NT 10.0; Win64; x64) AppleWebKit/537.36 (KHTML, like Gecko) Chrome/138.0.0.0 Safari/537.36","WebKit","Chrome","138.0.0.0","Windows","10.0","https://app.prolific.com/","en-GB,en-US;q=0.9,en;q=0.8","67d04d58fc4188d981d914f0","686d226cabeef709c732f8e1","686e31470e6ceb1995ece526","67d04d58fc4188d981d914f0","2025-07-09T10:33:49.732Z","","[0,1]","","","3","mental_health","","","","","","","","","","","","","","","","","","","","","","","","","","","","","","","","","","","","","","",""
"42480","","","","survey-template","14","4380569","0.0-7.0-3.0","209","1","2025-07-09 09:21:25","7701e855f2ef39aa3fd6c71abdc6918a","105.245.4.17","Mozilla/5.0 (Windows NT 10.0; Win64; x64) AppleWebKit/537.36 (KHTML, like Gecko) Chrome/138.0.0.0 Safari/537.36","WebKit","Chrome","138.0.0.0","Windows","10.0","https://app.prolific.com/","en-GB,en-US;q=0.9,en;q=0.8","67d04d58fc4188d981d914f0","686d226cabeef709c732f8e1","686e31470e6ceb1995ece526","67d04d58fc4188d981d914f0","2025-07-09T10:34:32.223Z","","","","","","ius","{""Q01"":""3"",""Q02"":""4"",""Q03"":""3"",""Q04"":""2"",""Q05"":""1"",""Q06"":""2"",""Q07"":""3"",""Q08"":""0"",""Q09"":""3"",""Q10"":""2"",""Q11"":""3"",""Q12"":""2"",""Q13"":""2""}","[0,1,2,3,4,5,6,7,8,9,10,11,12]","[""Q01"",""Q02"",""Q03"",""Q04"",""Q05"",""Q06"",""Q07"",""Q08"",""Q09"",""Q10"",""Q11"",""Q12"",""Q13""]","[4071.2999999998137,7235.399999999441,8602.899999999441,10222.199999999255,15043.799999999814,17115.799999999814,19525.599999999627,26039.699999999255,30070.099999999627,32671.299999999814,34742.59999999963,36275.09999999963,40833.59999999963]","[]","[2350.899999999441,4071.2999999998137,5691.199999999255,7235.399999999441,8602.899999999441,10222.199999999255,13675.299999999814,15043.799999999814,17115.799999999814,19525.599999999627,26039.699999999255,30070.099999999627,31326,32671.299999999814,34742.59999999963,36275.09999999963,40833.59999999963,42478.199999999255]","0.38461538461538464","0.75","0","","","","","","","","","","","","","","","","","","","","","","","","","","","","","",""
"9163","1752057281386","<p style='font-size:1.1em;line-height:1.25'>In the following, we will ask you a few questions relating to your experiences over the past month.<br></p><p style='font-size:1.1em;line-height:1.25'>Press the <strong>Next</strong> button to continue.</p>","0","custom-html-button-response","15","4389732","0.0-7.0-4.0","209","1","2025-07-09 09:21:25","7701e855f2ef39aa3fd6c71abdc6918a","105.245.4.17","Mozilla/5.0 (Windows NT 10.0; Win64; x64) AppleWebKit/537.36 (KHTML, like Gecko) Chrome/138.0.0.0 Safari/537.36","WebKit","Chrome","138.0.0.0","Windows","10.0","https://app.prolific.com/","en-GB,en-US;q=0.9,en;q=0.8","67d04d58fc4188d981d914f0","686d226cabeef709c732f8e1","686e31470e6ceb1995ece526","67d04d58fc4188d981d914f0","2025-07-09T10:34:41.386Z","","","","","","","","","","","","","","","","","","","","","","","","","","","","","","","","","","","","","","","","","","","","",""
"24827","","","","survey-template","16","4414568","0.0-7.0-5.0","209","1","2025-07-09 09:21:25","7701e855f2ef39aa3fd6c71abdc6918a","105.245.4.17","Mozilla/5.0 (Windows NT 10.0; Win64; x64) AppleWebKit/537.36 (KHTML, like Gecko) Chrome/138.0.0.0 Safari/537.36","WebKit","Chrome","138.0.0.0","Windows","10.0","https://app.prolific.com/","en-GB,en-US;q=0.9,en;q=0.8","67d04d58fc4188d981d914f0","686d226cabeef709c732f8e1","686e31470e6ceb1995ece526","67d04d58fc4188d981d914f0","2025-07-09T10:35:06.222Z","","","","","","pss","{""Q01"":""3"",""Q02"":""4"",""Q03"":""3"",""Q04"":""2"",""Q05"":""1"",""Q06"":""2"",""Q07"":""1"",""Q08"":""2"",""Q09"":""4"",""Q10"":""3""}","[0,1,2,3,4,5,6,7,8,9]","[""Q01"",""Q02"",""Q03"",""Q04"",""Q05"",""Q06"",""Q07"",""Q08"",""Q09"",""Q10""]","[3569.7000000001863,4774.600000000559,7474.800000000745,8730.900000000373,10501,14341.400000000373,15710.300000000745,16915.60000000056,20055.800000000745,23357]","[]","[0.10000000055879354,2151,3569.7000000001863,4774.600000000559,6306.700000000186,7474.800000000745,8730.900000000373,10501,14341.400000000373,15710.300000000745,16915.60000000056,18648.800000000745,20055.800000000745,23357,24825.60000000056]","0.5","0.8888888888888888","0","","","","","","","","","","","","","","","","","","","","","","","","","","","","","",""
"28380","1752057334602","<p style='font-size:1.1em;line-height:1.25'>Thank you for your answers! Now we will ask you a few more questions relating to your feelings in the last 24 hours.<br></p><p style='font-size:1.1em;line-height:1.25'>Press the <strong>Next</strong> button to continue.</p>","0","custom-html-button-response","17","4442948","0.0-7.0-6.0","209","1","2025-07-09 09:21:25","7701e855f2ef39aa3fd6c71abdc6918a","105.245.4.17","Mozilla/5.0 (Windows NT 10.0; Win64; x64) AppleWebKit/537.36 (KHTML, like Gecko) Chrome/138.0.0.0 Safari/537.36","WebKit","Chrome","138.0.0.0","Windows","10.0","https://app.prolific.com/","en-GB,en-US;q=0.9,en;q=0.8","67d04d58fc4188d981d914f0","686d226cabeef709c732f8e1","686e31470e6ceb1995ece526","67d04d58fc4188d981d914f0","2025-07-09T10:35:34.603Z","","","","","","","","","","","","","","","","","","","","","","","","","","","","","","","","","","","","","","","","","","","","",""
"57604.5","","","","survey-template","18","4500556","0.0-7.0-7.0","209","1","2025-07-09 09:21:25","7701e855f2ef39aa3fd6c71abdc6918a","105.245.4.17","Mozilla/5.0 (Windows NT 10.0; Win64; x64) AppleWebKit/537.36 (KHTML, like Gecko) Chrome/138.0.0.0 Safari/537.36","WebKit","Chrome","138.0.0.0","Windows","10.0","https://app.prolific.com/","en-GB,en-US;q=0.9,en;q=0.8","67d04d58fc4188d981d914f0","686d226cabeef709c732f8e1","686e31470e6ceb1995ece526","67d04d58fc4188d981d914f0","2025-07-09T10:36:32.210Z","","","","","","drsp","{""Q01"":""5"",""Q02"":""4"",""Q03"":""3"",""Q04"":""2"",""Q05"":""1"",""Q06"":""0"",""Q07"":""1"",""Q08"":""2"",""Q09"":""3"",""Q10"":""4"",""Q11"":""5"",""Q12"":""5"",""Q13"":""4"",""Q14"":""2"",""Q15"":""1"",""Q16"":""2"",""Q17"":""4"",""Q18"":""3"",""Q19"":""3"",""Q20"":""5"",""Q21"":""0""}","[0,1,2,3,4,5,6,7,8,9,10,11,12,13,14,15,16,17,18,19,20]","[""Q01"",""Q02"",""Q03"",""Q04"",""Q05"",""Q06"",""Q07"",""Q08"",""Q09"",""Q10"",""Q11"",""Q12"",""Q13"",""Q14"",""Q15"",""Q16"",""Q17"",""Q18"",""Q19"",""Q20"",""Q21""]","[3838.800000000745,5244.600000000559,6550.200000000186,7868,9374.5,10792.900000000373,16115.900000000373,19039.60000000056,20658.5,22064.300000000745,25352.400000000373,30722.300000000745,32128.200000000186,34199.90000000037,35919.90000000037,38079.60000000056,45122,46654.800000000745,47984.700000000186,51109.5,53295.5]","[]","[0,2207.4000000003725,3838.800000000745,5244.600000000559,6550.200000000186,7868,9374.5,10792.900000000373,16115.900000000373,17671.400000000373,19039.60000000056,20658.5,22064.300000000745,23658.5,25352.400000000373,29543,30722.300000000745,32128.200000000186,34199.90000000037,35919.90000000037,38079.60000000056,45122,46654.800000000745,47984.700000000186,49729.60000000056,51109.5,53295.5,57601.40000000037]","0.19047619047619047","0.75","0","","","","","","","","","","","","","","","","","","","","","","","","","","","","","",""
"10114.700000000186","","","","survey-template","19","4510672","0.0-7.0-8.0","209","1","2025-07-09 09:21:25","7701e855f2ef39aa3fd6c71abdc6918a","105.245.4.17","Mozilla/5.0 (Windows NT 10.0; Win64; x64) AppleWebKit/537.36 (KHTML, like Gecko) Chrome/138.0.0.0 Safari/537.36","WebKit","Chrome","138.0.0.0","Windows","10.0","https://app.prolific.com/","en-GB,en-US;q=0.9,en;q=0.8","67d04d58fc4188d981d914f0","686d226cabeef709c732f8e1","686e31470e6ceb1995ece526","67d04d58fc4188d981d914f0","2025-07-09T10:36:42.326Z","","","","","","stress","{""Q01"":""4"",""Q02"":""0"",""Q03"":""4""}","[0,1,2]","[""Q01"",""Q02"",""Q03""]","[3673.399999999441,6385.399999999441,8004.5]","[]","[2505.7000000001863,3673.399999999441,6385.399999999441,8004.5,10114]","0.6666666666666666","1","0","","","","","","","","","","","","","","","","","","","","","","","","","","","","","",""
"18727","","","","instructions","20","4529407","0.0-8.0-0.0","209","1","2025-07-09 09:21:25","7701e855f2ef39aa3fd6c71abdc6918a","105.245.4.17","Mozilla/5.0 (Windows NT 10.0; Win64; x64) AppleWebKit/537.36 (KHTML, like Gecko) Chrome/138.0.0.0 Safari/537.36","WebKit","Chrome","138.0.0.0","Windows","10.0","https://app.prolific.com/","en-GB,en-US;q=0.9,en;q=0.8","67d04d58fc4188d981d914f0","686d226cabeef709c732f8e1","686e31470e6ceb1995ece526","67d04d58fc4188d981d914f0","","[{""page_index"":0,""viewing_time"":11304},{""page_index"":1,""viewing_time"":3215},{""page_index"":2,""viewing_time"":2248},{""page_index"":3,""viewing_time"":1959}]","","","","","","","","","","","","","","","","","","","","","","","","","","","","","","","","","","","","","","","","","","","",""
"","","","","ctl-task-cpt","21","4582860","0.0-8.0-1.0","209","1","2025-07-09 09:21:25","7701e855f2ef39aa3fd6c71abdc6918a","105.245.4.17","Mozilla/5.0 (Windows NT 10.0; Win64; x64) AppleWebKit/537.36 (KHTML, like Gecko) Chrome/138.0.0.0 Safari/537.36","WebKit","Chrome","138.0.0.0","Windows","10.0","https://app.prolific.com/","en-GB,en-US;q=0.9,en;q=0.8","67d04d58fc4188d981d914f0","686d226cabeef709c732f8e1","686e31470e6ceb1995ece526","67d04d58fc4188d981d914f0","","","","","","","","","","","","","","","","","win-only","0","g1:NW,g2:SE","1","0","1","4532678.8","5137.3","9140.9","50439.2","2","4","4","6","1","-2","-12","0","0","0","4003.5","4000","-2990","[""left"",""up""]","{""num_key_presses"":21,""num_perfect"":4,""num_errors"":10,""num_randdir"":0,""num_randdir_good_moves"":0,""num_whilered"":7,""num_whileblue"":1,""num_blue"":4,""num_good_moves"":4}","[328.7278258144506,340.1190807703547,7.4,328.7278258144506,340.1190807703547,103.3,328.7278258144506,340.1190807703547,203.8,328.7278258144506,340.1190807703547,308.9,328.7278258144506,340.1190807703547,408.9,328.7278258144506,340.1190807703547,513.2,328.7278258144506,340.1190807703547,613.6,328.7278258144506,340.1190807703547,714,328.7278258144506,340.1190807703547,819.2,328.7278258144506,340.1190807703547,923.7,328.7278258144506,340.1190807703547,1028.2,328.7278258144506,340.1190807703547,1128.3,328.7278258144506,340.1190807703547,1228.7,328.7278258144506,340.1190807703547,1329.7,328.7278258144506,340.1190807703547,1433.7,328.7278258144506,340.1190807703547,1538.3,328.7278258144506,340.1190807703547,1639.1,328.7278258144506,340.1190807703547,1743.6,328.7278258144506,340.1190807703547,1843.9,328.7278258144506,340.1190807703547,1943.9,328.7278258144506,340.1190807703547,2048.6,328.7278258144506,340.1190807703547,2149,328.7278258144506,340.1190807703547,2249.3,328.7278258144506,340.1190807703547,2353.9,328.7278258144506,340.1190807703547,2454.3,328.7278258144506,340.1190807703547,2559.7,328.7278258144506,340.1190807703547,2662.9,328.7278258144506,340.1190807703547,2763.5,328.7278258144506,340.1190807703547,2863.6,328.7278258144506,340.1190807703547,2963.7,328.7278258144506,340.1190807703547,3069.6,328.7278258144506,340.1190807703547,3173.9,328.7278258144506,340.1190807703547,3274.1,328.7278258144506,340.1190807703547,3379,328.7278258144506,340.1190807703547,3479.5,328.7278258144506,340.1190807703547,3583.5,328.7278258144506,340.1190807703547,3690.1,328.7278258144506,340.1190807703547,3793.6,328.7278258144506,340.1190807703547,3894.4,328.7278258144506,340.1190807703547,3998.7]","[328,328,1000,0,-672,""error"",""-"",""-"",""no_move"",1363.4,1035.1,2111.7,1329.9,-2078.2,""error"",""-"",""-"",""no_move"",1679.5,315.9,2111.7,1329.9,-1762,""while_red"",""-"",""-"",""no_move"",2127.7,764.1,2111.7,1329.9,-1313.9,""while_red"",""-"",""-"",""no_move"",2448.2,1084.6,2750.2,2365.3,-2667.3,""error"",""-"",""-"",""no_move"",3002.3,553.7,2750.2,2365.3,-2113.2,""while_red"",""-"",""-"",""no_move"",3323.4,874.9,2750.2,2365.3,-1792,""while_red"",""-"",""-"",""no_move"",3494.7,1046.1,2408.4,3450,-2363.7,""error"",""-"",""-"",""no_move"",6388.9,2894,2578.3,4495.4,-684.8,""error"",""-"",""-"",""no_move"",7128.6,739.4,2578.3,4495.4,54.9,""while_red"",""-"",""-"",""no_move"",8223.2,1834,2970.8,7390.4,-2138,""error"",""-"",""-"",""no_move"",9203.6,980.3,2970.8,7390.4,-1157.6,""while_red"",""-"",""-"",""no_move"",10428.2,2204.9,1535.6,9224.7,-332.1,""error"",""-"",""-"",""no_move"",11283,854.5,1535.6,9224.7,522.7,""while_red"",""-"",""-"",""no_move"",19022.9,8594.4,2936,14645.3,1441.6,""smooth"",""up"",""up"",""good_move"",19873.1,849.5,2620.6,19023.6,-1771.1,""error"",""-"",""-"",""no_move"",20963.2,1090,1957.4,20875.4,-1869.6,""error"",""-"",""-"",""no_move"",27370.8,6407.1,2346.1,24295.2,729.5,""smooth"",""left"",""left"",""good_move"",30905.5,3534.2,2474,27371.4,1060.2,""smooth"",""left"",""left"",""good_move"",33412,2506,1979.4,30906,526.6,""while_blue"",""up"",""down"",""bad_move"",36344,2931.1,2325.5,33412.9,605.6,""smooth"",""up"",""up"",""good_move""]","","",""
"3829","","","","instructions","22","4586689","0.0-8.0-2.0","209","1","2025-07-09 09:21:25","7701e855f2ef39aa3fd6c71abdc6918a","105.245.4.17","Mozilla/5.0 (Windows NT 10.0; Win64; x64) AppleWebKit/537.36 (KHTML, like Gecko) Chrome/138.0.0.0 Safari/537.36","WebKit","Chrome","138.0.0.0","Windows","10.0","https://app.prolific.com/","en-GB,en-US;q=0.9,en;q=0.8","67d04d58fc4188d981d914f0","686d226cabeef709c732f8e1","686e31470e6ceb1995ece526","67d04d58fc4188d981d914f0","","[{""page_index"":0,""viewing_time"":3828}]","","","","","","","","","","","","","","","","","","","","","","","","","","","","","","","","","","","","","","","","","","","",""
"","","","","ctl-task-cpt","23","4605640","0.0-8.0-3.0","209","1","2025-07-09 09:21:25","7701e855f2ef39aa3fd6c71abdc6918a","105.245.4.17","Mozilla/5.0 (Windows NT 10.0; Win64; x64) AppleWebKit/537.36 (KHTML, like Gecko) Chrome/138.0.0.0 Safari/537.36","WebKit","Chrome","138.0.0.0","Windows","10.0","https://app.prolific.com/","en-GB,en-US;q=0.9,en;q=0.8","67d04d58fc4188d981d914f0","686d226cabeef709c732f8e1","686e31470e6ceb1995ece526","67d04d58fc4188d981d914f0","","","","","","","","","","","","","","","","","win-only","0","g1:NW,g2:SE","0.35","0","3","4589950.6","2157.7","6161","15937.1","2","4","8","6","2","-8","-8","0","0","0","4003.3","4000","-3000","[""down"",""right""]","{""num_key_presses"":2,""num_perfect"":1,""num_errors"":0,""num_randdir"":1,""num_randdir_good_moves"":1,""num_whilered"":0,""num_whileblue"":0,""num_blue"":0,""num_good_moves"":2}","[339.437825614179,346.23908065591377,0.4,339.437825614179,346.23908065591377,103.3,339.437825614179,346.23908065591377,204.7,339.437825614179,346.23908065591377,308.2,339.437825614179,346.23908065591377,413.1,445.0078236400732,346.23908065591377,515.1,576.5878211795934,358.47908042703193,618.5,714.2878186046728,389.07907985482734,719.1,714.2878186046728,389.07907985482734,822.7,714.2878186046728,389.07907985482734,923.1,714.2878186046728,389.07907985482734,1023.9,714.2878186046728,389.07907985482734,1128.4,714.2878186046728,389.07907985482734,1229.1,714.2878186046728,389.07907985482734,1332.8,714.2878186046728,389.07907985482734,1434.4,714.2878186046728,389.07907985482734,1539.3,714.2878186046728,389.07907985482734,1644.1,714.2878186046728,389.07907985482734,1748.7,714.2878186046728,389.07907985482734,1853.3,714.2878186046728,389.07907985482734,1958.3,714.2878186046728,389.07907985482734,2059.1,714.2878186046728,389.07907985482734,2164.1,714.2878186046728,389.07907985482734,2268.3,714.2878186046728,389.07907985482734,2368.3,714.2878186046728,389.07907985482734,2469.1,714.2878186046728,389.07907985482734,2573.5,714.2878186046728,389.07907985482734,2673.5,714.2878186046728,389.07907985482734,2773.7,714.2878186046728,389.07907985482734,2878.2,714.2878186046728,389.07907985482734,2978.4,714.2878186046728,389.07907985482734,3083.1,714.2878186046728,389.07907985482734,3184.3,714.2878186046728,389.07907985482734,3289.4,714.2878186046728,389.07907985482734,3393,714.2878186046728,389.07907985482734,3493.2,714.2878186046728,389.07907985482734,3598.2,714.2878186046728,389.07907985482734,3698.7,714.2878186046728,389.07907985482734,3803.1,714.2878186046728,389.07907985482734,3903.3]","[2145.6,2145.6,1000,0,1145.6,""oops"",""right"",""right"",""good_move"",5875.1,3729.2,2680.1,2145.9,1049.1,""smooth"",""down"",""down"",""good_move""]","","",""
"5035","","","","instructions","24","4610676","0.0-8.0-4.0","209","1","2025-07-09 09:21:25","7701e855f2ef39aa3fd6c71abdc6918a","105.245.4.17","Mozilla/5.0 (Windows NT 10.0; Win64; x64) AppleWebKit/537.36 (KHTML, like Gecko) Chrome/138.0.0.0 Safari/537.36","WebKit","Chrome","138.0.0.0","Windows","10.0","https://app.prolific.com/","en-GB,en-US;q=0.9,en;q=0.8","67d04d58fc4188d981d914f0","686d226cabeef709c732f8e1","686e31470e6ceb1995ece526","67d04d58fc4188d981d914f0","","[{""page_index"":0,""viewing_time"":3890},{""page_index"":1,""viewing_time"":1146}]","","","","","","","","","","","","","","","","","","","","","","","","","","","","","","","","","","","","","","","","","","","",""
"9950","","","{""green_ball"":[""Ball always moves in the direction I press""]}","survey-multi-select","25","4620628","0.0-8.0-5.0-0.0","209","1","2025-07-09 09:21:25","7701e855f2ef39aa3fd6c71abdc6918a","105.245.4.17","Mozilla/5.0 (Windows NT 10.0; Win64; x64) AppleWebKit/537.36 (KHTML, like Gecko) Chrome/138.0.0.0 Safari/537.36","WebKit","Chrome","138.0.0.0","Windows","10.0","https://app.prolific.com/","en-GB,en-US;q=0.9,en;q=0.8","67d04d58fc4188d981d914f0","686d226cabeef709c732f8e1","686e31470e6ceb1995ece526","67d04d58fc4188d981d914f0","","","[0]","","","","quiz","","","","","","","","","","","","","","","","","","","","","","","","","","","","","","","","","","","","","false","",""
"1635","","<p align='center'><b>INCORRECT.</b> Usually the green ball moves in the indicated direction, but sometimes it shakes and moves randomly. </p>","0","html-button-response","26","4622271","0.0-8.0-5.0-1.0","209","1","2025-07-09 09:21:25","7701e855f2ef39aa3fd6c71abdc6918a","105.245.4.17","Mozilla/5.0 (Windows NT 10.0; Win64; x64) AppleWebKit/537.36 (KHTML, like Gecko) Chrome/138.0.0.0 Safari/537.36","WebKit","Chrome","138.0.0.0","Windows","10.0","https://app.prolific.com/","en-GB,en-US;q=0.9,en;q=0.8","67d04d58fc4188d981d914f0","686d226cabeef709c732f8e1","686e31470e6ceb1995ece526","67d04d58fc4188d981d914f0","","","","","","","","","","","","","","","","","","","","","","","","","","","","","","","","","","","","","","","","","","","","","",""
"9125","","","{""green_ball"":[""Ball always moves in the direction I press""]}","survey-multi-select","27","4631398","0.0-8.0-5.1-0.1","209","1","2025-07-09 09:21:25","7701e855f2ef39aa3fd6c71abdc6918a","105.245.4.17","Mozilla/5.0 (Windows NT 10.0; Win64; x64) AppleWebKit/537.36 (KHTML, like Gecko) Chrome/138.0.0.0 Safari/537.36","WebKit","Chrome","138.0.0.0","Windows","10.0","https://app.prolific.com/","en-GB,en-US;q=0.9,en;q=0.8","67d04d58fc4188d981d914f0","686d226cabeef709c732f8e1","686e31470e6ceb1995ece526","67d04d58fc4188d981d914f0","","","[0]","","","","quiz","","","","","","","","","","","","","","","","","","","","","","","","","","","","","","","","","","","","","false","",""
"1567","","<p align='center'><b>INCORRECT.</b> Usually the green ball moves in the indicated direction, but sometimes it shakes and moves randomly. </p>","0","html-button-response","28","4632967","0.0-8.0-5.1-1.1","209","1","2025-07-09 09:21:25","7701e855f2ef39aa3fd6c71abdc6918a","105.245.4.17","Mozilla/5.0 (Windows NT 10.0; Win64; x64) AppleWebKit/537.36 (KHTML, like Gecko) Chrome/138.0.0.0 Safari/537.36","WebKit","Chrome","138.0.0.0","Windows","10.0","https://app.prolific.com/","en-GB,en-US;q=0.9,en;q=0.8","67d04d58fc4188d981d914f0","686d226cabeef709c732f8e1","686e31470e6ceb1995ece526","67d04d58fc4188d981d914f0","","","","","","","","","","","","","","","","","","","","","","","","","","","","","","","","","","","","","","","","","","","","","",""
"4469","","","{""green_ball"":[""Ball always moves in the direction I press""]}","survey-multi-select","29","4637437","0.0-8.0-5.2-0.2","209","1","2025-07-09 09:21:25","7701e855f2ef39aa3fd6c71abdc6918a","105.245.4.17","Mozilla/5.0 (Windows NT 10.0; Win64; x64) AppleWebKit/537.36 (KHTML, like Gecko) Chrome/138.0.0.0 Safari/537.36","WebKit","Chrome","138.0.0.0","Windows","10.0","https://app.prolific.com/","en-GB,en-US;q=0.9,en;q=0.8","67d04d58fc4188d981d914f0","686d226cabeef709c732f8e1","686e31470e6ceb1995ece526","67d04d58fc4188d981d914f0","","","[0]","","","","quiz","","","","","","","","","","","","","","","","","","","","","","","","","","","","","","","","","","","","","false","",""
"1431","","<p align='center'><b>INCORRECT.</b> Usually the green ball moves in the indicated direction, but sometimes it shakes and moves randomly. </p>","0","html-button-response","30","4638869","0.0-8.0-5.2-1.2","209","1","2025-07-09 09:21:25","7701e855f2ef39aa3fd6c71abdc6918a","105.245.4.17","Mozilla/5.0 (Windows NT 10.0; Win64; x64) AppleWebKit/537.36 (KHTML, like Gecko) Chrome/138.0.0.0 Safari/537.36","WebKit","Chrome","138.0.0.0","Windows","10.0","https://app.prolific.com/","en-GB,en-US;q=0.9,en;q=0.8","67d04d58fc4188d981d914f0","686d226cabeef709c732f8e1","686e31470e6ceb1995ece526","67d04d58fc4188d981d914f0","","","","","","","","","","","","","","","","","","","","","","","","","","","","","","","","","","","","","","","","","","","","","",""
"4171","","","{""green_ball"":[""Ball always moves in the direction I press""]}","survey-multi-select","31","4643041","0.0-8.0-5.3-0.3","209","1","2025-07-09 09:21:25","7701e855f2ef39aa3fd6c71abdc6918a","105.245.4.17","Mozilla/5.0 (Windows NT 10.0; Win64; x64) AppleWebKit/537.36 (KHTML, like Gecko) Chrome/138.0.0.0 Safari/537.36","WebKit","Chrome","138.0.0.0","Windows","10.0","https://app.prolific.com/","en-GB,en-US;q=0.9,en;q=0.8","67d04d58fc4188d981d914f0","686d226cabeef709c732f8e1","686e31470e6ceb1995ece526","67d04d58fc4188d981d914f0","","","[0]","","","","quiz","","","","","","","","","","","","","","","","","","","","","","","","","","","","","","","","","","","","","false","",""
"1569","","<p align='center'><b>INCORRECT.</b> Usually the green ball moves in the indicated direction, but sometimes it shakes and moves randomly. </p>","0","html-button-response","32","4644611","0.0-8.0-5.3-1.3","209","1","2025-07-09 09:21:25","7701e855f2ef39aa3fd6c71abdc6918a","105.245.4.17","Mozilla/5.0 (Windows NT 10.0; Win64; x64) AppleWebKit/537.36 (KHTML, like Gecko) Chrome/138.0.0.0 Safari/537.36","WebKit","Chrome","138.0.0.0","Windows","10.0","https://app.prolific.com/","en-GB,en-US;q=0.9,en;q=0.8","67d04d58fc4188d981d914f0","686d226cabeef709c732f8e1","686e31470e6ceb1995ece526","67d04d58fc4188d981d914f0","","","","","","","","","","","","","","","","","","","","","","","","","","","","","","","","","","","","","","","","","","","","","",""
"3377","","","{""green_ball"":[""Ball always moves in the direction I press""]}","survey-multi-select","33","4647989","0.0-8.0-5.4-0.4","209","1","2025-07-09 09:21:25","7701e855f2ef39aa3fd6c71abdc6918a","105.245.4.17","Mozilla/5.0 (Windows NT 10.0; Win64; x64) AppleWebKit/537.36 (KHTML, like Gecko) Chrome/138.0.0.0 Safari/537.36","WebKit","Chrome","138.0.0.0","Windows","10.0","https://app.prolific.com/","en-GB,en-US;q=0.9,en;q=0.8","67d04d58fc4188d981d914f0","686d226cabeef709c732f8e1","686e31470e6ceb1995ece526","67d04d58fc4188d981d914f0","","","[0]","","","","quiz","","","","","","","","","","","","","","","","","","","","","","","","","","","","","","","","","","","","","false","",""
"1482","","<p align='center'><b>INCORRECT.</b> Usually the green ball moves in the indicated direction, but sometimes it shakes and moves randomly. </p>","0","html-button-response","34","4649471","0.0-8.0-5.4-1.4","209","1","2025-07-09 09:21:25","7701e855f2ef39aa3fd6c71abdc6918a","105.245.4.17","Mozilla/5.0 (Windows NT 10.0; Win64; x64) AppleWebKit/537.36 (KHTML, like Gecko) Chrome/138.0.0.0 Safari/537.36","WebKit","Chrome","138.0.0.0","Windows","10.0","https://app.prolific.com/","en-GB,en-US;q=0.9,en;q=0.8","67d04d58fc4188d981d914f0","686d226cabeef709c732f8e1","686e31470e6ceb1995ece526","67d04d58fc4188d981d914f0","","","","","","","","","","","","","","","","","","","","","","","","","","","","","","","","","","","","","","","","","","","","","",""
"3568","","","{""green_ball"":[""Ball always moves in the direction I press""]}","survey-multi-select","35","4653040","0.0-8.0-5.5-0.5","209","1","2025-07-09 09:21:25","7701e855f2ef39aa3fd6c71abdc6918a","105.245.4.17","Mozilla/5.0 (Windows NT 10.0; Win64; x64) AppleWebKit/537.36 (KHTML, like Gecko) Chrome/138.0.0.0 Safari/537.36","WebKit","Chrome","138.0.0.0","Windows","10.0","https://app.prolific.com/","en-GB,en-US;q=0.9,en;q=0.8","67d04d58fc4188d981d914f0","686d226cabeef709c732f8e1","686e31470e6ceb1995ece526","67d04d58fc4188d981d914f0","","","[0]","","","","quiz","","","","","","","","","","","","","","","","","","","","","","","","","","","","","","","","","","","","","false","",""
"1720","","<p align='center'><b>INCORRECT.</b> Usually the green ball moves in the indicated direction, but sometimes it shakes and moves randomly. </p>","0","html-button-response","36","4654762","0.0-8.0-5.5-1.5","209","1","2025-07-09 09:21:25","7701e855f2ef39aa3fd6c71abdc6918a","105.245.4.17","Mozilla/5.0 (Windows NT 10.0; Win64; x64) AppleWebKit/537.36 (KHTML, like Gecko) Chrome/138.0.0.0 Safari/537.36","WebKit","Chrome","138.0.0.0","Windows","10.0","https://app.prolific.com/","en-GB,en-US;q=0.9,en;q=0.8","67d04d58fc4188d981d914f0","686d226cabeef709c732f8e1","686e31470e6ceb1995ece526","67d04d58fc4188d981d914f0","","","","","","","","","","","","","","","","","","","","","","","","","","","","","","","","","","","","","","","","","","","","","",""
"3353","","","{""green_ball"":[""Ball always moves in the direction I press""]}","survey-multi-select","37","4658115","0.0-8.0-5.6-0.6","209","1","2025-07-09 09:21:25","7701e855f2ef39aa3fd6c71abdc6918a","105.245.4.17","Mozilla/5.0 (Windows NT 10.0; Win64; x64) AppleWebKit/537.36 (KHTML, like Gecko) Chrome/138.0.0.0 Safari/537.36","WebKit","Chrome","138.0.0.0","Windows","10.0","https://app.prolific.com/","en-GB,en-US;q=0.9,en;q=0.8","67d04d58fc4188d981d914f0","686d226cabeef709c732f8e1","686e31470e6ceb1995ece526","67d04d58fc4188d981d914f0","","","[0]","","","","quiz","","","","","","","","","","","","","","","","","","","","","","","","","","","","","","","","","","","","","false","",""
"1557","","<p align='center'><b>INCORRECT.</b> Usually the green ball moves in the indicated direction, but sometimes it shakes and moves randomly. </p>","0","html-button-response","38","4659673","0.0-8.0-5.6-1.6","209","1","2025-07-09 09:21:25","7701e855f2ef39aa3fd6c71abdc6918a","105.245.4.17","Mozilla/5.0 (Windows NT 10.0; Win64; x64) AppleWebKit/537.36 (KHTML, like Gecko) Chrome/138.0.0.0 Safari/537.36","WebKit","Chrome","138.0.0.0","Windows","10.0","https://app.prolific.com/","en-GB,en-US;q=0.9,en;q=0.8","67d04d58fc4188d981d914f0","686d226cabeef709c732f8e1","686e31470e6ceb1995ece526","67d04d58fc4188d981d914f0","","","","","","","","","","","","","","","","","","","","","","","","","","","","","","","","","","","","","","","","","","","","","",""
"2876","","","{""green_ball"":[""Ball always moves in the direction I press""]}","survey-multi-select","39","4662550","0.0-8.0-5.7-0.7","209","1","2025-07-09 09:21:25","7701e855f2ef39aa3fd6c71abdc6918a","105.245.4.17","Mozilla/5.0 (Windows NT 10.0; Win64; x64) AppleWebKit/537.36 (KHTML, like Gecko) Chrome/138.0.0.0 Safari/537.36","WebKit","Chrome","138.0.0.0","Windows","10.0","https://app.prolific.com/","en-GB,en-US;q=0.9,en;q=0.8","67d04d58fc4188d981d914f0","686d226cabeef709c732f8e1","686e31470e6ceb1995ece526","67d04d58fc4188d981d914f0","","","[0]","","","","quiz","","","","","","","","","","","","","","","","","","","","","","","","","","","","","","","","","","","","","false","",""
"1659","","<p align='center'><b>INCORRECT.</b> Usually the green ball moves in the indicated direction, but sometimes it shakes and moves randomly. </p>","0","html-button-response","40","4664209","0.0-8.0-5.7-1.7","209","1","2025-07-09 09:21:25","7701e855f2ef39aa3fd6c71abdc6918a","105.245.4.17","Mozilla/5.0 (Windows NT 10.0; Win64; x64) AppleWebKit/537.36 (KHTML, like Gecko) Chrome/138.0.0.0 Safari/537.36","WebKit","Chrome","138.0.0.0","Windows","10.0","https://app.prolific.com/","en-GB,en-US;q=0.9,en;q=0.8","67d04d58fc4188d981d914f0","686d226cabeef709c732f8e1","686e31470e6ceb1995ece526","67d04d58fc4188d981d914f0","","","","","","","","","","","","","","","","","","","","","","","","","","","","","","","","","","","","","","","","","","","","","",""
"3680","","","{""green_ball"":[""Ball always moves in the direction I press""]}","survey-multi-select","41","4667890","0.0-8.0-5.8-0.8","209","1","2025-07-09 09:21:25","7701e855f2ef39aa3fd6c71abdc6918a","105.245.4.17","Mozilla/5.0 (Windows NT 10.0; Win64; x64) AppleWebKit/537.36 (KHTML, like Gecko) Chrome/138.0.0.0 Safari/537.36","WebKit","Chrome","138.0.0.0","Windows","10.0","https://app.prolific.com/","en-GB,en-US;q=0.9,en;q=0.8","67d04d58fc4188d981d914f0","686d226cabeef709c732f8e1","686e31470e6ceb1995ece526","67d04d58fc4188d981d914f0","","","[0]","","","","quiz","","","","","","","","","","","","","","","","","","","","","","","","","","","","","","","","","","","","","false","",""
"3717","","<p align='center'><b>INCORRECT.</b> Usually the green ball moves in the indicated direction, but sometimes it shakes and moves randomly. </p>","0","html-button-response","42","4671608","0.0-8.0-5.8-1.8","209","1","2025-07-09 09:21:25","7701e855f2ef39aa3fd6c71abdc6918a","105.245.4.17","Mozilla/5.0 (Windows NT 10.0; Win64; x64) AppleWebKit/537.36 (KHTML, like Gecko) Chrome/138.0.0.0 Safari/537.36","WebKit","Chrome","138.0.0.0","Windows","10.0","https://app.prolific.com/","en-GB,en-US;q=0.9,en;q=0.8","67d04d58fc4188d981d914f0","686d226cabeef709c732f8e1","686e31470e6ceb1995ece526","67d04d58fc4188d981d914f0","","","","","","","","","","","","","","","","","","","","","","","","","","","","","","","","","","","","","","","","","","","","","",""
"3679","","","{""green_ball"":[""Ball always moves in the direction I press""]}","survey-multi-select","43","4675288","0.0-8.0-5.9-0.9","209","1","2025-07-09 09:21:25","7701e855f2ef39aa3fd6c71abdc6918a","105.245.4.17","Mozilla/5.0 (Windows NT 10.0; Win64; x64) AppleWebKit/537.36 (KHTML, like Gecko) Chrome/138.0.0.0 Safari/537.36","WebKit","Chrome","138.0.0.0","Windows","10.0","https://app.prolific.com/","en-GB,en-US;q=0.9,en;q=0.8","67d04d58fc4188d981d914f0","686d226cabeef709c732f8e1","686e31470e6ceb1995ece526","67d04d58fc4188d981d914f0","","","[0]","","","","quiz","","","","","","","","","","","","","","","","","","","","","","","","","","","","","","","","","","","","","false","",""
"1280","","<p align='center'><b>INCORRECT.</b> Usually the green ball moves in the indicated direction, but sometimes it shakes and moves randomly. </p>","0","html-button-response","44","4676569","0.0-8.0-5.9-1.9","209","1","2025-07-09 09:21:25","7701e855f2ef39aa3fd6c71abdc6918a","105.245.4.17","Mozilla/5.0 (Windows NT 10.0; Win64; x64) AppleWebKit/537.36 (KHTML, like Gecko) Chrome/138.0.0.0 Safari/537.36","WebKit","Chrome","138.0.0.0","Windows","10.0","https://app.prolific.com/","en-GB,en-US;q=0.9,en;q=0.8","67d04d58fc4188d981d914f0","686d226cabeef709c732f8e1","686e31470e6ceb1995ece526","67d04d58fc4188d981d914f0","","","","","","","","","","","","","","","","","","","","","","","","","","","","","","","","","","","","","","","","","","","","","",""
"6820","","","{""green_ball"":[""Ball always shakes and moves in a random direction"",""Ball sometimes shakes and moves in a random direction""]}","survey-multi-select","45","4683390","0.0-8.0-5.10-0.10","209","1","2025-07-09 09:21:25","7701e855f2ef39aa3fd6c71abdc6918a","105.245.4.17","Mozilla/5.0 (Windows NT 10.0; Win64; x64) AppleWebKit/537.36 (KHTML, like Gecko) Chrome/138.0.0.0 Safari/537.36","WebKit","Chrome","138.0.0.0","Windows","10.0","https://app.prolific.com/","en-GB,en-US;q=0.9,en;q=0.8","67d04d58fc4188d981d914f0","686d226cabeef709c732f8e1","686e31470e6ceb1995ece526","67d04d58fc4188d981d914f0","","","[0]","","","","quiz","","","","","","","","","","","","","","","","","","","","","","","","","","","","","","","","","","","","","false","",""
"3541","","<p align='center'><b>INCORRECT.</b> Usually the green ball moves in the indicated direction, but sometimes it shakes and moves randomly. </p>","0","html-button-response","46","4686932","0.0-8.0-5.10-1.10","209","1","2025-07-09 09:21:25","7701e855f2ef39aa3fd6c71abdc6918a","105.245.4.17","Mozilla/5.0 (Windows NT 10.0; Win64; x64) AppleWebKit/537.36 (KHTML, like Gecko) Chrome/138.0.0.0 Safari/537.36","WebKit","Chrome","138.0.0.0","Windows","10.0","https://app.prolific.com/","en-GB,en-US;q=0.9,en;q=0.8","67d04d58fc4188d981d914f0","686d226cabeef709c732f8e1","686e31470e6ceb1995ece526","67d04d58fc4188d981d914f0","","","","","","","","","","","","","","","","","","","","","","","","","","","","","","","","","","","","","","","","","","","","","",""
"2503","","","{""green_ball"":[""Ball always moves in the direction I press""]}","survey-multi-select","47","4689437","0.0-8.0-5.11-0.11","209","1","2025-07-09 09:21:25","7701e855f2ef39aa3fd6c71abdc6918a","105.245.4.17","Mozilla/5.0 (Windows NT 10.0; Win64; x64) AppleWebKit/537.36 (KHTML, like Gecko) Chrome/138.0.0.0 Safari/537.36","WebKit","Chrome","138.0.0.0","Windows","10.0","https://app.prolific.com/","en-GB,en-US;q=0.9,en;q=0.8","67d04d58fc4188d981d914f0","686d226cabeef709c732f8e1","686e31470e6ceb1995ece526","67d04d58fc4188d981d914f0","","","[0]","","","","quiz","","","","","","","","","","","","","","","","","","","","","","","","","","","","","","","","","","","","","false","",""
"1140","","<p align='center'><b>INCORRECT.</b> Usually the green ball moves in the indicated direction, but sometimes it shakes and moves randomly. </p>","0","html-button-response","48","4690578","0.0-8.0-5.11-1.11","209","1","2025-07-09 09:21:25","7701e855f2ef39aa3fd6c71abdc6918a","105.245.4.17","Mozilla/5.0 (Windows NT 10.0; Win64; x64) AppleWebKit/537.36 (KHTML, like Gecko) Chrome/138.0.0.0 Safari/537.36","WebKit","Chrome","138.0.0.0","Windows","10.0","https://app.prolific.com/","en-GB,en-US;q=0.9,en;q=0.8","67d04d58fc4188d981d914f0","686d226cabeef709c732f8e1","686e31470e6ceb1995ece526","67d04d58fc4188d981d914f0","","","","","","","","","","","","","","","","","","","","","","","","","","","","","","","","","","","","","","","","","","","","","",""
"3151","","","{""green_ball"":[""Ball always moves in the direction I press""]}","survey-multi-select","49","4693732","0.0-8.0-5.12-0.12","209","1","2025-07-09 09:21:25","7701e855f2ef39aa3fd6c71abdc6918a","105.245.4.17","Mozilla/5.0 (Windows NT 10.0; Win64; x64) AppleWebKit/537.36 (KHTML, like Gecko) Chrome/138.0.0.0 Safari/537.36","WebKit","Chrome","138.0.0.0","Windows","10.0","https://app.prolific.com/","en-GB,en-US;q=0.9,en;q=0.8","67d04d58fc4188d981d914f0","686d226cabeef709c732f8e1","686e31470e6ceb1995ece526","67d04d58fc4188d981d914f0","","","[0]","","","","quiz","","","","","","","","","","","","","","","","","","","","","","","","","","","","","","","","","","","","","false","",""
"7384","","<p align='center'><b>INCORRECT.</b> Usually the green ball moves in the indicated direction, but sometimes it shakes and moves randomly. </p>","0","html-button-response","50","4701117","0.0-8.0-5.12-1.12","209","1","2025-07-09 09:21:25","7701e855f2ef39aa3fd6c71abdc6918a","105.245.4.17","Mozilla/5.0 (Windows NT 10.0; Win64; x64) AppleWebKit/537.36 (KHTML, like Gecko) Chrome/138.0.0.0 Safari/537.36","WebKit","Chrome","138.0.0.0","Windows","10.0","https://app.prolific.com/","en-GB,en-US;q=0.9,en;q=0.8","67d04d58fc4188d981d914f0","686d226cabeef709c732f8e1","686e31470e6ceb1995ece526","67d04d58fc4188d981d914f0","","","","","","","","","","","","","","","","","","","","","","","","","","","","","","","","","","","","","","","","","","","","","",""
"2650","","","{""green_ball"":[""Ball always moves in the direction I press""]}","survey-multi-select","51","4703768","0.0-8.0-5.13-0.13","209","1","2025-07-09 09:21:25","7701e855f2ef39aa3fd6c71abdc6918a","105.245.4.17","Mozilla/5.0 (Windows NT 10.0; Win64; x64) AppleWebKit/537.36 (KHTML, like Gecko) Chrome/138.0.0.0 Safari/537.36","WebKit","Chrome","138.0.0.0","Windows","10.0","https://app.prolific.com/","en-GB,en-US;q=0.9,en;q=0.8","67d04d58fc4188d981d914f0","686d226cabeef709c732f8e1","686e31470e6ceb1995ece526","67d04d58fc4188d981d914f0","","","[0]","","","","quiz","","","","","","","","","","","","","","","","","","","","","","","","","","","","","","","","","","","","","false","",""
"1869","","<p align='center'><b>INCORRECT.</b> Usually the green ball moves in the indicated direction, but sometimes it shakes and moves randomly. </p>","0","html-button-response","52","4705637","0.0-8.0-5.13-1.13","209","1","2025-07-09 09:21:25","7701e855f2ef39aa3fd6c71abdc6918a","105.245.4.17","Mozilla/5.0 (Windows NT 10.0; Win64; x64) AppleWebKit/537.36 (KHTML, like Gecko) Chrome/138.0.0.0 Safari/537.36","WebKit","Chrome","138.0.0.0","Windows","10.0","https://app.prolific.com/","en-GB,en-US;q=0.9,en;q=0.8","67d04d58fc4188d981d914f0","686d226cabeef709c732f8e1","686e31470e6ceb1995ece526","67d04d58fc4188d981d914f0","","","","","","","","","","","","","","","","","","","","","","","","","","","","","","","","","","","","","","","","","","","","","",""
"2662","","","{""green_ball"":[""Ball always moves in the direction I press""]}","survey-multi-select","53","4708300","0.0-8.0-5.14-0.14","209","1","2025-07-09 09:21:25","7701e855f2ef39aa3fd6c71abdc6918a","105.245.4.17","Mozilla/5.0 (Windows NT 10.0; Win64; x64) AppleWebKit/537.36 (KHTML, like Gecko) Chrome/138.0.0.0 Safari/537.36","WebKit","Chrome","138.0.0.0","Windows","10.0","https://app.prolific.com/","en-GB,en-US;q=0.9,en;q=0.8","67d04d58fc4188d981d914f0","686d226cabeef709c732f8e1","686e31470e6ceb1995ece526","67d04d58fc4188d981d914f0","","","[0]","","","","quiz","","","","","","","","","","","","","","","","","","","","","","","","","","","","","","","","","","","","","false","",""
"1256","","<p align='center'><b>INCORRECT.</b> Usually the green ball moves in the indicated direction, but sometimes it shakes and moves randomly. </p>","0","html-button-response","54","4709557","0.0-8.0-5.14-1.14","209","1","2025-07-09 09:21:25","7701e855f2ef39aa3fd6c71abdc6918a","105.245.4.17","Mozilla/5.0 (Windows NT 10.0; Win64; x64) AppleWebKit/537.36 (KHTML, like Gecko) Chrome/138.0.0.0 Safari/537.36","WebKit","Chrome","138.0.0.0","Windows","10.0","https://app.prolific.com/","en-GB,en-US;q=0.9,en;q=0.8","67d04d58fc4188d981d914f0","686d226cabeef709c732f8e1","686e31470e6ceb1995ece526","67d04d58fc4188d981d914f0","","","","","","","","","","","","","","","","","","","","","","","","","","","","","","","","","","","","","","","","","","","","","",""
"2423","","","{""green_ball"":[""Ball always moves in the direction I press""]}","survey-multi-select","55","4711981","0.0-8.0-5.15-0.15","209","1","2025-07-09 09:21:25","7701e855f2ef39aa3fd6c71abdc6918a","105.245.4.17","Mozilla/5.0 (Windows NT 10.0; Win64; x64) AppleWebKit/537.36 (KHTML, like Gecko) Chrome/138.0.0.0 Safari/537.36","WebKit","Chrome","138.0.0.0","Windows","10.0","https://app.prolific.com/","en-GB,en-US;q=0.9,en;q=0.8","67d04d58fc4188d981d914f0","686d226cabeef709c732f8e1","686e31470e6ceb1995ece526","67d04d58fc4188d981d914f0","","","[0]","","","","quiz","","","","","","","","","","","","","","","","","","","","","","","","","","","","","","","","","","","","","false","",""
"1368","","<p align='center'><b>INCORRECT.</b> Usually the green ball moves in the indicated direction, but sometimes it shakes and moves randomly. </p>","0","html-button-response","56","4713350","0.0-8.0-5.15-1.15","209","1","2025-07-09 09:21:25","7701e855f2ef39aa3fd6c71abdc6918a","105.245.4.17","Mozilla/5.0 (Windows NT 10.0; Win64; x64) AppleWebKit/537.36 (KHTML, like Gecko) Chrome/138.0.0.0 Safari/537.36","WebKit","Chrome","138.0.0.0","Windows","10.0","https://app.prolific.com/","en-GB,en-US;q=0.9,en;q=0.8","67d04d58fc4188d981d914f0","686d226cabeef709c732f8e1","686e31470e6ceb1995ece526","67d04d58fc4188d981d914f0","","","","","","","","","","","","","","","","","","","","","","","","","","","","","","","","","","","","","","","","","","","","","",""
"2789","","","{""green_ball"":[""Ball always moves in the direction I press""]}","survey-multi-select","57","4716140","0.0-8.0-5.16-0.16","209","1","2025-07-09 09:21:25","7701e855f2ef39aa3fd6c71abdc6918a","105.245.4.17","Mozilla/5.0 (Windows NT 10.0; Win64; x64) AppleWebKit/537.36 (KHTML, like Gecko) Chrome/138.0.0.0 Safari/537.36","WebKit","Chrome","138.0.0.0","Windows","10.0","https://app.prolific.com/","en-GB,en-US;q=0.9,en;q=0.8","67d04d58fc4188d981d914f0","686d226cabeef709c732f8e1","686e31470e6ceb1995ece526","67d04d58fc4188d981d914f0","","","[0]","","","","quiz","","","","","","","","","","","","","","","","","","","","","","","","","","","","","","","","","","","","","false","",""
"2447","","<p align='center'><b>INCORRECT.</b> Usually the green ball moves in the indicated direction, but sometimes it shakes and moves randomly. </p>","0","html-button-response","58","4718588","0.0-8.0-5.16-1.16","209","1","2025-07-09 09:21:25","7701e855f2ef39aa3fd6c71abdc6918a","105.245.4.17","Mozilla/5.0 (Windows NT 10.0; Win64; x64) AppleWebKit/537.36 (KHTML, like Gecko) Chrome/138.0.0.0 Safari/537.36","WebKit","Chrome","138.0.0.0","Windows","10.0","https://app.prolific.com/","en-GB,en-US;q=0.9,en;q=0.8","67d04d58fc4188d981d914f0","686d226cabeef709c732f8e1","686e31470e6ceb1995ece526","67d04d58fc4188d981d914f0","","","","","","","","","","","","","","","","","","","","","","","","","","","","","","","","","","","","","","","","","","","","","",""
"2348","","","{""green_ball"":[""Ball always moves in the direction I press""]}","survey-multi-select","59","4720937","0.0-8.0-5.17-0.17","209","1","2025-07-09 09:21:25","7701e855f2ef39aa3fd6c71abdc6918a","105.245.4.17","Mozilla/5.0 (Windows NT 10.0; Win64; x64) AppleWebKit/537.36 (KHTML, like Gecko) Chrome/138.0.0.0 Safari/537.36","WebKit","Chrome","138.0.0.0","Windows","10.0","https://app.prolific.com/","en-GB,en-US;q=0.9,en;q=0.8","67d04d58fc4188d981d914f0","686d226cabeef709c732f8e1","686e31470e6ceb1995ece526","67d04d58fc4188d981d914f0","","","[0]","","","","quiz","","","","","","","","","","","","","","","","","","","","","","","","","","","","","","","","","","","","","false","",""
"1331","","<p align='center'><b>INCORRECT.</b> Usually the green ball moves in the indicated direction, but sometimes it shakes and moves randomly. </p>","0","html-button-response","60","4722269","0.0-8.0-5.17-1.17","209","1","2025-07-09 09:21:25","7701e855f2ef39aa3fd6c71abdc6918a","105.245.4.17","Mozilla/5.0 (Windows NT 10.0; Win64; x64) AppleWebKit/537.36 (KHTML, like Gecko) Chrome/138.0.0.0 Safari/537.36","WebKit","Chrome","138.0.0.0","Windows","10.0","https://app.prolific.com/","en-GB,en-US;q=0.9,en;q=0.8","67d04d58fc4188d981d914f0","686d226cabeef709c732f8e1","686e31470e6ceb1995ece526","67d04d58fc4188d981d914f0","","","","","","","","","","","","","","","","","","","","","","","","","","","","","","","","","","","","","","","","","","","","","",""
"5140","","","{""green_ball"":[""Ball always moves in the direction I press""]}","survey-multi-select","61","4727411","0.0-8.0-5.18-0.18","209","1","2025-07-09 09:21:25","7701e855f2ef39aa3fd6c71abdc6918a","105.245.4.17","Mozilla/5.0 (Windows NT 10.0; Win64; x64) AppleWebKit/537.36 (KHTML, like Gecko) Chrome/138.0.0.0 Safari/537.36","WebKit","Chrome","138.0.0.0","Windows","10.0","https://app.prolific.com/","en-GB,en-US;q=0.9,en;q=0.8","67d04d58fc4188d981d914f0","686d226cabeef709c732f8e1","686e31470e6ceb1995ece526","67d04d58fc4188d981d914f0","","","[0]","","","","quiz","","","","","","","","","","","","","","","","","","","","","","","","","","","","","","","","","","","","","false","",""
"1415","","<p align='center'><b>INCORRECT.</b> Usually the green ball moves in the indicated direction, but sometimes it shakes and moves randomly. </p>","0","html-button-response","62","4728826","0.0-8.0-5.18-1.18","209","1","2025-07-09 09:21:25","7701e855f2ef39aa3fd6c71abdc6918a","105.245.4.17","Mozilla/5.0 (Windows NT 10.0; Win64; x64) AppleWebKit/537.36 (KHTML, like Gecko) Chrome/138.0.0.0 Safari/537.36","WebKit","Chrome","138.0.0.0","Windows","10.0","https://app.prolific.com/","en-GB,en-US;q=0.9,en;q=0.8","67d04d58fc4188d981d914f0","686d226cabeef709c732f8e1","686e31470e6ceb1995ece526","67d04d58fc4188d981d914f0","","","","","","","","","","","","","","","","","","","","","","","","","","","","","","","","","","","","","","","","","","","","","",""
"2300","","","{""green_ball"":[""Ball always moves in the direction I press""]}","survey-multi-select","63","4731127","0.0-8.0-5.19-0.19","209","1","2025-07-09 09:21:25","7701e855f2ef39aa3fd6c71abdc6918a","105.245.4.17","Mozilla/5.0 (Windows NT 10.0; Win64; x64) AppleWebKit/537.36 (KHTML, like Gecko) Chrome/138.0.0.0 Safari/537.36","WebKit","Chrome","138.0.0.0","Windows","10.0","https://app.prolific.com/","en-GB,en-US;q=0.9,en;q=0.8","67d04d58fc4188d981d914f0","686d226cabeef709c732f8e1","686e31470e6ceb1995ece526","67d04d58fc4188d981d914f0","","","[0]","","","","quiz","","","","","","","","","","","","","","","","","","","","","","","","","","","","","","","","","","","","","false","",""
"1282","","<p align='center'><b>INCORRECT.</b> Usually the green ball moves in the indicated direction, but sometimes it shakes and moves randomly. </p>","0","html-button-response","64","4732410","0.0-8.0-5.19-1.19","209","1","2025-07-09 09:21:25","7701e855f2ef39aa3fd6c71abdc6918a","105.245.4.17","Mozilla/5.0 (Windows NT 10.0; Win64; x64) AppleWebKit/537.36 (KHTML, like Gecko) Chrome/138.0.0.0 Safari/537.36","WebKit","Chrome","138.0.0.0","Windows","10.0","https://app.prolific.com/","en-GB,en-US;q=0.9,en;q=0.8","67d04d58fc4188d981d914f0","686d226cabeef709c732f8e1","686e31470e6ceb1995ece526","67d04d58fc4188d981d914f0","","","","","","","","","","","","","","","","","","","","","","","","","","","","","","","","","","","","","","","","","","","","","",""
"2475","","","{""green_ball"":[""Ball always shakes and moves in a random direction""]}","survey-multi-select","65","4734885","0.0-8.0-5.20-0.20","209","1","2025-07-09 09:21:25","7701e855f2ef39aa3fd6c71abdc6918a","105.245.4.17","Mozilla/5.0 (Windows NT 10.0; Win64; x64) AppleWebKit/537.36 (KHTML, like Gecko) Chrome/138.0.0.0 Safari/537.36","WebKit","Chrome","138.0.0.0","Windows","10.0","https://app.prolific.com/","en-GB,en-US;q=0.9,en;q=0.8","67d04d58fc4188d981d914f0","686d226cabeef709c732f8e1","686e31470e6ceb1995ece526","67d04d58fc4188d981d914f0","","","[0]","","","","quiz","","","","","","","","","","","","","","","","","","","","","","","","","","","","","","","","","","","","","false","",""
"1821","","<p align='center'><b>INCORRECT.</b> Usually the green ball moves in the indicated direction, but sometimes it shakes and moves randomly. </p>","0","html-button-response","66","4736707","0.0-8.0-5.20-1.20","209","1","2025-07-09 09:21:25","7701e855f2ef39aa3fd6c71abdc6918a","105.245.4.17","Mozilla/5.0 (Windows NT 10.0; Win64; x64) AppleWebKit/537.36 (KHTML, like Gecko) Chrome/138.0.0.0 Safari/537.36","WebKit","Chrome","138.0.0.0","Windows","10.0","https://app.prolific.com/","en-GB,en-US;q=0.9,en;q=0.8","67d04d58fc4188d981d914f0","686d226cabeef709c732f8e1","686e31470e6ceb1995ece526","67d04d58fc4188d981d914f0","","","","","","","","","","","","","","","","","","","","","","","","","","","","","","","","","","","","","","","","","","","","","",""
"2073","","","{""green_ball"":[""Ball always moves in the direction I press""]}","survey-multi-select","67","4738781","0.0-8.0-5.21-0.21","209","1","2025-07-09 09:21:25","7701e855f2ef39aa3fd6c71abdc6918a","105.245.4.17","Mozilla/5.0 (Windows NT 10.0; Win64; x64) AppleWebKit/537.36 (KHTML, like Gecko) Chrome/138.0.0.0 Safari/537.36","WebKit","Chrome","138.0.0.0","Windows","10.0","https://app.prolific.com/","en-GB,en-US;q=0.9,en;q=0.8","67d04d58fc4188d981d914f0","686d226cabeef709c732f8e1","686e31470e6ceb1995ece526","67d04d58fc4188d981d914f0","","","[0]","","","","quiz","","","","","","","","","","","","","","","","","","","","","","","","","","","","","","","","","","","","","false","",""
"1357","","<p align='center'><b>INCORRECT.</b> Usually the green ball moves in the indicated direction, but sometimes it shakes and moves randomly. </p>","0","html-button-response","68","4740139","0.0-8.0-5.21-1.21","209","1","2025-07-09 09:21:25","7701e855f2ef39aa3fd6c71abdc6918a","105.245.4.17","Mozilla/5.0 (Windows NT 10.0; Win64; x64) AppleWebKit/537.36 (KHTML, like Gecko) Chrome/138.0.0.0 Safari/537.36","WebKit","Chrome","138.0.0.0","Windows","10.0","https://app.prolific.com/","en-GB,en-US;q=0.9,en;q=0.8","67d04d58fc4188d981d914f0","686d226cabeef709c732f8e1","686e31470e6ceb1995ece526","67d04d58fc4188d981d914f0","","","","","","","","","","","","","","","","","","","","","","","","","","","","","","","","","","","","","","","","","","","","","",""
"2926","","","{""green_ball"":[""Ball always moves in the direction I press""]}","survey-multi-select","69","4743066","0.0-8.0-5.22-0.22","209","1","2025-07-09 09:21:25","7701e855f2ef39aa3fd6c71abdc6918a","105.245.4.17","Mozilla/5.0 (Windows NT 10.0; Win64; x64) AppleWebKit/537.36 (KHTML, like Gecko) Chrome/138.0.0.0 Safari/537.36","WebKit","Chrome","138.0.0.0","Windows","10.0","https://app.prolific.com/","en-GB,en-US;q=0.9,en;q=0.8","67d04d58fc4188d981d914f0","686d226cabeef709c732f8e1","686e31470e6ceb1995ece526","67d04d58fc4188d981d914f0","","","[0]","","","","quiz","","","","","","","","","","","","","","","","","","","","","","","","","","","","","","","","","","","","","false","",""
"1268","","<p align='center'><b>INCORRECT.</b> Usually the green ball moves in the indicated direction, but sometimes it shakes and moves randomly. </p>","0","html-button-response","70","4744334","0.0-8.0-5.22-1.22","209","1","2025-07-09 09:21:25","7701e855f2ef39aa3fd6c71abdc6918a","105.245.4.17","Mozilla/5.0 (Windows NT 10.0; Win64; x64) AppleWebKit/537.36 (KHTML, like Gecko) Chrome/138.0.0.0 Safari/537.36","WebKit","Chrome","138.0.0.0","Windows","10.0","https://app.prolific.com/","en-GB,en-US;q=0.9,en;q=0.8","67d04d58fc4188d981d914f0","686d226cabeef709c732f8e1","686e31470e6ceb1995ece526","67d04d58fc4188d981d914f0","","","","","","","","","","","","","","","","","","","","","","","","","","","","","","","","","","","","","","","","","","","","","",""
"5893","","","{""green_ball"":[""Ball always shakes and moves in a random direction"",""Ball doesnt move and I get -1 penalty point"",""Ball always moves in the direction I press"",""Ball sometimes shakes and moves in a random direction""]}","survey-multi-select","71","4750228","0.0-8.0-5.23-0.23","209","1","2025-07-09 09:21:25","7701e855f2ef39aa3fd6c71abdc6918a","105.245.4.17","Mozilla/5.0 (Windows NT 10.0; Win64; x64) AppleWebKit/537.36 (KHTML, like Gecko) Chrome/138.0.0.0 Safari/537.36","WebKit","Chrome","138.0.0.0","Windows","10.0","https://app.prolific.com/","en-GB,en-US;q=0.9,en;q=0.8","67d04d58fc4188d981d914f0","686d226cabeef709c732f8e1","686e31470e6ceb1995ece526","67d04d58fc4188d981d914f0","","","[0]","","","","quiz","","","","","","","","","","","","","","","","","","","","","","","","","","","","","","","","","","","","","false","",""
"1431","","<p align='center'><b>INCORRECT.</b> Usually the green ball moves in the indicated direction, but sometimes it shakes and moves randomly. </p>","0","html-button-response","72","4751660","0.0-8.0-5.23-1.23","209","1","2025-07-09 09:21:25","7701e855f2ef39aa3fd6c71abdc6918a","105.245.4.17","Mozilla/5.0 (Windows NT 10.0; Win64; x64) AppleWebKit/537.36 (KHTML, like Gecko) Chrome/138.0.0.0 Safari/537.36","WebKit","Chrome","138.0.0.0","Windows","10.0","https://app.prolific.com/","en-GB,en-US;q=0.9,en;q=0.8","67d04d58fc4188d981d914f0","686d226cabeef709c732f8e1","686e31470e6ceb1995ece526","67d04d58fc4188d981d914f0","","","","","","","","","","","","","","","","","","","","","","","","","","","","","","","","","","","","","","","","","","","","","",""
"2790","","","{""green_ball"":[""Ball always moves in the direction I press""]}","survey-multi-select","73","4754451","0.0-8.0-5.24-0.24","209","1","2025-07-09 09:21:25","7701e855f2ef39aa3fd6c71abdc6918a","105.245.4.17","Mozilla/5.0 (Windows NT 10.0; Win64; x64) AppleWebKit/537.36 (KHTML, like Gecko) Chrome/138.0.0.0 Safari/537.36","WebKit","Chrome","138.0.0.0","Windows","10.0","https://app.prolific.com/","en-GB,en-US;q=0.9,en;q=0.8","67d04d58fc4188d981d914f0","686d226cabeef709c732f8e1","686e31470e6ceb1995ece526","67d04d58fc4188d981d914f0","","","[0]","","","","quiz","","","","","","","","","","","","","","","","","","","","","","","","","","","","","","","","","","","","","false","",""
"9304","","<p align='center'><b>INCORRECT.</b> Usually the green ball moves in the indicated direction, but sometimes it shakes and moves randomly. </p>","0","html-button-response","74","4763756","0.0-8.0-5.24-1.24","209","1","2025-07-09 09:21:25","7701e855f2ef39aa3fd6c71abdc6918a","105.245.4.17","Mozilla/5.0 (Windows NT 10.0; Win64; x64) AppleWebKit/537.36 (KHTML, like Gecko) Chrome/138.0.0.0 Safari/537.36","WebKit","Chrome","138.0.0.0","Windows","10.0","https://app.prolific.com/","en-GB,en-US;q=0.9,en;q=0.8","67d04d58fc4188d981d914f0","686d226cabeef709c732f8e1","686e31470e6ceb1995ece526","67d04d58fc4188d981d914f0","","","","","","","","","","","","","","","","","","","","","","","","","","","","","","","","","","","","","","","","","","","","","",""
"2548","","","{""green_ball"":[""Ball always moves in the direction I press""]}","survey-multi-select","75","4766304","0.0-8.0-5.25-0.25","209","1","2025-07-09 09:21:25","7701e855f2ef39aa3fd6c71abdc6918a","105.245.4.17","Mozilla/5.0 (Windows NT 10.0; Win64; x64) AppleWebKit/537.36 (KHTML, like Gecko) Chrome/138.0.0.0 Safari/537.36","WebKit","Chrome","138.0.0.0","Windows","10.0","https://app.prolific.com/","en-GB,en-US;q=0.9,en;q=0.8","67d04d58fc4188d981d914f0","686d226cabeef709c732f8e1","686e31470e6ceb1995ece526","67d04d58fc4188d981d914f0","","","[0]","","","","quiz","","","","","","","","","","","","","","","","","","","","","","","","","","","","","","","","","","","","","false","",""
"1153","","<p align='center'><b>INCORRECT.</b> Usually the green ball moves in the indicated direction, but sometimes it shakes and moves randomly. </p>","0","html-button-response","76","4767458","0.0-8.0-5.25-1.25","209","1","2025-07-09 09:21:25","7701e855f2ef39aa3fd6c71abdc6918a","105.245.4.17","Mozilla/5.0 (Windows NT 10.0; Win64; x64) AppleWebKit/537.36 (KHTML, like Gecko) Chrome/138.0.0.0 Safari/537.36","WebKit","Chrome","138.0.0.0","Windows","10.0","https://app.prolific.com/","en-GB,en-US;q=0.9,en;q=0.8","67d04d58fc4188d981d914f0","686d226cabeef709c732f8e1","686e31470e6ceb1995ece526","67d04d58fc4188d981d914f0","","","","","","","","","","","","","","","","","","","","","","","","","","","","","","","","","","","","","","","","","","","","","",""
"2837","","","{""green_ball"":[""Ball always moves in the direction I press""]}","survey-multi-select","77","4770296","0.0-8.0-5.26-0.26","209","1","2025-07-09 09:21:25","7701e855f2ef39aa3fd6c71abdc6918a","105.245.4.17","Mozilla/5.0 (Windows NT 10.0; Win64; x64) AppleWebKit/537.36 (KHTML, like Gecko) Chrome/138.0.0.0 Safari/537.36","WebKit","Chrome","138.0.0.0","Windows","10.0","https://app.prolific.com/","en-GB,en-US;q=0.9,en;q=0.8","67d04d58fc4188d981d914f0","686d226cabeef709c732f8e1","686e31470e6ceb1995ece526","67d04d58fc4188d981d914f0","","","[0]","","","","quiz","","","","","","","","","","","","","","","","","","","","","","","","","","","","","","","","","","","","","false","",""
"1431","","<p align='center'><b>INCORRECT.</b> Usually the green ball moves in the indicated direction, but sometimes it shakes and moves randomly. </p>","0","html-button-response","78","4771728","0.0-8.0-5.26-1.26","209","1","2025-07-09 09:21:25","7701e855f2ef39aa3fd6c71abdc6918a","105.245.4.17","Mozilla/5.0 (Windows NT 10.0; Win64; x64) AppleWebKit/537.36 (KHTML, like Gecko) Chrome/138.0.0.0 Safari/537.36","WebKit","Chrome","138.0.0.0","Windows","10.0","https://app.prolific.com/","en-GB,en-US;q=0.9,en;q=0.8","67d04d58fc4188d981d914f0","686d226cabeef709c732f8e1","686e31470e6ceb1995ece526","67d04d58fc4188d981d914f0","","","","","","","","","","","","","","","","","","","","","","","","","","","","","","","","","","","","","","","","","","","","","",""
"2813","","","{""green_ball"":[""Ball always moves in the direction I press""]}","survey-multi-select","79","4774541","0.0-8.0-5.27-0.27","209","1","2025-07-09 09:21:25","7701e855f2ef39aa3fd6c71abdc6918a","105.245.4.17","Mozilla/5.0 (Windows NT 10.0; Win64; x64) AppleWebKit/537.36 (KHTML, like Gecko) Chrome/138.0.0.0 Safari/537.36","WebKit","Chrome","138.0.0.0","Windows","10.0","https://app.prolific.com/","en-GB,en-US;q=0.9,en;q=0.8","67d04d58fc4188d981d914f0","686d226cabeef709c732f8e1","686e31470e6ceb1995ece526","67d04d58fc4188d981d914f0","","","[0]","","","","quiz","","","","","","","","","","","","","","","","","","","","","","","","","","","","","","","","","","","","","false","",""
"1456","","<p align='center'><b>INCORRECT.</b> Usually the green ball moves in the indicated direction, but sometimes it shakes and moves randomly. </p>","0","html-button-response","80","4775998","0.0-8.0-5.27-1.27","209","1","2025-07-09 09:21:25","7701e855f2ef39aa3fd6c71abdc6918a","105.245.4.17","Mozilla/5.0 (Windows NT 10.0; Win64; x64) AppleWebKit/537.36 (KHTML, like Gecko) Chrome/138.0.0.0 Safari/537.36","WebKit","Chrome","138.0.0.0","Windows","10.0","https://app.prolific.com/","en-GB,en-US;q=0.9,en;q=0.8","67d04d58fc4188d981d914f0","686d226cabeef709c732f8e1","686e31470e6ceb1995ece526","67d04d58fc4188d981d914f0","","","","","","","","","","","","","","","","","","","","","","","","","","","","","","","","","","","","","","","","","","","","","",""
"2848","","","{""green_ball"":[""Ball always moves in the direction I press""]}","survey-multi-select","81","4778848","0.0-8.0-5.28-0.28","209","1","2025-07-09 09:21:25","7701e855f2ef39aa3fd6c71abdc6918a","105.245.4.17","Mozilla/5.0 (Windows NT 10.0; Win64; x64) AppleWebKit/537.36 (KHTML, like Gecko) Chrome/138.0.0.0 Safari/537.36","WebKit","Chrome","138.0.0.0","Windows","10.0","https://app.prolific.com/","en-GB,en-US;q=0.9,en;q=0.8","67d04d58fc4188d981d914f0","686d226cabeef709c732f8e1","686e31470e6ceb1995ece526","67d04d58fc4188d981d914f0","","","[0]","","","","quiz","","","","","","","","","","","","","","","","","","","","","","","","","","","","","","","","","","","","","false","",""
"1242","","<p align='center'><b>INCORRECT.</b> Usually the green ball moves in the indicated direction, but sometimes it shakes and moves randomly. </p>","0","html-button-response","82","4780090","0.0-8.0-5.28-1.28","209","1","2025-07-09 09:21:25","7701e855f2ef39aa3fd6c71abdc6918a","105.245.4.17","Mozilla/5.0 (Windows NT 10.0; Win64; x64) AppleWebKit/537.36 (KHTML, like Gecko) Chrome/138.0.0.0 Safari/537.36","WebKit","Chrome","138.0.0.0","Windows","10.0","https://app.prolific.com/","en-GB,en-US;q=0.9,en;q=0.8","67d04d58fc4188d981d914f0","686d226cabeef709c732f8e1","686e31470e6ceb1995ece526","67d04d58fc4188d981d914f0","","","","","","","","","","","","","","","","","","","","","","","","","","","","","","","","","","","","","","","","","","","","","",""
"2495","","","{""green_ball"":[""Ball always moves in the direction I press""]}","survey-multi-select","83","4782587","0.0-8.0-5.29-0.29","209","1","2025-07-09 09:21:25","7701e855f2ef39aa3fd6c71abdc6918a","105.245.4.17","Mozilla/5.0 (Windows NT 10.0; Win64; x64) AppleWebKit/537.36 (KHTML, like Gecko) Chrome/138.0.0.0 Safari/537.36","WebKit","Chrome","138.0.0.0","Windows","10.0","https://app.prolific.com/","en-GB,en-US;q=0.9,en;q=0.8","67d04d58fc4188d981d914f0","686d226cabeef709c732f8e1","686e31470e6ceb1995ece526","67d04d58fc4188d981d914f0","","","[0]","","","","quiz","","","","","","","","","","","","","","","","","","","","","","","","","","","","","","","","","","","","","false","",""
"1279","","<p align='center'><b>INCORRECT.</b> Usually the green ball moves in the indicated direction, but sometimes it shakes and moves randomly. </p>","0","html-button-response","84","4783867","0.0-8.0-5.29-1.29","209","1","2025-07-09 09:21:25","7701e855f2ef39aa3fd6c71abdc6918a","105.245.4.17","Mozilla/5.0 (Windows NT 10.0; Win64; x64) AppleWebKit/537.36 (KHTML, like Gecko) Chrome/138.0.0.0 Safari/537.36","WebKit","Chrome","138.0.0.0","Windows","10.0","https://app.prolific.com/","en-GB,en-US;q=0.9,en;q=0.8","67d04d58fc4188d981d914f0","686d226cabeef709c732f8e1","686e31470e6ceb1995ece526","67d04d58fc4188d981d914f0","","","","","","","","","","","","","","","","","","","","","","","","","","","","","","","","","","","","","","","","","","","","","",""
"3138","","","{""green_ball"":[""Ball always moves in the direction I press""]}","survey-multi-select","85","4787005","0.0-8.0-5.30-0.30","209","1","2025-07-09 09:21:25","7701e855f2ef39aa3fd6c71abdc6918a","105.245.4.17","Mozilla/5.0 (Windows NT 10.0; Win64; x64) AppleWebKit/537.36 (KHTML, like Gecko) Chrome/138.0.0.0 Safari/537.36","WebKit","Chrome","138.0.0.0","Windows","10.0","https://app.prolific.com/","en-GB,en-US;q=0.9,en;q=0.8","67d04d58fc4188d981d914f0","686d226cabeef709c732f8e1","686e31470e6ceb1995ece526","67d04d58fc4188d981d914f0","","","[0]","","","","quiz","","","","","","","","","","","","","","","","","","","","","","","","","","","","","","","","","","","","","false","",""
"2647","","<p align='center'><b>INCORRECT.</b> Usually the green ball moves in the indicated direction, but sometimes it shakes and moves randomly. </p>","0","html-button-response","86","4789653","0.0-8.0-5.30-1.30","209","1","2025-07-09 09:21:25","7701e855f2ef39aa3fd6c71abdc6918a","105.245.4.17","Mozilla/5.0 (Windows NT 10.0; Win64; x64) AppleWebKit/537.36 (KHTML, like Gecko) Chrome/138.0.0.0 Safari/537.36","WebKit","Chrome","138.0.0.0","Windows","10.0","https://app.prolific.com/","en-GB,en-US;q=0.9,en;q=0.8","67d04d58fc4188d981d914f0","686d226cabeef709c732f8e1","686e31470e6ceb1995ece526","67d04d58fc4188d981d914f0","","","","","","","","","","","","","","","","","","","","","","","","","","","","","","","","","","","","","","","","","","","","","",""
"2558","","","{""green_ball"":[""Ball always moves in the direction I press""]}","survey-multi-select","87","4792212","0.0-8.0-5.31-0.31","209","1","2025-07-09 09:21:25","7701e855f2ef39aa3fd6c71abdc6918a","105.245.4.17","Mozilla/5.0 (Windows NT 10.0; Win64; x64) AppleWebKit/537.36 (KHTML, like Gecko) Chrome/138.0.0.0 Safari/537.36","WebKit","Chrome","138.0.0.0","Windows","10.0","https://app.prolific.com/","en-GB,en-US;q=0.9,en;q=0.8","67d04d58fc4188d981d914f0","686d226cabeef709c732f8e1","686e31470e6ceb1995ece526","67d04d58fc4188d981d914f0","","","[0]","","","","quiz","","","","","","","","","","","","","","","","","","","","","","","","","","","","","","","","","","","","","false","",""
"1516","","<p align='center'><b>INCORRECT.</b> Usually the green ball moves in the indicated direction, but sometimes it shakes and moves randomly. </p>","0","html-button-response","88","4793730","0.0-8.0-5.31-1.31","209","1","2025-07-09 09:21:25","7701e855f2ef39aa3fd6c71abdc6918a","105.245.4.17","Mozilla/5.0 (Windows NT 10.0; Win64; x64) AppleWebKit/537.36 (KHTML, like Gecko) Chrome/138.0.0.0 Safari/537.36","WebKit","Chrome","138.0.0.0","Windows","10.0","https://app.prolific.com/","en-GB,en-US;q=0.9,en;q=0.8","67d04d58fc4188d981d914f0","686d226cabeef709c732f8e1","686e31470e6ceb1995ece526","67d04d58fc4188d981d914f0","","","","","","","","","","","","","","","","","","","","","","","","","","","","","","","","","","","","","","","","","","","","","",""
"2735","","","{""green_ball"":[""Ball always moves in the direction I press""]}","survey-multi-select","89","4796466","0.0-8.0-5.32-0.32","209","1","2025-07-09 09:21:25","7701e855f2ef39aa3fd6c71abdc6918a","105.245.4.17","Mozilla/5.0 (Windows NT 10.0; Win64; x64) AppleWebKit/537.36 (KHTML, like Gecko) Chrome/138.0.0.0 Safari/537.36","WebKit","Chrome","138.0.0.0","Windows","10.0","https://app.prolific.com/","en-GB,en-US;q=0.9,en;q=0.8","67d04d58fc4188d981d914f0","686d226cabeef709c732f8e1","686e31470e6ceb1995ece526","67d04d58fc4188d981d914f0","","","[0]","","","","quiz","","","","","","","","","","","","","","","","","","","","","","","","","","","","","","","","","","","","","false","",""
"1302","","<p align='center'><b>INCORRECT.</b> Usually the green ball moves in the indicated direction, but sometimes it shakes and moves randomly. </p>","0","html-button-response","90","4797770","0.0-8.0-5.32-1.32","209","1","2025-07-09 09:21:25","7701e855f2ef39aa3fd6c71abdc6918a","105.245.4.17","Mozilla/5.0 (Windows NT 10.0; Win64; x64) AppleWebKit/537.36 (KHTML, like Gecko) Chrome/138.0.0.0 Safari/537.36","WebKit","Chrome","138.0.0.0","Windows","10.0","https://app.prolific.com/","en-GB,en-US;q=0.9,en;q=0.8","67d04d58fc4188d981d914f0","686d226cabeef709c732f8e1","686e31470e6ceb1995ece526","67d04d58fc4188d981d914f0","","","","","","","","","","","","","","","","","","","","","","","","","","","","","","","","","","","","","","","","","","","","","",""
"2822","","","{""green_ball"":[""Ball always moves in the direction I press""]}","survey-multi-select","91","4800593","0.0-8.0-5.33-0.33","209","1","2025-07-09 09:21:25","7701e855f2ef39aa3fd6c71abdc6918a","105.245.4.17","Mozilla/5.0 (Windows NT 10.0; Win64; x64) AppleWebKit/537.36 (KHTML, like Gecko) Chrome/138.0.0.0 Safari/537.36","WebKit","Chrome","138.0.0.0","Windows","10.0","https://app.prolific.com/","en-GB,en-US;q=0.9,en;q=0.8","67d04d58fc4188d981d914f0","686d226cabeef709c732f8e1","686e31470e6ceb1995ece526","67d04d58fc4188d981d914f0","","","[0]","","","","quiz","","","","","","","","","","","","","","","","","","","","","","","","","","","","","","","","","","","","","false","",""
"1242","","<p align='center'><b>INCORRECT.</b> Usually the green ball moves in the indicated direction, but sometimes it shakes and moves randomly. </p>","0","html-button-response","92","4801835","0.0-8.0-5.33-1.33","209","1","2025-07-09 09:21:25","7701e855f2ef39aa3fd6c71abdc6918a","105.245.4.17","Mozilla/5.0 (Windows NT 10.0; Win64; x64) AppleWebKit/537.36 (KHTML, like Gecko) Chrome/138.0.0.0 Safari/537.36","WebKit","Chrome","138.0.0.0","Windows","10.0","https://app.prolific.com/","en-GB,en-US;q=0.9,en;q=0.8","67d04d58fc4188d981d914f0","686d226cabeef709c732f8e1","686e31470e6ceb1995ece526","67d04d58fc4188d981d914f0","","","","","","","","","","","","","","","","","","","","","","","","","","","","","","","","","","","","","","","","","","","","","",""
"2822","","","{""green_ball"":[""Ball always moves in the direction I press""]}","survey-multi-select","93","4804658","0.0-8.0-5.34-0.34","209","1","2025-07-09 09:21:25","7701e855f2ef39aa3fd6c71abdc6918a","105.245.4.17","Mozilla/5.0 (Windows NT 10.0; Win64; x64) AppleWebKit/537.36 (KHTML, like Gecko) Chrome/138.0.0.0 Safari/537.36","WebKit","Chrome","138.0.0.0","Windows","10.0","https://app.prolific.com/","en-GB,en-US;q=0.9,en;q=0.8","67d04d58fc4188d981d914f0","686d226cabeef709c732f8e1","686e31470e6ceb1995ece526","67d04d58fc4188d981d914f0","","","[0]","","","","quiz","","","","","","","","","","","","","","","","","","","","","","","","","","","","","","","","","","","","","false","",""
"1317","","<p align='center'><b>INCORRECT.</b> Usually the green ball moves in the indicated direction, but sometimes it shakes and moves randomly. </p>","0","html-button-response","94","4805975","0.0-8.0-5.34-1.34","209","1","2025-07-09 09:21:25","7701e855f2ef39aa3fd6c71abdc6918a","105.245.4.17","Mozilla/5.0 (Windows NT 10.0; Win64; x64) AppleWebKit/537.36 (KHTML, like Gecko) Chrome/138.0.0.0 Safari/537.36","WebKit","Chrome","138.0.0.0","Windows","10.0","https://app.prolific.com/","en-GB,en-US;q=0.9,en;q=0.8","67d04d58fc4188d981d914f0","686d226cabeef709c732f8e1","686e31470e6ceb1995ece526","67d04d58fc4188d981d914f0","","","","","","","","","","","","","","","","","","","","","","","","","","","","","","","","","","","","","","","","","","","","","",""
"10239","","","{""green_ball"":[""Ball always moves in the direction I press""]}","survey-multi-select","95","4816215","0.0-8.0-5.35-0.35","209","1","2025-07-09 09:21:25","7701e855f2ef39aa3fd6c71abdc6918a","105.245.4.17","Mozilla/5.0 (Windows NT 10.0; Win64; x64) AppleWebKit/537.36 (KHTML, like Gecko) Chrome/138.0.0.0 Safari/537.36","WebKit","Chrome","138.0.0.0","Windows","10.0","https://app.prolific.com/","en-GB,en-US;q=0.9,en;q=0.8","67d04d58fc4188d981d914f0","686d226cabeef709c732f8e1","686e31470e6ceb1995ece526","67d04d58fc4188d981d914f0","","","[0]","","","","quiz","","","","","","","","","","","","","","","","","","","","","","","","","","","","","","","","","","","","","false","",""
"1231","","<p align='center'><b>INCORRECT.</b> Usually the green ball moves in the indicated direction, but sometimes it shakes and moves randomly. </p>","0","html-button-response","96","4817446","0.0-8.0-5.35-1.35","209","1","2025-07-09 09:21:25","7701e855f2ef39aa3fd6c71abdc6918a","105.245.4.17","Mozilla/5.0 (Windows NT 10.0; Win64; x64) AppleWebKit/537.36 (KHTML, like Gecko) Chrome/138.0.0.0 Safari/537.36","WebKit","Chrome","138.0.0.0","Windows","10.0","https://app.prolific.com/","en-GB,en-US;q=0.9,en;q=0.8","67d04d58fc4188d981d914f0","686d226cabeef709c732f8e1","686e31470e6ceb1995ece526","67d04d58fc4188d981d914f0","","","","","","","","","","","","","","","","","","","","","","","","","","","","","","","","","","","","","","","","","","","","","",""
"2130","","","{""green_ball"":[""Ball always moves in the direction I press""]}","survey-multi-select","97","4819577","0.0-8.0-5.36-0.36","209","1","2025-07-09 09:21:25","7701e855f2ef39aa3fd6c71abdc6918a","105.245.4.17","Mozilla/5.0 (Windows NT 10.0; Win64; x64) AppleWebKit/537.36 (KHTML, like Gecko) Chrome/138.0.0.0 Safari/537.36","WebKit","Chrome","138.0.0.0","Windows","10.0","https://app.prolific.com/","en-GB,en-US;q=0.9,en;q=0.8","67d04d58fc4188d981d914f0","686d226cabeef709c732f8e1","686e31470e6ceb1995ece526","67d04d58fc4188d981d914f0","","","[0]","","","","quiz","","","","","","","","","","","","","","","","","","","","","","","","","","","","","","","","","","","","","false","",""
"2069","","<p align='center'><b>INCORRECT.</b> Usually the green ball moves in the indicated direction, but sometimes it shakes and moves randomly. </p>","0","html-button-response","98","4821647","0.0-8.0-5.36-1.36","209","1","2025-07-09 09:21:25","7701e855f2ef39aa3fd6c71abdc6918a","105.245.4.17","Mozilla/5.0 (Windows NT 10.0; Win64; x64) AppleWebKit/537.36 (KHTML, like Gecko) Chrome/138.0.0.0 Safari/537.36","WebKit","Chrome","138.0.0.0","Windows","10.0","https://app.prolific.com/","en-GB,en-US;q=0.9,en;q=0.8","67d04d58fc4188d981d914f0","686d226cabeef709c732f8e1","686e31470e6ceb1995ece526","67d04d58fc4188d981d914f0","","","","","","","","","","","","","","","","","","","","","","","","","","","","","","","","","","","","","","","","","","","","","",""
"2985","","","{""green_ball"":[""Ball always moves in the direction I press""]}","survey-multi-select","99","4824634","0.0-8.0-5.37-0.37","209","1","2025-07-09 09:21:25","7701e855f2ef39aa3fd6c71abdc6918a","105.245.4.17","Mozilla/5.0 (Windows NT 10.0; Win64; x64) AppleWebKit/537.36 (KHTML, like Gecko) Chrome/138.0.0.0 Safari/537.36","WebKit","Chrome","138.0.0.0","Windows","10.0","https://app.prolific.com/","en-GB,en-US;q=0.9,en;q=0.8","67d04d58fc4188d981d914f0","686d226cabeef709c732f8e1","686e31470e6ceb1995ece526","67d04d58fc4188d981d914f0","","","[0]","","","","quiz","","","","","","","","","","","","","","","","","","","","","","","","","","","","","","","","","","","","","false","",""
"4379","","<p align='center'><b>INCORRECT.</b> Usually the green ball moves in the indicated direction, but sometimes it shakes and moves randomly. </p>","0","html-button-response","100","4829013","0.0-8.0-5.37-1.37","209","1","2025-07-09 09:21:25","7701e855f2ef39aa3fd6c71abdc6918a","105.245.4.17","Mozilla/5.0 (Windows NT 10.0; Win64; x64) AppleWebKit/537.36 (KHTML, like Gecko) Chrome/138.0.0.0 Safari/537.36","WebKit","Chrome","138.0.0.0","Windows","10.0","https://app.prolific.com/","en-GB,en-US;q=0.9,en;q=0.8","67d04d58fc4188d981d914f0","686d226cabeef709c732f8e1","686e31470e6ceb1995ece526","67d04d58fc4188d981d914f0","","","","","","","","","","","","","","","","","","","","","","","","","","","","","","","","","","","","","","","","","","","","","",""
"16979","","","{""green_ball"":[""Ball always moves in the direction I press""]}","survey-multi-select","101","4845994","0.0-8.0-5.38-0.38","209","1","2025-07-09 09:21:25","7701e855f2ef39aa3fd6c71abdc6918a","105.245.4.17","Mozilla/5.0 (Windows NT 10.0; Win64; x64) AppleWebKit/537.36 (KHTML, like Gecko) Chrome/138.0.0.0 Safari/537.36","WebKit","Chrome","138.0.0.0","Windows","10.0","https://app.prolific.com/","en-GB,en-US;q=0.9,en;q=0.8","67d04d58fc4188d981d914f0","686d226cabeef709c732f8e1","686e31470e6ceb1995ece526","67d04d58fc4188d981d914f0","","","[0]","","","","quiz","","","","","","","","","","","","","","","","","","","","","","","","","","","","","","","","","","","","","false","",""
"1332","","<p align='center'><b>INCORRECT.</b> Usually the green ball moves in the indicated direction, but sometimes it shakes and moves randomly. </p>","0","html-button-response","102","4847327","0.0-8.0-5.38-1.38","209","1","2025-07-09 09:21:25","7701e855f2ef39aa3fd6c71abdc6918a","105.245.4.17","Mozilla/5.0 (Windows NT 10.0; Win64; x64) AppleWebKit/537.36 (KHTML, like Gecko) Chrome/138.0.0.0 Safari/537.36","WebKit","Chrome","138.0.0.0","Windows","10.0","https://app.prolific.com/","en-GB,en-US;q=0.9,en;q=0.8","67d04d58fc4188d981d914f0","686d226cabeef709c732f8e1","686e31470e6ceb1995ece526","67d04d58fc4188d981d914f0","","","","","","","","","","","","","","","","","","","","","","","","","","","","","","","","","","","","","","","","","","","","","",""
"2459","","","{""green_ball"":[""Ball always moves in the direction I press""]}","survey-multi-select","103","4849787","0.0-8.0-5.39-0.39","209","1","2025-07-09 09:21:25","7701e855f2ef39aa3fd6c71abdc6918a","105.245.4.17","Mozilla/5.0 (Windows NT 10.0; Win64; x64) AppleWebKit/537.36 (KHTML, like Gecko) Chrome/138.0.0.0 Safari/537.36","WebKit","Chrome","138.0.0.0","Windows","10.0","https://app.prolific.com/","en-GB,en-US;q=0.9,en;q=0.8","67d04d58fc4188d981d914f0","686d226cabeef709c732f8e1","686e31470e6ceb1995ece526","67d04d58fc4188d981d914f0","","","[0]","","","","quiz","","","","","","","","","","","","","","","","","","","","","","","","","","","","","","","","","","","","","false","",""
"2059","","<p align='center'><b>INCORRECT.</b> Usually the green ball moves in the indicated direction, but sometimes it shakes and moves randomly. </p>","0","html-button-response","104","4851846","0.0-8.0-5.39-1.39","209","1","2025-07-09 09:21:25","7701e855f2ef39aa3fd6c71abdc6918a","105.245.4.17","Mozilla/5.0 (Windows NT 10.0; Win64; x64) AppleWebKit/537.36 (KHTML, like Gecko) Chrome/138.0.0.0 Safari/537.36","WebKit","Chrome","138.0.0.0","Windows","10.0","https://app.prolific.com/","en-GB,en-US;q=0.9,en;q=0.8","67d04d58fc4188d981d914f0","686d226cabeef709c732f8e1","686e31470e6ceb1995ece526","67d04d58fc4188d981d914f0","","","","","","","","","","","","","","","","","","","","","","","","","","","","","","","","","","","","","","","","","","","","","",""
"2597","","","{""green_ball"":[""Ball always moves in the direction I press""]}","survey-multi-select","105","4854445","0.0-8.0-5.40-0.40","209","1","2025-07-09 09:21:25","7701e855f2ef39aa3fd6c71abdc6918a","105.245.4.17","Mozilla/5.0 (Windows NT 10.0; Win64; x64) AppleWebKit/537.36 (KHTML, like Gecko) Chrome/138.0.0.0 Safari/537.36","WebKit","Chrome","138.0.0.0","Windows","10.0","https://app.prolific.com/","en-GB,en-US;q=0.9,en;q=0.8","67d04d58fc4188d981d914f0","686d226cabeef709c732f8e1","686e31470e6ceb1995ece526","67d04d58fc4188d981d914f0","","","[0]","","","","quiz","","","","","","","","","","","","","","","","","","","","","","","","","","","","","","","","","","","","","false","",""
"1256","","<p align='center'><b>INCORRECT.</b> Usually the green ball moves in the indicated direction, but sometimes it shakes and moves randomly. </p>","0","html-button-response","106","4855701","0.0-8.0-5.40-1.40","209","1","2025-07-09 09:21:25","7701e855f2ef39aa3fd6c71abdc6918a","105.245.4.17","Mozilla/5.0 (Windows NT 10.0; Win64; x64) AppleWebKit/537.36 (KHTML, like Gecko) Chrome/138.0.0.0 Safari/537.36","WebKit","Chrome","138.0.0.0","Windows","10.0","https://app.prolific.com/","en-GB,en-US;q=0.9,en;q=0.8","67d04d58fc4188d981d914f0","686d226cabeef709c732f8e1","686e31470e6ceb1995ece526","67d04d58fc4188d981d914f0","","","","","","","","","","","","","","","","","","","","","","","","","","","","","","","","","","","","","","","","","","","","","",""
"4655","","","{""green_ball"":[""Ball always moves in the direction I press""]}","survey-multi-select","107","4860358","0.0-8.0-5.41-0.41","209","1","2025-07-09 09:21:25","7701e855f2ef39aa3fd6c71abdc6918a","105.245.4.17","Mozilla/5.0 (Windows NT 10.0; Win64; x64) AppleWebKit/537.36 (KHTML, like Gecko) Chrome/138.0.0.0 Safari/537.36","WebKit","Chrome","138.0.0.0","Windows","10.0","https://app.prolific.com/","en-GB,en-US;q=0.9,en;q=0.8","67d04d58fc4188d981d914f0","686d226cabeef709c732f8e1","686e31470e6ceb1995ece526","67d04d58fc4188d981d914f0","","","[0]","","","","quiz","","","","","","","","","","","","","","","","","","","","","","","","","","","","","","","","","","","","","false","",""
"1191","","<p align='center'><b>INCORRECT.</b> Usually the green ball moves in the indicated direction, but sometimes it shakes and moves randomly. </p>","0","html-button-response","108","4861550","0.0-8.0-5.41-1.41","209","1","2025-07-09 09:21:25","7701e855f2ef39aa3fd6c71abdc6918a","105.245.4.17","Mozilla/5.0 (Windows NT 10.0; Win64; x64) AppleWebKit/537.36 (KHTML, like Gecko) Chrome/138.0.0.0 Safari/537.36","WebKit","Chrome","138.0.0.0","Windows","10.0","https://app.prolific.com/","en-GB,en-US;q=0.9,en;q=0.8","67d04d58fc4188d981d914f0","686d226cabeef709c732f8e1","686e31470e6ceb1995ece526","67d04d58fc4188d981d914f0","","","","","","","","","","","","","","","","","","","","","","","","","","","","","","","","","","","","","","","","","","","","","",""
"2585","","","{""green_ball"":[""Ball always moves in the direction I press""]}","survey-multi-select","109","4864136","0.0-8.0-5.42-0.42","209","1","2025-07-09 09:21:25","7701e855f2ef39aa3fd6c71abdc6918a","105.245.4.17","Mozilla/5.0 (Windows NT 10.0; Win64; x64) AppleWebKit/537.36 (KHTML, like Gecko) Chrome/138.0.0.0 Safari/537.36","WebKit","Chrome","138.0.0.0","Windows","10.0","https://app.prolific.com/","en-GB,en-US;q=0.9,en;q=0.8","67d04d58fc4188d981d914f0","686d226cabeef709c732f8e1","686e31470e6ceb1995ece526","67d04d58fc4188d981d914f0","","","[0]","","","","quiz","","","","","","","","","","","","","","","","","","","","","","","","","","","","","","","","","","","","","false","",""
"1356","","<p align='center'><b>INCORRECT.</b> Usually the green ball moves in the indicated direction, but sometimes it shakes and moves randomly. </p>","0","html-button-response","110","4865493","0.0-8.0-5.42-1.42","209","1","2025-07-09 09:21:25","7701e855f2ef39aa3fd6c71abdc6918a","105.245.4.17","Mozilla/5.0 (Windows NT 10.0; Win64; x64) AppleWebKit/537.36 (KHTML, like Gecko) Chrome/138.0.0.0 Safari/537.36","WebKit","Chrome","138.0.0.0","Windows","10.0","https://app.prolific.com/","en-GB,en-US;q=0.9,en;q=0.8","67d04d58fc4188d981d914f0","686d226cabeef709c732f8e1","686e31470e6ceb1995ece526","67d04d58fc4188d981d914f0","","","","","","","","","","","","","","","","","","","","","","","","","","","","","","","","","","","","","","","","","","","","","",""
"2621","","","{""green_ball"":[""Ball always moves in the direction I press""]}","survey-multi-select","111","4868115","0.0-8.0-5.43-0.43","209","1","2025-07-09 09:21:25","7701e855f2ef39aa3fd6c71abdc6918a","105.245.4.17","Mozilla/5.0 (Windows NT 10.0; Win64; x64) AppleWebKit/537.36 (KHTML, like Gecko) Chrome/138.0.0.0 Safari/537.36","WebKit","Chrome","138.0.0.0","Windows","10.0","https://app.prolific.com/","en-GB,en-US;q=0.9,en;q=0.8","67d04d58fc4188d981d914f0","686d226cabeef709c732f8e1","686e31470e6ceb1995ece526","67d04d58fc4188d981d914f0","","","[0]","","","","quiz","","","","","","","","","","","","","","","","","","","","","","","","","","","","","","","","","","","","","false","",""
"1142","","<p align='center'><b>INCORRECT.</b> Usually the green ball moves in the indicated direction, but sometimes it shakes and moves randomly. </p>","0","html-button-response","112","4869257","0.0-8.0-5.43-1.43","209","1","2025-07-09 09:21:25","7701e855f2ef39aa3fd6c71abdc6918a","105.245.4.17","Mozilla/5.0 (Windows NT 10.0; Win64; x64) AppleWebKit/537.36 (KHTML, like Gecko) Chrome/138.0.0.0 Safari/537.36","WebKit","Chrome","138.0.0.0","Windows","10.0","https://app.prolific.com/","en-GB,en-US;q=0.9,en;q=0.8","67d04d58fc4188d981d914f0","686d226cabeef709c732f8e1","686e31470e6ceb1995ece526","67d04d58fc4188d981d914f0","","","","","","","","","","","","","","","","","","","","","","","","","","","","","","","","","","","","","","","","","","","","","",""
"2207","","","{""green_ball"":[""Ball always moves in the direction I press""]}","survey-multi-select","113","4871465","0.0-8.0-5.44-0.44","209","1","2025-07-09 09:21:25","7701e855f2ef39aa3fd6c71abdc6918a","105.245.4.17","Mozilla/5.0 (Windows NT 10.0; Win64; x64) AppleWebKit/537.36 (KHTML, like Gecko) Chrome/138.0.0.0 Safari/537.36","WebKit","Chrome","138.0.0.0","Windows","10.0","https://app.prolific.com/","en-GB,en-US;q=0.9,en;q=0.8","67d04d58fc4188d981d914f0","686d226cabeef709c732f8e1","686e31470e6ceb1995ece526","67d04d58fc4188d981d914f0","","","[0]","","","","quiz","","","","","","","","","","","","","","","","","","","","","","","","","","","","","","","","","","","","","false","",""
"1091","","<p align='center'><b>INCORRECT.</b> Usually the green ball moves in the indicated direction, but sometimes it shakes and moves randomly. </p>","0","html-button-response","114","4872557","0.0-8.0-5.44-1.44","209","1","2025-07-09 09:21:25","7701e855f2ef39aa3fd6c71abdc6918a","105.245.4.17","Mozilla/5.0 (Windows NT 10.0; Win64; x64) AppleWebKit/537.36 (KHTML, like Gecko) Chrome/138.0.0.0 Safari/537.36","WebKit","Chrome","138.0.0.0","Windows","10.0","https://app.prolific.com/","en-GB,en-US;q=0.9,en;q=0.8","67d04d58fc4188d981d914f0","686d226cabeef709c732f8e1","686e31470e6ceb1995ece526","67d04d58fc4188d981d914f0","","","","","","","","","","","","","","","","","","","","","","","","","","","","","","","","","","","","","","","","","","","","","",""
"2585","","","{""green_ball"":[""Ball always moves in the direction I press""]}","survey-multi-select","115","4875144","0.0-8.0-5.45-0.45","209","1","2025-07-09 09:21:25","7701e855f2ef39aa3fd6c71abdc6918a","105.245.4.17","Mozilla/5.0 (Windows NT 10.0; Win64; x64) AppleWebKit/537.36 (KHTML, like Gecko) Chrome/138.0.0.0 Safari/537.36","WebKit","Chrome","138.0.0.0","Windows","10.0","https://app.prolific.com/","en-GB,en-US;q=0.9,en;q=0.8","67d04d58fc4188d981d914f0","686d226cabeef709c732f8e1","686e31470e6ceb1995ece526","67d04d58fc4188d981d914f0","","","[0]","","","","quiz","","","","","","","","","","","","","","","","","","","","","","","","","","","","","","","","","","","","","false","",""
"3210","","<p align='center'><b>INCORRECT.</b> Usually the green ball moves in the indicated direction, but sometimes it shakes and moves randomly. </p>","0","html-button-response","116","4878355","0.0-8.0-5.45-1.45","209","1","2025-07-09 09:21:25","7701e855f2ef39aa3fd6c71abdc6918a","105.245.4.17","Mozilla/5.0 (Windows NT 10.0; Win64; x64) AppleWebKit/537.36 (KHTML, like Gecko) Chrome/138.0.0.0 Safari/537.36","WebKit","Chrome","138.0.0.0","Windows","10.0","https://app.prolific.com/","en-GB,en-US;q=0.9,en;q=0.8","67d04d58fc4188d981d914f0","686d226cabeef709c732f8e1","686e31470e6ceb1995ece526","67d04d58fc4188d981d914f0","","","","","","","","","","","","","","","","","","","","","","","","","","","","","","","","","","","","","","","","","","","","","",""
"3136","","","{""green_ball"":[""Ball always moves in the direction I press""]}","survey-multi-select","117","4881492","0.0-8.0-5.46-0.46","209","1","2025-07-09 09:21:25","7701e855f2ef39aa3fd6c71abdc6918a","105.245.4.17","Mozilla/5.0 (Windows NT 10.0; Win64; x64) AppleWebKit/537.36 (KHTML, like Gecko) Chrome/138.0.0.0 Safari/537.36","WebKit","Chrome","138.0.0.0","Windows","10.0","https://app.prolific.com/","en-GB,en-US;q=0.9,en;q=0.8","67d04d58fc4188d981d914f0","686d226cabeef709c732f8e1","686e31470e6ceb1995ece526","67d04d58fc4188d981d914f0","","","[0]","","","","quiz","","","","","","","","","","","","","","","","","","","","","","","","","","","","","","","","","","","","","false","",""
"1216","","<p align='center'><b>INCORRECT.</b> Usually the green ball moves in the indicated direction, but sometimes it shakes and moves randomly. </p>","0","html-button-response","118","4882708","0.0-8.0-5.46-1.46","209","1","2025-07-09 09:21:25","7701e855f2ef39aa3fd6c71abdc6918a","105.245.4.17","Mozilla/5.0 (Windows NT 10.0; Win64; x64) AppleWebKit/537.36 (KHTML, like Gecko) Chrome/138.0.0.0 Safari/537.36","WebKit","Chrome","138.0.0.0","Windows","10.0","https://app.prolific.com/","en-GB,en-US;q=0.9,en;q=0.8","67d04d58fc4188d981d914f0","686d226cabeef709c732f8e1","686e31470e6ceb1995ece526","67d04d58fc4188d981d914f0","","","","","","","","","","","","","","","","","","","","","","","","","","","","","","","","","","","","","","","","","","","","","",""
"2711","","","{""green_ball"":[""Ball always moves in the direction I press""]}","survey-multi-select","119","4885420","0.0-8.0-5.47-0.47","209","1","2025-07-09 09:21:25","7701e855f2ef39aa3fd6c71abdc6918a","105.245.4.17","Mozilla/5.0 (Windows NT 10.0; Win64; x64) AppleWebKit/537.36 (KHTML, like Gecko) Chrome/138.0.0.0 Safari/537.36","WebKit","Chrome","138.0.0.0","Windows","10.0","https://app.prolific.com/","en-GB,en-US;q=0.9,en;q=0.8","67d04d58fc4188d981d914f0","686d226cabeef709c732f8e1","686e31470e6ceb1995ece526","67d04d58fc4188d981d914f0","","","[0]","","","","quiz","","","","","","","","","","","","","","","","","","","","","","","","","","","","","","","","","","","","","false","",""
"1919","","<p align='center'><b>INCORRECT.</b> Usually the green ball moves in the indicated direction, but sometimes it shakes and moves randomly. </p>","0","html-button-response","120","4887340","0.0-8.0-5.47-1.47","209","1","2025-07-09 09:21:25","7701e855f2ef39aa3fd6c71abdc6918a","105.245.4.17","Mozilla/5.0 (Windows NT 10.0; Win64; x64) AppleWebKit/537.36 (KHTML, like Gecko) Chrome/138.0.0.0 Safari/537.36","WebKit","Chrome","138.0.0.0","Windows","10.0","https://app.prolific.com/","en-GB,en-US;q=0.9,en;q=0.8","67d04d58fc4188d981d914f0","686d226cabeef709c732f8e1","686e31470e6ceb1995ece526","67d04d58fc4188d981d914f0","","","","","","","","","","","","","","","","","","","","","","","","","","","","","","","","","","","","","","","","","","","","","",""
"2622","","","{""green_ball"":[""Ball always moves in the direction I press""]}","survey-multi-select","121","4889963","0.0-8.0-5.48-0.48","209","1","2025-07-09 09:21:25","7701e855f2ef39aa3fd6c71abdc6918a","105.245.4.17","Mozilla/5.0 (Windows NT 10.0; Win64; x64) AppleWebKit/537.36 (KHTML, like Gecko) Chrome/138.0.0.0 Safari/537.36","WebKit","Chrome","138.0.0.0","Windows","10.0","https://app.prolific.com/","en-GB,en-US;q=0.9,en;q=0.8","67d04d58fc4188d981d914f0","686d226cabeef709c732f8e1","686e31470e6ceb1995ece526","67d04d58fc4188d981d914f0","","","[0]","","","","quiz","","","","","","","","","","","","","","","","","","","","","","","","","","","","","","","","","","","","","false","",""
"4982","","<p align='center'><b>INCORRECT.</b> Usually the green ball moves in the indicated direction, but sometimes it shakes and moves randomly. </p>","0","html-button-response","122","4894945","0.0-8.0-5.48-1.48","209","1","2025-07-09 09:21:25","7701e855f2ef39aa3fd6c71abdc6918a","105.245.4.17","Mozilla/5.0 (Windows NT 10.0; Win64; x64) AppleWebKit/537.36 (KHTML, like Gecko) Chrome/138.0.0.0 Safari/537.36","WebKit","Chrome","138.0.0.0","Windows","10.0","https://app.prolific.com/","en-GB,en-US;q=0.9,en;q=0.8","67d04d58fc4188d981d914f0","686d226cabeef709c732f8e1","686e31470e6ceb1995ece526","67d04d58fc4188d981d914f0","","","","","","","","","","","","","","","","","","","","","","","","","","","","","","","","","","","","","","","","","","","","","",""
