"rt","response_timestamp","stimulus","response","trial_type","trial_index","time_elapsed","internal_node_id","run_id","condition","recorded_at","source_code_version","ip","user_agent","device","browser","browser_version","platform","platform_version","referer","accept_language","PROLIFIC_PID","STUDY_ID","SESSION_ID","prolific_id","realtime","view_history","question_order","consent","success","question_id","eventType","responses","item_order","radio_event_ids","radio_event_times","key_event_times","mouse_event_times","straightlining","zigzagging","honeypot","which_type","canvas_config","goals_layout","control_level","trial_number","tutorial_trial_number","trial_start_time","phase1_start_time","phase2_start_time","phase3_start_time","goal_1_value","goal_1_distance","goal_2_value","goal_2_distance","goal_selected","outcome","outcome_total","participant_final_score","participant_initial_score","participant_final_score_prop","goal_choice_rt","allocated_time","allocated_time_remaining","goal_direction","counts","mouse_movements","key_presses","correct","slider_start"
"25590","1752052060004","<p style='font-size:40px;line-height:1.25'><strong>Welcome to the experiment!</strong></p><p style='font-size:1.1em;line-height:1.25'>Thank you for your interest in our experiment! Before you begin, it is important that we obtain your informed consent to participate in the study.</p><p style='font-size:1.1em;line-height:1.25'>On the next screen will be an <strong>information sheet</strong> for you to read. To participate in the study we need you to read this information sheet and the following consent form carefully. If you agree with all the statements, please click the <strong>I agree</strong> button.</p><p style='font-size:1.1em;line-height:1.25'>Press <strong>Next</strong> to read the information sheet.</p>","0","custom-html-button-response","0","25593","0.0-0.0","46","1","2025-07-09 09:07:13","7701e855f2ef39aa3fd6c71abdc6918a","84.237.169.56","Mozilla/5.0 (Windows NT 10.0; Win64; x64) AppleWebKit/537.36 (KHTML, like Gecko) Chrome/137.0.0.0 Safari/537.36","WebKit","Chrome","137.0.0.0","Windows","10.0","https://app.prolific.com/","en-US,en;q=0.9","6103a3ece71ab061d5624402","686d226cabeef709c732f8e1","686e310926be30a8bc1bff63","6103a3ece71ab061d5624402","2025-07-09T09:07:40.005Z","","","","","","","","","","","","","","","","","","","","","","","","","","","","","","","","","","","","","","","","","","","",""
"10449","","","","instructions","1","36044","0.0-1.0","46","1","2025-07-09 09:07:13","7701e855f2ef39aa3fd6c71abdc6918a","84.237.169.56","Mozilla/5.0 (Windows NT 10.0; Win64; x64) AppleWebKit/537.36 (KHTML, like Gecko) Chrome/137.0.0.0 Safari/537.36","WebKit","Chrome","137.0.0.0","Windows","10.0","https://app.prolific.com/","en-US,en;q=0.9","6103a3ece71ab061d5624402","686d226cabeef709c732f8e1","686e310926be30a8bc1bff63","6103a3ece71ab061d5624402","","[{""page_index"":0,""viewing_time"":6979},{""page_index"":1,""viewing_time"":3469}]","","","","","","","","","","","","","","","","","","","","","","","","","","","","","","","","","","","","","","","","","","",""
"4572","","","{""Q0"":"""",""Q1"":"""",""Q2"":"""",""Q3"":"""",""Q4"":"""",""Q5"":"""",""Q6"":""I agree""}","survey-multi-choice","2","40624","0.0-2.0","46","1","2025-07-09 09:07:13","7701e855f2ef39aa3fd6c71abdc6918a","84.237.169.56","Mozilla/5.0 (Windows NT 10.0; Win64; x64) AppleWebKit/537.36 (KHTML, like Gecko) Chrome/137.0.0.0 Safari/537.36","WebKit","Chrome","137.0.0.0","Windows","10.0","https://app.prolific.com/","en-US,en;q=0.9","6103a3ece71ab061d5624402","686d226cabeef709c732f8e1","686e310926be30a8bc1bff63","6103a3ece71ab061d5624402","","","[0,1,2,3,4,5,6]","true","","","","","","","","","","","","","","","","","","","","","","","","","","","","","","","","","","","","","","","","",""
"24984","","","","fullscreen","3","66634","0.0-4.0","46","1","2025-07-09 09:07:13","7701e855f2ef39aa3fd6c71abdc6918a","84.237.169.56","Mozilla/5.0 (Windows NT 10.0; Win64; x64) AppleWebKit/537.36 (KHTML, like Gecko) Chrome/137.0.0.0 Safari/537.36","WebKit","Chrome","137.0.0.0","Windows","10.0","https://app.prolific.com/","en-US,en;q=0.9","6103a3ece71ab061d5624402","686d226cabeef709c732f8e1","686e310926be30a8bc1bff63","6103a3ece71ab061d5624402","","","","","true","","","","","","","","","","","","","","","","","","","","","","","","","","","","","","","","","","","","","","","",""
"10256","1752052111304"," <p style='font-size:1.1em;line-height:1.25'>Thank you for completing the consent form and closing all other tabs.</p><p style='font-size:1.1em;line-height:1.25'>We will now invite you to fill in some demographic information and questionnaires, before starting the game.<br>This will take about 5 minutes.<br></p><p style='font-size:1.1em;line-height:1.25'>Press the <strong>Next</strong> button to continue.</p>","0","custom-html-button-response","4","76893","0.0-5.0","46","1","2025-07-09 09:07:13","7701e855f2ef39aa3fd6c71abdc6918a","84.237.169.56","Mozilla/5.0 (Windows NT 10.0; Win64; x64) AppleWebKit/537.36 (KHTML, like Gecko) Chrome/137.0.0.0 Safari/537.36","WebKit","Chrome","137.0.0.0","Windows","10.0","https://app.prolific.com/","en-US,en;q=0.9","6103a3ece71ab061d5624402","686d226cabeef709c732f8e1","686e310926be30a8bc1bff63","6103a3ece71ab061d5624402","2025-07-09T09:08:31.306Z","","","","","","","","","","","","","","","","","","","","","","","","","","","","","","","","","","","","","","","","","","","",""
"4208","","","{""age"":""23""}","survey-text","5","81112","0.0-6.0-0.0","46","1","2025-07-09 09:07:13","7701e855f2ef39aa3fd6c71abdc6918a","84.237.169.56","Mozilla/5.0 (Windows NT 10.0; Win64; x64) AppleWebKit/537.36 (KHTML, like Gecko) Chrome/137.0.0.0 Safari/537.36","WebKit","Chrome","137.0.0.0","Windows","10.0","https://app.prolific.com/","en-US,en;q=0.9","6103a3ece71ab061d5624402","686d226cabeef709c732f8e1","686e310926be30a8bc1bff63","6103a3ece71ab061d5624402","","","","","","0","demographics","","","","","","","","","","","","","","","","","","","","","","","","","","","","","","","","","","","","","",""
"4946","","","{""gender_identity"":""female/woman""}","survey-multi-choice","6","86061","0.0-6.0-1.0","46","1","2025-07-09 09:07:13","7701e855f2ef39aa3fd6c71abdc6918a","84.237.169.56","Mozilla/5.0 (Windows NT 10.0; Win64; x64) AppleWebKit/537.36 (KHTML, like Gecko) Chrome/137.0.0.0 Safari/537.36","WebKit","Chrome","137.0.0.0","Windows","10.0","https://app.prolific.com/","en-US,en;q=0.9","6103a3ece71ab061d5624402","686d226cabeef709c732f8e1","686e310926be30a8bc1bff63","6103a3ece71ab061d5624402","","","[0]","","","1","demographics","","","","","","","","","","","","","","","","","","","","","","","","","","","","","","","","","","","","","",""
"3843","","","{""assigned_sex"":""female""}","survey-multi-choice","7","89908","0.0-6.0-2.0","46","1","2025-07-09 09:07:13","7701e855f2ef39aa3fd6c71abdc6918a","84.237.169.56","Mozilla/5.0 (Windows NT 10.0; Win64; x64) AppleWebKit/537.36 (KHTML, like Gecko) Chrome/137.0.0.0 Safari/537.36","WebKit","Chrome","137.0.0.0","Windows","10.0","https://app.prolific.com/","en-US,en;q=0.9","6103a3ece71ab061d5624402","686d226cabeef709c732f8e1","686e310926be30a8bc1bff63","6103a3ece71ab061d5624402","","","[0]","","","2","demographics","","","","","","","","","","","","","","","","","","","","","","","","","","","","","","","","","","","","","",""
"6090","","","{""menstrual_cycle"":""Yes""}","survey-multi-choice","8","96001","0.0-6.0-3.0","46","1","2025-07-09 09:07:13","7701e855f2ef39aa3fd6c71abdc6918a","84.237.169.56","Mozilla/5.0 (Windows NT 10.0; Win64; x64) AppleWebKit/537.36 (KHTML, like Gecko) Chrome/137.0.0.0 Safari/537.36","WebKit","Chrome","137.0.0.0","Windows","10.0","https://app.prolific.com/","en-US,en;q=0.9","6103a3ece71ab061d5624402","686d226cabeef709c732f8e1","686e310926be30a8bc1bff63","6103a3ece71ab061d5624402","","","[0]","","","4","demographics","","","","","","","","","","","","","","","","","","","","","","","","","","","","","","","","","","","","","",""
"6083","","","{""education"":""Bachelor's Degree (e.g., BA)""}","survey-multi-choice","9","102088","0.0-6.0-4.0","46","1","2025-07-09 09:07:13","7701e855f2ef39aa3fd6c71abdc6918a","84.237.169.56","Mozilla/5.0 (Windows NT 10.0; Win64; x64) AppleWebKit/537.36 (KHTML, like Gecko) Chrome/137.0.0.0 Safari/537.36","WebKit","Chrome","137.0.0.0","Windows","10.0","https://app.prolific.com/","en-US,en;q=0.9","6103a3ece71ab061d5624402","686d226cabeef709c732f8e1","686e310926be30a8bc1bff63","6103a3ece71ab061d5624402","","","[0]","","","5","demographics","","","","","","","","","","","","","","","","","","","","","","","","","","","","","","","","","","","","","",""
"24166","","","{""education"":""GCSE/Standard Grades""}","survey-multi-choice","10","126260","0.0-6.0-5.0","46","1","2025-07-09 09:07:13","7701e855f2ef39aa3fd6c71abdc6918a","84.237.169.56","Mozilla/5.0 (Windows NT 10.0; Win64; x64) AppleWebKit/537.36 (KHTML, like Gecko) Chrome/137.0.0.0 Safari/537.36","WebKit","Chrome","137.0.0.0","Windows","10.0","https://app.prolific.com/","en-US,en;q=0.9","6103a3ece71ab061d5624402","686d226cabeef709c732f8e1","686e310926be30a8bc1bff63","6103a3ece71ab061d5624402","2025-07-09T09:09:20.672Z","","[0]","","","6","demographics","","","","","","","","","","","","","","","","","","","","","","","","","","","","","","","","","","","","","",""
"61548","","","{""mental_health_condition"":""no"",""mental_health_treatment"":""no"",""psychiatric_medication"":""I dont take any medication""}","survey-text","11","187817","0.0-7.0-0.0","46","1","2025-07-09 09:07:13","7701e855f2ef39aa3fd6c71abdc6918a","84.237.169.56","Mozilla/5.0 (Windows NT 10.0; Win64; x64) AppleWebKit/537.36 (KHTML, like Gecko) Chrome/137.0.0.0 Safari/537.36","WebKit","Chrome","137.0.0.0","Windows","10.0","https://app.prolific.com/","en-US,en;q=0.9","6103a3ece71ab061d5624402","686d226cabeef709c732f8e1","686e310926be30a8bc1bff63","6103a3ece71ab061d5624402","2025-07-09T09:10:22.229Z","","","","","1","mental_health","","","","","","","","","","","","","","","","","","","","","","","","","","","","","","","","","","","","","",""
"10770","","","{""depression_history"":[""Yes""]}","survey-multi-select","12","198596","0.0-7.0-1.0","46","1","2025-07-09 09:07:13","7701e855f2ef39aa3fd6c71abdc6918a","84.237.169.56","Mozilla/5.0 (Windows NT 10.0; Win64; x64) AppleWebKit/537.36 (KHTML, like Gecko) Chrome/137.0.0.0 Safari/537.36","WebKit","Chrome","137.0.0.0","Windows","10.0","https://app.prolific.com/","en-US,en;q=0.9","6103a3ece71ab061d5624402","686d226cabeef709c732f8e1","686e310926be30a8bc1bff63","6103a3ece71ab061d5624402","","","[0]","","","","mental_health","","","","","","","","","","","","","","","","","","","","","","","","","","","","","","","","","","","","","",""
"28900","","","{""depression_episodes"":""more than 5"",""depression_recent"":""Within the past year""}","survey-multi-choice","13","227501","0.0-7.0-2.0-0.0","46","1","2025-07-09 09:07:13","7701e855f2ef39aa3fd6c71abdc6918a","84.237.169.56","Mozilla/5.0 (Windows NT 10.0; Win64; x64) AppleWebKit/537.36 (KHTML, like Gecko) Chrome/137.0.0.0 Safari/537.36","WebKit","Chrome","137.0.0.0","Windows","10.0","https://app.prolific.com/","en-US,en;q=0.9","6103a3ece71ab061d5624402","686d226cabeef709c732f8e1","686e310926be30a8bc1bff63","6103a3ece71ab061d5624402","2025-07-09T09:11:01.913Z","","[0,1]","","","3","mental_health","","","","","","","","","","","","","","","","","","","","","","","","","","","","","","","","","","","","","",""
"65239.29999998212","","","","survey-template","14","292754","0.0-7.0-3.0","46","1","2025-07-09 09:07:13","7701e855f2ef39aa3fd6c71abdc6918a","84.237.169.56","Mozilla/5.0 (Windows NT 10.0; Win64; x64) AppleWebKit/537.36 (KHTML, like Gecko) Chrome/137.0.0.0 Safari/537.36","WebKit","Chrome","137.0.0.0","Windows","10.0","https://app.prolific.com/","en-US,en;q=0.9","6103a3ece71ab061d5624402","686d226cabeef709c732f8e1","686e310926be30a8bc1bff63","6103a3ece71ab061d5624402","2025-07-09T09:12:07.166Z","","","","","","ius","{""Q01"":""3"",""Q02"":""3"",""Q03"":""3"",""Q04"":""3"",""Q05"":""3"",""Q06"":""3"",""Q07"":""3"",""Q08"":""0"",""Q09"":""2"",""Q10"":""3"",""Q11"":""3"",""Q12"":""1"",""Q13"":""2""}","[0,1,2,3,4,5,6,7,8,9,10,11,12]","[""Q01"",""Q02"",""Q03"",""Q04"",""Q05"",""Q06"",""Q07"",""Q08"",""Q09"",""Q10"",""Q11"",""Q11"",""Q12"",""Q13""]","[6266.699999988079,10147.699999988079,13829.59999999404,18160.69999998808,26422.29999998212,34855,38116.90000000596,40732.40000000596,46528.40000000596,50794.29999998212,54207.59999999404,56390,60021.79999998212,63603]","[]","[6266.699999988079,10147.699999988079,13829.59999999404,16896.59999999404,18160.69999998808,25273.90000000596,26422.29999998212,34855,38116.90000000596,40732.40000000596,46528.40000000596,49761.09999999404,50794.29999998212,54207.59999999404,55527.59999999404,56390,60021.79999998212,63603,65236.40000000596]","0.6923076923076923","0.16666666666666666","0","","","","","","","","","","","","","","","","","","","","","","","","","","","","",""
"4492","1752052331660","<p style='font-size:1.1em;line-height:1.25'>In the following, we will ask you a few questions relating to your experiences over the past month.<br></p><p style='font-size:1.1em;line-height:1.25'>Press the <strong>Next</strong> button to continue.</p>","0","custom-html-button-response","15","297248","0.0-7.0-4.0","46","1","2025-07-09 09:07:13","7701e855f2ef39aa3fd6c71abdc6918a","84.237.169.56","Mozilla/5.0 (Windows NT 10.0; Win64; x64) AppleWebKit/537.36 (KHTML, like Gecko) Chrome/137.0.0.0 Safari/537.36","WebKit","Chrome","137.0.0.0","Windows","10.0","https://app.prolific.com/","en-US,en;q=0.9","6103a3ece71ab061d5624402","686d226cabeef709c732f8e1","686e310926be30a8bc1bff63","6103a3ece71ab061d5624402","2025-07-09T09:12:11.660Z","","","","","","","","","","","","","","","","","","","","","","","","","","","","","","","","","","","","","","","","","","","",""
"82469","","","","survey-template","16","379724","0.0-7.0-5.0","46","1","2025-07-09 09:07:13","7701e855f2ef39aa3fd6c71abdc6918a","84.237.169.56","Mozilla/5.0 (Windows NT 10.0; Win64; x64) AppleWebKit/537.36 (KHTML, like Gecko) Chrome/137.0.0.0 Safari/537.36","WebKit","Chrome","137.0.0.0","Windows","10.0","https://app.prolific.com/","en-US,en;q=0.9","6103a3ece71ab061d5624402","686d226cabeef709c732f8e1","686e310926be30a8bc1bff63","6103a3ece71ab061d5624402","2025-07-09T09:13:34.136Z","","","","","","pss","{""Q01"":""2"",""Q02"":""2"",""Q03"":""2"",""Q04"":""2"",""Q05"":""2"",""Q06"":""2"",""Q07"":""1"",""Q08"":""2"",""Q09"":""2"",""Q10"":""2""}","[0,1,2,3,4,5,6,7,8,9]","[""Q01"",""Q02"",""Q03"",""Q04"",""Q05"",""Q04"",""Q06"",""Q07"",""Q08"",""Q10"",""Q09""]","[7193.799999982119,12595.699999988079,16222.899999976158,27389.5,34248.19999998808,35251.5,41882.69999998808,47728,53193.39999997616,66020.29999998212,79185.89999997616]","[]","[0.09999999403953552,7193.799999982119,12595.699999988079,16222.899999976158,27389.5,34248.19999998808,35251.5,41882.69999998808,47728,53193.39999997616,59957.5,65219,66020.29999998212,72382.79999998212,79185.89999997616,82463.89999997616]","0.9","0.2222222222222222","0","","","","","","","","","","","","","","","","","","","","","","","","","","","","",""
"4637","1752052418776","<p style='font-size:1.1em;line-height:1.25'>Thank you for your answers! Now we will ask you a few more questions relating to your feelings in the last 24 hours.<br></p><p style='font-size:1.1em;line-height:1.25'>Press the <strong>Next</strong> button to continue.</p>","0","custom-html-button-response","17","384365","0.0-7.0-6.0","46","1","2025-07-09 09:07:13","7701e855f2ef39aa3fd6c71abdc6918a","84.237.169.56","Mozilla/5.0 (Windows NT 10.0; Win64; x64) AppleWebKit/537.36 (KHTML, like Gecko) Chrome/137.0.0.0 Safari/537.36","WebKit","Chrome","137.0.0.0","Windows","10.0","https://app.prolific.com/","en-US,en;q=0.9","6103a3ece71ab061d5624402","686d226cabeef709c732f8e1","686e310926be30a8bc1bff63","6103a3ece71ab061d5624402","2025-07-09T09:13:38.777Z","","","","","","","","","","","","","","","","","","","","","","","","","","","","","","","","","","","","","","","","","","","",""
"94549.80000001192","","","","survey-template","18","478926","0.0-7.0-7.0","46","1","2025-07-09 09:07:13","7701e855f2ef39aa3fd6c71abdc6918a","84.237.169.56","Mozilla/5.0 (Windows NT 10.0; Win64; x64) AppleWebKit/537.36 (KHTML, like Gecko) Chrome/137.0.0.0 Safari/537.36","WebKit","Chrome","137.0.0.0","Windows","10.0","https://app.prolific.com/","en-US,en;q=0.9","6103a3ece71ab061d5624402","686d226cabeef709c732f8e1","686e310926be30a8bc1bff63","6103a3ece71ab061d5624402","2025-07-09T09:15:13.339Z","","","","","","drsp","{""Q01"":""1"",""Q02"":""1"",""Q03"":""1"",""Q04"":""3"",""Q05"":""2"",""Q06"":""0"",""Q07"":""0"",""Q08"":""0"",""Q09"":""2"",""Q10"":""3"",""Q11"":""2"",""Q12"":""0"",""Q13"":""0"",""Q14"":""2"",""Q15"":""3"",""Q16"":""3"",""Q17"":""2"",""Q18"":""2"",""Q19"":""2"",""Q20"":""2"",""Q21"":""2""}","[0,1,2,3,4,5,6,7,8,9,10,11,12,13,14,15,16,17,18,19,20]","[""Q01"",""Q02"",""Q03"",""Q04"",""Q05"",""Q05"",""Q06"",""Q07"",""Q08"",""Q07"",""Q09"",""Q10"",""Q11"",""Q12"",""Q13"",""Q14"",""Q15"",""Q16"",""Q16"",""Q17"",""Q18"",""Q19"",""Q20"",""Q21""]","[3908.2000000178814,5607.9000000059605,10089.700000017881,11605.600000023842,14154.300000011921,15518.100000023842,18802.80000001192,21034.600000023842,23498.20000001788,25668.20000001788,29862,33731.60000002384,37061.90000000596,39609.20000001788,41990.80000001192,46088.60000002384,50168.80000001192,52570.40000000596,55570.20000001788,59516.70000001788,67981.70000001788,74176.40000000596,78758.40000000596,91817.10000002384]","[]","[0.10000002384185791,3908.2000000178814,5607.9000000059605,10089.700000017881,11605.600000023842,14154.300000011921,15518.100000023842,18802.80000001192,21034.600000023842,23498.20000001788,24534.80000001192,25668.20000001788,29862,32776.40000000596,33731.60000002384,37061.90000000596,39609.20000001788,41990.80000001192,46088.60000002384,50168.80000001192,52570.40000000596,55570.20000001788,59516.70000001788,67981.70000001788,74176.40000000596,78758.40000000596,91817.10000002384,94537]","0.42857142857142855","0.25","0","","","","","","","","","","","","","","","","","","","","","","","","","","","","",""
"20567.90000000596","","","","survey-template","19","499501","0.0-7.0-8.0","46","1","2025-07-09 09:07:13","7701e855f2ef39aa3fd6c71abdc6918a","84.237.169.56","Mozilla/5.0 (Windows NT 10.0; Win64; x64) AppleWebKit/537.36 (KHTML, like Gecko) Chrome/137.0.0.0 Safari/537.36","WebKit","Chrome","137.0.0.0","Windows","10.0","https://app.prolific.com/","en-US,en;q=0.9","6103a3ece71ab061d5624402","686d226cabeef709c732f8e1","686e310926be30a8bc1bff63","6103a3ece71ab061d5624402","2025-07-09T09:15:33.913Z","","","","","","stress","{""Q01"":""3"",""Q02"":""4"",""Q03"":""2""}","[0,1,2]","[""Q01"",""Q02"",""Q03""]","[11735.699999988079,13220,19397.80000001192]","[]","[7803.5,11735.699999988079,13220,16817.40000000596,19397.80000001192,20565.30000001192]","0.3333333333333333","0.5","0","","","","","","","","","","","","","","","","","","","","","","","","","","","","",""
"112697","","","","instructions","20","612203","0.0-8.0-0.0","46","1","2025-07-09 09:07:13","7701e855f2ef39aa3fd6c71abdc6918a","84.237.169.56","Mozilla/5.0 (Windows NT 10.0; Win64; x64) AppleWebKit/537.36 (KHTML, like Gecko) Chrome/137.0.0.0 Safari/537.36","WebKit","Chrome","137.0.0.0","Windows","10.0","https://app.prolific.com/","en-US,en;q=0.9","6103a3ece71ab061d5624402","686d226cabeef709c732f8e1","686e310926be30a8bc1bff63","6103a3ece71ab061d5624402","","[{""page_index"":0,""viewing_time"":19870},{""page_index"":1,""viewing_time"":47098},{""page_index"":2,""viewing_time"":24118},{""page_index"":3,""viewing_time"":21609}]","","","","","","","","","","","","","","","","","","","","","","","","","","","","","","","","","","","","","","","","","","",""
"","","","","ctl-task-cpt","21","648948","0.0-8.0-1.0","46","1","2025-07-09 09:07:13","7701e855f2ef39aa3fd6c71abdc6918a","84.237.169.56","Mozilla/5.0 (Windows NT 10.0; Win64; x64) AppleWebKit/537.36 (KHTML, like Gecko) Chrome/137.0.0.0 Safari/537.36","WebKit","Chrome","137.0.0.0","Windows","10.0","https://app.prolific.com/","en-US,en;q=0.9","6103a3ece71ab061d5624402","686d226cabeef709c732f8e1","686e310926be30a8bc1bff63","6103a3ece71ab061d5624402","","","","","","","","","","","","","","","","","win-only","2","g1:SE,g2:NW","1","0","1","613634.3","3502.6","7507","33722.9","2","4","4","6","2","4","1","1","0","0.007575757575757576","3118.5","4000","1825","[""left"",""up""]","{""num_key_presses"":11,""num_perfect"":6,""num_errors"":3,""num_randdir"":0,""num_randdir_good_moves"":0,""num_whilered"":2,""num_whileblue"":0,""num_blue"":2,""num_good_moves"":6}","[416.5714133126395,416.57142761775424,2.3,416.5714133126395,416.57142761775424,100.3,416.5714133126395,416.57142761775424,204.1,416.5714133126395,416.57142761775424,304.2,416.5714133126395,416.57142761775424,409.1,416.5714133126395,416.57142761775424,516.1,416.5714133126395,416.57142761775424,618.2,416.5714133126395,416.57142761775424,718.3,416.5714133126395,416.57142761775424,818.6,412.8214133126395,421.57142761775424,918.8,201.5714133126395,189.07142761775424,1018.9,86.5714133126395,-94.67857238224575,1119.5,86.5714133126395,-84.67857238224575,1219.5,92.8214133126395,-27.178572382245747,1320,94.0714133126395,26.571427617754253,1420.1,87.8214133126395,51.57142761775425,1525.4,84.0714133126395,71.57142761775425,1632.9,82.8214133126395,76.57142761775425,1733.1,82.8214133126395,75.32142761775425,1833.2,82.8214133126395,75.32142761775425,1939.1,347.8214133126395,261.57142761775424,2044.1,641.5714133126395,520.3214276177542,2144.1,686.5714133126395,615.3214276177542,2249.6,686.5714133126395,615.3214276177542,2353.7,686.5714133126395,615.3214276177542,2454.7,314.0714133126395,231.57142761775424,2558.7,146.5714133126395,92.82142761775425,2659.7,124.0714133126395,81.57142761775425,2766.5,114.0714133126395,76.57142761775425,2869.3,106.5714133126395,76.57142761775425,2974.1,106.5714133126395,76.57142761775425,3082.4,106.5714133126395,76.57142761775425,3182.5,106.5714133126395,76.57142761775425,3282.6,106.5714133126395,76.57142761775425,3383.1,106.5714133126395,76.57142761775425,3489.4,106.5714133126395,76.57142761775425,3594.1,106.5714133126395,76.57142761775425,3699.2,106.5714133126395,76.57142761775425,3803.1,106.5714133126395,76.57142761775425,3904]","[94,93.9,1000,0.1,-906.1,""error"",""-"",""-"",""no_move"",294.7,200.4,1000,0.1,-705.4,""while_red"",""-"",""-"",""no_move"",4162.4,4068.1,2686,1100,376.4,""smooth"",""up"",""up"",""good_move"",4362.2,199.2,2757.6,4163,-2558.4,""error"",""-"",""-"",""no_move"",4518.6,155.7,2757.6,4163,-2402,""while_red"",""-"",""-"",""no_move"",9349.8,4986.9,3255,8873.7,-2778.9,""error"",""-"",""-"",""no_move"",16093.6,6743,2977,12710.1,406.6,""smooth"",""up"",""up"",""good_move"",18548.8,2455,1991.3,16093.9,463.7,""smooth"",""up"",""up"",""good_move"",20650.7,2101.4,1671.8,18549.3,429.6,""smooth"",""left"",""left"",""good_move"",23553.6,2901.9,2521.9,20651.9,379.9,""smooth"",""left"",""left"",""good_move"",26116,2561.2,2197.9,23554.8,363.3,""smooth"",""left"",""left"",""good_move""]","",""
"18872","","","","instructions","22","667821","0.0-8.0-2.0","46","1","2025-07-09 09:07:13","7701e855f2ef39aa3fd6c71abdc6918a","84.237.169.56","Mozilla/5.0 (Windows NT 10.0; Win64; x64) AppleWebKit/537.36 (KHTML, like Gecko) Chrome/137.0.0.0 Safari/537.36","WebKit","Chrome","137.0.0.0","Windows","10.0","https://app.prolific.com/","en-US,en;q=0.9","6103a3ece71ab061d5624402","686d226cabeef709c732f8e1","686e310926be30a8bc1bff63","6103a3ece71ab061d5624402","","[{""page_index"":0,""viewing_time"":18872}]","","","","","","","","","","","","","","","","","","","","","","","","","","","","","","","","","","","","","","","","","","",""
"","","","","ctl-task-cpt","23","715617","0.0-8.0-3.0","46","1","2025-07-09 09:07:13","7701e855f2ef39aa3fd6c71abdc6918a","84.237.169.56","Mozilla/5.0 (Windows NT 10.0; Win64; x64) AppleWebKit/537.36 (KHTML, like Gecko) Chrome/137.0.0.0 Safari/537.36","WebKit","Chrome","137.0.0.0","Windows","10.0","https://app.prolific.com/","en-US,en;q=0.9","6103a3ece71ab061d5624402","686d226cabeef709c732f8e1","686e310926be30a8bc1bff63","6103a3ece71ab061d5624402","","","","","","","","","","","","","","","","","win-only","2","g1:SE,g2:NW","0.35","0","3","669235","1215.9","5221.9","44786.4","2","4","8","6","2","-8","-8","0","0","0","1510.9","4000","-2700","[""left"",""up""]","{""num_key_presses"":11,""num_perfect"":4,""num_errors"":0,""num_randdir"":7,""num_randdir_good_moves"":5,""num_whilered"":0,""num_whileblue"":0,""num_blue"":2,""num_good_moves"":8}","[406.5714133126395,415.32142761775424,0.2,406.5714133126395,415.32142761775424,101.1,406.5714133126395,415.32142761775424,205.7,406.5714133126395,415.32142761775424,305.7,406.5714133126395,415.32142761775424,412,406.5714133126395,415.32142761775424,512.4,156.5714133126395,97.82142761775425,615.5,141.5714133126395,86.57142761775425,715.7,80.3214133126395,31.571427617754253,820.7,57.82141331263951,1.571427617754253,921.2,50.32141331263951,-9.678572382245747,1028,47.82141331263951,-9.678572382245747,1130.3,70.3214133126395,26.571427617754253,1234.7,86.5714133126395,61.57142761775425,1334.9,86.5714133126395,61.57142761775425,1435.7,86.5714133126395,61.57142761775425,1535.8,86.5714133126395,61.57142761775425,1641.1,86.5714133126395,61.57142761775425,1747.7,86.5714133126395,61.57142761775425,1849.6,86.5714133126395,61.57142761775425,1950.4,86.5714133126395,61.57142761775425,2055.9,86.5714133126395,61.57142761775425,2161.2,86.5714133126395,61.57142761775425,2261.4,86.5714133126395,61.57142761775425,2362.7,86.5714133126395,61.57142761775425,2466.7,86.5714133126395,61.57142761775425,2570.1,86.5714133126395,61.57142761775425,2670.2,86.5714133126395,61.57142761775425,2770.7,86.5714133126395,61.57142761775425,2875.6,86.5714133126395,61.57142761775425,2980.5,86.5714133126395,61.57142761775425,3080.8,86.5714133126395,61.57142761775425,3185,86.5714133126395,61.57142761775425,3285.7,86.5714133126395,61.57142761775425,3392,86.5714133126395,61.57142761775425,3495.5,86.5714133126395,61.57142761775425,3600.7,86.5714133126395,61.57142761775425,3705.3,86.5714133126395,61.57142761775425,3805.5,86.5714133126395,61.57142761775425,3905.7]","[1420.6,1420.6,1000,0,420.6,""oops"",""up"",""down"",""bad_move"",7771.2,6350.2,2382.2,4993.6,395.4,""smooth"",""down"",""down"",""bad_move"",10818.1,3046.6,2598.7,7771.5,447.9,""smooth"",""left"",""left"",""good_move"",13384,2565.5,2160.7,10818.5,404.8,""oops"",""left"",""left"",""good_move"",16136.8,2752.5,2316.2,13384.3,436.3,""smooth"",""up"",""up"",""good_move"",19163.3,3025.9,2660.6,16137.4,365.3,""smooth"",""up"",""up"",""good_move"",21412.5,2248.9,1901.9,19163.6,347,""oops"",""up"",""up"",""good_move"",24596.8,3184,2861.6,21412.9,322.3,""oops"",""up"",""left"",""good_move"",30691.2,6094.1,2244.9,28046.2,400.1,""oops"",""up"",""up"",""good_move"",33894.7,3203.2,2850.6,30691.5,352.6,""oops"",""up"",""down"",""bad_move"",36590.9,2695.9,2364.5,33895,331.4,""oops"",""up"",""up"",""good_move""]","",""
"42552","","","","instructions","24","758171","0.0-8.0-4.0","46","1","2025-07-09 09:07:13","7701e855f2ef39aa3fd6c71abdc6918a","84.237.169.56","Mozilla/5.0 (Windows NT 10.0; Win64; x64) AppleWebKit/537.36 (KHTML, like Gecko) Chrome/137.0.0.0 Safari/537.36","WebKit","Chrome","137.0.0.0","Windows","10.0","https://app.prolific.com/","en-US,en;q=0.9","6103a3ece71ab061d5624402","686d226cabeef709c732f8e1","686e310926be30a8bc1bff63","6103a3ece71ab061d5624402","","[{""page_index"":0,""viewing_time"":12322},{""page_index"":1,""viewing_time"":30230}]","","","","","","","","","","","","","","","","","","","","","","","","","","","","","","","","","","","","","","","","","","",""
"23881","","","{""green_ball"":[""Ball always moves in the direction I press""]}","survey-multi-select","25","782058","0.0-8.0-5.0-0.0","46","1","2025-07-09 09:07:13","7701e855f2ef39aa3fd6c71abdc6918a","84.237.169.56","Mozilla/5.0 (Windows NT 10.0; Win64; x64) AppleWebKit/537.36 (KHTML, like Gecko) Chrome/137.0.0.0 Safari/537.36","WebKit","Chrome","137.0.0.0","Windows","10.0","https://app.prolific.com/","en-US,en;q=0.9","6103a3ece71ab061d5624402","686d226cabeef709c732f8e1","686e310926be30a8bc1bff63","6103a3ece71ab061d5624402","","","[0]","","","","quiz","","","","","","","","","","","","","","","","","","","","","","","","","","","","","","","","","","","","","false",""
"5415","","<p align='center'><b>INCORRECT.</b> Usually the green ball moves in the indicated direction, but sometimes it shakes and moves randomly. </p>","0","html-button-response","26","787480","0.0-8.0-5.0-1.0","46","1","2025-07-09 09:07:13","7701e855f2ef39aa3fd6c71abdc6918a","84.237.169.56","Mozilla/5.0 (Windows NT 10.0; Win64; x64) AppleWebKit/537.36 (KHTML, like Gecko) Chrome/137.0.0.0 Safari/537.36","WebKit","Chrome","137.0.0.0","Windows","10.0","https://app.prolific.com/","en-US,en;q=0.9","6103a3ece71ab061d5624402","686d226cabeef709c732f8e1","686e310926be30a8bc1bff63","6103a3ece71ab061d5624402","","","","","","","","","","","","","","","","","","","","","","","","","","","","","","","","","","","","","","","","","","","","",""
"8103","","","{""green_ball"":[""Ball sometimes shakes and moves in a random direction""]}","survey-multi-select","27","795590","0.0-8.0-5.1-0.1","46","1","2025-07-09 09:07:13","7701e855f2ef39aa3fd6c71abdc6918a","84.237.169.56","Mozilla/5.0 (Windows NT 10.0; Win64; x64) AppleWebKit/537.36 (KHTML, like Gecko) Chrome/137.0.0.0 Safari/537.36","WebKit","Chrome","137.0.0.0","Windows","10.0","https://app.prolific.com/","en-US,en;q=0.9","6103a3ece71ab061d5624402","686d226cabeef709c732f8e1","686e310926be30a8bc1bff63","6103a3ece71ab061d5624402","","","[0]","","","","quiz","","","","","","","","","","","","","","","","","","","","","","","","","","","","","","","","","","","","","true",""
"3382","","<p align='center'><b>CORRECT!</b> Indeed, the green ball may sometimes shake and move in a random direction.</p>","0","html-button-response","28","798974","0.0-8.0-5.1-1.1","46","1","2025-07-09 09:07:13","7701e855f2ef39aa3fd6c71abdc6918a","84.237.169.56","Mozilla/5.0 (Windows NT 10.0; Win64; x64) AppleWebKit/537.36 (KHTML, like Gecko) Chrome/137.0.0.0 Safari/537.36","WebKit","Chrome","137.0.0.0","Windows","10.0","https://app.prolific.com/","en-US,en;q=0.9","6103a3ece71ab061d5624402","686d226cabeef709c732f8e1","686e310926be30a8bc1bff63","6103a3ece71ab061d5624402","","","","","","","","","","","","","","","","","","","","","","","","","","","","","","","","","","","","","","","","","","","","",""
"12039","","","{""yellow_ball"":[""Ball doesn‘t move and I get -1 penalty point""]}","survey-multi-select","29","811017","0.0-8.0-6.0-0.0","46","1","2025-07-09 09:07:13","7701e855f2ef39aa3fd6c71abdc6918a","84.237.169.56","Mozilla/5.0 (Windows NT 10.0; Win64; x64) AppleWebKit/537.36 (KHTML, like Gecko) Chrome/137.0.0.0 Safari/537.36","WebKit","Chrome","137.0.0.0","Windows","10.0","https://app.prolific.com/","en-US,en;q=0.9","6103a3ece71ab061d5624402","686d226cabeef709c732f8e1","686e310926be30a8bc1bff63","6103a3ece71ab061d5624402","","","[0]","","","","quiz","","","","","","","","","","","","","","","","","","","","","","","","","","","","","","","","","","","","","true",""
"1660","","<p align='center'><b>CORRECT!</b> Indeed, the yellow ball never moves and you receive a penalty.</p>","0","html-button-response","30","812680","0.0-8.0-6.0-1.0","46","1","2025-07-09 09:07:13","7701e855f2ef39aa3fd6c71abdc6918a","84.237.169.56","Mozilla/5.0 (Windows NT 10.0; Win64; x64) AppleWebKit/537.36 (KHTML, like Gecko) Chrome/137.0.0.0 Safari/537.36","WebKit","Chrome","137.0.0.0","Windows","10.0","https://app.prolific.com/","en-US,en;q=0.9","6103a3ece71ab061d5624402","686d226cabeef709c732f8e1","686e310926be30a8bc1bff63","6103a3ece71ab061d5624402","","","","","","","","","","","","","","","","","","","","","","","","","","","","","","","","","","","","","","","","","","","","",""
"5901","","","{""blue_ball"":[""Ball doesn‘t move and I get -1 penalty point""]}","survey-multi-select","31","818586","0.0-8.0-7.0-0.0","46","1","2025-07-09 09:07:13","7701e855f2ef39aa3fd6c71abdc6918a","84.237.169.56","Mozilla/5.0 (Windows NT 10.0; Win64; x64) AppleWebKit/537.36 (KHTML, like Gecko) Chrome/137.0.0.0 Safari/537.36","WebKit","Chrome","137.0.0.0","Windows","10.0","https://app.prolific.com/","en-US,en;q=0.9","6103a3ece71ab061d5624402","686d226cabeef709c732f8e1","686e310926be30a8bc1bff63","6103a3ece71ab061d5624402","","","[0]","","","","quiz","","","","","","","","","","","","","","","","","","","","","","","","","","","","","","","","","","","","","false",""
"2379","","<p align='center'><b>INCORRECT.</b> The blue ball always shakes and moves randomly.</p>","0","html-button-response","32","820969","0.0-8.0-7.0-1.0","46","1","2025-07-09 09:07:13","7701e855f2ef39aa3fd6c71abdc6918a","84.237.169.56","Mozilla/5.0 (Windows NT 10.0; Win64; x64) AppleWebKit/537.36 (KHTML, like Gecko) Chrome/137.0.0.0 Safari/537.36","WebKit","Chrome","137.0.0.0","Windows","10.0","https://app.prolific.com/","en-US,en;q=0.9","6103a3ece71ab061d5624402","686d226cabeef709c732f8e1","686e310926be30a8bc1bff63","6103a3ece71ab061d5624402","","","","","","","","","","","","","","","","","","","","","","","","","","","","","","","","","","","","","","","","","","","","",""
"10857","","","{""blue_ball"":[""Ball always shakes and moves in a random direction""]}","survey-multi-select","33","831831","0.0-8.0-7.1-0.1","46","1","2025-07-09 09:07:13","7701e855f2ef39aa3fd6c71abdc6918a","84.237.169.56","Mozilla/5.0 (Windows NT 10.0; Win64; x64) AppleWebKit/537.36 (KHTML, like Gecko) Chrome/137.0.0.0 Safari/537.36","WebKit","Chrome","137.0.0.0","Windows","10.0","https://app.prolific.com/","en-US,en;q=0.9","6103a3ece71ab061d5624402","686d226cabeef709c732f8e1","686e310926be30a8bc1bff63","6103a3ece71ab061d5624402","","","[0]","","","","quiz","","","","","","","","","","","","","","","","","","","","","","","","","","","","","","","","","","","","","true",""
"3717","","<p align='center'><b>CORRECT!</b> Indeed, the blue ball always shakes and moves in a random direction. Also there is a penalty of -1 point.</p>","0","html-button-response","34","835551","0.0-8.0-7.1-1.1","46","1","2025-07-09 09:07:13","7701e855f2ef39aa3fd6c71abdc6918a","84.237.169.56","Mozilla/5.0 (Windows NT 10.0; Win64; x64) AppleWebKit/537.36 (KHTML, like Gecko) Chrome/137.0.0.0 Safari/537.36","WebKit","Chrome","137.0.0.0","Windows","10.0","https://app.prolific.com/","en-US,en;q=0.9","6103a3ece71ab061d5624402","686d226cabeef709c732f8e1","686e310926be30a8bc1bff63","6103a3ece71ab061d5624402","","","","","","","","","","","","","","","","","","","","","","","","","","","","","","","","","","","","","","","","","","","","",""
"4645","","","{""bonus"":[""When I reach 50% of points""]}","survey-multi-select","35","840200","0.0-8.0-8.0-0.0","46","1","2025-07-09 09:07:13","7701e855f2ef39aa3fd6c71abdc6918a","84.237.169.56","Mozilla/5.0 (Windows NT 10.0; Win64; x64) AppleWebKit/537.36 (KHTML, like Gecko) Chrome/137.0.0.0 Safari/537.36","WebKit","Chrome","137.0.0.0","Windows","10.0","https://app.prolific.com/","en-US,en;q=0.9","6103a3ece71ab061d5624402","686d226cabeef709c732f8e1","686e310926be30a8bc1bff63","6103a3ece71ab061d5624402","","","[0]","","","","quiz","","","","","","","","","","","","","","","","","","","","","","","","","","","","","","","","","","","","","true",""
"1701","","<p align='center'><b>CORRECT!</b> Indeed, you receive 2 pounds extra when you reach 50% of points.</p>","0","html-button-response","36","841903","0.0-8.0-8.0-1.0","46","1","2025-07-09 09:07:13","7701e855f2ef39aa3fd6c71abdc6918a","84.237.169.56","Mozilla/5.0 (Windows NT 10.0; Win64; x64) AppleWebKit/537.36 (KHTML, like Gecko) Chrome/137.0.0.0 Safari/537.36","WebKit","Chrome","137.0.0.0","Windows","10.0","https://app.prolific.com/","en-US,en;q=0.9","6103a3ece71ab061d5624402","686d226cabeef709c732f8e1","686e310926be30a8bc1bff63","6103a3ece71ab061d5624402","","","","","","","","","","","","","","","","","","","","","","","","","","","","","","","","","","","","","","","","","","","","",""
"4196","","","","instructions","37","846101","0.0-8.0-9.0","46","1","2025-07-09 09:07:13","7701e855f2ef39aa3fd6c71abdc6918a","84.237.169.56","Mozilla/5.0 (Windows NT 10.0; Win64; x64) AppleWebKit/537.36 (KHTML, like Gecko) Chrome/137.0.0.0 Safari/537.36","WebKit","Chrome","137.0.0.0","Windows","10.0","https://app.prolific.com/","en-US,en;q=0.9","6103a3ece71ab061d5624402","686d226cabeef709c732f8e1","686e310926be30a8bc1bff63","6103a3ece71ab061d5624402","","[{""page_index"":0,""viewing_time"":4195}]","","","","","","","","","","","","","","","","","","","","","","","","","","","","","","","","","","","","","","","","","","",""
"15864","","<p>Before you start with this game please answer the following three questions yourself. </p>
  <p>Through this game, we measure several aspects of your cognitive performance, such as reaction times, multi-tasking capabilities </p>
  <p>and the ability to assess the situation you are in.</p>
  <p></p>
  <p><b>How good do you usually are in such tasks?</b></p>","76","html-slider-response","38","861972","0.0-9.0-0.0","46","1","2025-07-09 09:07:13","7701e855f2ef39aa3fd6c71abdc6918a","84.237.169.56","Mozilla/5.0 (Windows NT 10.0; Win64; x64) AppleWebKit/537.36 (KHTML, like Gecko) Chrome/137.0.0.0 Safari/537.36","WebKit","Chrome","137.0.0.0","Windows","10.0","https://app.prolific.com/","en-US,en;q=0.9","6103a3ece71ab061d5624402","686d226cabeef709c732f8e1","686e310926be30a8bc1bff63","6103a3ece71ab061d5624402","2025-07-09T09:21:36.385Z","","","","","","PreSkillQ","","","","","","","","","","","","","","","","","","","","","","","","","","","","","","","","","","","","","","50"
"10469","","<div style=""width:500px;"">
  <p>How well do you think you will perform in this task compared to other participants?</p>
  </div>","55","html-slider-response","39","872445","0.0-9.0-1.0","46","1","2025-07-09 09:07:13","7701e855f2ef39aa3fd6c71abdc6918a","84.237.169.56","Mozilla/5.0 (Windows NT 10.0; Win64; x64) AppleWebKit/537.36 (KHTML, like Gecko) Chrome/137.0.0.0 Safari/537.36","WebKit","Chrome","137.0.0.0","Windows","10.0","https://app.prolific.com/","en-US,en;q=0.9","6103a3ece71ab061d5624402","686d226cabeef709c732f8e1","686e310926be30a8bc1bff63","6103a3ece71ab061d5624402","2025-07-09T09:21:46.857Z","","","","","","PrePerfQ","","","","","","","","","","","","","","","","","","","","","","","","","","","","","","","","","","","","","","50"
"10774","","<div style=""width:500px;"">
  <p>What best describes how you currently feel?</p>
  </div>","34","html-slider-response","40","883223","0.0-9.0-2.0","46","1","2025-07-09 09:07:13","7701e855f2ef39aa3fd6c71abdc6918a","84.237.169.56","Mozilla/5.0 (Windows NT 10.0; Win64; x64) AppleWebKit/537.36 (KHTML, like Gecko) Chrome/137.0.0.0 Safari/537.36","WebKit","Chrome","137.0.0.0","Windows","10.0","https://app.prolific.com/","en-US,en;q=0.9","6103a3ece71ab061d5624402","686d226cabeef709c732f8e1","686e310926be30a8bc1bff63","6103a3ece71ab061d5624402","2025-07-09T09:21:57.635Z","","","","","","PreMotivationQ","","","","","","","","","","","","","","","","","","","","","","","","","","","","","","","","","","","","","","50"
"","","","","ctl-task-cpt","41","908552","0.0-10.0-0.0","46","1","2025-07-09 09:07:13","7701e855f2ef39aa3fd6c71abdc6918a","84.237.169.56","Mozilla/5.0 (Windows NT 10.0; Win64; x64) AppleWebKit/537.36 (KHTML, like Gecko) Chrome/137.0.0.0 Safari/537.36","WebKit","Chrome","137.0.0.0","Windows","10.0","https://app.prolific.com/","en-US,en;q=0.9","6103a3ece71ab061d5624402","686d226cabeef709c732f8e1","686e310926be30a8bc1bff63","6103a3ece71ab061d5624402","2025-07-09T09:22:22.964Z","","","","","","","","","","","","","","","","win-only","3","g1:SW,g2:NE","1","1","0","884643.7","1608.4","6611.3","22311.4","1","4","4","6","2","4","4","4","0","0.030303030303030304","1200.8","3000","1245","[""up"",""right""]","{""num_key_presses"":6,""num_perfect"":6,""num_errors"":0,""num_randdir"":0,""num_randdir_good_moves"":0,""num_whilered"":0,""num_whileblue"":0,""num_blue"":0,""num_good_moves"":6}","[419.0714133126395,415.32142761775424,0.1,419.0714133126395,415.32142761775424,102.6,419.0714133126395,415.32142761775424,208,419.0714133126395,415.32142761775424,312.6,419.0714133126395,415.32142761775424,417.8,481.5714133126395,347.82142761775424,518.2,640.3214133126395,176.57142761775424,622.5,682.8214133126395,144.07142761775424,722.6,711.5714133126395,132.82142761775424,828,755.3214133126395,99.07142761775425,933.2,762.8214133126395,87.82142761775425,1037.6,762.8214133126395,87.82142761775425,1138,762.8214133126395,87.82142761775425,1238.2,762.8214133126395,87.82142761775425,1342.7,762.8214133126395,87.82142761775425,1449.7,762.8214133126395,87.82142761775425,1552.9,762.8214133126395,87.82142761775425,1658.3,762.8214133126395,87.82142761775425,1758.3,762.8214133126395,87.82142761775425,1862.2,762.8214133126395,87.82142761775425,1967.5,762.8214133126395,87.82142761775425,2068,762.8214133126395,87.82142761775425,2168.2,762.8214133126395,87.82142761775425,2273,762.8214133126395,87.82142761775425,2373,762.8214133126395,87.82142761775425,2479.1,762.8214133126395,87.82142761775425,2584.2,762.8214133126395,87.82142761775425,2684.8,762.8214133126395,87.82142761775425,2788.7,762.8214133126395,87.82142761775425,2893.7,762.8214133126395,87.82142761775425,2997.3,762.8214133126395,87.82142761775425,3100.6,762.8214133126395,87.82142761775425,3202.5,762.8214133126395,87.82142761775425,3314,762.8214133126395,87.82142761775425,3417.7,762.8214133126395,87.82142761775425,3517.8,762.8214133126395,87.82142761775425,3622.9,762.8214133126395,87.82142761775425,3722.9,762.8214133126395,87.82142761775425,3828.5,762.8214133126395,87.82142761775425,3929.5,762.8214133126395,87.82142761775425,4030,762.8214133126395,87.82142761775425,4132.5,762.8214133126395,87.82142761775425,4233.9,762.8214133126395,87.82142761775425,4338.2,762.8214133126395,87.82142761775425,4438.3,762.8214133126395,87.82142761775425,4542.5,762.8214133126395,87.82142761775425,4643.1,762.8214133126395,87.82142761775425,4745.9,762.8214133126395,87.82142761775425,4848.2,762.8214133126395,87.82142761775425,4948.4]","[1416.8,1416.8,1000,0,416.8,""smooth"",""up"",""up"",""good_move"",3622,2204.7,1885.6,1417.4,319,""smooth"",""up"",""up"",""good_move"",6958.6,3336.4,3045.2,3622.2,291.2,""smooth"",""up"",""up"",""good_move"",9498.1,2539,2212.1,6959.2,326.9,""smooth"",""right"",""right"",""good_move"",12426.7,2928.2,2627.3,9498.5,300.9,""smooth"",""right"",""right"",""good_move"",15592.1,3165.1,2822.8,12427,342.3,""smooth"",""right"",""right"",""good_move""]","",""
"10079","","<div style=""width:500px;"">
  <p>What determined the result of this run?</p>
  </div>","0","html-slider-response","42","918633","0.0-10.0-1.0","46","1","2025-07-09 09:07:13","7701e855f2ef39aa3fd6c71abdc6918a","84.237.169.56","Mozilla/5.0 (Windows NT 10.0; Win64; x64) AppleWebKit/537.36 (KHTML, like Gecko) Chrome/137.0.0.0 Safari/537.36","WebKit","Chrome","137.0.0.0","Windows","10.0","https://app.prolific.com/","en-US,en;q=0.9","6103a3ece71ab061d5624402","686d226cabeef709c732f8e1","686e310926be30a8bc1bff63","6103a3ece71ab061d5624402","2025-07-09T09:22:33.045Z","","","","","","AttribQ","","","","","","","","","","","","","","","","","","","","","","","","","","","","","","","","","","","","","","50"
"4648","","<div style=""width:500px;"">
  <p>How much control did you have over the ball?</p>
  </div>","100","html-slider-response","43","923284","0.0-10.0-2.0","46","1","2025-07-09 09:07:13","7701e855f2ef39aa3fd6c71abdc6918a","84.237.169.56","Mozilla/5.0 (Windows NT 10.0; Win64; x64) AppleWebKit/537.36 (KHTML, like Gecko) Chrome/137.0.0.0 Safari/537.36","WebKit","Chrome","137.0.0.0","Windows","10.0","https://app.prolific.com/","en-US,en;q=0.9","6103a3ece71ab061d5624402","686d226cabeef709c732f8e1","686e310926be30a8bc1bff63","6103a3ece71ab061d5624402","2025-07-09T09:22:37.696Z","","","","","","ControlQ","","","","","","","","","","","","","","","","","","","","","","","","","","","","","","","","","","","","","","50"
"9809","","<div style=""width:500px;"">
  <p>How would you describe your current emotional state?</p>
  </div>","0","html-slider-response","44","933095","0.0-10.0-3.0","46","1","2025-07-09 09:07:13","7701e855f2ef39aa3fd6c71abdc6918a","84.237.169.56","Mozilla/5.0 (Windows NT 10.0; Win64; x64) AppleWebKit/537.36 (KHTML, like Gecko) Chrome/137.0.0.0 Safari/537.36","WebKit","Chrome","137.0.0.0","Windows","10.0","https://app.prolific.com/","en-US,en;q=0.9","6103a3ece71ab061d5624402","686d226cabeef709c732f8e1","686e310926be30a8bc1bff63","6103a3ece71ab061d5624402","2025-07-09T09:22:47.507Z","","","","","","StressQ","","","","","","","","","","","","","","","","","","","","","","","","","","","","","","","","","","","","","","50"
"4781","","<div style=""width:500px;"">
  <p>What best describes how you currently feel?</p>
  </div>","100","html-slider-response","45","937877","0.0-10.0-4.0","46","1","2025-07-09 09:07:13","7701e855f2ef39aa3fd6c71abdc6918a","84.237.169.56","Mozilla/5.0 (Windows NT 10.0; Win64; x64) AppleWebKit/537.36 (KHTML, like Gecko) Chrome/137.0.0.0 Safari/537.36","WebKit","Chrome","137.0.0.0","Windows","10.0","https://app.prolific.com/","en-US,en;q=0.9","6103a3ece71ab061d5624402","686d226cabeef709c732f8e1","686e310926be30a8bc1bff63","6103a3ece71ab061d5624402","2025-07-09T09:22:52.290Z","","","","","","MotivationQ","","","","","","","","","","","","","","","","","","","","","","","","","","","","","","","","","","","","","","50"
"","","","","ctl-task-cpt","46","971861","0.0-10.0-0.1","46","1","2025-07-09 09:07:13","7701e855f2ef39aa3fd6c71abdc6918a","84.237.169.56","Mozilla/5.0 (Windows NT 10.0; Win64; x64) AppleWebKit/537.36 (KHTML, like Gecko) Chrome/137.0.0.0 Safari/537.36","WebKit","Chrome","137.0.0.0","Windows","10.0","https://app.prolific.com/","en-US,en;q=0.9","6103a3ece71ab061d5624402","686d226cabeef709c732f8e1","686e310926be30a8bc1bff63","6103a3ece71ab061d5624402","2025-07-09T09:23:26.273Z","","","","","","","","","","","","","","","","win-only","2","g1:SE,g2:NW","0.9","2","0","939287.4","1309.4","6311.6","30951.6","1","4","8","6","2","8","8","12","4","0.09090909090909091","1319.9","3000","1250","[""left"",""up""]","{""num_key_presses"":6,""num_perfect"":6,""num_errors"":0,""num_randdir"":0,""num_randdir_good_moves"":0,""num_whilered"":0,""num_whileblue"":0,""num_blue"":3,""num_good_moves"":6}","[417.8214133126395,417.82142761775424,0.4,417.8214133126395,417.82142761775424,100.6,417.8214133126395,417.82142761775424,202.9,417.8214133126395,417.82142761775424,307.5,417.8214133126395,417.82142761775424,418.2,417.8214133126395,417.82142761775424,522.4,306.5714133126395,210.32142761775424,634.5,116.5714133126395,70.32142761775425,736.8,86.5714133126395,66.57142761775425,850.2,76.5714133126395,66.57142761775425,950.5,72.8214133126395,66.57142761775425,1050.9,72.8214133126395,66.57142761775425,1156.6,72.8214133126395,66.57142761775425,1261.3,72.8214133126395,66.57142761775425,1366.3,72.8214133126395,66.57142761775425,1471.7,72.8214133126395,66.57142761775425,1573.1,72.8214133126395,66.57142761775425,1683.4,72.8214133126395,66.57142761775425,1786.9,72.8214133126395,66.57142761775425,1893.1,72.8214133126395,66.57142761775425,1998.7,72.8214133126395,66.57142761775425,2100.2,72.8214133126395,66.57142761775425,2201.6,72.8214133126395,66.57142761775425,2306.5,72.8214133126395,66.57142761775425,2416.1,72.8214133126395,66.57142761775425,2517.1,72.8214133126395,66.57142761775425,2621.9,72.8214133126395,66.57142761775425,2733.6,72.8214133126395,66.57142761775425,2838.3,72.8214133126395,66.57142761775425,2950.6,72.8214133126395,66.57142761775425,3051.5,72.8214133126395,66.57142761775425,3156.5,72.8214133126395,66.57142761775425,3256.5,72.8214133126395,66.57142761775425,3356.8,72.8214133126395,66.57142761775425,3465.9,72.8214133126395,66.57142761775425,3566.1,72.8214133126395,66.57142761775425,3666.8,72.8214133126395,66.57142761775425,3767.1,72.8214133126395,66.57142761775425,3871.4,72.8214133126395,66.57142761775425,3976,72.8214133126395,66.57142761775425,4076.2,72.8214133126395,66.57142761775425,4178.6,72.8214133126395,66.57142761775425,4282.3,72.8214133126395,66.57142761775425,4386.2,72.8214133126395,66.57142761775425,4486.2,72.8214133126395,66.57142761775425,4586.4,72.8214133126395,66.57142761775425,4687,72.8214133126395,66.57142761775425,4787.1,72.8214133126395,66.57142761775425,4892,72.8214133126395,66.57142761775425,4992.2]","[1392.6,1392.6,1000,0,392.6,""smooth"",""up"",""up"",""good_move"",3346.9,1953.7,1572.5,1393.3,381.1,""smooth"",""up"",""up"",""good_move"",6192.1,2844.9,2509.1,3347.2,335.8,""smooth"",""up"",""up"",""good_move"",13523.7,7331.1,3173.9,9945.7,404.1,""smooth"",""left"",""left"",""good_move"",18836.5,5312.5,2019.2,16394,423.3,""smooth"",""left"",""left"",""good_move"",24524.1,5687.4,2278.1,21925.7,320.3,""smooth"",""left"",""left"",""good_move""]","",""
"3915","","<div style=""width:500px;"">
  <p>What determined the result of this run?</p>
  </div>","0","html-slider-response","47","975777","0.0-10.0-1.1","46","1","2025-07-09 09:07:13","7701e855f2ef39aa3fd6c71abdc6918a","84.237.169.56","Mozilla/5.0 (Windows NT 10.0; Win64; x64) AppleWebKit/537.36 (KHTML, like Gecko) Chrome/137.0.0.0 Safari/537.36","WebKit","Chrome","137.0.0.0","Windows","10.0","https://app.prolific.com/","en-US,en;q=0.9","6103a3ece71ab061d5624402","686d226cabeef709c732f8e1","686e310926be30a8bc1bff63","6103a3ece71ab061d5624402","2025-07-09T09:23:30.189Z","","","","","","AttribQ","","","","","","","","","","","","","","","","","","","","","","","","","","","","","","","","","","","","","","50"
"5005","","<div style=""width:500px;"">
  <p>How much control did you have over the ball?</p>
  </div>","100","html-slider-response","48","980783","0.0-10.0-2.1","46","1","2025-07-09 09:07:13","7701e855f2ef39aa3fd6c71abdc6918a","84.237.169.56","Mozilla/5.0 (Windows NT 10.0; Win64; x64) AppleWebKit/537.36 (KHTML, like Gecko) Chrome/137.0.0.0 Safari/537.36","WebKit","Chrome","137.0.0.0","Windows","10.0","https://app.prolific.com/","en-US,en;q=0.9","6103a3ece71ab061d5624402","686d226cabeef709c732f8e1","686e310926be30a8bc1bff63","6103a3ece71ab061d5624402","2025-07-09T09:23:35.195Z","","","","","","ControlQ","","","","","","","","","","","","","","","","","","","","","","","","","","","","","","","","","","","","","","50"
"4168","","<div style=""width:500px;"">
  <p>How would you describe your current emotional state?</p>
  </div>","0","html-slider-response","49","984953","0.0-10.0-3.1","46","1","2025-07-09 09:07:13","7701e855f2ef39aa3fd6c71abdc6918a","84.237.169.56","Mozilla/5.0 (Windows NT 10.0; Win64; x64) AppleWebKit/537.36 (KHTML, like Gecko) Chrome/137.0.0.0 Safari/537.36","WebKit","Chrome","137.0.0.0","Windows","10.0","https://app.prolific.com/","en-US,en;q=0.9","6103a3ece71ab061d5624402","686d226cabeef709c732f8e1","686e310926be30a8bc1bff63","6103a3ece71ab061d5624402","2025-07-09T09:23:39.365Z","","","","","","StressQ","","","","","","","","","","","","","","","","","","","","","","","","","","","","","","","","","","","","","","50"
"2966","","<div style=""width:500px;"">
  <p>What best describes how you currently feel?</p>
  </div>","100","html-slider-response","50","987921","0.0-10.0-4.1","46","1","2025-07-09 09:07:13","7701e855f2ef39aa3fd6c71abdc6918a","84.237.169.56","Mozilla/5.0 (Windows NT 10.0; Win64; x64) AppleWebKit/537.36 (KHTML, like Gecko) Chrome/137.0.0.0 Safari/537.36","WebKit","Chrome","137.0.0.0","Windows","10.0","https://app.prolific.com/","en-US,en;q=0.9","6103a3ece71ab061d5624402","686d226cabeef709c732f8e1","686e310926be30a8bc1bff63","6103a3ece71ab061d5624402","2025-07-09T09:23:42.333Z","","","","","","MotivationQ","","","","","","","","","","","","","","","","","","","","","","","","","","","","","","","","","","","","","","50"
"","","","","ctl-task-cpt","51","1037870","0.0-10.0-0.2","46","1","2025-07-09 09:07:13","7701e855f2ef39aa3fd6c71abdc6918a","84.237.169.56","Mozilla/5.0 (Windows NT 10.0; Win64; x64) AppleWebKit/537.36 (KHTML, like Gecko) Chrome/137.0.0.0 Safari/537.36","WebKit","Chrome","137.0.0.0","Windows","10.0","https://app.prolific.com/","en-US,en;q=0.9","6103a3ece71ab061d5624402","686d226cabeef709c732f8e1","686e310926be30a8bc1bff63","6103a3ece71ab061d5624402","2025-07-09T09:24:32.282Z","","","","","","","","","","","","","","","","win-only","2","g1:SE,g2:NW","0.8","3","0","989332.3","1196.2","6197.1","46926.4","1","4","8","6","2","8","8","20","12","0.15151515151515152","1010.5","3000","695","[""left"",""up""]","{""num_key_presses"":8,""num_perfect"":6,""num_errors"":0,""num_randdir"":2,""num_randdir_good_moves"":1,""num_whilered"":0,""num_whileblue"":0,""num_blue"":6,""num_good_moves"":7}","[416.5714133126395,415.32142761775424,0.1,416.5714133126395,415.32142761775424,100.8,416.5714133126395,415.32142761775424,200.8,416.5714133126395,415.32142761775424,312.7,416.5714133126395,415.32142761775424,415.5,416.5714133126395,415.32142761775424,520.5,179.0714133126395,159.07142761775424,621.1,106.5714133126395,94.07142761775425,722.2,86.5714133126395,76.57142761775425,825.2,86.5714133126395,76.57142761775425,929.4,86.5714133126395,76.57142761775425,1029.4,86.5714133126395,76.57142761775425,1129.6,86.5714133126395,76.57142761775425,1231.3,86.5714133126395,76.57142761775425,1335.2,86.5714133126395,76.57142761775425,1436.1,86.5714133126395,76.57142761775425,1544.7,86.5714133126395,76.57142761775425,1645.3,86.5714133126395,76.57142761775425,1750.4,86.5714133126395,76.57142761775425,1850.6,86.5714133126395,76.57142761775425,1961.3,86.5714133126395,76.57142761775425,2061.5,86.5714133126395,76.57142761775425,2163.3,86.5714133126395,76.57142761775425,2263.3,86.5714133126395,76.57142761775425,2363.3,86.5714133126395,76.57142761775425,2465.6,86.5714133126395,76.57142761775425,2577.8,86.5714133126395,76.57142761775425,2680.8,86.5714133126395,76.57142761775425,2785.8,86.5714133126395,76.57142761775425,2895,86.5714133126395,76.57142761775425,3000.6,86.5714133126395,76.57142761775425,3101.7,86.5714133126395,76.57142761775425,3210.4,86.5714133126395,76.57142761775425,3314.7,86.5714133126395,76.57142761775425,3420.5,86.5714133126395,76.57142761775425,3520.8,86.5714133126395,76.57142761775425,3627.7,86.5714133126395,76.57142761775425,3729.4,86.5714133126395,76.57142761775425,3830.1,86.5714133126395,76.57142761775425,3930.7,86.5714133126395,76.57142761775425,4035,86.5714133126395,76.57142761775425,4135.2,86.5714133126395,76.57142761775425,4244.4,86.5714133126395,76.57142761775425,4344.4,86.5714133126395,76.57142761775425,4444.5,86.5714133126395,76.57142761775425,4550.8,86.5714133126395,76.57142761775425,4655.8,86.5714133126395,76.57142761775425,4760.8,86.5714133126395,76.57142761775425,4860.9,86.5714133126395,76.57142761775425,4965.9]","[1425.1,1425.1,1000,0,425.1,""smooth"",""up"",""up"",""good_move"",3949.7,2524.2,2121.2,1425.6,402.9,""oops"",""up"",""down"",""bad_move"",13887.1,9937.1,1775.9,11707.3,403.9,""smooth"",""up"",""up"",""good_move"",26931.9,13044.6,2232.9,24389.7,309.3,""smooth"",""up"",""up"",""good_move"",29840.4,2908.4,2549.6,26932,358.8,""oops"",""up"",""up"",""good_move"",35999.5,6158.9,2257.4,33414.4,327.7,""smooth"",""left"",""left"",""good_move"",38210.1,2210.2,1806.7,35999.9,403.5,""smooth"",""left"",""left"",""good_move"",40613.4,2403,2049.1,38210.4,353.9,""smooth"",""left"",""left"",""good_move""]","",""
"6863","","<div style=""width:500px;"">
  <p>What determined the result of this run?</p>
  </div>","49","html-slider-response","52","1044735","0.0-10.0-1.2","46","1","2025-07-09 09:07:13","7701e855f2ef39aa3fd6c71abdc6918a","84.237.169.56","Mozilla/5.0 (Windows NT 10.0; Win64; x64) AppleWebKit/537.36 (KHTML, like Gecko) Chrome/137.0.0.0 Safari/537.36","WebKit","Chrome","137.0.0.0","Windows","10.0","https://app.prolific.com/","en-US,en;q=0.9","6103a3ece71ab061d5624402","686d226cabeef709c732f8e1","686e310926be30a8bc1bff63","6103a3ece71ab061d5624402","2025-07-09T09:24:39.147Z","","","","","","AttribQ","","","","","","","","","","","","","","","","","","","","","","","","","","","","","","","","","","","","","","50"
"12066","","<div style=""width:500px;"">
  <p>How much control did you have over the ball?</p>
  </div>","72","html-slider-response","53","1056802","0.0-10.0-2.2","46","1","2025-07-09 09:07:13","7701e855f2ef39aa3fd6c71abdc6918a","84.237.169.56","Mozilla/5.0 (Windows NT 10.0; Win64; x64) AppleWebKit/537.36 (KHTML, like Gecko) Chrome/137.0.0.0 Safari/537.36","WebKit","Chrome","137.0.0.0","Windows","10.0","https://app.prolific.com/","en-US,en;q=0.9","6103a3ece71ab061d5624402","686d226cabeef709c732f8e1","686e310926be30a8bc1bff63","6103a3ece71ab061d5624402","2025-07-09T09:24:51.214Z","","","","","","ControlQ","","","","","","","","","","","","","","","","","","","","","","","","","","","","","","","","","","","","","","50"
"4712","","<div style=""width:500px;"">
  <p>How would you describe your current emotional state?</p>
  </div>","0","html-slider-response","54","1061516","0.0-10.0-3.2","46","1","2025-07-09 09:07:13","7701e855f2ef39aa3fd6c71abdc6918a","84.237.169.56","Mozilla/5.0 (Windows NT 10.0; Win64; x64) AppleWebKit/537.36 (KHTML, like Gecko) Chrome/137.0.0.0 Safari/537.36","WebKit","Chrome","137.0.0.0","Windows","10.0","https://app.prolific.com/","en-US,en;q=0.9","6103a3ece71ab061d5624402","686d226cabeef709c732f8e1","686e310926be30a8bc1bff63","6103a3ece71ab061d5624402","2025-07-09T09:24:55.928Z","","","","","","StressQ","","","","","","","","","","","","","","","","","","","","","","","","","","","","","","","","","","","","","","50"
"3763","","<div style=""width:500px;"">
  <p>What best describes how you currently feel?</p>
  </div>","100","html-slider-response","55","1065281","0.0-10.0-4.2","46","1","2025-07-09 09:07:13","7701e855f2ef39aa3fd6c71abdc6918a","84.237.169.56","Mozilla/5.0 (Windows NT 10.0; Win64; x64) AppleWebKit/537.36 (KHTML, like Gecko) Chrome/137.0.0.0 Safari/537.36","WebKit","Chrome","137.0.0.0","Windows","10.0","https://app.prolific.com/","en-US,en;q=0.9","6103a3ece71ab061d5624402","686d226cabeef709c732f8e1","686e310926be30a8bc1bff63","6103a3ece71ab061d5624402","2025-07-09T09:24:59.693Z","","","","","","MotivationQ","","","","","","","","","","","","","","","","","","","","","","","","","","","","","","","","","","","","","","50"
"","","","","ctl-task-cpt","56","1093839","0.0-10.0-0.3","46","1","2025-07-09 09:07:13","7701e855f2ef39aa3fd6c71abdc6918a","84.237.169.56","Mozilla/5.0 (Windows NT 10.0; Win64; x64) AppleWebKit/537.36 (KHTML, like Gecko) Chrome/137.0.0.0 Safari/537.36","WebKit","Chrome","137.0.0.0","Windows","10.0","https://app.prolific.com/","en-US,en;q=0.9","6103a3ece71ab061d5624402","686d226cabeef709c732f8e1","686e310926be30a8bc1bff63","6103a3ece71ab061d5624402","2025-07-09T09:25:28.251Z","","","","","","","","","","","","","","","","win-only","2","g1:SE,g2:NW","0.7","4","0","1066687.8","1473.4","6476.3","25536.3","1","4","4","6","2","4","3","23","20","0.17424242424242425","1196.7","3000","1195","[""left"",""up""]","{""num_key_presses"":7,""num_perfect"":5,""num_errors"":1,""num_randdir"":1,""num_randdir_good_moves"":1,""num_whilered"":0,""num_whileblue"":0,""num_blue"":0,""num_good_moves"":6}","[414.0714133126395,426.57142761775424,0.1,414.0714133126395,426.57142761775424,103.3,414.0714133126395,426.57142761775424,204.4,414.0714133126395,426.57142761775424,320,414.0714133126395,426.57142761775424,423.8,414.0714133126395,426.57142761775424,527.3,185.3214133126395,186.57142761775424,630,96.5714133126395,125.32142761775425,733.6,81.5714133126395,104.07142761775425,848.8,79.0714133126395,100.32142761775425,952.8,79.0714133126395,100.32142761775425,1066.2,79.0714133126395,100.32142761775425,1168.4,79.0714133126395,100.32142761775425,1273.7,79.0714133126395,100.32142761775425,1378.1,79.0714133126395,100.32142761775425,1478.9,79.0714133126395,100.32142761775425,1583.1,79.0714133126395,100.32142761775425,1688.7,79.0714133126395,100.32142761775425,1799.1,79.0714133126395,100.32142761775425,1902.8,79.0714133126395,100.32142761775425,2005.3,79.0714133126395,100.32142761775425,2107.4,79.0714133126395,100.32142761775425,2211.7,79.0714133126395,100.32142761775425,2313.8,79.0714133126395,100.32142761775425,2414.8,79.0714133126395,100.32142761775425,2518,79.0714133126395,100.32142761775425,2618.4,79.0714133126395,100.32142761775425,2727.2,79.0714133126395,100.32142761775425,2827.4,79.0714133126395,100.32142761775425,2934.3,79.0714133126395,100.32142761775425,3038.2,79.0714133126395,100.32142761775425,3146.2,79.0714133126395,100.32142761775425,3248.9,79.0714133126395,100.32142761775425,3353.5,79.0714133126395,100.32142761775425,3458.3,79.0714133126395,100.32142761775425,3563.9,79.0714133126395,100.32142761775425,3669.9,79.0714133126395,100.32142761775425,3772.8,79.0714133126395,100.32142761775425,3873.7,79.0714133126395,100.32142761775425,3978.9,79.0714133126395,100.32142761775425,4080.7,79.0714133126395,100.32142761775425,4191.3,79.0714133126395,100.32142761775425,4294.4,79.0714133126395,100.32142761775425,4398.1,79.0714133126395,100.32142761775425,4503.1,79.0714133126395,100.32142761775425,4614.5,79.0714133126395,100.32142761775425,4718.1,79.0714133126395,100.32142761775425,4818.5,79.0714133126395,100.32142761775425,4919]","[476.4,476.4,1000,0,-523.5,""error"",""-"",""-"",""no_move"",3834.4,3357.8,1917.5,1479.5,437.4,""smooth"",""up"",""up"",""good_move"",6540.8,2705.9,2328.5,3834.9,377.4,""smooth"",""up"",""up"",""good_move"",9537.6,2996.4,2610.4,6541.2,386,""smooth"",""up"",""up"",""good_move"",12386.4,2848.5,2432.7,9537.9,415.8,""smooth"",""left"",""left"",""good_move"",16118.4,3731.7,3399.9,12386.7,331.8,""oops"",""left"",""left"",""good_move"",18952.5,2833.9,2481.3,16118.6,352.6,""smooth"",""left"",""left"",""good_move""]","",""
"5178","","<div style=""width:500px;"">
  <p>What determined the result of this run?</p>
  </div>","0","html-slider-response","57","1099019","0.0-10.0-1.3","46","1","2025-07-09 09:07:13","7701e855f2ef39aa3fd6c71abdc6918a","84.237.169.56","Mozilla/5.0 (Windows NT 10.0; Win64; x64) AppleWebKit/537.36 (KHTML, like Gecko) Chrome/137.0.0.0 Safari/537.36","WebKit","Chrome","137.0.0.0","Windows","10.0","https://app.prolific.com/","en-US,en;q=0.9","6103a3ece71ab061d5624402","686d226cabeef709c732f8e1","686e310926be30a8bc1bff63","6103a3ece71ab061d5624402","2025-07-09T09:25:33.431Z","","","","","","AttribQ","","","","","","","","","","","","","","","","","","","","","","","","","","","","","","","","","","","","","","50"
"4166","","<div style=""width:500px;"">
  <p>How much control did you have over the ball?</p>
  </div>","100","html-slider-response","58","1103186","0.0-10.0-2.3","46","1","2025-07-09 09:07:13","7701e855f2ef39aa3fd6c71abdc6918a","84.237.169.56","Mozilla/5.0 (Windows NT 10.0; Win64; x64) AppleWebKit/537.36 (KHTML, like Gecko) Chrome/137.0.0.0 Safari/537.36","WebKit","Chrome","137.0.0.0","Windows","10.0","https://app.prolific.com/","en-US,en;q=0.9","6103a3ece71ab061d5624402","686d226cabeef709c732f8e1","686e310926be30a8bc1bff63","6103a3ece71ab061d5624402","2025-07-09T09:25:37.599Z","","","","","","ControlQ","","","","","","","","","","","","","","","","","","","","","","","","","","","","","","","","","","","","","","50"
"2419","","<div style=""width:500px;"">
  <p>How would you describe your current emotional state?</p>
  </div>","0","html-slider-response","59","1105608","0.0-10.0-3.3","46","1","2025-07-09 09:07:13","7701e855f2ef39aa3fd6c71abdc6918a","84.237.169.56","Mozilla/5.0 (Windows NT 10.0; Win64; x64) AppleWebKit/537.36 (KHTML, like Gecko) Chrome/137.0.0.0 Safari/537.36","WebKit","Chrome","137.0.0.0","Windows","10.0","https://app.prolific.com/","en-US,en;q=0.9","6103a3ece71ab061d5624402","686d226cabeef709c732f8e1","686e310926be30a8bc1bff63","6103a3ece71ab061d5624402","2025-07-09T09:25:40.021Z","","","","","","StressQ","","","","","","","","","","","","","","","","","","","","","","","","","","","","","","","","","","","","","","50"
"3003","","<div style=""width:500px;"">
  <p>What best describes how you currently feel?</p>
  </div>","100","html-slider-response","60","1108613","0.0-10.0-4.3","46","1","2025-07-09 09:07:13","7701e855f2ef39aa3fd6c71abdc6918a","84.237.169.56","Mozilla/5.0 (Windows NT 10.0; Win64; x64) AppleWebKit/537.36 (KHTML, like Gecko) Chrome/137.0.0.0 Safari/537.36","WebKit","Chrome","137.0.0.0","Windows","10.0","https://app.prolific.com/","en-US,en;q=0.9","6103a3ece71ab061d5624402","686d226cabeef709c732f8e1","686e310926be30a8bc1bff63","6103a3ece71ab061d5624402","2025-07-09T09:25:43.025Z","","","","","","MotivationQ","","","","","","","","","","","","","","","","","","","","","","","","","","","","","","","","","","","","","","50"
"","","","","ctl-task-cpt","61","1138527","0.0-10.0-0.4","46","1","2025-07-09 09:07:13","7701e855f2ef39aa3fd6c71abdc6918a","84.237.169.56","Mozilla/5.0 (Windows NT 10.0; Win64; x64) AppleWebKit/537.36 (KHTML, like Gecko) Chrome/137.0.0.0 Safari/537.36","WebKit","Chrome","137.0.0.0","Windows","10.0","https://app.prolific.com/","en-US,en;q=0.9","6103a3ece71ab061d5624402","686d226cabeef709c732f8e1","686e310926be30a8bc1bff63","6103a3ece71ab061d5624402","2025-07-09T09:26:12.939Z","","","","","","","","","","","","","","","","win-only","1","g1:NE,g2:SW","0.6","5","0","1110019.5","1186.5","6191.1","26896.4","1","4","8","6","2","8","8","31","23","0.23484848484848486","1189.8","3000","980","[""down"",""left""]","{""num_key_presses"":6,""num_perfect"":4,""num_errors"":0,""num_randdir"":2,""num_randdir_good_moves"":2,""num_whilered"":0,""num_whileblue"":0,""num_blue"":2,""num_good_moves"":6}","[420.3214133126395,410.32142761775424,0.3,420.3214133126395,410.32142761775424,102.7,420.3214133126395,410.32142761775424,204.8,420.3214133126395,410.32142761775424,309.3,420.3214133126395,410.32142761775424,410.1,427.8214133126395,396.57142761775424,515.5,349.0714133126395,435.32142761775424,619.8,74.0714133126395,742.8214276177542,720.7,35.32141331263951,776.5714276177542,824,25.321413312639507,779.0714276177542,925.5,26.571413312639507,779.0714276177542,1030.7,26.571413312639507,779.0714276177542,1135.3,26.571413312639507,779.0714276177542,1240.6,26.571413312639507,779.0714276177542,1349.6,26.571413312639507,779.0714276177542,1452.7,26.571413312639507,779.0714276177542,1554.1,26.571413312639507,779.0714276177542,1655.7,26.571413312639507,779.0714276177542,1766,26.571413312639507,779.0714276177542,1870,26.571413312639507,779.0714276177542,1970.6,26.571413312639507,779.0714276177542,2075.7,26.571413312639507,779.0714276177542,2180.1,26.571413312639507,779.0714276177542,2280.1,26.571413312639507,779.0714276177542,2380.4,26.571413312639507,779.0714276177542,2485,26.571413312639507,779.0714276177542,2601.3,26.571413312639507,779.0714276177542,2701.9,26.571413312639507,779.0714276177542,2805.2,26.571413312639507,779.0714276177542,2909.5,26.571413312639507,779.0714276177542,3009.6,26.571413312639507,779.0714276177542,3119.5,26.571413312639507,779.0714276177542,3220.3,26.571413312639507,779.0714276177542,3328.7,26.571413312639507,779.0714276177542,3434,26.571413312639507,779.0714276177542,3536.5,26.571413312639507,779.0714276177542,3647,26.571413312639507,779.0714276177542,3747.9,26.571413312639507,779.0714276177542,3849.2,26.571413312639507,779.0714276177542,3954.6,26.571413312639507,779.0714276177542,4055,26.571413312639507,779.0714276177542,4155.3,26.571413312639507,779.0714276177542,4268.5,26.571413312639507,779.0714276177542,4369.1,26.571413312639507,779.0714276177542,4470.5,26.571413312639507,779.0714276177542,4578,26.571413312639507,779.0714276177542,4680.2,26.571413312639507,779.0714276177542,4785.4,26.571413312639507,779.0714276177542,4897.3,26.571413312639507,779.0714276177542,4999.2]","[1459.5,1459.5,1000,0,459.5,""oops"",""down"",""left"",""good_move"",4037.9,2578.2,2076.1,1459.9,502,""smooth"",""down"",""down"",""good_move"",10266,6227.1,2548.3,7354.6,363.1,""smooth"",""down"",""down"",""good_move"",15920.1,5653.8,2280.9,13159.9,479.3,""oops"",""down"",""left"",""good_move"",18087.4,2167,1556.6,15920.4,610.4,""smooth"",""down"",""down"",""good_move"",20574.1,2486.3,2084.8,18087.8,401.5,""smooth"",""left"",""left"",""good_move""]","",""
"7758","","<div style=""width:500px;"">
  <p>What determined the result of this run?</p>
  </div>","22","html-slider-response","62","1146286","0.0-10.0-1.4","46","1","2025-07-09 09:07:13","7701e855f2ef39aa3fd6c71abdc6918a","84.237.169.56","Mozilla/5.0 (Windows NT 10.0; Win64; x64) AppleWebKit/537.36 (KHTML, like Gecko) Chrome/137.0.0.0 Safari/537.36","WebKit","Chrome","137.0.0.0","Windows","10.0","https://app.prolific.com/","en-US,en;q=0.9","6103a3ece71ab061d5624402","686d226cabeef709c732f8e1","686e310926be30a8bc1bff63","6103a3ece71ab061d5624402","2025-07-09T09:26:20.698Z","","","","","","AttribQ","","","","","","","","","","","","","","","","","","","","","","","","","","","","","","","","","","","","","","50"
"5848","","<div style=""width:500px;"">
  <p>How much control did you have over the ball?</p>
  </div>","72","html-slider-response","63","1152136","0.0-10.0-2.4","46","1","2025-07-09 09:07:13","7701e855f2ef39aa3fd6c71abdc6918a","84.237.169.56","Mozilla/5.0 (Windows NT 10.0; Win64; x64) AppleWebKit/537.36 (KHTML, like Gecko) Chrome/137.0.0.0 Safari/537.36","WebKit","Chrome","137.0.0.0","Windows","10.0","https://app.prolific.com/","en-US,en;q=0.9","6103a3ece71ab061d5624402","686d226cabeef709c732f8e1","686e310926be30a8bc1bff63","6103a3ece71ab061d5624402","2025-07-09T09:26:26.548Z","","","","","","ControlQ","","","","","","","","","","","","","","","","","","","","","","","","","","","","","","","","","","","","","","50"
"4830","","<div style=""width:500px;"">
  <p>How would you describe your current emotional state?</p>
  </div>","0","html-slider-response","64","1156966","0.0-10.0-3.4","46","1","2025-07-09 09:07:13","7701e855f2ef39aa3fd6c71abdc6918a","84.237.169.56","Mozilla/5.0 (Windows NT 10.0; Win64; x64) AppleWebKit/537.36 (KHTML, like Gecko) Chrome/137.0.0.0 Safari/537.36","WebKit","Chrome","137.0.0.0","Windows","10.0","https://app.prolific.com/","en-US,en;q=0.9","6103a3ece71ab061d5624402","686d226cabeef709c732f8e1","686e310926be30a8bc1bff63","6103a3ece71ab061d5624402","2025-07-09T09:26:31.379Z","","","","","","StressQ","","","","","","","","","","","","","","","","","","","","","","","","","","","","","","","","","","","","","","50"
"4298","","<div style=""width:500px;"">
  <p>What best describes how you currently feel?</p>
  </div>","100","html-slider-response","65","1161266","0.0-10.0-4.4","46","1","2025-07-09 09:07:13","7701e855f2ef39aa3fd6c71abdc6918a","84.237.169.56","Mozilla/5.0 (Windows NT 10.0; Win64; x64) AppleWebKit/537.36 (KHTML, like Gecko) Chrome/137.0.0.0 Safari/537.36","WebKit","Chrome","137.0.0.0","Windows","10.0","https://app.prolific.com/","en-US,en;q=0.9","6103a3ece71ab061d5624402","686d226cabeef709c732f8e1","686e310926be30a8bc1bff63","6103a3ece71ab061d5624402","2025-07-09T09:26:35.678Z","","","","","","MotivationQ","","","","","","","","","","","","","","","","","","","","","","","","","","","","","","","","","","","","","","50"
"","","","","ctl-task-cpt","66","1192998","0.0-10.0-0.5","46","1","2025-07-09 09:07:13","7701e855f2ef39aa3fd6c71abdc6918a","84.237.169.56","Mozilla/5.0 (Windows NT 10.0; Win64; x64) AppleWebKit/537.36 (KHTML, like Gecko) Chrome/137.0.0.0 Safari/537.36","WebKit","Chrome","137.0.0.0","Windows","10.0","https://app.prolific.com/","en-US,en;q=0.9","6103a3ece71ab061d5624402","686d226cabeef709c732f8e1","686e310926be30a8bc1bff63","6103a3ece71ab061d5624402","2025-07-09T09:27:07.411Z","","","","","","","","","","","","","","","","win-only","1","g1:NE,g2:SW","0.5","6","0","1162672.4","1158.5","6161.4","28722","1","4","4","6","2","4","4","35","31","0.26515151515151514","2346.5","3000","835","[""down"",""left""]","{""num_key_presses"":8,""num_perfect"":5,""num_errors"":0,""num_randdir"":3,""num_randdir_good_moves"":2,""num_whilered"":0,""num_whileblue"":0,""num_blue"":0,""num_good_moves"":7}","[412.8214133126395,426.57142761775424,0.3,412.8214133126395,426.57142761775424,102.9,412.8214133126395,426.57142761775424,204,412.8214133126395,426.57142761775424,305.4,412.8214133126395,426.57142761775424,407.4,412.8214133126395,426.57142761775424,508.5,314.0714133126395,597.8214276177542,608.8,196.5714133126395,704.0714276177542,710.3,136.5714133126395,752.8214276177542,820.9,106.5714133126395,780.3214276177542,925,96.5714133126395,784.0714276177542,1025.4,87.8214133126395,784.0714276177542,1129.1,87.8214133126395,775.3214276177542,1233.2,761.5714133126395,189.07142761775424,1334.5,830.3214133126395,155.32142761775424,1437.2,817.8214133126395,162.82142761775424,1540.7,372.8214133126395,474.07142761775424,1644.8,251.5714133126395,582.8214276177542,1756,221.5714133126395,626.5714276177542,1858.5,121.5714133126395,784.0714276177542,1958.9,72.8214133126395,812.8214276177542,2065.1,65.3214133126395,809.0714276177542,2169.9,62.82141331263951,806.5714276177542,2272.8,62.82141331263951,806.5714276177542,2373.8,62.82141331263951,806.5714276177542,2487.9,62.82141331263951,806.5714276177542,2591.4,62.82141331263951,806.5714276177542,2693.6,62.82141331263951,806.5714276177542,2795.5,62.82141331263951,806.5714276177542,2898.8,62.82141331263951,806.5714276177542,2998.9,62.82141331263951,806.5714276177542,3102.9,62.82141331263951,806.5714276177542,3205.8,62.82141331263951,806.5714276177542,3309.1,62.82141331263951,806.5714276177542,3409.3,62.82141331263951,806.5714276177542,3513.4,62.82141331263951,806.5714276177542,3621.8,62.82141331263951,806.5714276177542,3723,62.82141331263951,806.5714276177542,3823.6,62.82141331263951,806.5714276177542,3928.1,62.82141331263951,806.5714276177542,4034.9,62.82141331263951,806.5714276177542,4139.2,62.82141331263951,806.5714276177542,4253.3,62.82141331263951,806.5714276177542,4358.6,62.82141331263951,806.5714276177542,4459,62.82141331263951,806.5714276177542,4563.6,62.82141331263951,806.5714276177542,4669,62.82141331263951,806.5714276177542,4772.7,62.82141331263951,806.5714276177542,4886.2,62.82141331263951,806.5714276177542,4988.2]","[1389.7,1389.7,1000,0,389.7,""smooth"",""left"",""left"",""good_move"",4559.3,3169,2772.3,1390.3,396.7,""oops"",""left"",""left"",""good_move"",7498.8,2939,2529.3,4559.8,409.7,""smooth"",""left"",""left"",""good_move"",11091.6,3592.5,3194.7,7499.1,397.8,""smooth"",""down"",""down"",""good_move"",13239.9,2147.6,1705.8,11092.3,441.8,""oops"",""down"",""up"",""bad_move"",16201.1,2960.6,2514.2,13240.5,446.4,""oops"",""down"",""down"",""good_move"",19347.5,3146,2738.2,16201.5,407.8,""smooth"",""down"",""down"",""good_move"",22423,3075.1,2709,19347.9,366.1,""smooth"",""down"",""down"",""good_move""]","",""
"9423","","<div style=""width:500px;"">
  <p>What determined the result of this run?</p>
  </div>","39","html-slider-response","67","1202424","0.0-10.0-1.5","46","1","2025-07-09 09:07:13","7701e855f2ef39aa3fd6c71abdc6918a","84.237.169.56","Mozilla/5.0 (Windows NT 10.0; Win64; x64) AppleWebKit/537.36 (KHTML, like Gecko) Chrome/137.0.0.0 Safari/537.36","WebKit","Chrome","137.0.0.0","Windows","10.0","https://app.prolific.com/","en-US,en;q=0.9","6103a3ece71ab061d5624402","686d226cabeef709c732f8e1","686e310926be30a8bc1bff63","6103a3ece71ab061d5624402","2025-07-09T09:27:16.837Z","","","","","","AttribQ","","","","","","","","","","","","","","","","","","","","","","","","","","","","","","","","","","","","","","50"
"6906","","<div style=""width:500px;"">
  <p>How much control did you have over the ball?</p>
  </div>","77","html-slider-response","68","1209332","0.0-10.0-2.5","46","1","2025-07-09 09:07:13","7701e855f2ef39aa3fd6c71abdc6918a","84.237.169.56","Mozilla/5.0 (Windows NT 10.0; Win64; x64) AppleWebKit/537.36 (KHTML, like Gecko) Chrome/137.0.0.0 Safari/537.36","WebKit","Chrome","137.0.0.0","Windows","10.0","https://app.prolific.com/","en-US,en;q=0.9","6103a3ece71ab061d5624402","686d226cabeef709c732f8e1","686e310926be30a8bc1bff63","6103a3ece71ab061d5624402","2025-07-09T09:27:23.745Z","","","","","","ControlQ","","","","","","","","","","","","","","","","","","","","","","","","","","","","","","","","","","","","","","50"
"4791","","<div style=""width:500px;"">
  <p>How would you describe your current emotional state?</p>
  </div>","0","html-slider-response","69","1214126","0.0-10.0-3.5","46","1","2025-07-09 09:07:13","7701e855f2ef39aa3fd6c71abdc6918a","84.237.169.56","Mozilla/5.0 (Windows NT 10.0; Win64; x64) AppleWebKit/537.36 (KHTML, like Gecko) Chrome/137.0.0.0 Safari/537.36","WebKit","Chrome","137.0.0.0","Windows","10.0","https://app.prolific.com/","en-US,en;q=0.9","6103a3ece71ab061d5624402","686d226cabeef709c732f8e1","686e310926be30a8bc1bff63","6103a3ece71ab061d5624402","2025-07-09T09:27:28.539Z","","","","","","StressQ","","","","","","","","","","","","","","","","","","","","","","","","","","","","","","","","","","","","","","50"
"7163","","<div style=""width:500px;"">
  <p>What best describes how you currently feel?</p>
  </div>","100","html-slider-response","70","1221291","0.0-10.0-4.5","46","1","2025-07-09 09:07:13","7701e855f2ef39aa3fd6c71abdc6918a","84.237.169.56","Mozilla/5.0 (Windows NT 10.0; Win64; x64) AppleWebKit/537.36 (KHTML, like Gecko) Chrome/137.0.0.0 Safari/537.36","WebKit","Chrome","137.0.0.0","Windows","10.0","https://app.prolific.com/","en-US,en;q=0.9","6103a3ece71ab061d5624402","686d226cabeef709c732f8e1","686e310926be30a8bc1bff63","6103a3ece71ab061d5624402","2025-07-09T09:27:35.703Z","","","","","","MotivationQ","","","","","","","","","","","","","","","","","","","","","","","","","","","","","","","","","","","","","","50"
"","","","","ctl-task-cpt","71","1260748","0.0-10.0-0.6","46","1","2025-07-09 09:07:13","7701e855f2ef39aa3fd6c71abdc6918a","84.237.169.56","Mozilla/5.0 (Windows NT 10.0; Win64; x64) AppleWebKit/537.36 (KHTML, like Gecko) Chrome/137.0.0.0 Safari/537.36","WebKit","Chrome","137.0.0.0","Windows","10.0","https://app.prolific.com/","en-US,en;q=0.9","6103a3ece71ab061d5624402","686d226cabeef709c732f8e1","686e310926be30a8bc1bff63","6103a3ece71ab061d5624402","2025-07-09T09:28:15.160Z","","","","","","","","","","","","","","","","win-only","2","g1:SE,g2:NW","0.4","7","0","1222699.2","1210","6213.4","36444.1","1","4","8","6","2","8","8","43","35","0.32575757575757575","1086.3","3000","925","[""left"",""up""]","{""num_key_presses"":10,""num_perfect"":4,""num_errors"":0,""num_randdir"":6,""num_randdir_good_moves"":4,""num_whilered"":0,""num_whileblue"":0,""num_blue"":1,""num_good_moves"":8}","[415.3214133126395,405.32142761775424,0.3,415.3214133126395,405.32142761775424,115.3,415.3214133126395,405.32142761775424,218.5,415.3214133126395,405.32142761775424,319.4,415.3214133126395,405.32142761775424,425.1,415.3214133126395,405.32142761775424,527.6,294.0714133126395,281.57142761775424,627.9,75.3214133126395,60.32142761775425,729.5,56.57141331263951,26.571427617754253,833.3,51.57141331263951,22.821427617754253,937.2,51.57141331263951,22.821427617754253,1045.9,51.57141331263951,22.821427617754253,1147.9,51.57141331263951,22.821427617754253,1253.4,51.57141331263951,22.821427617754253,1361.3,51.57141331263951,22.821427617754253,1462.4,51.57141331263951,22.821427617754253,1570.9,51.57141331263951,22.821427617754253,1682.7,51.57141331263951,22.821427617754253,1783.9,51.57141331263951,22.821427617754253,1885.6,51.57141331263951,22.821427617754253,2001.7,51.57141331263951,22.821427617754253,2108.1,51.57141331263951,22.821427617754253,2208.7,51.57141331263951,22.821427617754253,2310.1,51.57141331263951,22.821427617754253,2411.6,51.57141331263951,22.821427617754253,2515.5,51.57141331263951,22.821427617754253,2621.8,51.57141331263951,22.821427617754253,2722.6,51.57141331263951,22.821427617754253,2823.5,51.57141331263951,22.821427617754253,2929.8,51.57141331263951,22.821427617754253,3035.7,51.57141331263951,22.821427617754253,3143.2,51.57141331263951,22.821427617754253,3252.9,51.57141331263951,22.821427617754253,3353.5,51.57141331263951,22.821427617754253,3462.8,51.57141331263951,22.821427617754253,3564.9,51.57141331263951,22.821427617754253,3670.3,51.57141331263951,22.821427617754253,3776.3,51.57141331263951,22.821427617754253,3877.2,51.57141331263951,22.821427617754253,3985.9,51.57141331263951,22.821427617754253,4094.9,51.57141331263951,22.821427617754253,4197,51.57141331263951,22.821427617754253,4298.7,51.57141331263951,22.821427617754253,4399.3,51.57141331263951,22.821427617754253,4504.7,51.57141331263951,22.821427617754253,4607.6,51.57141331263951,22.821427617754253,4713.8,51.57141331263951,22.821427617754253,4821.7,51.57141331263951,22.821427617754253,4927.6]","[4758.7,4758.7,2326.5,2005.9,426.3,""smooth"",""up"",""up"",""good_move"",7787.3,3028.1,2603.3,4759.2,424.8,""oops"",""up"",""left"",""good_move"",10985.9,3197.9,2696.3,7788,501.6,""oops"",""up"",""down"",""bad_move"",13587.1,2600.8,2017.9,10986.3,582.9,""smooth"",""up"",""up"",""good_move"",16395.1,2807.5,2389.7,13587.8,417.7,""oops"",""up"",""left"",""good_move"",20086.3,3690.9,3323.5,16395.4,367.4,""oops"",""up"",""up"",""good_move"",22622.2,2535.4,2113.8,20086.8,421.6,""oops"",""up"",""right"",""bad_move"",25253.1,2629.9,2141.1,22623.2,488.8,""smooth"",""up"",""up"",""good_move"",27539.6,2286.2,1919.3,25253.4,366.9,""oops"",""left"",""left"",""good_move"",30078.7,2538.4,2185.2,27540.3,353.2,""smooth"",""left"",""left"",""good_move""]","",""
"5953","","<div style=""width:500px;"">
  <p>What determined the result of this run?</p>
  </div>","0","html-slider-response","72","1266702","0.0-10.0-1.6","46","1","2025-07-09 09:07:13","7701e855f2ef39aa3fd6c71abdc6918a","84.237.169.56","Mozilla/5.0 (Windows NT 10.0; Win64; x64) AppleWebKit/537.36 (KHTML, like Gecko) Chrome/137.0.0.0 Safari/537.36","WebKit","Chrome","137.0.0.0","Windows","10.0","https://app.prolific.com/","en-US,en;q=0.9","6103a3ece71ab061d5624402","686d226cabeef709c732f8e1","686e310926be30a8bc1bff63","6103a3ece71ab061d5624402","2025-07-09T09:28:21.114Z","","","","","","AttribQ","","","","","","","","","","","","","","","","","","","","","","","","","","","","","","","","","","","","","","50"
"6716","","<div style=""width:500px;"">
  <p>How much control did you have over the ball?</p>
  </div>","80","html-slider-response","73","1273421","0.0-10.0-2.6","46","1","2025-07-09 09:07:13","7701e855f2ef39aa3fd6c71abdc6918a","84.237.169.56","Mozilla/5.0 (Windows NT 10.0; Win64; x64) AppleWebKit/537.36 (KHTML, like Gecko) Chrome/137.0.0.0 Safari/537.36","WebKit","Chrome","137.0.0.0","Windows","10.0","https://app.prolific.com/","en-US,en;q=0.9","6103a3ece71ab061d5624402","686d226cabeef709c732f8e1","686e310926be30a8bc1bff63","6103a3ece71ab061d5624402","2025-07-09T09:28:27.833Z","","","","","","ControlQ","","","","","","","","","","","","","","","","","","","","","","","","","","","","","","","","","","","","","","50"
"4352","","<div style=""width:500px;"">
  <p>How would you describe your current emotional state?</p>
  </div>","0","html-slider-response","74","1277775","0.0-10.0-3.6","46","1","2025-07-09 09:07:13","7701e855f2ef39aa3fd6c71abdc6918a","84.237.169.56","Mozilla/5.0 (Windows NT 10.0; Win64; x64) AppleWebKit/537.36 (KHTML, like Gecko) Chrome/137.0.0.0 Safari/537.36","WebKit","Chrome","137.0.0.0","Windows","10.0","https://app.prolific.com/","en-US,en;q=0.9","6103a3ece71ab061d5624402","686d226cabeef709c732f8e1","686e310926be30a8bc1bff63","6103a3ece71ab061d5624402","2025-07-09T09:28:32.188Z","","","","","","StressQ","","","","","","","","","","","","","","","","","","","","","","","","","","","","","","","","","","","","","","50"
"2851","","<div style=""width:500px;"">
  <p>What best describes how you currently feel?</p>
  </div>","100","html-slider-response","75","1280628","0.0-10.0-4.6","46","1","2025-07-09 09:07:13","7701e855f2ef39aa3fd6c71abdc6918a","84.237.169.56","Mozilla/5.0 (Windows NT 10.0; Win64; x64) AppleWebKit/537.36 (KHTML, like Gecko) Chrome/137.0.0.0 Safari/537.36","WebKit","Chrome","137.0.0.0","Windows","10.0","https://app.prolific.com/","en-US,en;q=0.9","6103a3ece71ab061d5624402","686d226cabeef709c732f8e1","686e310926be30a8bc1bff63","6103a3ece71ab061d5624402","2025-07-09T09:28:35.040Z","","","","","","MotivationQ","","","","","","","","","","","","","","","","","","","","","","","","","","","","","","","","","","","","","","50"
"","","","","ctl-task-cpt","76","1400083","0.0-10.0-0.7","46","1","2025-07-09 09:07:13","7701e855f2ef39aa3fd6c71abdc6918a","84.237.169.56","Mozilla/5.0 (Windows NT 10.0; Win64; x64) AppleWebKit/537.36 (KHTML, like Gecko) Chrome/137.0.0.0 Safari/537.36","WebKit","Chrome","137.0.0.0","Windows","10.0","https://app.prolific.com/","en-US,en;q=0.9","6103a3ece71ab061d5624402","686d226cabeef709c732f8e1","686e310926be30a8bc1bff63","6103a3ece71ab061d5624402","2025-07-09T09:30:34.495Z","","","","","","","","","","","","","","","","win-only","3","g1:SW,g2:NE","0.3","8","0","1282033.3","1558.3","6561.1","116427.1","1","4","4","6","2","-4","-4","39","43","0.29545454545454547","1494","3000","-1660","[""up"",""right""]","{""num_key_presses"":25,""num_perfect"":7,""num_errors"":0,""num_randdir"":18,""num_randdir_good_moves"":7,""num_whilered"":0,""num_whileblue"":0,""num_blue"":4,""num_good_moves"":14}","[415.3214133126395,420.32142761775424,0.3,415.3214133126395,420.32142761775424,117.1,415.3214133126395,420.32142761775424,221.5,415.3214133126395,420.32142761775424,324.5,415.3214133126395,420.32142761775424,424.9,415.3214133126395,420.32142761775424,528,415.3214133126395,420.32142761775424,643.6,467.8214133126395,374.07142761775424,753.4,731.5714133126395,167.82142761775424,857.5,731.5714133126395,167.82142761775424,964.5,731.5714133126395,167.82142761775424,1068.2,756.5714133126395,91.57142761775425,1180.2,759.0714133126395,81.57142761775425,1288.4,760.3214133126395,77.82142761775425,1391.9,760.3214133126395,77.82142761775425,1502.6,760.3214133126395,77.82142761775425,1611.7,760.3214133126395,77.82142761775425,1724.4,760.3214133126395,77.82142761775425,1827.1,760.3214133126395,77.82142761775425,1931.3,760.3214133126395,77.82142761775425,2034,760.3214133126395,77.82142761775425,2138.2,760.3214133126395,77.82142761775425,2240,760.3214133126395,77.82142761775425,2345.5,760.3214133126395,77.82142761775425,2453.7,760.3214133126395,77.82142761775425,2555.9,760.3214133126395,77.82142761775425,2656.9,760.3214133126395,77.82142761775425,2758.8,760.3214133126395,77.82142761775425,2869.5,760.3214133126395,77.82142761775425,2969.6,760.3214133126395,77.82142761775425,3070,760.3214133126395,77.82142761775425,3179.4,760.3214133126395,77.82142761775425,3286.4,760.3214133126395,77.82142761775425,3388,760.3214133126395,77.82142761775425,3488.2,760.3214133126395,77.82142761775425,3592,760.3214133126395,77.82142761775425,3701.8,760.3214133126395,77.82142761775425,3809,760.3214133126395,77.82142761775425,3922.8,760.3214133126395,77.82142761775425,4027.4,760.3214133126395,77.82142761775425,4128,760.3214133126395,77.82142761775425,4233,760.3214133126395,77.82142761775425,4336,760.3214133126395,77.82142761775425,4439.9,760.3214133126395,77.82142761775425,4548.3,760.3214133126395,77.82142761775425,4655,760.3214133126395,77.82142761775425,4756,760.3214133126395,77.82142761775425,4861.6,760.3214133126395,77.82142761775425,4966.7]","[1469,1469,1000,0,469,""smooth"",""right"",""right"",""good_move"",5160.3,3690.7,3286.4,1469.6,404.3,""smooth"",""right"",""right"",""good_move"",7714.4,2553.7,2120.3,5160.7,433.4,""oops"",""right"",""up"",""good_move"",17237.7,9521.7,2700.1,14122.9,414.7,""oops"",""right"",""down"",""bad_move"",20427.8,3189.6,2703.3,17238.2,486.3,""oops"",""right"",""up"",""good_move"",24393.9,3965.8,3416,20428.2,549.8,""oops"",""right"",""left"",""bad_move"",27746.2,3351.7,2862.9,24394.5,488.8,""smooth"",""right"",""right"",""good_move"",30403.4,2656.6,2229.6,27746.8,427,""oops"",""up"",""up"",""good_move"",34500.4,4096.6,2659.3,30403.8,1437.3,""oops"",""up"",""left"",""bad_move"",38800,4299.3,1794.7,34500.7,2504.6,""oops"",""up"",""left"",""bad_move"",43276.8,4476.5,1872,38800.3,2604.5,""oops"",""right"",""left"",""bad_move"",47551.3,4274.2,2760.4,43277.1,1513.8,""oops"",""up"",""right"",""good_move"",52887.6,5335.7,1859.4,50697.5,330.7,""oops"",""right"",""left"",""bad_move"",57485.6,4597.8,2426.9,52887.8,2170.9,""smooth"",""up"",""up"",""good_move"",62054,4568,2623,57486,1945,""smooth"",""right"",""right"",""good_move"",65104.5,3050,2647.8,62054.5,402.2,""oops"",""right"",""left"",""bad_move"",69764.7,4659.2,2600.6,65105.5,2058.6,""oops"",""right"",""down"",""bad_move"",73540,3774.7,3374,69765.3,400.7,""oops"",""right"",""left"",""bad_move"",80656.7,7116.4,2800.3,73540.3,4316.1,""smooth"",""up"",""up"",""good_move"",87771.4,7114.5,2653,80656.9,4461.6,""oops"",""right"",""right"",""good_move"",91314.5,3542.7,3098.3,87771.8,444.4,""smooth"",""right"",""right"",""good_move"",94812.7,3497.9,2992.9,91314.8,505,""oops"",""right"",""right"",""good_move"",97575.9,2762.9,2213.1,94813,549.8,""oops"",""right"",""down"",""bad_move"",104508.4,6932.2,2548.2,101536.5,423.7,""oops"",""right"",""down"",""bad_move"",107723.9,3215.2,2684.5,104508.7,530.7,""oops"",""right"",""right"",""good_move""]","",""
"3078","","<div style=""width:500px;"">
  <p>What determined the result of this run?</p>
  </div>","0","html-slider-response","77","1403164","0.0-10.0-1.7","46","1","2025-07-09 09:07:13","7701e855f2ef39aa3fd6c71abdc6918a","84.237.169.56","Mozilla/5.0 (Windows NT 10.0; Win64; x64) AppleWebKit/537.36 (KHTML, like Gecko) Chrome/137.0.0.0 Safari/537.36","WebKit","Chrome","137.0.0.0","Windows","10.0","https://app.prolific.com/","en-US,en;q=0.9","6103a3ece71ab061d5624402","686d226cabeef709c732f8e1","686e310926be30a8bc1bff63","6103a3ece71ab061d5624402","2025-07-09T09:30:37.576Z","","","","","","AttribQ","","","","","","","","","","","","","","","","","","","","","","","","","","","","","","","","","","","","","","50"
"8772","","<div style=""width:500px;"">
  <p>How much control did you have over the ball?</p>
  </div>","0","html-slider-response","78","1411942","0.0-10.0-2.7","46","1","2025-07-09 09:07:13","7701e855f2ef39aa3fd6c71abdc6918a","84.237.169.56","Mozilla/5.0 (Windows NT 10.0; Win64; x64) AppleWebKit/537.36 (KHTML, like Gecko) Chrome/137.0.0.0 Safari/537.36","WebKit","Chrome","137.0.0.0","Windows","10.0","https://app.prolific.com/","en-US,en;q=0.9","6103a3ece71ab061d5624402","686d226cabeef709c732f8e1","686e310926be30a8bc1bff63","6103a3ece71ab061d5624402","2025-07-09T09:30:46.354Z","","","","","","ControlQ","","","","","","","","","","","","","","","","","","","","","","","","","","","","","","","","","","","","","","50"
"4977","","<div style=""width:500px;"">
  <p>How would you describe your current emotional state?</p>
  </div>","50","html-slider-response","79","1416921","0.0-10.0-3.7","46","1","2025-07-09 09:07:13","7701e855f2ef39aa3fd6c71abdc6918a","84.237.169.56","Mozilla/5.0 (Windows NT 10.0; Win64; x64) AppleWebKit/537.36 (KHTML, like Gecko) Chrome/137.0.0.0 Safari/537.36","WebKit","Chrome","137.0.0.0","Windows","10.0","https://app.prolific.com/","en-US,en;q=0.9","6103a3ece71ab061d5624402","686d226cabeef709c732f8e1","686e310926be30a8bc1bff63","6103a3ece71ab061d5624402","2025-07-09T09:30:51.333Z","","","","","","StressQ","","","","","","","","","","","","","","","","","","","","","","","","","","","","","","","","","","","","","","50"
"5729","","<div style=""width:500px;"">
  <p>What best describes how you currently feel?</p>
  </div>","100","html-slider-response","80","1422654","0.0-10.0-4.7","46","1","2025-07-09 09:07:13","7701e855f2ef39aa3fd6c71abdc6918a","84.237.169.56","Mozilla/5.0 (Windows NT 10.0; Win64; x64) AppleWebKit/537.36 (KHTML, like Gecko) Chrome/137.0.0.0 Safari/537.36","WebKit","Chrome","137.0.0.0","Windows","10.0","https://app.prolific.com/","en-US,en;q=0.9","6103a3ece71ab061d5624402","686d226cabeef709c732f8e1","686e310926be30a8bc1bff63","6103a3ece71ab061d5624402","2025-07-09T09:30:57.066Z","","","","","","MotivationQ","","","","","","","","","","","","","","","","","","","","","","","","","","","","","","","","","","","","","","50"
"","","","","ctl-task-cpt","81","1578409","0.0-10.0-0.8","46","1","2025-07-09 09:07:13","7701e855f2ef39aa3fd6c71abdc6918a","84.237.169.56","Mozilla/5.0 (Windows NT 10.0; Win64; x64) AppleWebKit/537.36 (KHTML, like Gecko) Chrome/137.0.0.0 Safari/537.36","WebKit","Chrome","137.0.0.0","Windows","10.0","https://app.prolific.com/","en-US,en;q=0.9","6103a3ece71ab061d5624402","686d226cabeef709c732f8e1","686e310926be30a8bc1bff63","6103a3ece71ab061d5624402","2025-07-09T09:33:32.821Z","","","","","","","","","","","","","","","","win-only","3","g1:SW,g2:NE","0.2","9","0","1424057.5","1346.8","6361.3","152719.1","1","4","4","6","2","-4","-6","33","39","0.25","1191.2","3000","-630","[""up"",""right""]","{""num_key_presses"":29,""num_perfect"":6,""num_errors"":2,""num_randdir"":21,""num_randdir_good_moves"":9,""num_whilered"":0,""num_whileblue"":1,""num_blue"":13,""num_good_moves"":15}","[416.5714133126395,416.57142761775424,0.1,416.5714133126395,416.57142761775424,111.1,416.5714133126395,416.57142761775424,235.9,416.5714133126395,416.57142761775424,336.3,416.5714133126395,416.57142761775424,460.2,416.5714133126395,416.57142761775424,582.1,482.8214133126395,370.32142761775424,708.8,804.0714133126395,61.57142761775425,820.1,807.8214133126395,59.07142761775425,941.6,807.8214133126395,59.07142761775425,1061.3,807.8214133126395,59.07142761775425,1163.5,807.8214133126395,59.07142761775425,1275.8,807.8214133126395,59.07142761775425,1397.3,807.8214133126395,59.07142761775425,1518.3,807.8214133126395,59.07142761775425,1628.1,807.8214133126395,59.07142761775425,1750.5,807.8214133126395,59.07142761775425,1851.1,807.8214133126395,59.07142761775425,1973.2,807.8214133126395,59.07142761775425,2079.5,807.8214133126395,59.07142761775425,2181,807.8214133126395,59.07142761775425,2307.1,807.8214133126395,59.07142761775425,2407.5,807.8214133126395,59.07142761775425,2526.9,807.8214133126395,59.07142761775425,2627.5,807.8214133126395,59.07142761775425,2750,807.8214133126395,59.07142761775425,2876.1,807.8214133126395,59.07142761775425,2976.4,807.8214133126395,59.07142761775425,3080.9,807.8214133126395,59.07142761775425,3189.5,807.8214133126395,59.07142761775425,3295.1,807.8214133126395,59.07142761775425,3399,807.8214133126395,59.07142761775425,3523,807.8214133126395,59.07142761775425,3648.2,807.8214133126395,59.07142761775425,3771.6,807.8214133126395,59.07142761775425,3897,807.8214133126395,59.07142761775425,4036.5,807.8214133126395,59.07142761775425,4138,807.8214133126395,59.07142761775425,4243.1,807.8214133126395,59.07142761775425,4359.4,807.8214133126395,59.07142761775425,4484.8,807.8214133126395,59.07142761775425,4592.2,807.8214133126395,59.07142761775425,4692.7,807.8214133126395,59.07142761775425,4793.4,807.8214133126395,59.07142761775425,4916.2]","[5065.1,5065.1,2632.4,2029.6,403.1,""oops"",""right"",""up"",""good_move"",9850.2,4784.8,2041.4,5065.4,2743.4,""smooth"",""right"",""right"",""good_move"",13248.5,3397.7,3003.6,9850.8,394.1,""smooth"",""right"",""right"",""good_move"",19698.7,6449.7,2575.1,16726.8,396.8,""oops"",""right"",""right"",""good_move"",22438.1,2739.1,2149.9,19699,589.2,""oops"",""up"",""down"",""bad_move"",25812.3,3373.5,2943.3,22438.8,430.2,""oops"",""up"",""left"",""bad_move"",28829.9,3016.9,2547.5,25813,469.4,""oops"",""left"",""left"",""bad_move"",40001,11170.8,3151.6,36400.3,449.1,""oops"",""up"",""up"",""good_move"",44462.8,4461.3,2909.2,40001.5,1552.1,""oops"",""up"",""down"",""bad_move"",48561.3,4097.9,3729.9,44463.4,368,""oops"",""right"",""up"",""good_move"",60820.3,12258.6,2942.8,57535.9,341.6,""oops"",""up"",""right"",""good_move"",67129.8,6308.9,2618.8,64193.5,317.5,""smooth"",""up"",""up"",""good_move"",73570.6,6440.4,2415.2,70827,328.4,""oops"",""up"",""left"",""bad_move"",77699.4,4128.2,2433.7,73571.2,1694.5,""oops"",""up"",""up"",""good_move"",82049.9,4350.1,1930.3,77699.8,2419.8,""oops"",""right"",""down"",""bad_move"",84392.5,2341.9,1945.2,82050.6,396.7,""oops"",""right"",""left"",""bad_move"",89101,4708.2,2699.4,84392.8,2008.8,""oops"",""up"",""left"",""bad_move"",93989.7,4888.4,2703.1,89101.3,2185.3,""smooth"",""left"",""left"",""bad_move"",98740.5,4750.6,3129.9,93989.9,1620.7,""oops"",""up"",""down"",""bad_move"",101351.8,2610.9,1764.8,98740.9,846.1,""oops"",""right"",""up"",""good_move"",102343,990.9,2841.3,101352.1,-1850.4,""error"",""-"",""-"",""no_move"",106674.9,4331.6,2499.7,103346.5,828.7,""oops"",""right"",""up"",""good_move"",111745.5,5070.5,2431.2,106675,2639.3,""oops"",""right"",""down"",""bad_move"",114438.1,2692.2,2283.4,111746,408.7,""while_blue"",""right"",""right"",""good_move"",120799.8,6361.1,1723.5,118604.2,472.1,""oops"",""right"",""down"",""bad_move"",130815.2,10015,2541.5,127865.3,408.4,""smooth"",""right"",""right"",""good_move"",137081.4,6265.7,2700.1,133910,471.3,""smooth"",""right"",""right"",""good_move"",139733.5,2651.7,2234,137081.8,417.7,""oops"",""right"",""down"",""bad_move"",142957.2,3223.2,2805.6,139734,417.6,""oops"",""right"",""up"",""good_move""]","",""
"3103","","<div style=""width:500px;"">
  <p>What determined the result of this run?</p>
  </div>","0","html-slider-response","82","1581516","0.0-10.0-1.8","46","1","2025-07-09 09:07:13","7701e855f2ef39aa3fd6c71abdc6918a","84.237.169.56","Mozilla/5.0 (Windows NT 10.0; Win64; x64) AppleWebKit/537.36 (KHTML, like Gecko) Chrome/137.0.0.0 Safari/537.36","WebKit","Chrome","137.0.0.0","Windows","10.0","https://app.prolific.com/","en-US,en;q=0.9","6103a3ece71ab061d5624402","686d226cabeef709c732f8e1","686e310926be30a8bc1bff63","6103a3ece71ab061d5624402","2025-07-09T09:33:35.928Z","","","","","","AttribQ","","","","","","","","","","","","","","","","","","","","","","","","","","","","","","","","","","","","","","50"
"2999","","<div style=""width:500px;"">
  <p>How much control did you have over the ball?</p>
  </div>","0","html-slider-response","83","1584518","0.0-10.0-2.8","46","1","2025-07-09 09:07:13","7701e855f2ef39aa3fd6c71abdc6918a","84.237.169.56","Mozilla/5.0 (Windows NT 10.0; Win64; x64) AppleWebKit/537.36 (KHTML, like Gecko) Chrome/137.0.0.0 Safari/537.36","WebKit","Chrome","137.0.0.0","Windows","10.0","https://app.prolific.com/","en-US,en;q=0.9","6103a3ece71ab061d5624402","686d226cabeef709c732f8e1","686e310926be30a8bc1bff63","6103a3ece71ab061d5624402","2025-07-09T09:33:38.931Z","","","","","","ControlQ","","","","","","","","","","","","","","","","","","","","","","","","","","","","","","","","","","","","","","50"
"4543","","<div style=""width:500px;"">
  <p>How would you describe your current emotional state?</p>
  </div>","50","html-slider-response","84","1589065","0.0-10.0-3.8","46","1","2025-07-09 09:07:13","7701e855f2ef39aa3fd6c71abdc6918a","84.237.169.56","Mozilla/5.0 (Windows NT 10.0; Win64; x64) AppleWebKit/537.36 (KHTML, like Gecko) Chrome/137.0.0.0 Safari/537.36","WebKit","Chrome","137.0.0.0","Windows","10.0","https://app.prolific.com/","en-US,en;q=0.9","6103a3ece71ab061d5624402","686d226cabeef709c732f8e1","686e310926be30a8bc1bff63","6103a3ece71ab061d5624402","2025-07-09T09:33:43.477Z","","","","","","StressQ","","","","","","","","","","","","","","","","","","","","","","","","","","","","","","","","","","","","","","50"
"5061","","<div style=""width:500px;"">
  <p>What best describes how you currently feel?</p>
