"rt","response_timestamp","stimulus","response","trial_type","trial_index","time_elapsed","internal_node_id","run_id","condition","recorded_at","source_code_version","ip","user_agent","device","browser","browser_version","platform","platform_version","referer","accept_language","PROLIFIC_PID","STUDY_ID","SESSION_ID","prolific_id","realtime","view_history","question_order","consent","success","question_id","eventType","responses","item_order","radio_event_ids","radio_event_times","key_event_times","mouse_event_times","straightlining","zigzagging","honeypot","which_type","canvas_config","goals_layout","control_level","trial_number","tutorial_trial_number","trial_start_time","phase1_start_time","phase2_start_time","phase3_start_time","goal_1_value","goal_1_distance","goal_2_value","goal_2_distance","goal_selected","outcome","outcome_total","participant_final_score","participant_initial_score","participant_final_score_prop","goal_choice_rt","allocated_time","allocated_time_remaining","goal_direction","counts","mouse_movements","key_presses","correct","slider_start","sub_question"
"3625","1752052043682","<p style='font-size:40px;line-height:1.25'><strong>Welcome to the experiment!</strong></p><p style='font-size:1.1em;line-height:1.25'>Thank you for your interest in our experiment! Before you begin, it is important that we obtain your informed consent to participate in the study.</p><p style='font-size:1.1em;line-height:1.25'>On the next screen will be an <strong>information sheet</strong> for you to read. To participate in the study we need you to read this information sheet and the following consent form carefully. If you agree with all the statements, please click the <strong>I agree</strong> button.</p><p style='font-size:1.1em;line-height:1.25'>Press <strong>Next</strong> to read the information sheet.</p>","0","custom-html-button-response","0","3634","0.0-0.0","40","1","2025-07-09 09:07:06","7701e855f2ef39aa3fd6c71abdc6918a","102.164.1.228","Mozilla/5.0 (Windows NT 10.0; Win64; x64) AppleWebKit/537.36 (KHTML, like Gecko) Chrome/138.0.0.0 Safari/537.36","WebKit","Chrome","138.0.0.0","Windows","10.0","https://app.prolific.com/","en-US,en;q=0.9","67f6b8ee8af987467b01ab3d","686d226cabeef709c732f8e1","686e3131d23511e7c6c84004","67f6b8ee8af987467b01ab3d","2025-07-09T09:07:23.687Z","","","","","","","","","","","","","","","","","","","","","","","","","","","","","","","","","","","","","","","","","","","","",""
"52087","","","","instructions","1","55726","0.0-1.0","40","1","2025-07-09 09:07:06","7701e855f2ef39aa3fd6c71abdc6918a","102.164.1.228","Mozilla/5.0 (Windows NT 10.0; Win64; x64) AppleWebKit/537.36 (KHTML, like Gecko) Chrome/138.0.0.0 Safari/537.36","WebKit","Chrome","138.0.0.0","Windows","10.0","https://app.prolific.com/","en-US,en;q=0.9","67f6b8ee8af987467b01ab3d","686d226cabeef709c732f8e1","686e3131d23511e7c6c84004","67f6b8ee8af987467b01ab3d","","[{""page_index"":0,""viewing_time"":44575},{""page_index"":1,""viewing_time"":7510}]","","","","","","","","","","","","","","","","","","","","","","","","","","","","","","","","","","","","","","","","","","","",""
"6878","","","{""Q0"":"""",""Q1"":"""",""Q2"":"""",""Q3"":"""",""Q4"":"""",""Q5"":"""",""Q6"":""I agree""}","survey-multi-choice","2","62614","0.0-2.0","40","1","2025-07-09 09:07:06","7701e855f2ef39aa3fd6c71abdc6918a","102.164.1.228","Mozilla/5.0 (Windows NT 10.0; Win64; x64) AppleWebKit/537.36 (KHTML, like Gecko) Chrome/138.0.0.0 Safari/537.36","WebKit","Chrome","138.0.0.0","Windows","10.0","https://app.prolific.com/","en-US,en;q=0.9","67f6b8ee8af987467b01ab3d","686d226cabeef709c732f8e1","686e3131d23511e7c6c84004","67f6b8ee8af987467b01ab3d","","","[0,1,2,3,4,5,6]","true","","","","","","","","","","","","","","","","","","","","","","","","","","","","","","","","","","","","","","","","","",""
"82083","","","","fullscreen","3","145713","0.0-4.0","40","1","2025-07-09 09:07:06","7701e855f2ef39aa3fd6c71abdc6918a","102.164.1.228","Mozilla/5.0 (Windows NT 10.0; Win64; x64) AppleWebKit/537.36 (KHTML, like Gecko) Chrome/138.0.0.0 Safari/537.36","WebKit","Chrome","138.0.0.0","Windows","10.0","https://app.prolific.com/","en-US,en;q=0.9","67f6b8ee8af987467b01ab3d","686d226cabeef709c732f8e1","686e3131d23511e7c6c84004","67f6b8ee8af987467b01ab3d","","","","","true","","","","","","","","","","","","","","","","","","","","","","","","","","","","","","","","","","","","","","","","",""
"7030","1752052192799"," <p style='font-size:1.1em;line-height:1.25'>Thank you for completing the consent form and closing all other tabs.</p><p style='font-size:1.1em;line-height:1.25'>We will now invite you to fill in some demographic information and questionnaires, before starting the game.<br>This will take about 5 minutes.<br></p><p style='font-size:1.1em;line-height:1.25'>Press the <strong>Next</strong> button to continue.</p>","0","custom-html-button-response","4","152749","0.0-5.0","40","1","2025-07-09 09:07:06","7701e855f2ef39aa3fd6c71abdc6918a","102.164.1.228","Mozilla/5.0 (Windows NT 10.0; Win64; x64) AppleWebKit/537.36 (KHTML, like Gecko) Chrome/138.0.0.0 Safari/537.36","WebKit","Chrome","138.0.0.0","Windows","10.0","https://app.prolific.com/","en-US,en;q=0.9","67f6b8ee8af987467b01ab3d","686d226cabeef709c732f8e1","686e3131d23511e7c6c84004","67f6b8ee8af987467b01ab3d","2025-07-09T09:09:52.802Z","","","","","","","","","","","","","","","","","","","","","","","","","","","","","","","","","","","","","","","","","","","","",""
"3822","","","{""age"":""22""}","survey-text","5","156581","0.0-6.0-0.0","40","1","2025-07-09 09:07:06","7701e855f2ef39aa3fd6c71abdc6918a","102.164.1.228","Mozilla/5.0 (Windows NT 10.0; Win64; x64) AppleWebKit/537.36 (KHTML, like Gecko) Chrome/138.0.0.0 Safari/537.36","WebKit","Chrome","138.0.0.0","Windows","10.0","https://app.prolific.com/","en-US,en;q=0.9","67f6b8ee8af987467b01ab3d","686d226cabeef709c732f8e1","686e3131d23511e7c6c84004","67f6b8ee8af987467b01ab3d","","","","","","0","demographics","","","","","","","","","","","","","","","","","","","","","","","","","","","","","","","","","","","","","","",""
"4509","","","{""gender_identity"":""female/woman""}","survey-multi-choice","6","161095","0.0-6.0-1.0","40","1","2025-07-09 09:07:06","7701e855f2ef39aa3fd6c71abdc6918a","102.164.1.228","Mozilla/5.0 (Windows NT 10.0; Win64; x64) AppleWebKit/537.36 (KHTML, like Gecko) Chrome/138.0.0.0 Safari/537.36","WebKit","Chrome","138.0.0.0","Windows","10.0","https://app.prolific.com/","en-US,en;q=0.9","67f6b8ee8af987467b01ab3d","686d226cabeef709c732f8e1","686e3131d23511e7c6c84004","67f6b8ee8af987467b01ab3d","","","[0]","","","1","demographics","","","","","","","","","","","","","","","","","","","","","","","","","","","","","","","","","","","","","","",""
"9217","","","{""assigned_sex"":""female""}","survey-multi-choice","7","170315","0.0-6.0-2.0","40","1","2025-07-09 09:07:06","7701e855f2ef39aa3fd6c71abdc6918a","102.164.1.228","Mozilla/5.0 (Windows NT 10.0; Win64; x64) AppleWebKit/537.36 (KHTML, like Gecko) Chrome/138.0.0.0 Safari/537.36","WebKit","Chrome","138.0.0.0","Windows","10.0","https://app.prolific.com/","en-US,en;q=0.9","67f6b8ee8af987467b01ab3d","686d226cabeef709c732f8e1","686e3131d23511e7c6c84004","67f6b8ee8af987467b01ab3d","","","[0]","","","2","demographics","","","","","","","","","","","","","","","","","","","","","","","","","","","","","","","","","","","","","","",""
"4898","","","{""menstrual_cycle"":""Yes""}","survey-multi-choice","8","175217","0.0-6.0-3.0","40","1","2025-07-09 09:07:06","7701e855f2ef39aa3fd6c71abdc6918a","102.164.1.228","Mozilla/5.0 (Windows NT 10.0; Win64; x64) AppleWebKit/537.36 (KHTML, like Gecko) Chrome/138.0.0.0 Safari/537.36","WebKit","Chrome","138.0.0.0","Windows","10.0","https://app.prolific.com/","en-US,en;q=0.9","67f6b8ee8af987467b01ab3d","686d226cabeef709c732f8e1","686e3131d23511e7c6c84004","67f6b8ee8af987467b01ab3d","","","[0]","","","4","demographics","","","","","","","","","","","","","","","","","","","","","","","","","","","","","","","","","","","","","","",""
"23841","","","{""education"":""Bachelor's Degree (e.g., BA)""}","survey-multi-choice","9","199063","0.0-6.0-4.0","40","1","2025-07-09 09:07:06","7701e855f2ef39aa3fd6c71abdc6918a","102.164.1.228","Mozilla/5.0 (Windows NT 10.0; Win64; x64) AppleWebKit/537.36 (KHTML, like Gecko) Chrome/138.0.0.0 Safari/537.36","WebKit","Chrome","138.0.0.0","Windows","10.0","https://app.prolific.com/","en-US,en;q=0.9","67f6b8ee8af987467b01ab3d","686d226cabeef709c732f8e1","686e3131d23511e7c6c84004","67f6b8ee8af987467b01ab3d","","","[0]","","","5","demographics","","","","","","","","","","","","","","","","","","","","","","","","","","","","","","","","","","","","","","",""
"13856","","","{""education"":""Bachelor's Degree (e.g., BA)""}","survey-multi-choice","10","212923","0.0-6.0-5.0","40","1","2025-07-09 09:07:06","7701e855f2ef39aa3fd6c71abdc6918a","102.164.1.228","Mozilla/5.0 (Windows NT 10.0; Win64; x64) AppleWebKit/537.36 (KHTML, like Gecko) Chrome/138.0.0.0 Safari/537.36","WebKit","Chrome","138.0.0.0","Windows","10.0","https://app.prolific.com/","en-US,en;q=0.9","67f6b8ee8af987467b01ab3d","686d226cabeef709c732f8e1","686e3131d23511e7c6c84004","67f6b8ee8af987467b01ab3d","2025-07-09T09:10:52.976Z","","[0]","","","6","demographics","","","","","","","","","","","","","","","","","","","","","","","","","","","","","","","","","","","","","","",""
"69835","","","{""mental_health_condition"":""yes"",""mental_health_treatment"":""yes"",""psychiatric_medication"":""ritalin 25mg once  a day""}","survey-text","11","282768","0.0-7.0-0.0","40","1","2025-07-09 09:07:06","7701e855f2ef39aa3fd6c71abdc6918a","102.164.1.228","Mozilla/5.0 (Windows NT 10.0; Win64; x64) AppleWebKit/537.36 (KHTML, like Gecko) Chrome/138.0.0.0 Safari/537.36","WebKit","Chrome","138.0.0.0","Windows","10.0","https://app.prolific.com/","en-US,en;q=0.9","67f6b8ee8af987467b01ab3d","686d226cabeef709c732f8e1","686e3131d23511e7c6c84004","67f6b8ee8af987467b01ab3d","2025-07-09T09:12:02.820Z","","","","","1","mental_health","","","","","","","","","","","","","","","","","","","","","","","","","","","","","","","","","","","","","","",""
"13546","","","{""depression_history"":[""Yes""]}","survey-multi-select","12","296323","0.0-7.0-1.0","40","1","2025-07-09 09:07:06","7701e855f2ef39aa3fd6c71abdc6918a","102.164.1.228","Mozilla/5.0 (Windows NT 10.0; Win64; x64) AppleWebKit/537.36 (KHTML, like Gecko) Chrome/138.0.0.0 Safari/537.36","WebKit","Chrome","138.0.0.0","Windows","10.0","https://app.prolific.com/","en-US,en;q=0.9","67f6b8ee8af987467b01ab3d","686d226cabeef709c732f8e1","686e3131d23511e7c6c84004","67f6b8ee8af987467b01ab3d","","","[0]","","","","mental_health","","","","","","","","","","","","","","","","","","","","","","","","","","","","","","","","","","","","","","",""
"120389","","","{""depression_episodes"":""3-5"",""depression_recent"":""Within the past year""}","survey-multi-choice","13","416718","0.0-7.0-2.0-0.0","40","1","2025-07-09 09:07:06","7701e855f2ef39aa3fd6c71abdc6918a","102.164.1.228","Mozilla/5.0 (Windows NT 10.0; Win64; x64) AppleWebKit/537.36 (KHTML, like Gecko) Chrome/138.0.0.0 Safari/537.36","WebKit","Chrome","138.0.0.0","Windows","10.0","https://app.prolific.com/","en-US,en;q=0.9","67f6b8ee8af987467b01ab3d","686d226cabeef709c732f8e1","686e3131d23511e7c6c84004","67f6b8ee8af987467b01ab3d","2025-07-09T09:14:16.771Z","","[0,1]","","","3","mental_health","","","","","","","","","","","","","","","","","","","","","","","","","","","","","","","","","","","","","","",""
"287638.40000000596","","","","survey-template","14","704373","0.0-7.0-3.0","40","1","2025-07-09 09:07:06","7701e855f2ef39aa3fd6c71abdc6918a","102.164.1.228","Mozilla/5.0 (Windows NT 10.0; Win64; x64) AppleWebKit/537.36 (KHTML, like Gecko) Chrome/138.0.0.0 Safari/537.36","WebKit","Chrome","138.0.0.0","Windows","10.0","https://app.prolific.com/","en-US,en;q=0.9","67f6b8ee8af987467b01ab3d","686d226cabeef709c732f8e1","686e3131d23511e7c6c84004","67f6b8ee8af987467b01ab3d","2025-07-09T09:19:04.426Z","","","","","","ius","{""Q01"":""0"",""Q02"":""1"",""Q03"":""1"",""Q04"":""4"",""Q05"":""0"",""Q06"":""0"",""Q07"":""0"",""Q08"":""0"",""Q09"":""2"",""Q10"":""1"",""Q11"":""1"",""Q12"":""3"",""Q13"":""1""}","[0,1,2,3,4,5,6,7,8,9,10,11,12]","[""Q01"",""Q02"",""Q03"",""Q04"",""Q05"",""Q06"",""Q06"",""Q06"",""Q08"",""Q09"",""Q10"",""Q11"",""Q12"",""Q12"",""Q13"",""Q07""]","[16473.5,21841.09999999404,29020,59981.59999999404,114873.90000000596,176262,177834.20000000298,179443,194148.40000000596,216061.70000000298,237291.5,243647.09999999404,246867.70000000298,249259.79999999702,256712.5,283893.299999997]","[267483.09999999404]","[16473.5,21841.09999999404,29020,59981.59999999404,113148,114873.90000000596,176262,177834.20000000298,179443,194148.40000000596,216061.70000000298,237291.5,243647.09999999404,246867.70000000298,249259.79999999702,256712.5,258888.40000000596,283893.299999997,287629.59999999404]","0.38461538461538464","0.25","0","","","","","","","","","","","","","","","","","","","","","","","","","","","","","",""
"3392","1752052747821","<p style='font-size:1.1em;line-height:1.25'>In the following, we will ask you a few questions relating to your experiences over the past month.<br></p><p style='font-size:1.1em;line-height:1.25'>Press the <strong>Next</strong> button to continue.</p>","0","custom-html-button-response","15","707771","0.0-7.0-4.0","40","1","2025-07-09 09:07:06","7701e855f2ef39aa3fd6c71abdc6918a","102.164.1.228","Mozilla/5.0 (Windows NT 10.0; Win64; x64) AppleWebKit/537.36 (KHTML, like Gecko) Chrome/138.0.0.0 Safari/537.36","WebKit","Chrome","138.0.0.0","Windows","10.0","https://app.prolific.com/","en-US,en;q=0.9","67f6b8ee8af987467b01ab3d","686d226cabeef709c732f8e1","686e3131d23511e7c6c84004","67f6b8ee8af987467b01ab3d","2025-07-09T09:19:07.823Z","","","","","","","","","","","","","","","","","","","","","","","","","","","","","","","","","","","","","","","","","","","","",""
"365788.09999999404","","","","survey-template","16","1073569","0.0-7.0-5.0","40","1","2025-07-09 09:07:06","7701e855f2ef39aa3fd6c71abdc6918a","102.164.1.228","Mozilla/5.0 (Windows NT 10.0; Win64; x64) AppleWebKit/537.36 (KHTML, like Gecko) Chrome/138.0.0.0 Safari/537.36","WebKit","Chrome","138.0.0.0","Windows","10.0","https://app.prolific.com/","en-US,en;q=0.9","67f6b8ee8af987467b01ab3d","686d226cabeef709c732f8e1","686e3131d23511e7c6c84004","67f6b8ee8af987467b01ab3d","2025-07-09T09:25:13.622Z","","","","","","pss","{""Q01"":""1"",""Q02"":""1"",""Q03"":""3"",""Q04"":""2"",""Q05"":""1"",""Q06"":""2"",""Q07"":""1"",""Q08"":""1"",""Q09"":""1"",""Q10"":""2""}","[0,1,2,3,4,5,6,7,8,9]","[""Q01"",""Q02"",""Q03"",""Q04"",""Q05"",""Q06"",""Q07"",""Q08"",""Q09"",""Q10""]","[45896.79999999702,128255.69999998808,132587,137447.19999998808,142929.89999999106,148781.39999999106,271424.5,282721.59999999404,350457.5,363988.5]","[]","[0.09999999403953552,45896.79999999702,128255.69999998808,132587,137447.19999998808,142929.89999999106,148781.39999999106,209699.39999999106,271424.5,282721.59999999404,350457.5,361437.59999999404,362686.299999997,363988.5,365780.59999999404]","0.4","0.5555555555555556","0","","","","","","","","","","","","","","","","","","","","","","","","","","","","","",""
"8172","1752053121796","<p style='font-size:1.1em;line-height:1.25'>Thank you for your answers! Now we will ask you a few more questions relating to your feelings in the last 24 hours.<br></p><p style='font-size:1.1em;line-height:1.25'>Press the <strong>Next</strong> button to continue.</p>","0","custom-html-button-response","17","1081746","0.0-7.0-6.0","40","1","2025-07-09 09:07:06","7701e855f2ef39aa3fd6c71abdc6918a","102.164.1.228","Mozilla/5.0 (Windows NT 10.0; Win64; x64) AppleWebKit/537.36 (KHTML, like Gecko) Chrome/138.0.0.0 Safari/537.36","WebKit","Chrome","138.0.0.0","Windows","10.0","https://app.prolific.com/","en-US,en;q=0.9","67f6b8ee8af987467b01ab3d","686d226cabeef709c732f8e1","686e3131d23511e7c6c84004","67f6b8ee8af987467b01ab3d","2025-07-09T09:25:21.798Z","","","","","","","","","","","","","","","","","","","","","","","","","","","","","","","","","","","","","","","","","","","","",""
"222135","","","","survey-template","18","1303902","0.0-7.0-7.0","40","1","2025-07-09 09:07:06","7701e855f2ef39aa3fd6c71abdc6918a","102.164.1.228","Mozilla/5.0 (Windows NT 10.0; Win64; x64) AppleWebKit/537.36 (KHTML, like Gecko) Chrome/138.0.0.0 Safari/537.36","WebKit","Chrome","138.0.0.0","Windows","10.0","https://app.prolific.com/","en-US,en;q=0.9","67f6b8ee8af987467b01ab3d","686d226cabeef709c732f8e1","686e3131d23511e7c6c84004","67f6b8ee8af987467b01ab3d","2025-07-09T09:29:03.954Z","","","","","","drsp","{""Q01"":""1"",""Q02"":""1"",""Q03"":""0"",""Q04"":""1"",""Q05"":""1"",""Q06"":""0"",""Q07"":""1"",""Q08"":""0"",""Q09"":""0"",""Q10"":""1"",""Q11"":""1"",""Q12"":""2"",""Q13"":""1"",""Q14"":""0"",""Q15"":""4"",""Q16"":""1"",""Q17"":""0"",""Q18"":""4"",""Q19"":""1"",""Q20"":""0"",""Q21"":""0""}","[0,1,2,3,4,5,6,7,8,9,10,11,12,13,14,15,16,17,18,19,20]","[""Q01"",""Q02"",""Q03"",""Q04"",""Q05"",""Q06"",""Q07"",""Q07"",""Q08"",""Q09"",""Q10"",""Q11"",""Q12"",""Q13"",""Q14"",""Q15"",""Q16"",""Q17"",""Q18"",""Q19"",""Q19"",""Q18"",""Q20"",""Q21""]","[5904.20000000298,13039.10000000894,21098,27836.80000001192,29836.80000001192,52666.20000000298,69606.5,71318.10000000894,105307.80000001192,118085.80000001192,127142.30000001192,131577.40000000596,139345,143976.70000000298,153384.70000000298,185362.30000001192,188884,191111.90000000596,195452.90000000596,200754.5,201624.70000000298,203354.70000000298,211726.5,219882.5]","[]","[0,5904.20000000298,13039.10000000894,21098,27836.80000001192,29836.80000001192,52666.20000000298,69606.5,71318.10000000894,102938.70000000298,105307.80000001192,118085.80000001192,127142.30000001192,131577.40000000596,139345,143976.70000000298,153384.70000000298,185362.30000001192,188884,191111.90000000596,195452.90000000596,200754.5,201624.70000000298,203354.70000000298,211726.5,216007.80000001192,218062.10000000894,219882.5,222121.10000000894]","0.47619047619047616","0.55","0","","","","","","","","","","","","","","","","","","","","","","","","","","","","","",""
"43446.69999998808","","","","survey-template","19","1347355","0.0-7.0-8.0","40","1","2025-07-09 09:07:06","7701e855f2ef39aa3fd6c71abdc6918a","102.164.1.228","Mozilla/5.0 (Windows NT 10.0; Win64; x64) AppleWebKit/537.36 (KHTML, like Gecko) Chrome/138.0.0.0 Safari/537.36","WebKit","Chrome","138.0.0.0","Windows","10.0","https://app.prolific.com/","en-US,en;q=0.9","67f6b8ee8af987467b01ab3d","686d226cabeef709c732f8e1","686e3131d23511e7c6c84004","67f6b8ee8af987467b01ab3d","2025-07-09T09:29:47.407Z","","","","","","stress","{""Q01"":""1"",""Q02"":""3"",""Q03"":""0""}","[0,1,2]","[""Q01"",""Q02"",""Q03""]","[31451.69999998808,38247.59999999404,41118.59999999404]","[]","[31451.69999998808,38247.59999999404,41118.59999999404,43443.59999999404]","0.3333333333333333","0.5","0","","","","","","","","","","","","","","","","","","","","","","","","","","","","","",""
"90310","","","","instructions","20","1437668","0.0-8.0-0.0","40","1","2025-07-09 09:07:06","7701e855f2ef39aa3fd6c71abdc6918a","102.164.1.228","Mozilla/5.0 (Windows NT 10.0; Win64; x64) AppleWebKit/537.36 (KHTML, like Gecko) Chrome/138.0.0.0 Safari/537.36","WebKit","Chrome","138.0.0.0","Windows","10.0","https://app.prolific.com/","en-US,en;q=0.9","67f6b8ee8af987467b01ab3d","686d226cabeef709c732f8e1","686e3131d23511e7c6c84004","67f6b8ee8af987467b01ab3d","","[{""page_index"":0,""viewing_time"":13832},{""page_index"":1,""viewing_time"":35290},{""page_index"":2,""viewing_time"":22367},{""page_index"":3,""viewing_time"":18820}]","","","","","","","","","","","","","","","","","","","","","","","","","","","","","","","","","","","","","","","","","","","",""
"","","","","ctl-task-cpt","21","1464666","0.0-8.0-1.0","40","1","2025-07-09 09:07:06","7701e855f2ef39aa3fd6c71abdc6918a","102.164.1.228","Mozilla/5.0 (Windows NT 10.0; Win64; x64) AppleWebKit/537.36 (KHTML, like Gecko) Chrome/138.0.0.0 Safari/537.36","WebKit","Chrome","138.0.0.0","Windows","10.0","https://app.prolific.com/","en-US,en;q=0.9","67f6b8ee8af987467b01ab3d","686d226cabeef709c732f8e1","686e3131d23511e7c6c84004","67f6b8ee8af987467b01ab3d","","","","","","","","","","","","","","","","","win-only","2","g1:SE,g2:NW","1","0","1","1450223.3","3404.9","7406.4","23985.2","2","4","4","6","2","-4","-5","0","0","0","3691.6","4000","-2870","[""left"",""up""]","{""num_key_presses"":2,""num_perfect"":1,""num_errors"":1,""num_randdir"":0,""num_randdir_good_moves"":0,""num_whilered"":0,""num_whileblue"":0,""num_blue"":2,""num_good_moves"":0}","[294.22232142857143,299.12857142857143,0.9,294.22232142857143,299.12857142857143,101.9,294.22232142857143,299.12857142857143,205.9,294.22232142857143,299.12857142857143,308.7,294.22232142857143,299.12857142857143,410.2,294.22232142857143,299.12857142857143,516.5,294.22232142857143,299.12857142857143,618.4,294.22232142857143,299.12857142857143,721,297.22232142857143,297.12857142857143,823.6,308.22232142857143,295.12857142857143,926.2,316.22232142857143,306.12857142857143,1028.5,318.22232142857143,316.12857142857143,1139.2,330.22232142857143,334.12857142857143,1242.8,334.22232142857143,338.12857142857143,1342.8,335.22232142857143,338.12857142857143,1446.6,335.22232142857143,338.12857142857143,1551.6,335.22232142857143,338.12857142857143,1663.5,335.22232142857143,338.12857142857143,1767.1,335.22232142857143,338.12857142857143,1868.1,335.22232142857143,338.12857142857143,1968.6,335.22232142857143,338.12857142857143,2072.3,335.22232142857143,338.12857142857143,2173.2,335.22232142857143,338.12857142857143,2276.1,335.22232142857143,338.12857142857143,2386.5,342.22232142857143,344.12857142857143,2488.3,351.22232142857143,351.12857142857143,2592.7,348.22232142857143,349.12857142857143,2710.7,112.22232142857143,35.128571428571426,2811.9,94.22232142857143,11.128571428571426,2916.9,75.22232142857143,-11.871428571428574,3017.5,79.22232142857143,-8.871428571428574,3118.4,80.22232142857143,12.128571428571426,3229.2,77.22232142857143,17.128571428571426,3336.2,75.22232142857143,19.128571428571426,3440.6,75.22232142857143,19.128571428571426,3540.9,75.22232142857143,19.128571428571426,3642.2,75.22232142857143,19.128571428571426,3743.2,75.22232142857143,19.128571428571426,3848.1,75.22232142857143,19.128571428571426,3952.7]","[8377.6,8377.5,2643.4,2005.3,3728.9,""smooth"",""down"",""down"",""bad_move"",8507.1,127.8,2544.9,8379.3,-2417.1,""error"",""-"",""-"",""no_move""]","","",""
"13351","","","","instructions","22","1478019","0.0-8.0-2.0","40","1","2025-07-09 09:07:06","7701e855f2ef39aa3fd6c71abdc6918a","102.164.1.228","Mozilla/5.0 (Windows NT 10.0; Win64; x64) AppleWebKit/537.36 (KHTML, like Gecko) Chrome/138.0.0.0 Safari/537.36","WebKit","Chrome","138.0.0.0","Windows","10.0","https://app.prolific.com/","en-US,en;q=0.9","67f6b8ee8af987467b01ab3d","686d226cabeef709c732f8e1","686e3131d23511e7c6c84004","67f6b8ee8af987467b01ab3d","","[{""page_index"":0,""viewing_time"":13350}]","","","","","","","","","","","","","","","","","","","","","","","","","","","","","","","","","","","","","","","","","","","",""
"","","","","ctl-task-cpt","23","1495382","0.0-8.0-3.0","40","1","2025-07-09 09:07:06","7701e855f2ef39aa3fd6c71abdc6918a","102.164.1.228","Mozilla/5.0 (Windows NT 10.0; Win64; x64) AppleWebKit/537.36 (KHTML, like Gecko) Chrome/138.0.0.0 Safari/537.36","WebKit","Chrome","138.0.0.0","Windows","10.0","https://app.prolific.com/","en-US,en;q=0.9","67f6b8ee8af987467b01ab3d","686d226cabeef709c732f8e1","686e3131d23511e7c6c84004","67f6b8ee8af987467b01ab3d","","","","","","","","","","","","","","","","","win-only","2","g1:SE,g2:NW","0.35","0","3","1490570.9","3931.2","7934","14344.2","2","4","8","6","1","-2","-2","0","0","0","3955.5","4000","-2365","[""down"",""right""]","{""num_key_presses"":0,""num_perfect"":0,""num_errors"":0,""num_randdir"":0,""num_randdir_good_moves"":0,""num_whilered"":0,""num_whileblue"":0,""num_blue"":0,""num_good_moves"":0}","[297.22232142857143,300.12857142857143,1.4,297.22232142857143,300.12857142857143,102.8,297.22232142857143,300.12857142857143,204,297.22232142857143,300.12857142857143,306,297.22232142857143,300.12857142857143,406.2,297.22232142857143,300.12857142857143,509.7,297.22232142857143,300.12857142857143,614.2,315.22232142857143,311.12857142857143,724.9,321.22232142857143,320.12857142857143,827,332.22232142857143,331.12857142857143,938.8,344.22232142857143,342.12857142857143,1043.3,346.22232142857143,345.12857142857143,1146.5,346.22232142857143,345.12857142857143,1253.2,346.22232142857143,345.12857142857143,1354.1,346.22232142857143,345.12857142857143,1456.6,346.22232142857143,345.12857142857143,1566.8,346.22232142857143,345.12857142857143,1672.7,346.22232142857143,345.12857142857143,1775.1,346.22232142857143,345.12857142857143,1875.5,346.22232142857143,345.12857142857143,1989.3,346.22232142857143,345.12857142857143,2090.9,346.22232142857143,345.12857142857143,2203.7,346.22232142857143,345.12857142857143,2305.1,346.22232142857143,345.12857142857143,2405.5,346.22232142857143,345.12857142857143,2514.9,346.22232142857143,345.12857142857143,2618.8,346.22232142857143,345.12857142857143,2721.4,399.22232142857143,362.12857142857143,2821.8,472.22232142857143,391.12857142857143,2925.4,513.2223214285714,423.12857142857143,3027.6,558.2223214285714,466.12857142857143,3141.9,594.2223214285714,531.1285714285714,3250.7,594.2223214285714,540.1285714285714,3356.9,584.2223214285714,544.1285714285714,3462.1,568.2223214285714,547.1285714285714,3566.5,562.2223214285714,546.1285714285714,3667.8,562.2223214285714,546.1285714285714,3770.9,562.2223214285714,546.1285714285714,3871.3,562.2223214285714,546.1285714285714,3972.7]","[]","","",""
"20517","","","","instructions","24","1515901","0.0-8.0-4.0","40","1","2025-07-09 09:07:06","7701e855f2ef39aa3fd6c71abdc6918a","102.164.1.228","Mozilla/5.0 (Windows NT 10.0; Win64; x64) AppleWebKit/537.36 (KHTML, like Gecko) Chrome/138.0.0.0 Safari/537.36","WebKit","Chrome","138.0.0.0","Windows","10.0","https://app.prolific.com/","en-US,en;q=0.9","67f6b8ee8af987467b01ab3d","686d226cabeef709c732f8e1","686e3131d23511e7c6c84004","67f6b8ee8af987467b01ab3d","","[{""page_index"":0,""viewing_time"":5855},{""page_index"":1,""viewing_time"":14662}]","","","","","","","","","","","","","","","","","","","","","","","","","","","","","","","","","","","","","","","","","","","",""
"14618","","","{""green_ball"":[""Ball always moves in the direction I press""]}","survey-multi-select","25","1530526","0.0-8.0-5.0-0.0","40","1","2025-07-09 09:07:06","7701e855f2ef39aa3fd6c71abdc6918a","102.164.1.228","Mozilla/5.0 (Windows NT 10.0; Win64; x64) AppleWebKit/537.36 (KHTML, like Gecko) Chrome/138.0.0.0 Safari/537.36","WebKit","Chrome","138.0.0.0","Windows","10.0","https://app.prolific.com/","en-US,en;q=0.9","67f6b8ee8af987467b01ab3d","686d226cabeef709c732f8e1","686e3131d23511e7c6c84004","67f6b8ee8af987467b01ab3d","","","[0]","","","","quiz","","","","","","","","","","","","","","","","","","","","","","","","","","","","","","","","","","","","","false","",""
"4163","","<p align='center'><b>INCORRECT.</b> Usually the green ball moves in the indicated direction, but sometimes it shakes and moves randomly. </p>","0","html-button-response","26","1534695","0.0-8.0-5.0-1.0","40","1","2025-07-09 09:07:06","7701e855f2ef39aa3fd6c71abdc6918a","102.164.1.228","Mozilla/5.0 (Windows NT 10.0; Win64; x64) AppleWebKit/537.36 (KHTML, like Gecko) Chrome/138.0.0.0 Safari/537.36","WebKit","Chrome","138.0.0.0","Windows","10.0","https://app.prolific.com/","en-US,en;q=0.9","67f6b8ee8af987467b01ab3d","686d226cabeef709c732f8e1","686e3131d23511e7c6c84004","67f6b8ee8af987467b01ab3d","","","","","","","","","","","","","","","","","","","","","","","","","","","","","","","","","","","","","","","","","","","","","",""
"4550","","","{""green_ball"":[""Ball always shakes and moves in a random direction""]}","survey-multi-select","27","1539253","0.0-8.0-5.1-0.1","40","1","2025-07-09 09:07:06","7701e855f2ef39aa3fd6c71abdc6918a","102.164.1.228","Mozilla/5.0 (Windows NT 10.0; Win64; x64) AppleWebKit/537.36 (KHTML, like Gecko) Chrome/138.0.0.0 Safari/537.36","WebKit","Chrome","138.0.0.0","Windows","10.0","https://app.prolific.com/","en-US,en;q=0.9","67f6b8ee8af987467b01ab3d","686d226cabeef709c732f8e1","686e3131d23511e7c6c84004","67f6b8ee8af987467b01ab3d","","","[0]","","","","quiz","","","","","","","","","","","","","","","","","","","","","","","","","","","","","","","","","","","","","false","",""
"5816","","<p align='center'><b>INCORRECT.</b> Usually the green ball moves in the indicated direction, but sometimes it shakes and moves randomly. </p>","0","html-button-response","28","1545074","0.0-8.0-5.1-1.1","40","1","2025-07-09 09:07:06","7701e855f2ef39aa3fd6c71abdc6918a","102.164.1.228","Mozilla/5.0 (Windows NT 10.0; Win64; x64) AppleWebKit/537.36 (KHTML, like Gecko) Chrome/138.0.0.0 Safari/537.36","WebKit","Chrome","138.0.0.0","Windows","10.0","https://app.prolific.com/","en-US,en;q=0.9","67f6b8ee8af987467b01ab3d","686d226cabeef709c732f8e1","686e3131d23511e7c6c84004","67f6b8ee8af987467b01ab3d","","","","","","","","","","","","","","","","","","","","","","","","","","","","","","","","","","","","","","","","","","","","","",""
"6477","","","{""green_ball"":[""Ball always moves in the direction I press""]}","survey-multi-select","29","1551558","0.0-8.0-5.2-0.2","40","1","2025-07-09 09:07:06","7701e855f2ef39aa3fd6c71abdc6918a","102.164.1.228","Mozilla/5.0 (Windows NT 10.0; Win64; x64) AppleWebKit/537.36 (KHTML, like Gecko) Chrome/138.0.0.0 Safari/537.36","WebKit","Chrome","138.0.0.0","Windows","10.0","https://app.prolific.com/","en-US,en;q=0.9","67f6b8ee8af987467b01ab3d","686d226cabeef709c732f8e1","686e3131d23511e7c6c84004","67f6b8ee8af987467b01ab3d","","","[0]","","","","quiz","","","","","","","","","","","","","","","","","","","","","","","","","","","","","","","","","","","","","false","",""
"3859","","<p align='center'><b>INCORRECT.</b> Usually the green ball moves in the indicated direction, but sometimes it shakes and moves randomly. </p>","0","html-button-response","30","1555419","0.0-8.0-5.2-1.2","40","1","2025-07-09 09:07:06","7701e855f2ef39aa3fd6c71abdc6918a","102.164.1.228","Mozilla/5.0 (Windows NT 10.0; Win64; x64) AppleWebKit/537.36 (KHTML, like Gecko) Chrome/138.0.0.0 Safari/537.36","WebKit","Chrome","138.0.0.0","Windows","10.0","https://app.prolific.com/","en-US,en;q=0.9","67f6b8ee8af987467b01ab3d","686d226cabeef709c732f8e1","686e3131d23511e7c6c84004","67f6b8ee8af987467b01ab3d","","","","","","","","","","","","","","","","","","","","","","","","","","","","","","","","","","","","","","","","","","","","","",""
"5716","","","{""green_ball"":[""Ball sometimes shakes and moves in a random direction""]}","survey-multi-select","31","1561142","0.0-8.0-5.3-0.3","40","1","2025-07-09 09:07:06","7701e855f2ef39aa3fd6c71abdc6918a","102.164.1.228","Mozilla/5.0 (Windows NT 10.0; Win64; x64) AppleWebKit/537.36 (KHTML, like Gecko) Chrome/138.0.0.0 Safari/537.36","WebKit","Chrome","138.0.0.0","Windows","10.0","https://app.prolific.com/","en-US,en;q=0.9","67f6b8ee8af987467b01ab3d","686d226cabeef709c732f8e1","686e3131d23511e7c6c84004","67f6b8ee8af987467b01ab3d","","","[0]","","","","quiz","","","","","","","","","","","","","","","","","","","","","","","","","","","","","","","","","","","","","true","",""
"4569","","<p align='center'><b>CORRECT!</b> Indeed, the green ball may sometimes shake and move in a random direction.</p>","0","html-button-response","32","1565714","0.0-8.0-5.3-1.3","40","1","2025-07-09 09:07:06","7701e855f2ef39aa3fd6c71abdc6918a","102.164.1.228","Mozilla/5.0 (Windows NT 10.0; Win64; x64) AppleWebKit/537.36 (KHTML, like Gecko) Chrome/138.0.0.0 Safari/537.36","WebKit","Chrome","138.0.0.0","Windows","10.0","https://app.prolific.com/","en-US,en;q=0.9","67f6b8ee8af987467b01ab3d","686d226cabeef709c732f8e1","686e3131d23511e7c6c84004","67f6b8ee8af987467b01ab3d","","","","","","","","","","","","","","","","","","","","","","","","","","","","","","","","","","","","","","","","","","","","","",""
"13069","","","{""yellow_ball"":[""Ball doesn‘t move and I get -1 penalty point""]}","survey-multi-select","33","1578789","0.0-8.0-6.0-0.0","40","1","2025-07-09 09:07:06","7701e855f2ef39aa3fd6c71abdc6918a","102.164.1.228","Mozilla/5.0 (Windows NT 10.0; Win64; x64) AppleWebKit/537.36 (KHTML, like Gecko) Chrome/138.0.0.0 Safari/537.36","WebKit","Chrome","138.0.0.0","Windows","10.0","https://app.prolific.com/","en-US,en;q=0.9","67f6b8ee8af987467b01ab3d","686d226cabeef709c732f8e1","686e3131d23511e7c6c84004","67f6b8ee8af987467b01ab3d","","","[0]","","","","quiz","","","","","","","","","","","","","","","","","","","","","","","","","","","","","","","","","","","","","true","",""
"2166","","<p align='center'><b>CORRECT!</b> Indeed, the yellow ball never moves and you receive a penalty.</p>","0","html-button-response","34","1580958","0.0-8.0-6.0-1.0","40","1","2025-07-09 09:07:06","7701e855f2ef39aa3fd6c71abdc6918a","102.164.1.228","Mozilla/5.0 (Windows NT 10.0; Win64; x64) AppleWebKit/537.36 (KHTML, like Gecko) Chrome/138.0.0.0 Safari/537.36","WebKit","Chrome","138.0.0.0","Windows","10.0","https://app.prolific.com/","en-US,en;q=0.9","67f6b8ee8af987467b01ab3d","686d226cabeef709c732f8e1","686e3131d23511e7c6c84004","67f6b8ee8af987467b01ab3d","","","","","","","","","","","","","","","","","","","","","","","","","","","","","","","","","","","","","","","","","","","","","",""
"19378","","","{""blue_ball"":[""Ball doesn‘t move and I get -1 penalty point""]}","survey-multi-select","35","1600343","0.0-8.0-7.0-0.0","40","1","2025-07-09 09:07:06","7701e855f2ef39aa3fd6c71abdc6918a","102.164.1.228","Mozilla/5.0 (Windows NT 10.0; Win64; x64) AppleWebKit/537.36 (KHTML, like Gecko) Chrome/138.0.0.0 Safari/537.36","WebKit","Chrome","138.0.0.0","Windows","10.0","https://app.prolific.com/","en-US,en;q=0.9","67f6b8ee8af987467b01ab3d","686d226cabeef709c732f8e1","686e3131d23511e7c6c84004","67f6b8ee8af987467b01ab3d","","","[0]","","","","quiz","","","","","","","","","","","","","","","","","","","","","","","","","","","","","","","","","","","","","false","",""
"2197","","<p align='center'><b>INCORRECT.</b> The blue ball always shakes and moves randomly.</p>","0","html-button-response","36","1602546","0.0-8.0-7.0-1.0","40","1","2025-07-09 09:07:06","7701e855f2ef39aa3fd6c71abdc6918a","102.164.1.228","Mozilla/5.0 (Windows NT 10.0; Win64; x64) AppleWebKit/537.36 (KHTML, like Gecko) Chrome/138.0.0.0 Safari/537.36","WebKit","Chrome","138.0.0.0","Windows","10.0","https://app.prolific.com/","en-US,en;q=0.9","67f6b8ee8af987467b01ab3d","686d226cabeef709c732f8e1","686e3131d23511e7c6c84004","67f6b8ee8af987467b01ab3d","","","","","","","","","","","","","","","","","","","","","","","","","","","","","","","","","","","","","","","","","","","","","",""
"6356","","","{""blue_ball"":[""Ball always shakes and moves in a random direction""]}","survey-multi-select","37","1608910","0.0-8.0-7.1-0.1","40","1","2025-07-09 09:07:06","7701e855f2ef39aa3fd6c71abdc6918a","102.164.1.228","Mozilla/5.0 (Windows NT 10.0; Win64; x64) AppleWebKit/537.36 (KHTML, like Gecko) Chrome/138.0.0.0 Safari/537.36","WebKit","Chrome","138.0.0.0","Windows","10.0","https://app.prolific.com/","en-US,en;q=0.9","67f6b8ee8af987467b01ab3d","686d226cabeef709c732f8e1","686e3131d23511e7c6c84004","67f6b8ee8af987467b01ab3d","","","[0]","","","","quiz","","","","","","","","","","","","","","","","","","","","","","","","","","","","","","","","","","","","","true","",""
"7372","","<p align='center'><b>CORRECT!</b> Indeed, the blue ball always shakes and moves in a random direction. Also there is a penalty of -1 point.</p>","0","html-button-response","38","1616288","0.0-8.0-7.1-1.1","40","1","2025-07-09 09:07:06","7701e855f2ef39aa3fd6c71abdc6918a","102.164.1.228","Mozilla/5.0 (Windows NT 10.0; Win64; x64) AppleWebKit/537.36 (KHTML, like Gecko) Chrome/138.0.0.0 Safari/537.36","WebKit","Chrome","138.0.0.0","Windows","10.0","https://app.prolific.com/","en-US,en;q=0.9","67f6b8ee8af987467b01ab3d","686d226cabeef709c732f8e1","686e3131d23511e7c6c84004","67f6b8ee8af987467b01ab3d","","","","","","","","","","","","","","","","","","","","","","","","","","","","","","","","","","","","","","","","","","","","","",""
"13074","","","{""bonus"":[""When I reach all possible points"",""When I reach 80% of points""]}","survey-multi-select","39","1629371","0.0-8.0-8.0-0.0","40","1","2025-07-09 09:07:06","7701e855f2ef39aa3fd6c71abdc6918a","102.164.1.228","Mozilla/5.0 (Windows NT 10.0; Win64; x64) AppleWebKit/537.36 (KHTML, like Gecko) Chrome/138.0.0.0 Safari/537.36","WebKit","Chrome","138.0.0.0","Windows","10.0","https://app.prolific.com/","en-US,en;q=0.9","67f6b8ee8af987467b01ab3d","686d226cabeef709c732f8e1","686e3131d23511e7c6c84004","67f6b8ee8af987467b01ab3d","","","[0]","","","","quiz","","","","","","","","","","","","","","","","","","","","","","","","","","","","","","","","","","","","","false","",""
"2094","","<p align='center'><b>INCORRECT.</b> You receive 2 pounds extra when you reach 50% of points </p>","0","html-button-response","40","1631471","0.0-8.0-8.0-1.0","40","1","2025-07-09 09:07:06","7701e855f2ef39aa3fd6c71abdc6918a","102.164.1.228","Mozilla/5.0 (Windows NT 10.0; Win64; x64) AppleWebKit/537.36 (KHTML, like Gecko) Chrome/138.0.0.0 Safari/537.36","WebKit","Chrome","138.0.0.0","Windows","10.0","https://app.prolific.com/","en-US,en;q=0.9","67f6b8ee8af987467b01ab3d","686d226cabeef709c732f8e1","686e3131d23511e7c6c84004","67f6b8ee8af987467b01ab3d","","","","","","","","","","","","","","","","","","","","","","","","","","","","","","","","","","","","","","","","","","","","","",""
"3351","","","{""bonus"":[""When I reach 50% of points""]}","survey-multi-select","41","1634830","0.0-8.0-8.1-0.1","40","1","2025-07-09 09:07:06","7701e855f2ef39aa3fd6c71abdc6918a","102.164.1.228","Mozilla/5.0 (Windows NT 10.0; Win64; x64) AppleWebKit/537.36 (KHTML, like Gecko) Chrome/138.0.0.0 Safari/537.36","WebKit","Chrome","138.0.0.0","Windows","10.0","https://app.prolific.com/","en-US,en;q=0.9","67f6b8ee8af987467b01ab3d","686d226cabeef709c732f8e1","686e3131d23511e7c6c84004","67f6b8ee8af987467b01ab3d","","","[0]","","","","quiz","","","","","","","","","","","","","","","","","","","","","","","","","","","","","","","","","","","","","true","",""
"2362","","<p align='center'><b>CORRECT!</b> Indeed, you receive 2 pounds extra when you reach 50% of points.</p>","0","html-button-response","42","1637195","0.0-8.0-8.1-1.1","40","1","2025-07-09 09:07:06","7701e855f2ef39aa3fd6c71abdc6918a","102.164.1.228","Mozilla/5.0 (Windows NT 10.0; Win64; x64) AppleWebKit/537.36 (KHTML, like Gecko) Chrome/138.0.0.0 Safari/537.36","WebKit","Chrome","138.0.0.0","Windows","10.0","https://app.prolific.com/","en-US,en;q=0.9","67f6b8ee8af987467b01ab3d","686d226cabeef709c732f8e1","686e3131d23511e7c6c84004","67f6b8ee8af987467b01ab3d","","","","","","","","","","","","","","","","","","","","","","","","","","","","","","","","","","","","","","","","","","","","","",""
"3184","","","","instructions","43","1640381","0.0-8.0-9.0","40","1","2025-07-09 09:07:06","7701e855f2ef39aa3fd6c71abdc6918a","102.164.1.228","Mozilla/5.0 (Windows NT 10.0; Win64; x64) AppleWebKit/537.36 (KHTML, like Gecko) Chrome/138.0.0.0 Safari/537.36","WebKit","Chrome","138.0.0.0","Windows","10.0","https://app.prolific.com/","en-US,en;q=0.9","67f6b8ee8af987467b01ab3d","686d226cabeef709c732f8e1","686e3131d23511e7c6c84004","67f6b8ee8af987467b01ab3d","","[{""page_index"":0,""viewing_time"":3183}]","","","","","","","","","","","","","","","","","","","","","","","","","","","","","","","","","","","","","","","","","","","",""
"12237","","<p>Before you start with this game please answer the following three questions yourself. </p>
  <p>Through this game, we measure several aspects of your cognitive performance, such as reaction times, multi-tasking capabilities </p>
  <p>and the ability to assess the situation you are in.</p>
  <p></p>
  <p><b>How good do you usually are in such tasks?</b></p>","81","html-slider-response","44","1652625","0.0-9.0-0.0","40","1","2025-07-09 09:07:06","7701e855f2ef39aa3fd6c71abdc6918a","102.164.1.228","Mozilla/5.0 (Windows NT 10.0; Win64; x64) AppleWebKit/537.36 (KHTML, like Gecko) Chrome/138.0.0.0 Safari/537.36","WebKit","Chrome","138.0.0.0","Windows","10.0","https://app.prolific.com/","en-US,en;q=0.9","67f6b8ee8af987467b01ab3d","686d226cabeef709c732f8e1","686e3131d23511e7c6c84004","67f6b8ee8af987467b01ab3d","2025-07-09T09:34:52.677Z","","","","","","PreSkillQ","","","","","","","","","","","","","","","","","","","","","","","","","","","","","","","","","","","","","","50",""
"9480","","<div style=""width:500px;"">
  <p>How well do you think you will perform in this task compared to other participants?</p>
  </div>","86","html-slider-response","45","1662109","0.0-9.0-1.0","40","1","2025-07-09 09:07:06","7701e855f2ef39aa3fd6c71abdc6918a","102.164.1.228","Mozilla/5.0 (Windows NT 10.0; Win64; x64) AppleWebKit/537.36 (KHTML, like Gecko) Chrome/138.0.0.0 Safari/537.36","WebKit","Chrome","138.0.0.0","Windows","10.0","https://app.prolific.com/","en-US,en;q=0.9","67f6b8ee8af987467b01ab3d","686d226cabeef709c732f8e1","686e3131d23511e7c6c84004","67f6b8ee8af987467b01ab3d","2025-07-09T09:35:02.161Z","","","","","","PrePerfQ","","","","","","","","","","","","","","","","","","","","","","","","","","","","","","","","","","","","","","50",""
"4625","","<div style=""width:500px;"">
  <p>What best describes how you currently feel?</p>
  </div>","100","html-slider-response","46","1666739","0.0-9.0-2.0","40","1","2025-07-09 09:07:06","7701e855f2ef39aa3fd6c71abdc6918a","102.164.1.228","Mozilla/5.0 (Windows NT 10.0; Win64; x64) AppleWebKit/537.36 (KHTML, like Gecko) Chrome/138.0.0.0 Safari/537.36","WebKit","Chrome","138.0.0.0","Windows","10.0","https://app.prolific.com/","en-US,en;q=0.9","67f6b8ee8af987467b01ab3d","686d226cabeef709c732f8e1","686e3131d23511e7c6c84004","67f6b8ee8af987467b01ab3d","2025-07-09T09:35:06.791Z","","","","","","PreMotivationQ","","","","","","","","","","","","","","","","","","","","","","","","","","","","","","","","","","","","","","50",""
"","","","","ctl-task-cpt","47","1771366","0.0-10.0-0.0","40","1","2025-07-09 09:07:06","7701e855f2ef39aa3fd6c71abdc6918a","102.164.1.228","Mozilla/5.0 (Windows NT 10.0; Win64; x64) AppleWebKit/537.36 (KHTML, like Gecko) Chrome/138.0.0.0 Safari/537.36","WebKit","Chrome","138.0.0.0","Windows","10.0","https://app.prolific.com/","en-US,en;q=0.9","67f6b8ee8af987467b01ab3d","686d226cabeef709c732f8e1","686e3131d23511e7c6c84004","67f6b8ee8af987467b01ab3d","2025-07-09T09:36:51.419Z","","","","","","","","","","","","","","","","win-only","1","g1:NE,g2:SW","1","1","0","1679292.5","90400.9","95406.2","101592.5","1","4","8","6","1","-1","-1","0","0","0","4631","3000","-2100","[""up"",""right""]","{""num_key_presses"":0,""num_perfect"":0,""num_errors"":0,""num_randdir"":0,""num_randdir_good_moves"":0,""num_whilered"":0,""num_whileblue"":0,""num_blue"":0,""num_good_moves"":0}","[301.22232142857143,288.12857142857143,2.2,301.22232142857143,288.12857142857143,119.5,301.22232142857143,288.12857142857143,227.4,301.22232142857143,288.12857142857143,332.7,301.22232142857143,288.12857142857143,435.1,301.22232142857143,288.12857142857143,548.3,301.22232142857143,288.12857142857143,660.5,301.22232142857143,288.12857142857143,761.7,301.22232142857143,288.12857142857143,863.8,301.22232142857143,288.12857142857143,966.1,301.22232142857143,288.12857142857143,1066.4,301.22232142857143,288.12857142857143,1166.9,301.22232142857143,288.12857142857143,1278.5,301.22232142857143,288.12857142857143,1386,301.22232142857143,288.12857142857143,1494.2,301.22232142857143,288.12857142857143,1598.8,169.22232142857143,350.12857142857143,1717.9,142.22232142857143,433.12857142857143,1835.9,108.22232142857143,512.1285714285714,1943.5,111.22232142857143,510.12857142857143,2044.4,111.22232142857143,504.12857142857143,2147.1,97.22232142857143,528.1285714285714,2248.8,65.22232142857143,561.1285714285714,2352.8,61.222321428571426,559.1285714285714,2462.5,59.222321428571426,557.1285714285714,2564.1,59.222321428571426,557.1285714285714,2668.6,59.222321428571426,557.1285714285714,2785.1,59.222321428571426,557.1285714285714,2890.8,96.22232142857143,524.1285714285714,2992.2,359.22232142857143,304.12857142857143,3098.4,429.22232142857143,214.12857142857143,3198.5,453.22232142857143,164.12857142857143,3304.9,508.22232142857143,85.12857142857143,3409.7,511.22232142857143,76.12857142857143,3514.3,517.2223214285714,50.128571428571426,3616,518.2223214285714,30.128571428571426,3732.4,516.2223214285714,30.128571428571426,3836.1,516.2223214285714,34.128571428571426,3946.9,516.2223214285714,36.128571428571426,4058.6,516.2223214285714,37.128571428571426,4163.6,516.2223214285714,38.128571428571426,4272.4,515.2223214285714,39.128571428571426,4375.1,515.2223214285714,40.128571428571426,4475.5,515.2223214285714,40.128571428571426,4576.1,515.2223214285714,40.128571428571426,4682.4,515.2223214285714,40.128571428571426,4784.3,515.2223214285714,40.128571428571426,4895.3,515.2223214285714,40.128571428571426,4997.1]","[]","","",""
"6351","","<div style=""width:500px;"">
  <p>What determined the result of this run?</p>
  </div>","98","html-slider-response","48","1777722","0.0-10.0-1.0","40","1","2025-07-09 09:07:06","7701e855f2ef39aa3fd6c71abdc6918a","102.164.1.228","Mozilla/5.0 (Windows NT 10.0; Win64; x64) AppleWebKit/537.36 (KHTML, like Gecko) Chrome/138.0.0.0 Safari/537.36","WebKit","Chrome","138.0.0.0","Windows","10.0","https://app.prolific.com/","en-US,en;q=0.9","67f6b8ee8af987467b01ab3d","686d226cabeef709c732f8e1","686e3131d23511e7c6c84004","67f6b8ee8af987467b01ab3d","2025-07-09T09:36:57.775Z","","","","","","AttribQ","","","","","","","","","","","","","","","","","","","","","","","","","","","","","","","","","","","","","","50",""
"10208","","<div style=""width:500px;"">
  <p>How much control did you have over the ball?</p>
  </div>","56","html-slider-response","49","1787934","0.0-10.0-2.0","40","1","2025-07-09 09:07:06","7701e855f2ef39aa3fd6c71abdc6918a","102.164.1.228","Mozilla/5.0 (Windows NT 10.0; Win64; x64) AppleWebKit/537.36 (KHTML, like Gecko) Chrome/138.0.0.0 Safari/537.36","WebKit","Chrome","138.0.0.0","Windows","10.0","https://app.prolific.com/","en-US,en;q=0.9","67f6b8ee8af987467b01ab3d","686d226cabeef709c732f8e1","686e3131d23511e7c6c84004","67f6b8ee8af987467b01ab3d","2025-07-09T09:37:07.986Z","","","","","","ControlQ","","","","","","","","","","","","","","","","","","","","","","","","","","","","","","","","","","","","","","50",""
"4759","","<div style=""width:500px;"">
  <p>How would you describe your current emotional state?</p>
  </div>","0","html-slider-response","50","1792697","0.0-10.0-3.0","40","1","2025-07-09 09:07:06","7701e855f2ef39aa3fd6c71abdc6918a","102.164.1.228","Mozilla/5.0 (Windows NT 10.0; Win64; x64) AppleWebKit/537.36 (KHTML, like Gecko) Chrome/138.0.0.0 Safari/537.36","WebKit","Chrome","138.0.0.0","Windows","10.0","https://app.prolific.com/","en-US,en;q=0.9","67f6b8ee8af987467b01ab3d","686d226cabeef709c732f8e1","686e3131d23511e7c6c84004","67f6b8ee8af987467b01ab3d","2025-07-09T09:37:12.749Z","","","","","","StressQ","","","","","","","","","","","","","","","","","","","","","","","","","","","","","","","","","","","","","","50",""
"7145","","<div style=""width:500px;"">
  <p>What best describes how you currently feel?</p>
  </div>","100","html-slider-response","51","1799845","0.0-10.0-4.0","40","1","2025-07-09 09:07:06","7701e855f2ef39aa3fd6c71abdc6918a","102.164.1.228","Mozilla/5.0 (Windows NT 10.0; Win64; x64) AppleWebKit/537.36 (KHTML, like Gecko) Chrome/138.0.0.0 Safari/537.36","WebKit","Chrome","138.0.0.0","Windows","10.0","https://app.prolific.com/","en-US,en;q=0.9","67f6b8ee8af987467b01ab3d","686d226cabeef709c732f8e1","686e3131d23511e7c6c84004","67f6b8ee8af987467b01ab3d","2025-07-09T09:37:19.898Z","","","","","","MotivationQ","","","","","","","","","","","","","","","","","","","","","","","","","","","","","","","","","","","","","","50",""
"","","","","ctl-task-cpt","52","1891014","0.0-10.0-0.1","40","1","2025-07-09 09:07:06","7701e855f2ef39aa3fd6c71abdc6918a","102.164.1.228","Mozilla/5.0 (Windows NT 10.0; Win64; x64) AppleWebKit/537.36 (KHTML, like Gecko) Chrome/138.0.0.0 Safari/537.36","WebKit","Chrome","138.0.0.0","Windows","10.0","https://app.prolific.com/","en-US,en;q=0.9","67f6b8ee8af987467b01ab3d","686d226cabeef709c732f8e1","686e3131d23511e7c6c84004","67f6b8ee8af987467b01ab3d","2025-07-09T09:38:51.066Z","","","","","","","","","","","","","","","","win-only","2","g1:SE,g2:NW","0.9","2","0","1812399.5","74995.5","80006.8","88142.2","1","4","4","6","1","-1","-1","0","0","0","1618.8","3000","-1150","[""down"",""right""]","{""num_key_presses"":0,""num_perfect"":0,""num_errors"":0,""num_randdir"":0,""num_randdir_good_moves"":0,""num_whilered"":0,""num_whileblue"":0,""num_blue"":0,""num_good_moves"":0}","[294.22232142857143,296.12857142857143,1.3,294.22232142857143,296.12857142857143,106.8,294.22232142857143,296.12857142857143,228,294.22232142857143,296.12857142857143,331.4,294.22232142857143,296.12857142857143,441.4,318.22232142857143,289.12857142857143,547.6,313.22232142857143,283.12857142857143,653.7,269.22232142857143,227.12857142857143,754,344.22232142857143,260.12857142857143,855.5,604.2223214285714,467.12857142857143,962.6,610.2223214285714,483.12857142857143,1069.9,604.2223214285714,493.12857142857143,1171.7,559.2223214285714,510.12857142857143,1293.6,537.2223214285714,525.1285714285714,1398.5,535.2223214285714,526.1285714285714,1503.3,535.2223214285714,526.1285714285714,1611,535.2223214285714,526.1285714285714,1714.4,535.2223214285714,526.1285714285714,1826.6,535.2223214285714,526.1285714285714,1937,535.2223214285714,526.1285714285714,2038.2,535.2223214285714,526.1285714285714,2145.1,535.2223214285714,526.1285714285714,2249.6,535.2223214285714,526.1285714285714,2356.9,535.2223214285714,526.1285714285714,2457.3,535.2223214285714,526.1285714285714,2561.1,535.2223214285714,526.1285714285714,2663.9,535.2223214285714,526.1285714285714,2763.9,535.2223214285714,526.1285714285714,2864.9,535.2223214285714,526.1285714285714,2968.4,535.2223214285714,526.1285714285714,3077,535.2223214285714,526.1285714285714,3185,535.2223214285714,526.1285714285714,3289.1,535.2223214285714,526.1285714285714,3390.1,535.2223214285714,526.1285714285714,3493.4,535.2223214285714,526.1285714285714,3596.3,535.2223214285714,526.1285714285714,3697,535.2223214285714,526.1285714285714,3800.5,535.2223214285714,526.1285714285714,3907.1,535.2223214285714,526.1285714285714,4011.9,535.2223214285714,526.1285714285714,4112.9,535.2223214285714,526.1285714285714,4216.7,535.2223214285714,526.1285714285714,4325.1,535.2223214285714,526.1285714285714,4434.3,535.2223214285714,526.1285714285714,4542.4,535.2223214285714,526.1285714285714,4659.3,483.22232142857143,456.12857142857143,4769,476.22232142857143,408.12857142857143,4878.2,476.22232142857143,371.12857142857143,4992.4]","[]","","",""
"4387","","<div style=""width:500px;"">
  <p>What determined the result of this run?</p>
  </div>","100","html-slider-response","53","1895407","0.0-10.0-1.1","40","1","2025-07-09 09:07:06","7701e855f2ef39aa3fd6c71abdc6918a","102.164.1.228","Mozilla/5.0 (Windows NT 10.0; Win64; x64) AppleWebKit/537.36 (KHTML, like Gecko) Chrome/138.0.0.0 Safari/537.36","WebKit","Chrome","138.0.0.0","Windows","10.0","https://app.prolific.com/","en-US,en;q=0.9","67f6b8ee8af987467b01ab3d","686d226cabeef709c732f8e1","686e3131d23511e7c6c84004","67f6b8ee8af987467b01ab3d","2025-07-09T09:38:55.459Z","","","","","","AttribQ","","","","","","","","","","","","","","","","","","","","","","","","","","","","","","","","","","","","","","50",""
"10338","","<div style=""width:500px;"">
  <p>How much control did you have over the ball?</p>
  </div>","39","html-slider-response","54","1905751","0.0-10.0-2.1","40","1","2025-07-09 09:07:06","7701e855f2ef39aa3fd6c71abdc6918a","102.164.1.228","Mozilla/5.0 (Windows NT 10.0; Win64; x64) AppleWebKit/537.36 (KHTML, like Gecko) Chrome/138.0.0.0 Safari/537.36","WebKit","Chrome","138.0.0.0","Windows","10.0","https://app.prolific.com/","en-US,en;q=0.9","67f6b8ee8af987467b01ab3d","686d226cabeef709c732f8e1","686e3131d23511e7c6c84004","67f6b8ee8af987467b01ab3d","2025-07-09T09:39:05.803Z","","","","","","ControlQ","","","","","","","","","","","","","","","","","","","","","","","","","","","","","","","","","","","","","","50",""
"9739","","<div style=""width:500px;"">
  <p>How would you describe your current emotional state?</p>
  </div>","0","html-slider-response","55","1915495","0.0-10.0-3.1","40","1","2025-07-09 09:07:06","7701e855f2ef39aa3fd6c71abdc6918a","102.164.1.228","Mozilla/5.0 (Windows NT 10.0; Win64; x64) AppleWebKit/537.36 (KHTML, like Gecko) Chrome/138.0.0.0 Safari/537.36","WebKit","Chrome","138.0.0.0","Windows","10.0","https://app.prolific.com/","en-US,en;q=0.9","67f6b8ee8af987467b01ab3d","686d226cabeef709c732f8e1","686e3131d23511e7c6c84004","67f6b8ee8af987467b01ab3d","2025-07-09T09:39:15.548Z","","","","","","StressQ","","","","","","","","","","","","","","","","","","","","","","","","","","","","","","","","","","","","","","50",""
"11557","","<div style=""width:500px;"">
  <p>What best describes how you currently feel?</p>
  </div>","100","html-slider-response","56","1927060","0.0-10.0-4.1","40","1","2025-07-09 09:07:06","7701e855f2ef39aa3fd6c71abdc6918a","102.164.1.228","Mozilla/5.0 (Windows NT 10.0; Win64; x64) AppleWebKit/537.36 (KHTML, like Gecko) Chrome/138.0.0.0 Safari/537.36","WebKit","Chrome","138.0.0.0","Windows","10.0","https://app.prolific.com/","en-US,en;q=0.9","67f6b8ee8af987467b01ab3d","686d226cabeef709c732f8e1","686e3131d23511e7c6c84004","67f6b8ee8af987467b01ab3d","2025-07-09T09:39:27.112Z","","","","","","MotivationQ","","","","","","","","","","","","","","","","","","","","","","","","","","","","","","","","","","","","","","50",""
"","","","","ctl-task-cpt","57","1978643","0.0-10.0-0.2","40","1","2025-07-09 09:07:06","7701e855f2ef39aa3fd6c71abdc6918a","102.164.1.228","Mozilla/5.0 (Windows NT 10.0; Win64; x64) AppleWebKit/537.36 (KHTML, like Gecko) Chrome/138.0.0.0 Safari/537.36","WebKit","Chrome","138.0.0.0","Windows","10.0","https://app.prolific.com/","en-US,en;q=0.9","67f6b8ee8af987467b01ab3d","686d226cabeef709c732f8e1","686e3131d23511e7c6c84004","67f6b8ee8af987467b01ab3d","2025-07-09T09:40:18.695Z","","","","","","","","","","","","","","","","win-only","1","g1:NE,g2:SW","0.8","3","0","1939617.6","7776.6","12792.9","48548.7","1","4","8","6","2","-8","-12","0","0","0","1367.1","3000","-1060","[""down"",""left""]","{""num_key_presses"":9,""num_perfect"":2,""num_errors"":4,""num_randdir"":1,""num_randdir_good_moves"":1,""num_whilered"":2,""num_whileblue"":0,""num_blue"":4,""num_good_moves"":2}","[296.22232142857143,296.12857142857143,1,296.22232142857143,296.12857142857143,104.4,296.22232142857143,296.12857142857143,210.3,296.22232142857143,296.12857142857143,314.5,296.22232142857143,296.12857142857143,422.6,296.22232142857143,296.12857142857143,533.8,354.22232142857143,272.12857142857143,642.8,331.22232142857143,297.12857142857143,743.7,161.22232142857143,460.12857142857143,855.7,64.22232142857143,525.1285714285714,969.7,54.222321428571426,530.1285714285714,1077.6,53.222321428571426,533.1285714285714,1180.8,53.222321428571426,533.1285714285714,1290.7,53.222321428571426,533.1285714285714,1398.5,53.222321428571426,533.1285714285714,1509.5,53.222321428571426,533.1285714285714,1618.9,53.222321428571426,533.1285714285714,1728.2,53.222321428571426,533.1285714285714,1843.3,53.222321428571426,533.1285714285714,1943.5,53.222321428571426,533.1285714285714,2053.9,53.222321428571426,533.1285714285714,2164.5,53.222321428571426,533.1285714285714,2265,53.222321428571426,533.1285714285714,2369.3,53.222321428571426,533.1285714285714,2476.7,229.22232142857143,377.12857142857143,2589.8,317.22232142857143,300.12857142857143,2697.7,317.22232142857143,299.12857142857143,2807.1,317.22232142857143,298.12857142857143,2914,328.22232142857143,284.12857142857143,3024.1,349.22232142857143,264.12857142857143,3138.7,349.22232142857143,263.12857142857143,3248.1,349.22232142857143,263.12857142857143,3354.3,349.22232142857143,263.12857142857143,3456.2,349.22232142857143,263.12857142857143,3557.8,347.22232142857143,263.12857142857143,3660,347.22232142857143,264.12857142857143,3769.3,347.22232142857143,264.12857142857143,3879.2,347.22232142857143,264.12857142857143,3990,347.22232142857143,264.12857142857143,4098.9,347.22232142857143,264.12857142857143,4203.1,347.22232142857143,264.12857142857143,4315.1,347.22232142857143,264.12857142857143,4416.1,347.22232142857143,264.12857142857143,4529.5,347.22232142857143,264.12857142857143,4629.9,278.22232142857143,338.12857142857143,4731.4,60.222321428571426,570.1285714285714,4848.1,27.222321428571426,601.1285714285714,4951.2]","[4948.7,4948.1,1000,0.7,3948.2,""smooth"",""right"",""right"",""bad_move"",5157.9,206.1,1966.2,4952.4,-1760.7,""error"",""-"",""-"",""no_move"",5349.7,189.7,1966.2,4952.4,-1568.9,""while_red"",""-"",""-"",""no_move"",9414,4254,2645.7,6168.9,599.4,""oops"",""left"",""left"",""good_move"",9742,324.1,1956.4,9417.9,-1632.3,""error"",""-"",""-"",""no_move"",10082.9,338.5,1956.4,9417.9,-1291.4,""while_red"",""-"",""-"",""no_move"",24562,14817.6,2448.6,21536.5,576.9,""smooth"",""left"",""left"",""good_move"",24894.5,332,2386.4,24562.9,-2054.7,""error"",""-"",""-"",""no_move"",27410.8,2515.3,2455,25900.1,-944.2,""error"",""-"",""-"",""no_move""]","","",""
"5311","","<div style=""width:500px;"">
  <p>What determined the result of this run?</p>
  </div>","68","html-slider-response","58","1983958","0.0-10.0-1.2","40","1","2025-07-09 09:07:06","7701e855f2ef39aa3fd6c71abdc6918a","102.164.1.228","Mozilla/5.0 (Windows NT 10.0; Win64; x64) AppleWebKit/537.36 (KHTML, like Gecko) Chrome/138.0.0.0 Safari/537.36","WebKit","Chrome","138.0.0.0","Windows","10.0","https://app.prolific.com/","en-US,en;q=0.9","67f6b8ee8af987467b01ab3d","686d226cabeef709c732f8e1","686e3131d23511e7c6c84004","67f6b8ee8af987467b01ab3d","2025-07-09T09:40:24.011Z","","","","","","AttribQ","","","","","","","","","","","","","","","","","","","","","","","","","","","","","","","","","","","","","","50",""
"26467","","<div style=""width:500px;"">
  <p>How much control did you have over the ball?</p>
  </div>","48","html-slider-response","59","2010430","0.0-10.0-2.2","40","1","2025-07-09 09:07:06","7701e855f2ef39aa3fd6c71abdc6918a","102.164.1.228","Mozilla/5.0 (Windows NT 10.0; Win64; x64) AppleWebKit/537.36 (KHTML, like Gecko) Chrome/138.0.0.0 Safari/537.36","WebKit","Chrome","138.0.0.0","Windows","10.0","https://app.prolific.com/","en-US,en;q=0.9","67f6b8ee8af987467b01ab3d","686d226cabeef709c732f8e1","686e3131d23511e7c6c84004","67f6b8ee8af987467b01ab3d","2025-07-09T09:40:50.482Z","","","","","","ControlQ","","","","","","","","","","","","","","","","","","","","","","","","","","","","","","","","","","","","","","50",""
"5954","","<div style=""width:500px;"">
  <p>How would you describe your current emotional state?</p>
  </div>","0","html-slider-response","60","2016391","0.0-10.0-3.2","40","1","2025-07-09 09:07:06","7701e855f2ef39aa3fd6c71abdc6918a","102.164.1.228","Mozilla/5.0 (Windows NT 10.0; Win64; x64) AppleWebKit/537.36 (KHTML, like Gecko) Chrome/138.0.0.0 Safari/537.36","WebKit","Chrome","138.0.0.0","Windows","10.0","https://app.prolific.com/","en-US,en;q=0.9","67f6b8ee8af987467b01ab3d","686d226cabeef709c732f8e1","686e3131d23511e7c6c84004","67f6b8ee8af987467b01ab3d","2025-07-09T09:40:56.443Z","","","","","","StressQ","","","","","","","","","","","","","","","","","","","","","","","","","","","","","","","","","","","","","","50",""
"5202","","<div style=""width:500px;"">
  <p>What best describes how you currently feel?</p>
  </div>","100","html-slider-response","61","2021599","0.0-10.0-4.2","40","1","2025-07-09 09:07:06","7701e855f2ef39aa3fd6c71abdc6918a","102.164.1.228","Mozilla/5.0 (Windows NT 10.0; Win64; x64) AppleWebKit/537.36 (KHTML, like Gecko) Chrome/138.0.0.0 Safari/537.36","WebKit","Chrome","138.0.0.0","Windows","10.0","https://app.prolific.com/","en-US,en;q=0.9","67f6b8ee8af987467b01ab3d","686d226cabeef709c732f8e1","686e3131d23511e7c6c84004","67f6b8ee8af987467b01ab3d","2025-07-09T09:41:01.652Z","","","","","","MotivationQ","","","","","","","","","","","","","","","","","","","","","","","","","","","","","","","","","","","","","","50",""
"","","","","ctl-task-cpt","62","2077478","0.0-10.0-0.3","40","1","2025-07-09 09:07:06","7701e855f2ef39aa3fd6c71abdc6918a","102.164.1.228","Mozilla/5.0 (Windows NT 10.0; Win64; x64) AppleWebKit/537.36 (KHTML, like Gecko) Chrome/138.0.0.0 Safari/537.36","WebKit","Chrome","138.0.0.0","Windows","10.0","https://app.prolific.com/","en-US,en;q=0.9","67f6b8ee8af987467b01ab3d","686d226cabeef709c732f8e1","686e3131d23511e7c6c84004","67f6b8ee8af987467b01ab3d","2025-07-09T09:41:57.530Z","","","","","","","","","","","","","","","","win-only","2","g1:SE,g2:NW","0.7","4","0","2034157.2","15331.5","20343","52837.9","1","4","4","6","1","1","1","1","0","0.007575757575757576","2130.2","3000","1570","[""down"",""right""]","{""num_key_presses"":8,""num_perfect"":5,""num_errors"":0,""num_randdir"":3,""num_randdir_good_moves"":1,""num_whilered"":0,""num_whileblue"":0,""num_blue"":2,""num_good_moves"":6}","[290.22232142857143,293.12857142857143,4.1,290.22232142857143,293.12857142857143,100.5,290.22232142857143,293.12857142857143,201.6,290.22232142857143,293.12857142857143,305.7,290.22232142857143,293.12857142857143,409.3,262.22232142857143,261.12857142857143,521.6,204.22232142857143,203.12857142857143,632.1,130.22232142857143,136.12857142857143,738.6,101.22232142857143,106.12857142857143,846.7,99.22232142857143,104.12857142857143,947,99.22232142857143,104.12857142857143,1056.6,133.22232142857143,118.12857142857143,1177.3,443.22232142857143,365.12857142857143,1279.2,553.2223214285714,553.1285714285714,1382,556.2223214285714,585.1285714285714,1492.9,554.2223214285714,586.1285714285714,1593.7,553.2223214285714,581.1285714285714,1698.8,553.2223214285714,576.1285714285714,1800.4,554.2223214285714,574.1285714285714,1915.5,554.2223214285714,574.1285714285714,2026.3,554.2223214285714,574.1285714285714,2140.2,554.2223214285714,574.1285714285714,2242.9,554.2223214285714,574.1285714285714,2358,554.2223214285714,574.1285714285714,2458.9,554.2223214285714,574.1285714285714,2571.3,554.2223214285714,574.1285714285714,2673.1,554.2223214285714,574.1285714285714,2773.8,554.2223214285714,574.1285714285714,2874,554.2223214285714,574.1285714285714,2981.4,554.2223214285714,574.1285714285714,3090.6,554.2223214285714,574.1285714285714,3192.7,554.2223214285714,574.1285714285714,3297.3,554.2223214285714,574.1285714285714,3399.7,554.2223214285714,574.1285714285714,3511.2,554.2223214285714,574.1285714285714,3612.2,554.2223214285714,574.1285714285714,3713.7,554.2223214285714,574.1285714285714,3820,554.2223214285714,574.1285714285714,3931.2,554.2223214285714,574.1285714285714,4042.7,554.2223214285714,574.1285714285714,4151.2,554.2223214285714,574.1285714285714,4251.5,554.2223214285714,574.1285714285714,4364.2,554.2223214285714,574.1285714285714,4468.1,554.2223214285714,574.1285714285714,4575.1,554.2223214285714,574.1285714285714,4678.1,554.2223214285714,574.1285714285714,4790.8,554.2223214285714,574.1285714285714,4896.5,554.2223214285714,574.1285714285714,4996.8]","[1571.8,1571.8,1000,0,571.8,""smooth"",""down"",""down"",""good_move"",5168.6,3592.8,2920.7,1576.3,671.6,""oops"",""down"",""left"",""bad_move"",9250,4077,3272.2,5173.1,804.7,""smooth"",""right"",""right"",""good_move"",11921.6,2668.7,2196.3,9252.9,472.4,""oops"",""right"",""right"",""good_move"",15466.3,3540.7,2981.8,11926.1,558.4,""oops"",""right"",""up"",""bad_move"",18169.2,2700.8,2064.4,15468.5,636.3,""smooth"",""down"",""down"",""good_move"",28210.9,10040.9,2829.8,24941.6,439.5,""smooth"",""down"",""down"",""good_move"",32184.5,3972.1,3417.8,28212.4,554.3,""smooth"",""right"",""right"",""good_move""]","","",""
"14727","","<div style=""width:500px;"">
  <p>What determined the result of this run?</p>
  </div>","100","html-slider-response","63","2092214","0.0-10.0-1.3","40","1","2025-07-09 09:07:06","7701e855f2ef39aa3fd6c71abdc6918a","102.164.1.228","Mozilla/5.0 (Windows NT 10.0; Win64; x64) AppleWebKit/537.36 (KHTML, like Gecko) Chrome/138.0.0.0 Safari/537.36","WebKit","Chrome","138.0.0.0","Windows","10.0","https://app.prolific.com/","en-US,en;q=0.9","67f6b8ee8af987467b01ab3d","686d226cabeef709c732f8e1","686e3131d23511e7c6c84004","67f6b8ee8af987467b01ab3d","2025-07-09T09:42:12.266Z","","","","","","AttribQ","","","","","","","","","","","","","","","","","","","","","","","","","","","","","","","","","","","","","","50",""
"25482","","<div style=""width:500px;"">
  <p>How much control did you have over the ball?</p>
  </div>","100","html-slider-response","64","2117702","0.0-10.0-2.3","40","1","2025-07-09 09:07:06","7701e855f2ef39aa3fd6c71abdc6918a","102.164.1.228","Mozilla/5.0 (Windows NT 10.0; Win64; x64) AppleWebKit/537.36 (KHTML, like Gecko) Chrome/138.0.0.0 Safari/537.36","WebKit","Chrome","138.0.0.0","Windows","10.0","https://app.prolific.com/","en-US,en;q=0.9","67f6b8ee8af987467b01ab3d","686d226cabeef709c732f8e1","686e3131d23511e7c6c84004","67f6b8ee8af987467b01ab3d","2025-07-09T09:42:37.754Z","","","","","","ControlQ","","","","","","","","","","","","","","","","","","","","","","","","","","","","","","","","","","","","","","50",""
"5042","","<div style=""width:500px;"">
  <p>How would you describe your current emotional state?</p>
  </div>","0","html-slider-response","65","2122751","0.0-10.0-3.3","40","1","2025-07-09 09:07:06","7701e855f2ef39aa3fd6c71abdc6918a","102.164.1.228","Mozilla/5.0 (Windows NT 10.0; Win64; x64) AppleWebKit/537.36 (KHTML, like Gecko) Chrome/138.0.0.0 Safari/537.36","WebKit","Chrome","138.0.0.0","Windows","10.0","https://app.prolific.com/","en-US,en;q=0.9","67f6b8ee8af987467b01ab3d","686d226cabeef709c732f8e1","686e3131d23511e7c6c84004","67f6b8ee8af987467b01ab3d","2025-07-09T09:42:42.803Z","","","","","","StressQ","","","","","","","","","","","","","","","","","","","","","","","","","","","","","","","","","","","","","","50",""
"44090","","<div style=""width:500px;"">
  <p>What best describes how you currently feel?</p>
  </div>","100","html-slider-response","66","2166845","0.0-10.0-4.3","40","1","2025-07-09 09:07:06","7701e855f2ef39aa3fd6c71abdc6918a","102.164.1.228","Mozilla/5.0 (Windows NT 10.0; Win64; x64) AppleWebKit/537.36 (KHTML, like Gecko) Chrome/138.0.0.0 Safari/537.36","WebKit","Chrome","138.0.0.0","Windows","10.0","https://app.prolific.com/","en-US,en;q=0.9","67f6b8ee8af987467b01ab3d","686d226cabeef709c732f8e1","686e3131d23511e7c6c84004","67f6b8ee8af987467b01ab3d","2025-07-09T09:43:26.898Z","","","","","","MotivationQ","","","","","","","","","","","","","","","","","","","","","","","","","","","","","","","","","","","","","","50",""
"","","","","ctl-task-cpt","67","2225711","0.0-10.0-0.4","40","1","2025-07-09 09:07:06","7701e855f2ef39aa3fd6c71abdc6918a","102.164.1.228","Mozilla/5.0 (Windows NT 10.0; Win64; x64) AppleWebKit/537.36 (KHTML, like Gecko) Chrome/138.0.0.0 Safari/537.36","WebKit","Chrome","138.0.0.0","Windows","10.0","https://app.prolific.com/","en-US,en;q=0.9","67f6b8ee8af987467b01ab3d","686d226cabeef709c732f8e1","686e3131d23511e7c6c84004","67f6b8ee8af987467b01ab3d","2025-07-09T09:44:25.763Z","","","","","","","","","","","","","","","","win-only","0","g1:NW,g2:SE","0.6","5","0","2179401.9","3621.5","8626.6","55813.9","1","4","8","6","1","1","0","1","1","0.007575757575757576","2149.7","3000","1600","[""left"",""up""]","{""num_key_presses"":11,""num_perfect"":6,""num_errors"":1,""num_randdir"":4,""num_randdir_good_moves"":1,""num_whilered"":0,""num_whileblue"":0,""num_blue"":2,""num_good_moves"":7}","[303.22232142857143,293.12857142857143,1,303.22232142857143,293.12857142857143,121.6,303.22232142857143,293.12857142857143,244.1,303.22232142857143,293.12857142857143,361.3,303.22232142857143,293.12857142857143,482.4,303.22232142857143,293.12857142857143,607.7,327.22232142857143,312.12857142857143,737.1,279.22232142857143,284.12857142857143,840,218.22232142857143,214.12857142857143,944.8,173.22232142857143,133.12857142857143,1044.8,146.22232142857143,100.12857142857143,1177.7,129.22232142857143,95.12857142857143,1302.2,129.22232142857143,95.12857142857143,1417.3,129.22232142857143,95.12857142857143,1561.9,99.22232142857143,77.12857142857143,1698.9,90.22232142857143,71.12857142857143,1802.2,90.22232142857143,71.12857142857143,1917.9,90.22232142857143,71.12857142857143,2033.3,90.22232142857143,71.12857142857143,2138.2,90.22232142857143,71.12857142857143,2263.1,90.22232142857143,71.12857142857143,2389.3,90.22232142857143,71.12857142857143,2501.6,90.22232142857143,71.12857142857143,2621.5,90.22232142857143,71.12857142857143,2735.7,90.22232142857143,71.12857142857143,2856.3,90.22232142857143,71.12857142857143,2971.1,90.22232142857143,71.12857142857143,3090.6,90.22232142857143,71.12857142857143,3211.5,90.22232142857143,71.12857142857143,3324.5,90.22232142857143,71.12857142857143,3443.6,90.22232142857143,71.12857142857143,3558.3,90.22232142857143,71.12857142857143,3678.4,90.22232142857143,71.12857142857143,3792.3,90.22232142857143,71.12857142857143,3910.2,90.22232142857143,71.12857142857143,4030.1,90.22232142857143,71.12857142857143,4149.2,90.22232142857143,71.12857142857143,4269.1,90.22232142857143,71.12857142857143,4388.4,90.22232142857143,71.12857142857143,4507.1,90.22232142857143,71.12857142857143,4626,90.22232142857143,71.12857142857143,4742.8,90.22232142857143,71.12857142857143,4859.3,90.22232142857143,71.12857142857143,4974.7]","[384.7,384.7,1000,0,-615.3,""error"",""-"",""-"",""no_move"",4141.9,3756,2099.7,1404.8,637.4,""smooth"",""up"",""up"",""good_move"",13408.9,9265.6,2582.4,10287.4,539.1,""smooth"",""left"",""left"",""good_move"",17544.8,4135,3440.8,13409.9,694.2,""oops"",""left"",""right"",""bad_move"",21012.6,3466.9,2611.7,17545.7,855.2,""smooth"",""up"",""up"",""good_move"",24386.6,3372,2968.3,21014.7,403.7,""oops"",""left"",""left"",""good_move"",28054.9,3667.6,3346.5,24387.3,321.1,""oops"",""left"",""down"",""bad_move"",31159.5,3102.3,2712.4,28057.2,389.9,""oops"",""left"",""down"",""bad_move"",38539.6,7376,3180.5,34801.5,557.6,""smooth"",""up"",""up"",""good_move"",42804.7,4264,2009.6,38540.8,2254.4,""smooth"",""left"",""left"",""good_move"",46807.1,4000.6,2966.7,42806.6,1033.8,""smooth"",""up"",""up"",""good_move""]","","",""
"4209","","<div style=""width:500px;"">
  <p>What determined the result of this run?</p>
  </div>","91","html-slider-response","68","2229927","0.0-10.0-1.4","40","1","2025-07-09 09:07:06","7701e855f2ef39aa3fd6c71abdc6918a","102.164.1.228","Mozilla/5.0 (Windows NT 10.0; Win64; x64) AppleWebKit/537.36 (KHTML, like Gecko) Chrome/138.0.0.0 Safari/537.36","WebKit","Chrome","138.0.0.0","Windows","10.0","https://app.prolific.com/","en-US,en;q=0.9","67f6b8ee8af987467b01ab3d","686d226cabeef709c732f8e1","686e3131d23511e7c6c84004","67f6b8ee8af987467b01ab3d","2025-07-09T09:44:29.979Z","","","","","","AttribQ","","","","","","","","","","","","","","","","","","","","","","","","","","","","","","","","","","","","","","50",""
"3670","","<div style=""width:500px;"">
  <p>How much control did you have over the ball?</p>
  </div>","95","html-slider-response","69","2233604","0.0-10.0-2.4","40","1","2025-07-09 09:07:06","7701e855f2ef39aa3fd6c71abdc6918a","102.164.1.228","Mozilla/5.0 (Windows NT 10.0; Win64; x64) AppleWebKit/537.36 (KHTML, like Gecko) Chrome/138.0.0.0 Safari/537.36","WebKit","Chrome","138.0.0.0","Windows","10.0","https://app.prolific.com/","en-US,en;q=0.9","67f6b8ee8af987467b01ab3d","686d226cabeef709c732f8e1","686e3131d23511e7c6c84004","67f6b8ee8af987467b01ab3d","2025-07-09T09:44:33.656Z","","","","","","ControlQ","","","","","","","","","","","","","","","","","","","","","","","","","","","","","","","","","","","","","","50",""
"7120","","<div style=""width:500px;"">
  <p>How would you describe your current emotional state?</p>
  </div>","0","html-slider-response","70","2240732","0.0-10.0-3.4","40","1","2025-07-09 09:07:06","7701e855f2ef39aa3fd6c71abdc6918a","102.164.1.228","Mozilla/5.0 (Windows NT 10.0; Win64; x64) AppleWebKit/537.36 (KHTML, like Gecko) Chrome/138.0.0.0 Safari/537.36","WebKit","Chrome","138.0.0.0","Windows","10.0","https://app.prolific.com/","en-US,en;q=0.9","67f6b8ee8af987467b01ab3d","686d226cabeef709c732f8e1","686e3131d23511e7c6c84004","67f6b8ee8af987467b01ab3d","2025-07-09T09:44:40.784Z","","","","","","StressQ","","","","","","","","","","","","","","","","","","","","","","","","","","","","","","","","","","","","","","50",""
"6328","","<div style=""width:500px;"">
  <p>What best describes how you currently feel?</p>
  </div>","100","html-slider-response","71","2247067","0.0-10.0-4.4","40","1","2025-07-09 09:07:06","7701e855f2ef39aa3fd6c71abdc6918a","102.164.1.228","Mozilla/5.0 (Windows NT 10.0; Win64; x64) AppleWebKit/537.36 (KHTML, like Gecko) Chrome/138.0.0.0 Safari/537.36","WebKit","Chrome","138.0.0.0","Windows","10.0","https://app.prolific.com/","en-US,en;q=0.9","67f6b8ee8af987467b01ab3d","686d226cabeef709c732f8e1","686e3131d23511e7c6c84004","67f6b8ee8af987467b01ab3d","2025-07-09T09:44:47.119Z","","","","","","MotivationQ","","","","","","","","","","","","","","","","","","","","","","","","","","","","","","","","","","","","","","50",""
"","","","","ctl-task-cpt","72","2281398","0.0-10.0-0.5","40","1","2025-07-09 09:07:06","7701e855f2ef39aa3fd6c71abdc6918a","102.164.1.228","Mozilla/5.0 (Windows NT 10.0; Win64; x64) AppleWebKit/537.36 (KHTML, like Gecko) Chrome/138.0.0.0 Safari/537.36","WebKit","Chrome","138.0.0.0","Windows","10.0","https://app.prolific.com/","en-US,en;q=0.9","67f6b8ee8af987467b01ab3d","686d226cabeef709c732f8e1","686e3131d23511e7c6c84004","67f6b8ee8af987467b01ab3d","2025-07-09T09:45:21.450Z","","","","","","","","","","","","","","","","win-only","3","g1:SW,g2:NE","0.5","6","0","2259627","3421.8","8444.2","31252.5","1","4","4","6","1","1","1","2","1","0.015151515151515152","2133.8","3000","2770","[""down"",""left""]","{""num_key_presses"":4,""num_perfect"":2,""num_errors"":0,""num_randdir"":2,""num_randdir_good_moves"":2,""num_whilered"":0,""num_whileblue"":0,""num_blue"":0,""num_good_moves"":4}","[300.22232142857143,293.12857142857143,0.6,300.22232142857143,293.12857142857143,116.7,300.22232142857143,293.12857142857143,236.3,300.22232142857143,293.12857142857143,338.2,300.22232142857143,293.12857142857143,443.9,300.22232142857143,293.12857142857143,544.1,300.22232142857143,293.12857142857143,649.5,300.22232142857143,293.12857142857143,754.6,300.22232142857143,293.12857142857143,857.5,300.22232142857143,293.12857142857143,963.9,300.22232142857143,293.12857142857143,1064.8,300.22232142857143,293.12857142857143,1168.5,300.22232142857143,293.12857142857143,1272.2,300.22232142857143,293.12857142857143,1407.2,146.22232142857143,428.12857142857143,1559.7,89.22232142857143,512.1285714285714,1693.2,67.22232142857143,539.1285714285714,1819.3,59.222321428571426,542.1285714285714,1938.5,59.222321428571426,542.1285714285714,2042.7,59.222321428571426,542.1285714285714,2160.8,59.222321428571426,542.1285714285714,2267.9,59.222321428571426,542.1285714285714,2379.1,59.222321428571426,542.1285714285714,2486.9,59.222321428571426,542.1285714285714,2593.1,59.222321428571426,542.1285714285714,2702.1,59.222321428571426,542.1285714285714,2808,59.222321428571426,542.1285714285714,2920.2,59.222321428571426,542.1285714285714,3057,59.222321428571426,542.1285714285714,3170.1,59.222321428571426,542.1285714285714,3277.5,59.222321428571426,542.1285714285714,3386.8,59.222321428571426,542.1285714285714,3495.6,59.222321428571426,542.1285714285714,3599.8,59.222321428571426,542.1285714285714,3706.1,59.222321428571426,542.1285714285714,3809.9,59.222321428571426,542.1285714285714,3918.3,59.222321428571426,542.1285714285714,4027.4,59.222321428571426,542.1285714285714,4137.6,59.222321428571426,542.1285714285714,4242.6,59.222321428571426,542.1285714285714,4350.2,59.222321428571426,542.1285714285714,4458.7,59.222321428571426,542.1285714285714,4563.2,59.222321428571426,542.1285714285714,4670.8,59.222321428571426,542.1285714285714,4780.7,59.222321428571426,542.1285714285714,4884.4,59.222321428571426,542.1285714285714,4990.9]","[1372.2,1372.3,1000,0,372.3,""smooth"",""left"",""left"",""good_move"",8830.4,7456.9,2776.5,1373.5,4680.4,""oops"",""left"",""left"",""good_move"",18596.9,9766,2514.8,8831.1,7251.1,""smooth"",""down"",""down"",""good_move"",21810,3210.3,2240.7,18599.7,969.6,""oops"",""down"",""down"",""good_move""]","","",""
"4373","","<div style=""width:500px;"">
  <p>What determined the result of this run?</p>
  </div>","100","html-slider-response","73","2285779","0.0-10.0-1.5","40","1","2025-07-09 09:07:06","7701e855f2ef39aa3fd6c71abdc6918a","102.164.1.228","Mozilla/5.0 (Windows NT 10.0; Win64; x64) AppleWebKit/537.36 (KHTML, like Gecko) Chrome/138.0.0.0 Safari/537.36","WebKit","Chrome","138.0.0.0","Windows","10.0","https://app.prolific.com/","en-US,en;q=0.9","67f6b8ee8af987467b01ab3d","686d226cabeef709c732f8e1","686e3131d23511e7c6c84004","67f6b8ee8af987467b01ab3d","2025-07-09T09:45:25.831Z","","","","","","AttribQ","","","","","","","","","","","","","","","","","","","","","","","","","","","","","","","","","","","","","","50",""
"2972","","<div style=""width:500px;"">
  <p>How much control did you have over the ball?</p>
  </div>","51","html-slider-response","74","2288759","0.0-10.0-2.5","40","1","2025-07-09 09:07:06","7701e855f2ef39aa3fd6c71abdc6918a","102.164.1.228","Mozilla/5.0 (Windows NT 10.0; Win64; x64) AppleWebKit/537.36 (KHTML, like Gecko) Chrome/138.0.0.0 Safari/537.36","WebKit","Chrome","138.0.0.0","Windows","10.0","https://app.prolific.com/","en-US,en;q=0.9","67f6b8ee8af987467b01ab3d","686d226cabeef709c732f8e1","686e3131d23511e7c6c84004","67f6b8ee8af987467b01ab3d","2025-07-09T09:45:28.811Z","","","","","","ControlQ","","","","","","","","","","","","","","","","","","","","","","","","","","","","","","","","","","","","","","50",""
"4671","","<div style=""width:500px;"">
  <p>How would you describe your current emotional state?</p>
  </div>","0","html-slider-response","75","2293440","0.0-10.0-3.5","40","1","2025-07-09 09:07:06","7701e855f2ef39aa3fd6c71abdc6918a","102.164.1.228","Mozilla/5.0 (Windows NT 10.0; Win64; x64) AppleWebKit/537.36 (KHTML, like Gecko) Chrome/138.0.0.0 Safari/537.36","WebKit","Chrome","138.0.0.0","Windows","10.0","https://app.prolific.com/","en-US,en;q=0.9","67f6b8ee8af987467b01ab3d","686d226cabeef709c732f8e1","686e3131d23511e7c6c84004","67f6b8ee8af987467b01ab3d","2025-07-09T09:45:33.492Z","","","","","","StressQ","","","","","","","","","","","","","","","","","","","","","","","","","","","","","","","","","","","","","","50",""
"3808","","<div style=""width:500px;"">
  <p>What best describes how you currently feel?</p>
  </div>","95","html-slider-response","76","2297257","0.0-10.0-4.5","40","1","2025-07-09 09:07:06","7701e855f2ef39aa3fd6c71abdc6918a","102.164.1.228","Mozilla/5.0 (Windows NT 10.0; Win64; x64) AppleWebKit/537.36 (KHTML, like Gecko) Chrome/138.0.0.0 Safari/537.36","WebKit","Chrome","138.0.0.0","Windows","10.0","https://app.prolific.com/","en-US,en;q=0.9","67f6b8ee8af987467b01ab3d","686d226cabeef709c732f8e1","686e3131d23511e7c6c84004","67f6b8ee8af987467b01ab3d","2025-07-09T09:45:37.309Z","","","","","","MotivationQ","","","","","","","","","","","","","","","","","","","","","","","","","","","","","","","","","","","","","","50",""
"","","","","ctl-task-cpt","77","2357235","0.0-10.0-0.6","40","1","2025-07-09 09:07:06","7701e855f2ef39aa3fd6c71abdc6918a","102.164.1.228","Mozilla/5.0 (Windows NT 10.0; Win64; x64) AppleWebKit/537.36 (KHTML, like Gecko) Chrome/138.0.0.0 Safari/537.36","WebKit","Chrome","138.0.0.0","Windows","10.0","https://app.prolific.com/","en-US,en;q=0.9","67f6b8ee8af987467b01ab3d","686d226cabeef709c732f8e1","686e3131d23511e7c6c84004","67f6b8ee8af987467b01ab3d","2025-07-09T09:46:37.288Z","","","","","","","","","","","","","","","","win-only","2","g1:SE,g2:NW","0.4","7","0","2309808.5","10047.7","15059.5","56938.7","1","4","4","6","1","1","1","3","2","0.022727272727272728","1364.1","3000","1535","[""down"",""right""]","{""num_key_presses"":12,""num_perfect"":5,""num_errors"":0,""num_randdir"":7,""num_randdir_good_moves"":3,""num_whilered"":0,""num_whileblue"":0,""num_blue"":1,""num_good_moves"":8}","[297.22232142857143,292.12857142857143,5.1,297.22232142857143,292.12857142857143,117.2,297.22232142857143,292.12857142857143,226.9,297.22232142857143,292.12857142857143,333.6,297.22232142857143,292.12857142857143,450.8,398.22232142857143,292.12857142857143,567.5,439.22232142857143,386.12857142857143,675.9,476.22232142857143,463.12857142857143,783.8,524.2223214285714,520.1285714285714,907.8,539.2223214285714,529.1285714285714,1020,545.2223214285714,539.1285714285714,1123.7,545.2223214285714,539.1285714285714,1225.1,545.2223214285714,539.1285714285714,1327.1,545.2223214285714,539.1285714285714,1440.8,545.2223214285714,539.1285714285714,1553.5,545.2223214285714,539.1285714285714,1674.9,545.2223214285714,539.1285714285714,1795.5,545.2223214285714,539.1285714285714,1912.6,545.2223214285714,539.1285714285714,2014.1,545.2223214285714,539.1285714285714,2115.2,545.2223214285714,539.1285714285714,2241.4,545.2223214285714,539.1285714285714,2343.9,545.2223214285714,539.1285714285714,2469.8,545.2223214285714,539.1285714285714,2574,545.2223214285714,539.1285714285714,2676.8,545.2223214285714,539.1285714285714,2797.4,545.2223214285714,539.1285714285714,2900.6,545.2223214285714,539.1285714285714,3000.9,545.2223214285714,539.1285714285714,3108.5,545.2223214285714,539.1285714285714,3212.6,545.2223214285714,539.1285714285714,3323.4,545.2223214285714,539.1285714285714,3426.4,545.2223214285714,539.1285714285714,3528.8,545.2223214285714,539.1285714285714,3654.2,545.2223214285714,539.1285714285714,3775.1,545.2223214285714,539.1285714285714,3880.1,545.2223214285714,539.1285714285714,4001.5,545.2223214285714,539.1285714285714,4111.8,545.2223214285714,539.1285714285714,4222.2,545.2223214285714,539.1285714285714,4322.3,545.2223214285714,539.1285714285714,4423,545.2223214285714,539.1285714285714,4528.7,545.2223214285714,539.1285714285714,4652.7,545.2223214285714,539.1285714285714,4753.6,545.2223214285714,539.1285714285714,4855.2,545.2223214285714,539.1285714285714,4957.4]","[4445.9,4445.9,2032.2,2042.4,371.3,""oops"",""down"",""right"",""good_move"",7472.5,3024.8,2261,4447.7,763.9,""smooth"",""down"",""down"",""good_move"",10909,3432.8,2497.5,7476.3,935.2,""oops"",""down"",""up"",""bad_move"",15343.6,4433.1,2551.8,10910.5,1881.3,""smooth"",""right"",""right"",""good_move"",18808.4,3462.9,2835.4,15345.6,627.4,""oops"",""down"",""up"",""bad_move"",22416.1,3606.8,1966.2,18809.4,1640.6,""smooth"",""down"",""down"",""good_move"",24860.8,2443.6,1917.5,22417.2,526.1,""oops"",""down"",""left"",""bad_move"",28825.8,3963.3,2090,24862.5,1873.3,""smooth"",""down"",""down"",""good_move"",32595.4,3767.7,3249.2,28827.9,518.4,""oops"",""down"",""left"",""bad_move"",36081.1,3478.4,2761.8,32602.8,716.5,""oops"",""down"",""right"",""good_move"",39150.3,3067.8,2544.4,36082.5,523.4,""smooth"",""down"",""down"",""good_move"",41457,2305.6,1876.5,39151.4,429.1,""oops"",""right"",""right"",""good_move""]","","",""
"8187","","<div style=""width:500px;"">
  <p>What determined the result of this run?</p>
  </div>","88","html-slider-response","78","2365427","0.0-10.0-1.6","40","1","2025-07-09 09:07:06","7701e855f2ef39aa3fd6c71abdc6918a","102.164.1.228","Mozilla/5.0 (Windows NT 10.0; Win64; x64) AppleWebKit/537.36 (KHTML, like Gecko) Chrome/138.0.0.0 Safari/537.36","WebKit","Chrome","138.0.0.0","Windows","10.0","https://app.prolific.com/","en-US,en;q=0.9","67f6b8ee8af987467b01ab3d","686d226cabeef709c732f8e1","686e3131d23511e7c6c84004","67f6b8ee8af987467b01ab3d","2025-07-09T09:46:45.479Z","","","","","","AttribQ","","","","","","","","","","","","","","","","","","","","","","","","","","","","","","","","","","","","","","50",""
"14681","","<div style=""width:500px;"">
  <p>How much control did you have over the ball?</p>
  </div>","93","html-slider-response","79","2380115","0.0-10.0-2.6","40","1","2025-07-09 09:07:06","7701e855f2ef39aa3fd6c71abdc6918a","102.164.1.228","Mozilla/5.0 (Windows NT 10.0; Win64; x64) AppleWebKit/537.36 (KHTML, like Gecko) Chrome/138.0.0.0 Safari/537.36","WebKit","Chrome","138.0.0.0","Windows","10.0","https://app.prolific.com/","en-US,en;q=0.9","67f6b8ee8af987467b01ab3d","686d226cabeef709c732f8e1","686e3131d23511e7c6c84004","67f6b8ee8af987467b01ab3d","2025-07-09T09:47:00.167Z","","","","","","ControlQ","","","","","","","","","","","","","","","","","","","","","","","","","","","","","","","","","","","","","","50",""
"4765","","<div style=""width:500px;"">
  <p>How would you describe your current emotional state?</p>
  </div>","0","html-slider-response","80","2384889","0.0-10.0-3.6","40","1","2025-07-09 09:07:06","7701e855f2ef39aa3fd6c71abdc6918a","102.164.1.228","Mozilla/5.0 (Windows NT 10.0; Win64; x64) AppleWebKit/537.36 (KHTML, like Gecko) Chrome/138.0.0.0 Safari/537.36","WebKit","Chrome","138.0.0.0","Windows","10.0","https://app.prolific.com/","en-US,en;q=0.9","67f6b8ee8af987467b01ab3d","686d226cabeef709c732f8e1","686e3131d23511e7c6c84004","67f6b8ee8af987467b01ab3d","2025-07-09T09:47:04.942Z","","","","","","StressQ","","","","","","","","","","","","","","","","","","","","","","","","","","","","","","","","","","","","","","50",""
"3051","","<div style=""width:500px;"">
  <p>What best describes how you currently feel?</p>
  </div>","96","html-slider-response","81","2387948","0.0-10.0-4.6","40","1","2025-07-09 09:07:06","7701e855f2ef39aa3fd6c71abdc6918a","102.164.1.228","Mozilla/5.0 (Windows NT 10.0; Win64; x64) AppleWebKit/537.36 (KHTML, like Gecko) Chrome/138.0.0.0 Safari/537.36","WebKit","Chrome","138.0.0.0","Windows","10.0","https://app.prolific.com/","en-US,en;q=0.9","67f6b8ee8af987467b01ab3d","686d226cabeef709c732f8e1","686e3131d23511e7c6c84004","67f6b8ee8af987467b01ab3d","2025-07-09T09:47:08.001Z","","","","","","MotivationQ","","","","","","","","","","","","","","","","","","","","","","","","","","","","","","","","","","","","","","50",""
"","","","","ctl-task-cpt","82","2471404","0.0-10.0-0.7","40","1","2025-07-09 09:07:06","7701e855f2ef39aa3fd6c71abdc6918a","102.164.1.228","Mozilla/5.0 (Windows NT 10.0; Win64; x64) AppleWebKit/537.36 (KHTML, like Gecko) Chrome/138.0.0.0 Safari/537.36","WebKit","Chrome","138.0.0.0","Windows","10.0","https://app.prolific.com/","en-US,en;q=0.9","67f6b8ee8af987467b01ab3d","686d226cabeef709c732f8e1","686e3131d23511e7c6c84004","67f6b8ee8af987467b01ab3d","2025-07-09T09:48:31.456Z","","","","","","","","","","","","","","","","win-only","3","g1:SW,g2:NE","0.3","8","0","2400504.8","21246.7","26257.2","80373.9","1","4","8","6","1","1","0","3","3","0.022727272727272728","2809.1","3000","2000","[""down"",""left""]","{""num_key_presses"":10,""num_perfect"":3,""num_errors"":1,""num_randdir"":6,""num_randdir_good_moves"":4,""num_whilered"":0,""num_whileblue"":1,""num_blue"":4,""num_good_moves"":7}","[292.22232142857143,299.12857142857143,0.9,292.22232142857143,299.12857142857143,129.5,292.22232142857143,299.12857142857143,236.4,292.22232142857143,299.12857142857143,370.6,292.22232142857143,299.12857142857143,494.5,292.22232142857143,299.12857142857143,626.3,292.22232142857143,299.12857142857143,760,393.22232142857143,257.12857142857143,909.1,290.22232142857143,307.12857142857143,1055.1,276.22232142857143,321.12857142857143,1194.3,273.22232142857143,325.12857142857143,1336.1,273.22232142857143,326.12857142857143,1460,273.22232142857143,326.12857142857143,1596.4,273.22232142857143,326.12857142857143,1716.3,273.22232142857143,326.12857142857143,1848.4,273.22232142857143,326.12857142857143,1970.3,273.22232142857143,326.12857142857143,2104,245.22232142857143,346.12857142857143,2207.4,61.222321428571426,520.1285714285714,2350.9,46.222321428571426,542.1285714285714,2489.1,46.222321428571426,542.1285714285714,2617.8,46.222321428571426,542.1285714285714,2746.9,46.222321428571426,542.1285714285714,2889.5,46.222321428571426,542.1285714285714,3011.7,46.222321428571426,542.1285714285714,3144,46.222321428571426,542.1285714285714,3268.6,46.222321428571426,542.1285714285714,3400.8,46.222321428571426,542.1285714285714,3525.6,46.222321428571426,542.1285714285714,3652.9,46.222321428571426,542.1285714285714,3781,46.222321428571426,542.1285714285714,3904.6,46.222321428571426,542.1285714285714,4028.1,46.222321428571426,542.1285714285714,4163.7,46.222321428571426,542.1285714285714,4290.8,46.222321428571426,542.1285714285714,4418.5,46.222321428571426,542.1285714285714,4542.7,46.222321428571426,542.1285714285714,4667.6,46.222321428571426,542.1285714285714,4793,46.222321428571426,542.1285714285714,4923.3]","[2058.8,2058.9,1000,0,1058.9,""oops"",""down"",""down"",""good_move"",5140.6,3080.4,2290.4,2060.3,790,""oops"",""down"",""up"",""bad_move"",9739,4596.6,4259.6,5142.4,337,""while_blue"",""left"",""right"",""bad_move"",16357.2,6615.4,2524.9,13396.7,435.6,""smooth"",""left"",""left"",""good_move"",25050.4,8691.2,3185,21371.4,494,""oops"",""left"",""left"",""good_move"",31496.4,6443.6,2270.3,25052.8,4173.3,""oops"",""left"",""left"",""good_move"",38902.7,7404.5,1969.1,31498.2,5435.4,""oops"",""down"",""right"",""bad_move"",43846.1,4942.8,3228.8,38903.3,1714,""oops"",""down"",""down"",""good_move"",49939.1,6092.1,1795.1,47457.5,686.5,""smooth"",""down"",""down"",""good_move"",53263.7,3323.5,2696.4,49940.3,627,""smooth"",""left"",""left"",""good_move""]","","",""
"6029","","<div style=""width:500px;"">
  <p>What determined the result of this run?</p>
  </div>","86","html-slider-response","83","2477441","0.0-10.0-1.7","40","1","2025-07-09 09:07:06","7701e855f2ef39aa3fd6c71abdc6918a","102.164.1.228","Mozilla/5.0 (Windows NT 10.0; Win64; x64) AppleWebKit/537.36 (KHTML, like Gecko) Chrome/138.0.0.0 Safari/537.36","WebKit","Chrome","138.0.0.0","Windows","10.0","https://app.prolific.com/","en-US,en;q=0.9","67f6b8ee8af987467b01ab3d","686d226cabeef709c732f8e1","686e3131d23511e7c6c84004","67f6b8ee8af987467b01ab3d","2025-07-09T09:48:37.493Z","","","","","","AttribQ","","","","","","","","","","","","","","","","","","","","","","","","","","","","","","","","","","","","","","50",""
"2886","","<div style=""width:500px;"">
  <p>How much control did you have over the ball?</p>
  </div>","94","html-slider-response","84","2480334","0.0-10.0-2.7","40","1","2025-07-09 09:07:06","7701e855f2ef39aa3fd6c71abdc6918a","102.164.1.228","Mozilla/5.0 (Windows NT 10.0; Win64; x64) AppleWebKit/537.36 (KHTML, like Gecko) Chrome/138.0.0.0 Safari/537.36","WebKit","Chrome","138.0.0.0","Windows","10.0","https://app.prolific.com/","en-US,en;q=0.9","67f6b8ee8af987467b01ab3d","686d226cabeef709c732f8e1","686e3131d23511e7c6c84004","67f6b8ee8af987467b01ab3d","2025-07-09T09:48:40.386Z","","","","","","ControlQ","","","","","","","","","","","","","","","","","","","","","","","","","","","","","","","","","","","","","","50",""
"3620","","<div style=""width:500px;"">
  <p>How would you describe your current emotional state?</p>
  </div>","3","html-slider-response","85","2483963","0.0-10.0-3.7","40","1","2025-07-09 09:07:06","7701e855f2ef39aa3fd6c71abdc6918a","102.164.1.228","Mozilla/5.0 (Windows NT 10.0; Win64; x64) AppleWebKit/537.36 (KHTML, like Gecko) Chrome/138.0.0.0 Safari/537.36","WebKit","Chrome","138.0.0.0","Windows","10.0","https://app.prolific.com/","en-US,en;q=0.9","67f6b8ee8af987467b01ab3d","686d226cabeef709c732f8e1","686e3131d23511e7c6c84004","67f6b8ee8af987467b01ab3d","2025-07-09T09:48:44.015Z","","","","","","StressQ","","","","","","","","","","","","","","","","","","","","","","","","","","","","","","","","","","","","","","50",""
"3413","","<div style=""width:500px;"">
  <p>What best describes how you currently feel?</p>
  </div>","94","html-slider-response","86","2487385","0.0-10.0-4.7","40","1","2025-07-09 09:07:06","7701e855f2ef39aa3fd6c71abdc6918a","102.164.1.228","Mozilla/5.0 (Windows NT 10.0; Win64; x64) AppleWebKit/537.36 (KHTML, like Gecko) Chrome/138.0.0.0 Safari/537.36","WebKit","Chrome","138.0.0.0","Windows","10.0","https://app.prolific.com/","en-US,en;q=0.9","67f6b8ee8af987467b01ab3d","686d226cabeef709c732f8e1","686e3131d23511e7c6c84004","67f6b8ee8af987467b01ab3d","2025-07-09T09:48:47.437Z","","","","","","MotivationQ","","","","","","","","","","","","","","","","","","","","","","","","","","","","","","","","","","","","","","50",""
"","","","","ctl-task-cpt","87","2637432","0.0-10.0-0.8","40","1","2025-07-09 09:07:06","7701e855f2ef39aa3fd6c71abdc6918a","102.164.1.228","Mozilla/5.0 (Windows NT 10.0; Win64; x64) AppleWebKit/537.36 (KHTML, like Gecko) Chrome/138.0.0.0 Safari/537.36","WebKit","Chrome","138.0.0.0","Windows","10.0","https://app.prolific.com/","en-US,en;q=0.9","67f6b8ee8af987467b01ab3d","686d226cabeef709c732f8e1","686e3131d23511e7c6c84004","67f6b8ee8af987467b01ab3d","2025-07-09T09:51:17.484Z","","","","","","","","","","","","","","","","win-only","1","g1:NE,g2:SW","0.2","9","0","2499941.2","1913.8","6930.4","146983.8","1","4","4","6","2","-4","-4","0","3","0","1598.5","3000","-320","[""down"",""left""]","{""num_key_presses"":22,""num_perfect"":4,""num_errors"":0,""num_randdir"":18,""num_randdir_good_moves"":8,""num_whilered"":0,""num_whileblue"":0,""num_blue"":6,""num_good_moves"":11}","[294.22232142857143,295.12857142857143,0.7,294.22232142857143,295.12857142857143,150.3,294.22232142857143,295.12857142857143,287.2,294.22232142857143,295.12857142857143,434.1,134.22232142857143,434.12857142857143,598.1,72.22232142857143,493.12857142857143,761.5,66.22232142857143,501.12857142857143,917.3,66.22232142857143,501.12857142857143,1060,66.22232142857143,501.12857142857143,1208.9,44.222321428571426,536.1285714285714,1372.8,44.222321428571426,538.1285714285714,1522.3,44.222321428571426,538.1285714285714,1680.7,44.222321428571426,538.1285714285714,1837.6,44.222321428571426,538.1285714285714,1980.8,44.222321428571426,538.1285714285714,2126.8,44.222321428571426,538.1285714285714,2274.3,44.222321428571426,538.1285714285714,2421.2,44.222321428571426,538.1285714285714,2562.7,44.222321428571426,538.1285714285714,2704.3,44.222321428571426,538.1285714285714,2848.8,44.222321428571426,538.1285714285714,2990.8,44.222321428571426,538.1285714285714,3132.9,44.222321428571426,538.1285714285714,3279.8,44.222321428571426,538.1285714285714,3423.5,44.222321428571426,538.1285714285714,3569.1,44.222321428571426,538.1285714285714,3708.6,44.222321428571426,538.1285714285714,3852.4,44.222321428571426,538.1285714285714,3996,44.222321428571426,538.1285714285714,4144,44.222321428571426,538.1285714285714,4294.3,44.222321428571426,538.1285714285714,4438.7,44.222321428571426,538.1285714285714,4585.5,44.222321428571426,538.1285714285714,4727.1,44.222321428571426,538.1285714285714,4871.2]","[1620.2,1620.2,1000,0,620.2,""smooth"",""down"",""down"",""good_move"",4667.8,3046.7,2200.9,1621.1,845.8,""oops"",""down"",""up"",""bad_move"",16296,11626.4,2871.8,4669.6,8754.6,""oops"",""down"",""right"",""bad_move"",19694.6,3398.2,2289.3,16296.4,1108.9,""oops"",""down"",""left"",""good_move"",35216.9,15521.6,2440.9,32224.8,551.2,""oops"",""left"",""right"",""bad_move"",49536.8,14318.9,3006.3,45671,859.5,""smooth"",""right"",""right"",""bad_move"",56473.5,6936.2,2773,52887.1,813.4,""oops"",""left"",""up"",""bad_move"",62073.9,5598.4,1746.9,56475.5,3851.5,""oops"",""up"",""down"",""good_move"",65969.8,3894.7,3094.9,62075.1,799.8,""oops"",""up"",""down"",""good_move"",68696.2,2725.6,1919.4,65970.7,806.1,""oops"",""up"",""left"",""good_move"",73819.5,5121.9,3153.5,68697.6,1968.4,""oops"",""up"",""up"",""bad_move"",79042.1,5221.4,3060.3,73820.7,2161.1,""oops"",""down"",""up"",""bad_move"",86586.4,7543.5,1999.4,84079.3,507.7,""oops"",""up"",""down"",""good_move"",91553.9,4966.8,2921.1,86587.1,2045.7,""oops"",""right"",""right"",""bad_move"",95824.5,4266.9,1221.8,91557.7,3045,""smooth"",""down"",""down"",""good_move"",99272.7,3447.6,2609.9,95825.2,837.7,""oops"",""down"",""left"",""good_move"",106447.9,7173.6,2382.3,99274.3,4791.3,""smooth"",""down"",""down"",""good_move"",108993.4,2544.9,1892.6,106448.5,652.3,""oops"",""down"",""up"",""bad_move"",114970,5974,2529,108996,3445,""oops"",""left"",""left"",""good_move"",121524.6,6552.7,2763.9,114972,3788.7,""oops"",""left"",""right"",""bad_move"",125164.9,3639.1,2352.4,121525.8,1286.8,""oops"",""down"",""up"",""bad_move"",132580.8,7415.2,2182,125165.6,5233.2,""oops"",""up"",""left"",""good_move""]","","",""
"3595","","<div style=""width:500px;"">
  <p>What determined the result of this run?</p>
  </div>","85","html-slider-response","88","2641033","0.0-10.0-1.8","40","1","2025-07-09 09:07:06","7701e855f2ef39aa3fd6c71abdc6918a","102.164.1.228","Mozilla/5.0 (Windows NT 10.0; Win64; x64) AppleWebKit/537.36 (KHTML, like Gecko) Chrome/138.0.0.0 Safari/537.36","WebKit","Chrome","138.0.0.0","Windows","10.0","https://app.prolific.com/","en-US,en;q=0.9","67f6b8ee8af987467b01ab3d","686d226cabeef709c732f8e1","686e3131d23511e7c6c84004","67f6b8ee8af987467b01ab3d","2025-07-09T09:51:21.086Z","","","","","","AttribQ","","","","","","","","","","","","","","","","","","","","","","","","","","","","","","","","","","","","","","50",""
"2776","","<div style=""width:500px;"">
  <p>How much control did you have over the ball?</p>
  </div>","87","html-slider-response","89","2643817","0.0-10.0-2.8","40","1","2025-07-09 09:07:06","7701e855f2ef39aa3fd6c71abdc6918a","102.164.1.228","Mozilla/5.0 (Windows NT 10.0; Win64; x64) AppleWebKit/537.36 (KHTML, like Gecko) Chrome/138.0.0.0 Safari/537.36","WebKit","Chrome","138.0.0.0","Windows","10.0","https://app.prolific.com/","en-US,en;q=0.9","67f6b8ee8af987467b01ab3d","686d226cabeef709c732f8e1","686e3131d23511e7c6c84004","67f6b8ee8af987467b01ab3d","2025-07-09T09:51:23.869Z","","","","","","ControlQ","","","","","","","","","","","","","","","","","","","","","","","","","","","","","","","","","","","","","","50",""
"4737","","<div style=""width:500px;"">
  <p>How would you describe your current emotional state?</p>
  </div>","0","html-slider-response","90","2648561","0.0-10.0-3.8","40","1","2025-07-09 09:07:06","7701e855f2ef39aa3fd6c71abdc6918a","102.164.1.228","Mozilla/5.0 (Windows NT 10.0; Win64; x64) AppleWebKit/537.36 (KHTML, like Gecko) Chrome/138.0.0.0 Safari/537.36","WebKit","Chrome","138.0.0.0","Windows","10.0","https://app.prolific.com/","en-US,en;q=0.9","67f6b8ee8af987467b01ab3d","686d226cabeef709c732f8e1","686e3131d23511e7c6c84004","67f6b8ee8af987467b01ab3d","2025-07-09T09:51:28.613Z","","","","","","StressQ","","","","","","","","","","","","","","","","","","","","","","","","","","","","","","","","","","","","","","50",""
"3468","","<div style=""width:500px;"">
  <p>What best describes how you currently feel?</p>
  </div>","94","html-slider-response","91","2652036","0.0-10.0-4.8","40","1","2025-07-09 09:07:06","7701e855f2ef39aa3fd6c71abdc6918a","102.164.1.228","Mozilla/5.0 (Windows NT 10.0; Win64; x64) AppleWebKit/537.36 (KHTML, like Gecko) Chrome/138.0.0.0 Safari/537.36","WebKit","Chrome","138.0.0.0","Windows","10.0","https://app.prolific.com/","en-US,en;q=0.9","67f6b8ee8af987467b01ab3d","686d226cabeef709c732f8e1","686e3131d23511e7c6c84004","67f6b8ee8af987467b01ab3d","2025-07-09T09:51:32.088Z","","","","","","MotivationQ","","","","","","","","","","","","","","","","","","","","","","","","","","","","","","","","","","","","","","50",""
