"rt","response_timestamp","stimulus","response","trial_type","trial_index","time_elapsed","internal_node_id","run_id","condition","recorded_at","source_code_version","ip","user_agent","device","browser","browser_version","platform","platform_version","referer","accept_language","PROLIFIC_PID","STUDY_ID","SESSION_ID","prolific_id","realtime","view_history","question_order","consent","success","question_id","eventType","responses","item_order","radio_event_ids","radio_event_times","key_event_times","mouse_event_times","straightlining","zigzagging","honeypot","which_type","canvas_config","goals_layout","control_level","trial_number","tutorial_trial_number","trial_start_time","phase1_start_time","phase2_start_time","phase3_start_time","goal_1_value","goal_1_distance","goal_2_value","goal_2_distance","goal_selected","outcome","outcome_total","participant_final_score","participant_initial_score","participant_final_score_prop","goal_choice_rt","allocated_time","allocated_time_remaining","goal_direction","counts","mouse_movements","key_presses","correct","slider_start","sub_question"
"17270","1752052028668","<p style='font-size:40px;line-height:1.25'><strong>Welcome to the experiment!</strong></p><p style='font-size:1.1em;line-height:1.25'>Thank you for your interest in our experiment! Before you begin, it is important that we obtain your informed consent to participate in the study.</p><p style='font-size:1.1em;line-height:1.25'>On the next screen will be an <strong>information sheet</strong> for you to read. To participate in the study we need you to read this information sheet and the following consent form carefully. If you agree with all the statements, please click the <strong>I agree</strong> button.</p><p style='font-size:1.1em;line-height:1.25'>Press <strong>Next</strong> to read the information sheet.</p>","0","custom-html-button-response","0","17276","0.0-0.0","27","1","2025-07-09 09:06:48","7701e855f2ef39aa3fd6c71abdc6918a","187.190.161.228","Mozilla/5.0 (Windows NT 10.0; Win64; x64) AppleWebKit/537.36 (KHTML, like Gecko) Chrome/138.0.0.0 Safari/537.36","WebKit","Chrome","138.0.0.0","Windows","10.0","https://app.prolific.com/","es-US,es-419;q=0.9,es;q=0.8","610c6c0904a537eaadf52096","686d226cabeef709c732f8e1","686e31244f373a2c40936d25","610c6c0904a537eaadf52096","2025-07-09T09:07:08.669Z","","","","","","","","","","","","","","","","","","","","","","","","","","","","","","","","","","","","","","","","","","","","",""
"24456","","","","instructions","1","41733","0.0-1.0","27","1","2025-07-09 09:06:48","7701e855f2ef39aa3fd6c71abdc6918a","187.190.161.228","Mozilla/5.0 (Windows NT 10.0; Win64; x64) AppleWebKit/537.36 (KHTML, like Gecko) Chrome/138.0.0.0 Safari/537.36","WebKit","Chrome","138.0.0.0","Windows","10.0","https://app.prolific.com/","es-US,es-419;q=0.9,es;q=0.8","610c6c0904a537eaadf52096","686d226cabeef709c732f8e1","686e31244f373a2c40936d25","610c6c0904a537eaadf52096","","[{""page_index"":0,""viewing_time"":16558},{""page_index"":1,""viewing_time"":7897}]","","","","","","","","","","","","","","","","","","","","","","","","","","","","","","","","","","","","","","","","","","","",""
"8524","","","{""Q0"":"""",""Q1"":"""",""Q2"":"""",""Q3"":"""",""Q4"":"""",""Q5"":"""",""Q6"":""I agree""}","survey-multi-choice","2","50260","0.0-2.0","27","1","2025-07-09 09:06:48","7701e855f2ef39aa3fd6c71abdc6918a","187.190.161.228","Mozilla/5.0 (Windows NT 10.0; Win64; x64) AppleWebKit/537.36 (KHTML, like Gecko) Chrome/138.0.0.0 Safari/537.36","WebKit","Chrome","138.0.0.0","Windows","10.0","https://app.prolific.com/","es-US,es-419;q=0.9,es;q=0.8","610c6c0904a537eaadf52096","686d226cabeef709c732f8e1","686e31244f373a2c40936d25","610c6c0904a537eaadf52096","","","[0,1,2,3,4,5,6]","true","","","","","","","","","","","","","","","","","","","","","","","","","","","","","","","","","","","","","","","","","",""
"26230","","","","fullscreen","3","77503","0.0-4.0","27","1","2025-07-09 09:06:48","7701e855f2ef39aa3fd6c71abdc6918a","187.190.161.228","Mozilla/5.0 (Windows NT 10.0; Win64; x64) AppleWebKit/537.36 (KHTML, like Gecko) Chrome/138.0.0.0 Safari/537.36","WebKit","Chrome","138.0.0.0","Windows","10.0","https://app.prolific.com/","es-US,es-419;q=0.9,es;q=0.8","610c6c0904a537eaadf52096","686d226cabeef709c732f8e1","686e31244f373a2c40936d25","610c6c0904a537eaadf52096","","","","","true","","","","","","","","","","","","","","","","","","","","","","","","","","","","","","","","","","","","","","","","",""
"17918","1752052106814"," <p style='font-size:1.1em;line-height:1.25'>Thank you for completing the consent form and closing all other tabs.</p><p style='font-size:1.1em;line-height:1.25'>We will now invite you to fill in some demographic information and questionnaires, before starting the game.<br>This will take about 5 minutes.<br></p><p style='font-size:1.1em;line-height:1.25'>Press the <strong>Next</strong> button to continue.</p>","0","custom-html-button-response","4","95422","0.0-5.0","27","1","2025-07-09 09:06:48","7701e855f2ef39aa3fd6c71abdc6918a","187.190.161.228","Mozilla/5.0 (Windows NT 10.0; Win64; x64) AppleWebKit/537.36 (KHTML, like Gecko) Chrome/138.0.0.0 Safari/537.36","WebKit","Chrome","138.0.0.0","Windows","10.0","https://app.prolific.com/","es-US,es-419;q=0.9,es;q=0.8","610c6c0904a537eaadf52096","686d226cabeef709c732f8e1","686e31244f373a2c40936d25","610c6c0904a537eaadf52096","2025-07-09T09:08:26.814Z","","","","","","","","","","","","","","","","","","","","","","","","","","","","","","","","","","","","","","","","","","","","",""
"2700","","","{""age"":""27""}","survey-text","5","98124","0.0-6.0-0.0","27","1","2025-07-09 09:06:48","7701e855f2ef39aa3fd6c71abdc6918a","187.190.161.228","Mozilla/5.0 (Windows NT 10.0; Win64; x64) AppleWebKit/537.36 (KHTML, like Gecko) Chrome/138.0.0.0 Safari/537.36","WebKit","Chrome","138.0.0.0","Windows","10.0","https://app.prolific.com/","es-US,es-419;q=0.9,es;q=0.8","610c6c0904a537eaadf52096","686d226cabeef709c732f8e1","686e31244f373a2c40936d25","610c6c0904a537eaadf52096","","","","","","0","demographics","","","","","","","","","","","","","","","","","","","","","","","","","","","","","","","","","","","","","","",""
"2215","","","{""gender_identity"":""female/woman""}","survey-multi-choice","6","100340","0.0-6.0-1.0","27","1","2025-07-09 09:06:48","7701e855f2ef39aa3fd6c71abdc6918a","187.190.161.228","Mozilla/5.0 (Windows NT 10.0; Win64; x64) AppleWebKit/537.36 (KHTML, like Gecko) Chrome/138.0.0.0 Safari/537.36","WebKit","Chrome","138.0.0.0","Windows","10.0","https://app.prolific.com/","es-US,es-419;q=0.9,es;q=0.8","610c6c0904a537eaadf52096","686d226cabeef709c732f8e1","686e31244f373a2c40936d25","610c6c0904a537eaadf52096","","","[0]","","","1","demographics","","","","","","","","","","","","","","","","","","","","","","","","","","","","","","","","","","","","","","",""
"5087","","","{""assigned_sex"":""female""}","survey-multi-choice","7","105428","0.0-6.0-2.0","27","1","2025-07-09 09:06:48","7701e855f2ef39aa3fd6c71abdc6918a","187.190.161.228","Mozilla/5.0 (Windows NT 10.0; Win64; x64) AppleWebKit/537.36 (KHTML, like Gecko) Chrome/138.0.0.0 Safari/537.36","WebKit","Chrome","138.0.0.0","Windows","10.0","https://app.prolific.com/","es-US,es-419;q=0.9,es;q=0.8","610c6c0904a537eaadf52096","686d226cabeef709c732f8e1","686e31244f373a2c40936d25","610c6c0904a537eaadf52096","","","[0]","","","2","demographics","","","","","","","","","","","","","","","","","","","","","","","","","","","","","","","","","","","","","","",""
"15295","","","{""menstrual_cycle"":""Yes""}","survey-multi-choice","8","120724","0.0-6.0-3.0","27","1","2025-07-09 09:06:48","7701e855f2ef39aa3fd6c71abdc6918a","187.190.161.228","Mozilla/5.0 (Windows NT 10.0; Win64; x64) AppleWebKit/537.36 (KHTML, like Gecko) Chrome/138.0.0.0 Safari/537.36","WebKit","Chrome","138.0.0.0","Windows","10.0","https://app.prolific.com/","es-US,es-419;q=0.9,es;q=0.8","610c6c0904a537eaadf52096","686d226cabeef709c732f8e1","686e31244f373a2c40936d25","610c6c0904a537eaadf52096","","","[0]","","","4","demographics","","","","","","","","","","","","","","","","","","","","","","","","","","","","","","","","","","","","","","",""
"7679","","","{""education"":""Bachelor's Degree (e.g., BA)""}","survey-multi-choice","9","128404","0.0-6.0-4.0","27","1","2025-07-09 09:06:48","7701e855f2ef39aa3fd6c71abdc6918a","187.190.161.228","Mozilla/5.0 (Windows NT 10.0; Win64; x64) AppleWebKit/537.36 (KHTML, like Gecko) Chrome/138.0.0.0 Safari/537.36","WebKit","Chrome","138.0.0.0","Windows","10.0","https://app.prolific.com/","es-US,es-419;q=0.9,es;q=0.8","610c6c0904a537eaadf52096","686d226cabeef709c732f8e1","686e31244f373a2c40936d25","610c6c0904a537eaadf52096","","","[0]","","","5","demographics","","","","","","","","","","","","","","","","","","","","","","","","","","","","","","","","","","","","","","",""
"17391","","","{""education"":""Bachelor's Degree (e.g., BA)""}","survey-multi-choice","10","145796","0.0-6.0-5.0","27","1","2025-07-09 09:06:48","7701e855f2ef39aa3fd6c71abdc6918a","187.190.161.228","Mozilla/5.0 (Windows NT 10.0; Win64; x64) AppleWebKit/537.36 (KHTML, like Gecko) Chrome/138.0.0.0 Safari/537.36","WebKit","Chrome","138.0.0.0","Windows","10.0","https://app.prolific.com/","es-US,es-419;q=0.9,es;q=0.8","610c6c0904a537eaadf52096","686d226cabeef709c732f8e1","686e31244f373a2c40936d25","610c6c0904a537eaadf52096","2025-07-09T09:09:17.188Z","","[0]","","","6","demographics","","","","","","","","","","","","","","","","","","","","","","","","","","","","","","","","","","","","","","",""
"70117","","","{""mental_health_condition"":""Borderline"",""mental_health_treatment"":""no"",""psychiatric_medication"":""n/a""}","survey-text","11","215916","0.0-7.0-0.0","27","1","2025-07-09 09:06:48","7701e855f2ef39aa3fd6c71abdc6918a","187.190.161.228","Mozilla/5.0 (Windows NT 10.0; Win64; x64) AppleWebKit/537.36 (KHTML, like Gecko) Chrome/138.0.0.0 Safari/537.36","WebKit","Chrome","138.0.0.0","Windows","10.0","https://app.prolific.com/","es-US,es-419;q=0.9,es;q=0.8","610c6c0904a537eaadf52096","686d226cabeef709c732f8e1","686e31244f373a2c40936d25","610c6c0904a537eaadf52096","2025-07-09T09:10:27.308Z","","","","","1","mental_health","","","","","","","","","","","","","","","","","","","","","","","","","","","","","","","","","","","","","","",""
"14166","","","{""depression_history"":[""Yes""]}","survey-multi-select","12","230085","0.0-7.0-1.0","27","1","2025-07-09 09:06:48","7701e855f2ef39aa3fd6c71abdc6918a","187.190.161.228","Mozilla/5.0 (Windows NT 10.0; Win64; x64) AppleWebKit/537.36 (KHTML, like Gecko) Chrome/138.0.0.0 Safari/537.36","WebKit","Chrome","138.0.0.0","Windows","10.0","https://app.prolific.com/","es-US,es-419;q=0.9,es;q=0.8","610c6c0904a537eaadf52096","686d226cabeef709c732f8e1","686e31244f373a2c40936d25","610c6c0904a537eaadf52096","","","[0]","","","","mental_health","","","","","","","","","","","","","","","","","","","","","","","","","","","","","","","","","","","","","","",""
"26014","","","{""depression_episodes"":""more than 5"",""depression_recent"":""Currently experiencing an episode""}","survey-multi-choice","13","256100","0.0-7.0-2.0-0.0","27","1","2025-07-09 09:06:48","7701e855f2ef39aa3fd6c71abdc6918a","187.190.161.228","Mozilla/5.0 (Windows NT 10.0; Win64; x64) AppleWebKit/537.36 (KHTML, like Gecko) Chrome/138.0.0.0 Safari/537.36","WebKit","Chrome","138.0.0.0","Windows","10.0","https://app.prolific.com/","es-US,es-419;q=0.9,es;q=0.8","610c6c0904a537eaadf52096","686d226cabeef709c732f8e1","686e31244f373a2c40936d25","610c6c0904a537eaadf52096","2025-07-09T09:11:07.492Z","","[0,1]","","","3","mental_health","","","","","","","","","","","","","","","","","","","","","","","","","","","","","","","","","","","","","","",""
"250038.90000000596","","","","survey-template","14","506142","0.0-7.0-3.0","27","1","2025-07-09 09:06:48","7701e855f2ef39aa3fd6c71abdc6918a","187.190.161.228","Mozilla/5.0 (Windows NT 10.0; Win64; x64) AppleWebKit/537.36 (KHTML, like Gecko) Chrome/138.0.0.0 Safari/537.36","WebKit","Chrome","138.0.0.0","Windows","10.0","https://app.prolific.com/","es-US,es-419;q=0.9,es;q=0.8","610c6c0904a537eaadf52096","686d226cabeef709c732f8e1","686e31244f373a2c40936d25","610c6c0904a537eaadf52096","2025-07-09T09:15:17.534Z","","","","","","ius","{""Q01"":""3"",""Q02"":""3"",""Q03"":""4"",""Q04"":""1"",""Q05"":""3"",""Q06"":""4"",""Q07"":""3"",""Q08"":""0"",""Q09"":""4"",""Q10"":""3"",""Q11"":""4"",""Q12"":""3"",""Q13"":""4""}","[0,1,2,3,4,5,6,7,8,9,10,11,12]","[""Q01"",""Q02"",""Q03"",""Q04"",""Q05"",""Q06"",""Q07"",""Q08"",""Q09"",""Q10"",""Q11"",""Q12"",""Q12"",""Q13""]","[20341.90000000596,26949.20000000298,36125.40000000596,46685.40000000596,71373.5,96789.70000000298,130373.5,135389.5,144309.70000000298,203549.70000000298,213925.80000001192,236182.70000000298,240285.5,248469.60000000894]","[]","[10381.70000000298,13325.20000000298,13965.60000000894,20341.90000000596,22309.40000000596,22925.70000000298,26949.20000000298,29182.5,29694,34126.80000001192,36125.40000000596,38213.30000001192,38957.80000001192,45917.60000000894,46685.40000000596,65061.40000000596,66022,71373.5,74989.5,76397.70000000298,96789.70000000298,98837.80000001192,99333.80000001192,130373.5,135389.5,140333.40000000596,140981.90000000596,144309.70000000298,196341.90000000596,198133.80000001192,203549.70000000298,205821.5,206622.10000000894,213925.80000001192,217053.90000000596,217798.10000000894,236182.70000000298,240285.5,242893.5,243693.90000000596,248469.60000000894,250037.70000000298]","0.46153846153846156","0.6666666666666666","0","","","","","","","","","","","","","","","","","","","","","","","","","","","","","",""
"9381","1752052526916","<p style='font-size:1.1em;line-height:1.25'>In the following, we will ask you a few questions relating to your experiences over the past month.<br></p><p style='font-size:1.1em;line-height:1.25'>Press the <strong>Next</strong> button to continue.</p>","0","custom-html-button-response","15","515524","0.0-7.0-4.0","27","1","2025-07-09 09:06:48","7701e855f2ef39aa3fd6c71abdc6918a","187.190.161.228","Mozilla/5.0 (Windows NT 10.0; Win64; x64) AppleWebKit/537.36 (KHTML, like Gecko) Chrome/138.0.0.0 Safari/537.36","WebKit","Chrome","138.0.0.0","Windows","10.0","https://app.prolific.com/","es-US,es-419;q=0.9,es;q=0.8","610c6c0904a537eaadf52096","686d226cabeef709c732f8e1","686e31244f373a2c40936d25","610c6c0904a537eaadf52096","2025-07-09T09:15:26.916Z","","","","","","","","","","","","","","","","","","","","","","","","","","","","","","","","","","","","","","","","","","","","",""
"164905","","","","survey-template","16","680432","0.0-7.0-5.0","27","1","2025-07-09 09:06:48","7701e855f2ef39aa3fd6c71abdc6918a","187.190.161.228","Mozilla/5.0 (Windows NT 10.0; Win64; x64) AppleWebKit/537.36 (KHTML, like Gecko) Chrome/138.0.0.0 Safari/537.36","WebKit","Chrome","138.0.0.0","Windows","10.0","https://app.prolific.com/","es-US,es-419;q=0.9,es;q=0.8","610c6c0904a537eaadf52096","686d226cabeef709c732f8e1","686e31244f373a2c40936d25","610c6c0904a537eaadf52096","2025-07-09T09:18:11.824Z","","","","","","pss","{""Q01"":""4"",""Q02"":""4"",""Q03"":""3"",""Q04"":""2"",""Q05"":""2"",""Q06"":""4"",""Q07"":""2"",""Q08"":""3"",""Q09"":""4"",""Q10"":""3""}","[0,1,2,3,4,5,6,7,8,9]","[""Q01"",""Q02"",""Q03"",""Q04"",""Q04"",""Q05"",""Q06"",""Q07"",""Q08"",""Q08"",""Q09"",""Q10""]","[35454.39999999106,47190.29999999702,55598.89999999106,69486.5,71606.5,90126.69999998808,104022.39999999106,120086.69999998808,130270.5,134318.39999999106,148814.59999999404,161726.39999999106]","[]","[0.09999999403953552,5390.5999999940395,5950.899999991059,35454.39999999106,38270.29999999702,39142.69999998808,47190.29999999702,50814.79999999702,51887.19999998808,55598.89999999106,59070.29999999702,59767,69486.5,71606.5,74366.39999999106,74950.69999998808,90126.69999998808,93183.29999999702,93735.09999999404,103422.5,104022.39999999106,109494.79999999702,110054.69999998808,120086.69999998808,122750.89999999106,123334.79999999702,130270.5,132311.5,134318.39999999106,135422.5,136998.79999999702,137542.59999999404,148814.59999999404,151431,151942.79999999702,160606.59999999404,161726.39999999106,164903.5]","0.4","0.4444444444444444","0","","","","","","","","","","","","","","","","","","","","","","","","","","","","","",""
"131427","1752052823252","<p style='font-size:1.1em;line-height:1.25'>Thank you for your answers! Now we will ask you a few more questions relating to your feelings in the last 24 hours.<br></p><p style='font-size:1.1em;line-height:1.25'>Press the <strong>Next</strong> button to continue.</p>","0","custom-html-button-response","17","811860","0.0-7.0-6.0","27","1","2025-07-09 09:06:48","7701e855f2ef39aa3fd6c71abdc6918a","187.190.161.228","Mozilla/5.0 (Windows NT 10.0; Win64; x64) AppleWebKit/537.36 (KHTML, like Gecko) Chrome/138.0.0.0 Safari/537.36","WebKit","Chrome","138.0.0.0","Windows","10.0","https://app.prolific.com/","es-US,es-419;q=0.9,es;q=0.8","610c6c0904a537eaadf52096","686d226cabeef709c732f8e1","686e31244f373a2c40936d25","610c6c0904a537eaadf52096","2025-07-09T09:20:23.253Z","","","","","","","","","","","","","","","","","","","","","","","","","","","","","","","","","","","","","","","","","","","","",""
"231200.90000000596","","","","survey-template","18","1043064","0.0-7.0-7.0","27","1","2025-07-09 09:06:48","7701e855f2ef39aa3fd6c71abdc6918a","187.190.161.228","Mozilla/5.0 (Windows NT 10.0; Win64; x64) AppleWebKit/537.36 (KHTML, like Gecko) Chrome/138.0.0.0 Safari/537.36","WebKit","Chrome","138.0.0.0","Windows","10.0","https://app.prolific.com/","es-US,es-419;q=0.9,es;q=0.8","610c6c0904a537eaadf52096","686d226cabeef709c732f8e1","686e31244f373a2c40936d25","610c6c0904a537eaadf52096","2025-07-09T09:24:14.456Z","","","","","","drsp","{""Q01"":""4"",""Q02"":""4"",""Q03"":""4"",""Q04"":""4"",""Q05"":""5"",""Q06"":""3"",""Q07"":""4"",""Q08"":""5"",""Q09"":""5"",""Q10"":""5"",""Q11"":""5"",""Q12"":""5"",""Q13"":""5"",""Q14"":""5"",""Q15"":""3"",""Q16"":""4"",""Q17"":""4"",""Q18"":""4"",""Q19"":""5"",""Q20"":""4"",""Q21"":""4""}","[0,1,2,3,4,5,6,7,8,9,10,11,12,13,14,15,16,17,18,19,20]","[""Q01"",""Q02"",""Q03"",""Q04"",""Q05"",""Q06"",""Q07"",""Q08"",""Q09"",""Q10"",""Q11"",""Q12"",""Q13"",""Q14"",""Q15"",""Q16"",""Q16"",""Q17"",""Q19"",""Q18"",""Q18"",""Q20"",""Q21""]","[8774,63445.90000000596,75646,78829.90000000596,83678.10000000894,91926.20000000298,99229.79999999702,103533.79999999702,112238,120406.5,124669.79999999702,127597.79999999702,133622.10000000894,140262,156454,165398.5,170582,174493.79999999702,186846.10000000894,190478,194069.90000000596,219894,230270]","[]","[0.10000000894069672,4165.5,4998.100000008941,8774,14373.70000000298,15118.20000000298,63445.90000000596,72318,73030.29999999702,75646,78829.90000000596,80573.79999999702,81126.20000000298,83678.10000000894,86165.70000000298,86766.10000000894,91926.20000000298,95109.70000000298,99229.79999999702,102038.20000000298,103533.79999999702,107646.60000000894,108814.20000000298,112238,115574,116406.10000000894,120406.5,123238,124669.79999999702,127597.79999999702,129911.10000000894,130654.29999999702,133622.10000000894,136141.79999999702,137398.5,140262,143222.79999999702,143750.40000000596,156454,160535.10000000894,161150.29999999702,165398.5,170582,172533.90000000596,174493.79999999702,178190.40000000596,179206.5,186846.10000000894,190478,192885.90000000596,194069.90000000596,196638.29999999702,208062.10000000894,208678.29999999702,219894,222622,223222.29999999702,227918.5,230270,231199]","0.47619047619047616","0.3","0","","","","","","","","","","","","","","","","","","","","","","","","","","","","","",""
"36355.40000000596","","","","survey-template","19","1079422","0.0-7.0-8.0","27","1","2025-07-09 09:06:48","7701e855f2ef39aa3fd6c71abdc6918a","187.190.161.228","Mozilla/5.0 (Windows NT 10.0; Win64; x64) AppleWebKit/537.36 (KHTML, like Gecko) Chrome/138.0.0.0 Safari/537.36","WebKit","Chrome","138.0.0.0","Windows","10.0","https://app.prolific.com/","es-US,es-419;q=0.9,es;q=0.8","610c6c0904a537eaadf52096","686d226cabeef709c732f8e1","686e31244f373a2c40936d25","610c6c0904a537eaadf52096","2025-07-09T09:24:50.814Z","","","","","","stress","{""Q01"":""4"",""Q02"":""3"",""Q03"":""4""}","[0,1,2]","[""Q01"",""Q02"",""Q02"",""Q03""]","[6546.79999999702,16035.20000000298,23850.79999999702,35442.79999999702]","[]","[2946.5999999940395,3643,6546.79999999702,8491.09999999404,9283.59999999404,14442.79999999702,16035.20000000298,23850.79999999702,28522.70000000298,29291.59999999404,35442.79999999702,36355.09999999404]","0.6666666666666666","0","0","","","","","","","","","","","","","","","","","","","","","","","","","","","","","",""
"237319","","","","instructions","20","1316741","0.0-8.0-0.0","27","1","2025-07-09 09:06:48","7701e855f2ef39aa3fd6c71abdc6918a","187.190.161.228","Mozilla/5.0 (Windows NT 10.0; Win64; x64) AppleWebKit/537.36 (KHTML, like Gecko) Chrome/138.0.0.0 Safari/537.36","WebKit","Chrome","138.0.0.0","Windows","10.0","https://app.prolific.com/","es-US,es-419;q=0.9,es;q=0.8","610c6c0904a537eaadf52096","686d226cabeef709c732f8e1","686e31244f373a2c40936d25","610c6c0904a537eaadf52096","","[{""page_index"":0,""viewing_time"":170206},{""page_index"":1,""viewing_time"":29600},{""page_index"":2,""viewing_time"":7440},{""page_index"":3,""viewing_time"":30072}]","","","","","","","","","","","","","","","","","","","","","","","","","","","","","","","","","","","","","","","","","","","",""
"","","","","ctl-task-cpt","21","1343232","0.0-8.0-1.0","27","1","2025-07-09 09:06:48","7701e855f2ef39aa3fd6c71abdc6918a","187.190.161.228","Mozilla/5.0 (Windows NT 10.0; Win64; x64) AppleWebKit/537.36 (KHTML, like Gecko) Chrome/138.0.0.0 Safari/537.36","WebKit","Chrome","138.0.0.0","Windows","10.0","https://app.prolific.com/","es-US,es-419;q=0.9,es;q=0.8","610c6c0904a537eaadf52096","686d226cabeef709c732f8e1","686e31244f373a2c40936d25","610c6c0904a537eaadf52096","","","","","","","","","","","","","","","","","win-only","0","g1:NW,g2:SE","1","0","1","1319115","4849.1","8852.1","23467.5","2","4","4","6","2","-4","-6","0","0","0","4003","4000","-2260","[""down"",""right""]","{""num_key_presses"":5,""num_perfect"":2,""num_errors"":2,""num_randdir"":0,""num_randdir_good_moves"":0,""num_whilered"":1,""num_whileblue"":0,""num_blue"":0,""num_good_moves"":2}","[348.14285714285717,351.04910714285717,0.2,347.14285714285717,351.04910714285717,101.7,347.14285714285717,351.04910714285717,207.1,347.14285714285717,351.04910714285717,317.8,347.14285714285717,351.04910714285717,421.1,347.14285714285717,351.04910714285717,521.4,347.14285714285717,351.04910714285717,623.6,335.14285714285717,333.04910714285717,726.9,323.14285714285717,312.04910714285717,837,317.14285714285717,306.04910714285717,941.1,315.14285714285717,305.04910714285717,1041.9,315.14285714285717,305.04910714285717,1152.2,313.14285714285717,304.04910714285717,1259.7,311.14285714285717,304.04910714285717,1362.9,311.14285714285717,304.04910714285717,1466.1,311.14285714285717,304.04910714285717,1567.3,311.14285714285717,304.04910714285717,1667.9,311.14285714285717,304.04910714285717,1771.3,311.14285714285717,304.04910714285717,1880.4,311.14285714285717,304.04910714285717,1994.2,311.14285714285717,304.04910714285717,2096.2,311.14285714285717,304.04910714285717,2201.3,311.14285714285717,304.04910714285717,2302.1,308.14285714285717,302.04910714285717,2416.2,307.14285714285717,301.04910714285717,2516.9,302.14285714285717,297.04910714285717,2621.2,304.14285714285717,294.04910714285717,2730.3,304.14285714285717,294.04910714285717,2832.9,304.14285714285717,294.04910714285717,2936.1,309.14285714285717,297.04910714285717,3037.2,303.14285714285717,296.04910714285717,3137.9,300.14285714285717,295.04910714285717,3237.9,298.14285714285717,295.04910714285717,3362.4,298.14285714285717,295.04910714285717,3477.6,298.14285714285717,295.04910714285717,3592.4,298.14285714285717,295.04910714285717,3696.9,298.14285714285717,295.04910714285717,3797.8,298.14285714285717,295.04910714285717,3903]","[4135.8,4135.8,1000,0,3135.8,""smooth"",""down"",""down"",""good_move"",4631.5,495.3,1709.2,4136.2,-1213.9,""error"",""-"",""-"",""no_move"",4843.2,211.4,1709.2,4136.2,-1002.2,""while_red"",""-"",""-"",""no_move"",10014.4,5382.6,2599.4,5633.1,1781.9,""smooth"",""right"",""right"",""good_move"",10980.2,965.6,2991,10014.6,-2025.4,""error"",""-"",""-"",""no_move""]","","",""
"51021","","","","instructions","22","1394253","0.0-8.0-2.0","27","1","2025-07-09 09:06:48","7701e855f2ef39aa3fd6c71abdc6918a","187.190.161.228","Mozilla/5.0 (Windows NT 10.0; Win64; x64) AppleWebKit/537.36 (KHTML, like Gecko) Chrome/138.0.0.0 Safari/537.36","WebKit","Chrome","138.0.0.0","Windows","10.0","https://app.prolific.com/","es-US,es-419;q=0.9,es;q=0.8","610c6c0904a537eaadf52096","686d226cabeef709c732f8e1","686e31244f373a2c40936d25","610c6c0904a537eaadf52096","","[{""page_index"":0,""viewing_time"":51020}]","","","","","","","","","","","","","","","","","","","","","","","","","","","","","","","","","","","","","","","","","","","",""
"","","","","ctl-task-cpt","23","1426649","0.0-8.0-3.0","27","1","2025-07-09 09:06:48","7701e855f2ef39aa3fd6c71abdc6918a","187.190.161.228","Mozilla/5.0 (Windows NT 10.0; Win64; x64) AppleWebKit/537.36 (KHTML, like Gecko) Chrome/138.0.0.0 Safari/537.36","WebKit","Chrome","138.0.0.0","Windows","10.0","https://app.prolific.com/","es-US,es-419;q=0.9,es;q=0.8","610c6c0904a537eaadf52096","686d226cabeef709c732f8e1","686e31244f373a2c40936d25","610c6c0904a537eaadf52096","","","","","","","","","","","","","","","","","win-only","0","g1:NW,g2:SE","0.35","0","3","1396626.7","1918.1","5921.6","29380.7","2","4","8","6","1","-2","-3","0","0","0","4003.5","4000","-2260","[""left"",""up""]","{""num_key_presses"":8,""num_perfect"":3,""num_errors"":1,""num_randdir"":4,""num_randdir_good_moves"":1,""num_whilered"":0,""num_whileblue"":0,""num_blue"":0,""num_good_moves"":3}","[349.14285714285717,352.04910714285717,0.2,349.14285714285717,352.04910714285717,114.8,349.14285714285717,352.04910714285717,219,349.14285714285717,352.04910714285717,324.8,349.14285714285717,352.04910714285717,427.8,349.14285714285717,352.04910714285717,528.6,349.14285714285717,352.04910714285717,632.6,349.14285714285717,352.04910714285717,746.4,349.14285714285717,352.04910714285717,861,349.14285714285717,352.04910714285717,962.1,349.14285714285717,352.04910714285717,1063,349.14285714285717,352.04910714285717,1169.9,349.14285714285717,352.04910714285717,1273.7,349.14285714285717,352.04910714285717,1375.2,349.14285714285717,352.04910714285717,1475.5,349.14285714285717,352.04910714285717,1577.7,349.14285714285717,352.04910714285717,1678.2,349.14285714285717,352.04910714285717,1778.5,349.14285714285717,352.04910714285717,1892.8,349.14285714285717,352.04910714285717,1996.5,349.14285714285717,352.04910714285717,2104.6,349.14285714285717,352.04910714285717,2207.7,349.14285714285717,352.04910714285717,2312.5,351.14285714285717,356.04910714285717,2412.6,357.14285714285717,367.04910714285717,2516.5,359.14285714285717,375.04910714285717,2632.3,361.14285714285717,378.04910714285717,2754.6,361.14285714285717,378.04910714285717,2866.8,361.14285714285717,378.04910714285717,2967.5,361.14285714285717,378.04910714285717,3067.7,361.14285714285717,378.04910714285717,3179.8,361.14285714285717,378.04910714285717,3282.4,361.14285714285717,378.04910714285717,3385.6,361.14285714285717,378.04910714285717,3501,361.14285714285717,378.04910714285717,3601.6,361.14285714285717,378.04910714285717,3702.6,361.14285714285717,378.04910714285717,3817.9,361.14285714285717,378.04910714285717,3935.4]","[1876.1,1876.1,1000,0,876.1,""smooth"",""down"",""down"",""bad_move"",5535.7,3659.2,2564.7,1876.5,1094.5,""oops"",""left"",""right"",""bad_move"",7908.7,2372.8,1876.9,5535.9,495.9,""smooth"",""up"",""up"",""good_move"",8281.6,372.6,2938.7,7909,-2566.1,""error"",""-"",""-"",""no_move"",12318.4,4036.6,2366.5,9302.7,649.2,""oops"",""up"",""right"",""bad_move"",14933.9,2615.3,1967,12318.6,648.3,""smooth"",""left"",""left"",""good_move"",18087.5,3153.3,2640.6,14934.2,512.7,""oops"",""left"",""left"",""good_move"",20766.1,2678.4,2170.3,18087.7,508.1,""oops"",""left"",""down"",""bad_move""]","","",""
"56188","","","","instructions","24","1482837","0.0-8.0-4.0","27","1","2025-07-09 09:06:48","7701e855f2ef39aa3fd6c71abdc6918a","187.190.161.228","Mozilla/5.0 (Windows NT 10.0; Win64; x64) AppleWebKit/537.36 (KHTML, like Gecko) Chrome/138.0.0.0 Safari/537.36","WebKit","Chrome","138.0.0.0","Windows","10.0","https://app.prolific.com/","es-US,es-419;q=0.9,es;q=0.8","610c6c0904a537eaadf52096","686d226cabeef709c732f8e1","686e31244f373a2c40936d25","610c6c0904a537eaadf52096","","[{""page_index"":0,""viewing_time"":19340},{""page_index"":1,""viewing_time"":36848}]","","","","","","","","","","","","","","","","","","","","","","","","","","","","","","","","","","","","","","","","","","","",""
"38342","","","{""green_ball"":[""Ball always moves in the direction I press"",""Ball sometimes shakes and moves in a random direction""]}","survey-multi-select","25","1521182","0.0-8.0-5.0-0.0","27","1","2025-07-09 09:06:48","7701e855f2ef39aa3fd6c71abdc6918a","187.190.161.228","Mozilla/5.0 (Windows NT 10.0; Win64; x64) AppleWebKit/537.36 (KHTML, like Gecko) Chrome/138.0.0.0 Safari/537.36","WebKit","Chrome","138.0.0.0","Windows","10.0","https://app.prolific.com/","es-US,es-419;q=0.9,es;q=0.8","610c6c0904a537eaadf52096","686d226cabeef709c732f8e1","686e31244f373a2c40936d25","610c6c0904a537eaadf52096","","","[0]","","","","quiz","","","","","","","","","","","","","","","","","","","","","","","","","","","","","","","","","","","","","false","",""
"18110","","<p align='center'><b>INCORRECT.</b> Usually the green ball moves in the indicated direction, but sometimes it shakes and moves randomly. </p>","0","html-button-response","26","1539293","0.0-8.0-5.0-1.0","27","1","2025-07-09 09:06:48","7701e855f2ef39aa3fd6c71abdc6918a","187.190.161.228","Mozilla/5.0 (Windows NT 10.0; Win64; x64) AppleWebKit/537.36 (KHTML, like Gecko) Chrome/138.0.0.0 Safari/537.36","WebKit","Chrome","138.0.0.0","Windows","10.0","https://app.prolific.com/","es-US,es-419;q=0.9,es;q=0.8","610c6c0904a537eaadf52096","686d226cabeef709c732f8e1","686e31244f373a2c40936d25","610c6c0904a537eaadf52096","","","","","","","","","","","","","","","","","","","","","","","","","","","","","","","","","","","","","","","","","","","","","",""
"38711","","","{""green_ball"":[""Ball sometimes shakes and moves in a random direction""]}","survey-multi-select","27","1578006","0.0-8.0-5.1-0.1","27","1","2025-07-09 09:06:48","7701e855f2ef39aa3fd6c71abdc6918a","187.190.161.228","Mozilla/5.0 (Windows NT 10.0; Win64; x64) AppleWebKit/537.36 (KHTML, like Gecko) Chrome/138.0.0.0 Safari/537.36","WebKit","Chrome","138.0.0.0","Windows","10.0","https://app.prolific.com/","es-US,es-419;q=0.9,es;q=0.8","610c6c0904a537eaadf52096","686d226cabeef709c732f8e1","686e31244f373a2c40936d25","610c6c0904a537eaadf52096","","","[0]","","","","quiz","","","","","","","","","","","","","","","","","","","","","","","","","","","","","","","","","","","","","true","",""
"2438","","<p align='center'><b>CORRECT!</b> Indeed, the green ball may sometimes shake and move in a random direction.</p>","0","html-button-response","28","1580445","0.0-8.0-5.1-1.1","27","1","2025-07-09 09:06:48","7701e855f2ef39aa3fd6c71abdc6918a","187.190.161.228","Mozilla/5.0 (Windows NT 10.0; Win64; x64) AppleWebKit/537.36 (KHTML, like Gecko) Chrome/138.0.0.0 Safari/537.36","WebKit","Chrome","138.0.0.0","Windows","10.0","https://app.prolific.com/","es-US,es-419;q=0.9,es;q=0.8","610c6c0904a537eaadf52096","686d226cabeef709c732f8e1","686e31244f373a2c40936d25","610c6c0904a537eaadf52096","","","","","","","","","","","","","","","","","","","","","","","","","","","","","","","","","","","","","","","","","","","","","",""
"6630","","","{""yellow_ball"":[""Ball doesn‘t move and I get -1 penalty point""]}","survey-multi-select","29","1587077","0.0-8.0-6.0-0.0","27","1","2025-07-09 09:06:48","7701e855f2ef39aa3fd6c71abdc6918a","187.190.161.228","Mozilla/5.0 (Windows NT 10.0; Win64; x64) AppleWebKit/537.36 (KHTML, like Gecko) Chrome/138.0.0.0 Safari/537.36","WebKit","Chrome","138.0.0.0","Windows","10.0","https://app.prolific.com/","es-US,es-419;q=0.9,es;q=0.8","610c6c0904a537eaadf52096","686d226cabeef709c732f8e1","686e31244f373a2c40936d25","610c6c0904a537eaadf52096","","","[0]","","","","quiz","","","","","","","","","","","","","","","","","","","","","","","","","","","","","","","","","","","","","true","",""
"1807","","<p align='center'><b>CORRECT!</b> Indeed, the yellow ball never moves and you receive a penalty.</p>","0","html-button-response","30","1588885","0.0-8.0-6.0-1.0","27","1","2025-07-09 09:06:48","7701e855f2ef39aa3fd6c71abdc6918a","187.190.161.228","Mozilla/5.0 (Windows NT 10.0; Win64; x64) AppleWebKit/537.36 (KHTML, like Gecko) Chrome/138.0.0.0 Safari/537.36","WebKit","Chrome","138.0.0.0","Windows","10.0","https://app.prolific.com/","es-US,es-419;q=0.9,es;q=0.8","610c6c0904a537eaadf52096","686d226cabeef709c732f8e1","686e31244f373a2c40936d25","610c6c0904a537eaadf52096","","","","","","","","","","","","","","","","","","","","","","","","","","","","","","","","","","","","","","","","","","","","","",""
"5759","","","{""blue_ball"":[""Ball doesn‘t move and I get -1 penalty point""]}","survey-multi-select","31","1594646","0.0-8.0-7.0-0.0","27","1","2025-07-09 09:06:48","7701e855f2ef39aa3fd6c71abdc6918a","187.190.161.228","Mozilla/5.0 (Windows NT 10.0; Win64; x64) AppleWebKit/537.36 (KHTML, like Gecko) Chrome/138.0.0.0 Safari/537.36","WebKit","Chrome","138.0.0.0","Windows","10.0","https://app.prolific.com/","es-US,es-419;q=0.9,es;q=0.8","610c6c0904a537eaadf52096","686d226cabeef709c732f8e1","686e31244f373a2c40936d25","610c6c0904a537eaadf52096","","","[0]","","","","quiz","","","","","","","","","","","","","","","","","","","","","","","","","","","","","","","","","","","","","false","",""
"4175","","<p align='center'><b>INCORRECT.</b> The blue ball always shakes and moves randomly.</p>","0","html-button-response","32","1598821","0.0-8.0-7.0-1.0","27","1","2025-07-09 09:06:48","7701e855f2ef39aa3fd6c71abdc6918a","187.190.161.228","Mozilla/5.0 (Windows NT 10.0; Win64; x64) AppleWebKit/537.36 (KHTML, like Gecko) Chrome/138.0.0.0 Safari/537.36","WebKit","Chrome","138.0.0.0","Windows","10.0","https://app.prolific.com/","es-US,es-419;q=0.9,es;q=0.8","610c6c0904a537eaadf52096","686d226cabeef709c732f8e1","686e31244f373a2c40936d25","610c6c0904a537eaadf52096","","","","","","","","","","","","","","","","","","","","","","","","","","","","","","","","","","","","","","","","","","","","","",""
"6767","","","{""blue_ball"":[""Ball always shakes and moves in a random direction""]}","survey-multi-select","33","1605589","0.0-8.0-7.1-0.1","27","1","2025-07-09 09:06:48","7701e855f2ef39aa3fd6c71abdc6918a","187.190.161.228","Mozilla/5.0 (Windows NT 10.0; Win64; x64) AppleWebKit/537.36 (KHTML, like Gecko) Chrome/138.0.0.0 Safari/537.36","WebKit","Chrome","138.0.0.0","Windows","10.0","https://app.prolific.com/","es-US,es-419;q=0.9,es;q=0.8","610c6c0904a537eaadf52096","686d226cabeef709c732f8e1","686e31244f373a2c40936d25","610c6c0904a537eaadf52096","","","[0]","","","","quiz","","","","","","","","","","","","","","","","","","","","","","","","","","","","","","","","","","","","","true","",""
"1231","","<p align='center'><b>CORRECT!</b> Indeed, the blue ball always shakes and moves in a random direction. Also there is a penalty of -1 point.</p>","0","html-button-response","34","1606821","0.0-8.0-7.1-1.1","27","1","2025-07-09 09:06:48","7701e855f2ef39aa3fd6c71abdc6918a","187.190.161.228","Mozilla/5.0 (Windows NT 10.0; Win64; x64) AppleWebKit/537.36 (KHTML, like Gecko) Chrome/138.0.0.0 Safari/537.36","WebKit","Chrome","138.0.0.0","Windows","10.0","https://app.prolific.com/","es-US,es-419;q=0.9,es;q=0.8","610c6c0904a537eaadf52096","686d226cabeef709c732f8e1","686e31244f373a2c40936d25","610c6c0904a537eaadf52096","","","","","","","","","","","","","","","","","","","","","","","","","","","","","","","","","","","","","","","","","","","","","",""
"5191","","","{""bonus"":[""When I reach 50% of points""]}","survey-multi-select","35","1612014","0.0-8.0-8.0-0.0","27","1","2025-07-09 09:06:48","7701e855f2ef39aa3fd6c71abdc6918a","187.190.161.228","Mozilla/5.0 (Windows NT 10.0; Win64; x64) AppleWebKit/537.36 (KHTML, like Gecko) Chrome/138.0.0.0 Safari/537.36","WebKit","Chrome","138.0.0.0","Windows","10.0","https://app.prolific.com/","es-US,es-419;q=0.9,es;q=0.8","610c6c0904a537eaadf52096","686d226cabeef709c732f8e1","686e31244f373a2c40936d25","610c6c0904a537eaadf52096","","","[0]","","","","quiz","","","","","","","","","","","","","","","","","","","","","","","","","","","","","","","","","","","","","true","",""
"1231","","<p align='center'><b>CORRECT!</b> Indeed, you receive 2 pounds extra when you reach 50% of points.</p>","0","html-button-response","36","1613246","0.0-8.0-8.0-1.0","27","1","2025-07-09 09:06:48","7701e855f2ef39aa3fd6c71abdc6918a","187.190.161.228","Mozilla/5.0 (Windows NT 10.0; Win64; x64) AppleWebKit/537.36 (KHTML, like Gecko) Chrome/138.0.0.0 Safari/537.36","WebKit","Chrome","138.0.0.0","Windows","10.0","https://app.prolific.com/","es-US,es-419;q=0.9,es;q=0.8","610c6c0904a537eaadf52096","686d226cabeef709c732f8e1","686e31244f373a2c40936d25","610c6c0904a537eaadf52096","","","","","","","","","","","","","","","","","","","","","","","","","","","","","","","","","","","","","","","","","","","","","",""
"6031","","","","instructions","37","1619277","0.0-8.0-9.0","27","1","2025-07-09 09:06:48","7701e855f2ef39aa3fd6c71abdc6918a","187.190.161.228","Mozilla/5.0 (Windows NT 10.0; Win64; x64) AppleWebKit/537.36 (KHTML, like Gecko) Chrome/138.0.0.0 Safari/537.36","WebKit","Chrome","138.0.0.0","Windows","10.0","https://app.prolific.com/","es-US,es-419;q=0.9,es;q=0.8","610c6c0904a537eaadf52096","686d226cabeef709c732f8e1","686e31244f373a2c40936d25","610c6c0904a537eaadf52096","","[{""page_index"":0,""viewing_time"":6030}]","","","","","","","","","","","","","","","","","","","","","","","","","","","","","","","","","","","","","","","","","","","",""
"33799","","<p>Before you start with this game please answer the following three questions yourself. </p>
  <p>Through this game, we measure several aspects of your cognitive performance, such as reaction times, multi-tasking capabilities </p>
  <p>and the ability to assess the situation you are in.</p>
  <p></p>
  <p><b>How good do you usually are in such tasks?</b></p>","0","html-slider-response","38","1653077","0.0-9.0-0.0","27","1","2025-07-09 09:06:48","7701e855f2ef39aa3fd6c71abdc6918a","187.190.161.228","Mozilla/5.0 (Windows NT 10.0; Win64; x64) AppleWebKit/537.36 (KHTML, like Gecko) Chrome/138.0.0.0 Safari/537.36","WebKit","Chrome","138.0.0.0","Windows","10.0","https://app.prolific.com/","es-US,es-419;q=0.9,es;q=0.8","610c6c0904a537eaadf52096","686d226cabeef709c732f8e1","686e31244f373a2c40936d25","610c6c0904a537eaadf52096","2025-07-09T09:34:24.469Z","","","","","","PreSkillQ","","","","","","","","","","","","","","","","","","","","","","","","","","","","","","","","","","","","","","50",""
"17646","","<div style=""width:500px;"">
  <p>How well do you think you will perform in this task compared to other participants?</p>
  </div>","0","html-slider-response","39","1670725","0.0-9.0-1.0","27","1","2025-07-09 09:06:48","7701e855f2ef39aa3fd6c71abdc6918a","187.190.161.228","Mozilla/5.0 (Windows NT 10.0; Win64; x64) AppleWebKit/537.36 (KHTML, like Gecko) Chrome/138.0.0.0 Safari/537.36","WebKit","Chrome","138.0.0.0","Windows","10.0","https://app.prolific.com/","es-US,es-419;q=0.9,es;q=0.8","610c6c0904a537eaadf52096","686d226cabeef709c732f8e1","686e31244f373a2c40936d25","610c6c0904a537eaadf52096","2025-07-09T09:34:42.117Z","","","","","","PrePerfQ","","","","","","","","","","","","","","","","","","","","","","","","","","","","","","","","","","","","","","50",""
"8510","","<div style=""width:500px;"">
  <p>What best describes how you currently feel?</p>
  </div>","23","html-slider-response","40","1679237","0.0-9.0-2.0","27","1","2025-07-09 09:06:48","7701e855f2ef39aa3fd6c71abdc6918a","187.190.161.228","Mozilla/5.0 (Windows NT 10.0; Win64; x64) AppleWebKit/537.36 (KHTML, like Gecko) Chrome/138.0.0.0 Safari/537.36","WebKit","Chrome","138.0.0.0","Windows","10.0","https://app.prolific.com/","es-US,es-419;q=0.9,es;q=0.8","610c6c0904a537eaadf52096","686d226cabeef709c732f8e1","686e31244f373a2c40936d25","610c6c0904a537eaadf52096","2025-07-09T09:34:50.629Z","","","","","","PreMotivationQ","","","","","","","","","","","","","","","","","","","","","","","","","","","","","","","","","","","","","","50",""
"","","","","ctl-task-cpt","41","1706236","0.0-10.0-0.0","27","1","2025-07-09 09:06:48","7701e855f2ef39aa3fd6c71abdc6918a","187.190.161.228","Mozilla/5.0 (Windows NT 10.0; Win64; x64) AppleWebKit/537.36 (KHTML, like Gecko) Chrome/138.0.0.0 Safari/537.36","WebKit","Chrome","138.0.0.0","Windows","10.0","https://app.prolific.com/","es-US,es-419;q=0.9,es;q=0.8","610c6c0904a537eaadf52096","686d226cabeef709c732f8e1","686e31244f373a2c40936d25","610c6c0904a537eaadf52096","2025-07-09T09:35:17.628Z","","","","","","","","","","","","","","","","win-only","2","g1:SE,g2:NW","1","1","0","1681610.7","2943","7955.8","23976.5","1","4","4","6","1","1","1","1","0","0.007575757575757576","5012.8","3000","1330","[""down"",""right""]","{""num_key_presses"":4,""num_perfect"":4,""num_errors"":0,""num_randdir"":0,""num_randdir_good_moves"":0,""num_whilered"":0,""num_whileblue"":0,""num_blue"":1,""num_good_moves"":4}","[348.14285714285717,348.04910714285717,0.3,347.14285714285717,352.04910714285717,106,347.14285714285717,352.04910714285717,215.7,347.14285714285717,352.04910714285717,318.3,347.14285714285717,352.04910714285717,422.7,347.14285714285717,352.04910714285717,526.2,347.14285714285717,353.04910714285717,639,358.14285714285717,385.04910714285717,745.6,366.14285714285717,404.04910714285717,867.6,366.14285714285717,404.04910714285717,972.5,366.14285714285717,404.04910714285717,1072.7,366.14285714285717,404.04910714285717,1173,366.14285714285717,404.04910714285717,1277.5,366.14285714285717,404.04910714285717,1378.6,366.14285714285717,404.04910714285717,1478.6,366.14285714285717,404.04910714285717,1590.1,366.14285714285717,404.04910714285717,1693.4,366.14285714285717,404.04910714285717,1797.2,366.14285714285717,404.04910714285717,1898.9,366.14285714285717,404.04910714285717,2004.8,366.14285714285717,404.04910714285717,2114.1,366.14285714285717,404.04910714285717,2221,366.14285714285717,404.04910714285717,2323.7,366.14285714285717,404.04910714285717,2427.9,366.14285714285717,404.04910714285717,2528.8,366.14285714285717,404.04910714285717,2632.3,366.14285714285717,404.04910714285717,2732.4,366.14285714285717,404.04910714285717,2832.7,366.14285714285717,404.04910714285717,2938.1,366.14285714285717,404.04910714285717,3046.1,366.14285714285717,404.04910714285717,3161,366.14285714285717,404.04910714285717,3262.8,366.14285714285717,404.04910714285717,3367.9,366.14285714285717,404.04910714285717,3472.5,366.14285714285717,404.04910714285717,3594.8,366.14285714285717,404.04910714285717,3698.7,366.14285714285717,404.04910714285717,3802.2,368.14285714285717,405.04910714285717,3913.9,381.14285714285717,411.04910714285717,4039.5,390.14285714285717,413.04910714285717,4142.7,390.14285714285717,413.04910714285717,4246.6,405.14285714285717,410.04910714285717,4347.6,412.14285714285717,407.04910714285717,4448.2,412.14285714285717,407.04910714285717,4548.5,412.14285714285717,407.04910714285717,4657.4,412.14285714285717,407.04910714285717,4765.8,412.14285714285717,407.04910714285717,4870.4,412.14285714285717,407.04910714285717,4984.9]","[1844.7,1844.7,1000,0,844.7,""smooth"",""down"",""down"",""good_move"",6099.1,4254,3712.2,1845.1,541.8,""smooth"",""down"",""down"",""good_move"",8985.3,2886,2469.9,6099.3,416.1,""smooth"",""right"",""right"",""good_move"",15908.3,6922.6,2676.9,12705.2,526.3,""smooth"",""right"",""right"",""good_move""]","","",""
"15872","","<div style=""width:500px;"">
  <p>What determined the result of this run?</p>
  </div>","79","html-slider-response","42","1722110","0.0-10.0-1.0","27","1","2025-07-09 09:06:48","7701e855f2ef39aa3fd6c71abdc6918a","187.190.161.228","Mozilla/5.0 (Windows NT 10.0; Win64; x64) AppleWebKit/537.36 (KHTML, like Gecko) Chrome/138.0.0.0 Safari/537.36","WebKit","Chrome","138.0.0.0","Windows","10.0","https://app.prolific.com/","es-US,es-419;q=0.9,es;q=0.8","610c6c0904a537eaadf52096","686d226cabeef709c732f8e1","686e31244f373a2c40936d25","610c6c0904a537eaadf52096","2025-07-09T09:35:33.502Z","","","","","","AttribQ","","","","","","","","","","","","","","","","","","","","","","","","","","","","","","","","","","","","","","50",""
"4670","","<div style=""width:500px;"">
  <p>How much control did you have over the ball?</p>
  </div>","78","html-slider-response","43","1726781","0.0-10.0-2.0","27","1","2025-07-09 09:06:48","7701e855f2ef39aa3fd6c71abdc6918a","187.190.161.228","Mozilla/5.0 (Windows NT 10.0; Win64; x64) AppleWebKit/537.36 (KHTML, like Gecko) Chrome/138.0.0.0 Safari/537.36","WebKit","Chrome","138.0.0.0","Windows","10.0","https://app.prolific.com/","es-US,es-419;q=0.9,es;q=0.8","610c6c0904a537eaadf52096","686d226cabeef709c732f8e1","686e31244f373a2c40936d25","610c6c0904a537eaadf52096","2025-07-09T09:35:38.173Z","","","","","","ControlQ","","","","","","","","","","","","","","","","","","","","","","","","","","","","","","","","","","","","","","50",""
"6975","","<div style=""width:500px;"">
  <p>How would you describe your current emotional state?</p>
  </div>","19","html-slider-response","44","1733757","0.0-10.0-3.0","27","1","2025-07-09 09:06:48","7701e855f2ef39aa3fd6c71abdc6918a","187.190.161.228","Mozilla/5.0 (Windows NT 10.0; Win64; x64) AppleWebKit/537.36 (KHTML, like Gecko) Chrome/138.0.0.0 Safari/537.36","WebKit","Chrome","138.0.0.0","Windows","10.0","https://app.prolific.com/","es-US,es-419;q=0.9,es;q=0.8","610c6c0904a537eaadf52096","686d226cabeef709c732f8e1","686e31244f373a2c40936d25","610c6c0904a537eaadf52096","2025-07-09T09:35:45.149Z","","","","","","StressQ","","","","","","","","","","","","","","","","","","","","","","","","","","","","","","","","","","","","","","50",""
"5567","","<div style=""width:500px;"">
  <p>What best describes how you currently feel?</p>
  </div>","67","html-slider-response","45","1739326","0.0-10.0-4.0","27","1","2025-07-09 09:06:48","7701e855f2ef39aa3fd6c71abdc6918a","187.190.161.228","Mozilla/5.0 (Windows NT 10.0; Win64; x64) AppleWebKit/537.36 (KHTML, like Gecko) Chrome/138.0.0.0 Safari/537.36","WebKit","Chrome","138.0.0.0","Windows","10.0","https://app.prolific.com/","es-US,es-419;q=0.9,es;q=0.8","610c6c0904a537eaadf52096","686d226cabeef709c732f8e1","686e31244f373a2c40936d25","610c6c0904a537eaadf52096","2025-07-09T09:35:50.718Z","","","","","","MotivationQ","","","","","","","","","","","","","","","","","","","","","","","","","","","","","","","","","","","","","","50",""
"","","","","ctl-task-cpt","46","1787502","0.0-10.0-0.1","27","1","2025-07-09 09:06:48","7701e855f2ef39aa3fd6c71abdc6918a","187.190.161.228","Mozilla/5.0 (Windows NT 10.0; Win64; x64) AppleWebKit/537.36 (KHTML, like Gecko) Chrome/138.0.0.0 Safari/537.36","WebKit","Chrome","138.0.0.0","Windows","10.0","https://app.prolific.com/","es-US,es-419;q=0.9,es;q=0.8","610c6c0904a537eaadf52096","686d226cabeef709c732f8e1","686e31244f373a2c40936d25","610c6c0904a537eaadf52096","2025-07-09T09:36:38.894Z","","","","","","","","","","","","","","","","win-only","0","g1:NW,g2:SE","0.9","2","0","1741699.1","1850.3","6850.8","45161.2","1","4","8","6","1","-1","-2","0","1","0","5000.5","3000","-2070","[""left"",""up""]","{""num_key_presses"":10,""num_perfect"":8,""num_errors"":1,""num_randdir"":1,""num_randdir_good_moves"":0,""num_whilered"":0,""num_whileblue"":0,""num_blue"":2,""num_good_moves"":5}","[351.14285714285717,341.04910714285717,0.1,351.14285714285717,342.04910714285717,100.3,351.14285714285717,342.04910714285717,205.2,351.14285714285717,342.04910714285717,312.4,351.14285714285717,342.04910714285717,415,351.14285714285717,342.04910714285717,521.8,351.14285714285717,342.04910714285717,627.9,351.14285714285717,342.04910714285717,729.9,351.14285714285717,342.04910714285717,842.3,351.14285714285717,342.04910714285717,955.1,351.14285714285717,342.04910714285717,1059,351.14285714285717,342.04910714285717,1160,351.14285714285717,342.04910714285717,1264.8,351.14285714285717,342.04910714285717,1365.2,351.14285714285717,342.04910714285717,1468,351.14285714285717,342.04910714285717,1570.4,351.14285714285717,342.04910714285717,1684.7,351.14285714285717,342.04910714285717,1789.3,351.14285714285717,342.04910714285717,1890.5,351.14285714285717,342.04910714285717,1995.3,351.14285714285717,342.04910714285717,2095.5,351.14285714285717,342.04910714285717,2196.6,351.14285714285717,342.04910714285717,2301.9,351.14285714285717,342.04910714285717,2406.2,351.14285714285717,342.04910714285717,2511.1,351.14285714285717,342.04910714285717,2617.5,351.14285714285717,342.04910714285717,2719.5,351.14285714285717,342.04910714285717,2825.4,351.14285714285717,342.04910714285717,2934.5,351.14285714285717,342.04910714285717,3045.3,351.14285714285717,342.04910714285717,3146.8,351.14285714285717,342.04910714285717,3270.1,351.14285714285717,342.04910714285717,3371.5,351.14285714285717,342.04910714285717,3487.8,351.14285714285717,342.04910714285717,3590.7,351.14285714285717,342.04910714285717,3696.6,351.14285714285717,342.04910714285717,3816.5,351.14285714285717,342.04910714285717,3918.6,351.14285714285717,342.04910714285717,4038.9,351.14285714285717,342.04910714285717,4151.5,351.14285714285717,342.04910714285717,4252.3,351.14285714285717,342.04910714285717,4361.6,351.14285714285717,342.04910714285717,4465.1,351.14285714285717,342.04910714285717,4579,351.14285714285717,342.04910714285717,4680.3,351.14285714285717,342.04910714285717,4786.6,351.14285714285717,342.04910714285717,4891.6,351.14285714285717,342.04910714285717,4996.3]","[1743.1,1743.1,1000,0,743.1,""smooth"",""down"",""down"",""bad_move"",4849.2,3105.8,2751.5,1743.4,354.3,""smooth"",""down"",""down"",""bad_move"",11605.8,6756.2,2368,8825.6,412.2,""smooth"",""down"",""down"",""bad_move"",14989,3383,2804.4,11606,578.6,""smooth"",""left"",""left"",""good_move"",18312.7,3323.4,2855.9,14989.3,467.5,""smooth"",""left"",""left"",""good_move"",21268.1,2955.2,2534.6,18312.9,420.6,""smooth"",""up"",""up"",""good_move"",25057,3788.5,3274,24979.3,-3196.3,""error"",""-"",""-"",""no_move"",28588.7,3531.4,2084.2,26059.5,445,""oops"",""up"",""right"",""bad_move"",31833,3244,2892.9,28589,351.1,""smooth"",""up"",""up"",""good_move"",34836.7,3003.5,2607.9,31833.2,395.6,""smooth"",""up"",""up"",""good_move""]","","",""
"4943","","<div style=""width:500px;"">
  <p>What determined the result of this run?</p>
  </div>","75","html-slider-response","47","1792446","0.0-10.0-1.1","27","1","2025-07-09 09:06:48","7701e855f2ef39aa3fd6c71abdc6918a","187.190.161.228","Mozilla/5.0 (Windows NT 10.0; Win64; x64) AppleWebKit/537.36 (KHTML, like Gecko) Chrome/138.0.0.0 Safari/537.36","WebKit","Chrome","138.0.0.0","Windows","10.0","https://app.prolific.com/","es-US,es-419;q=0.9,es;q=0.8","610c6c0904a537eaadf52096","686d226cabeef709c732f8e1","686e31244f373a2c40936d25","610c6c0904a537eaadf52096","2025-07-09T09:36:43.838Z","","","","","","AttribQ","","","","","","","","","","","","","","","","","","","","","","","","","","","","","","","","","","","","","","50",""
"4799","","<div style=""width:500px;"">
  <p>How much control did you have over the ball?</p>
  </div>","17","html-slider-response","48","1797245","0.0-10.0-2.1","27","1","2025-07-09 09:06:48","7701e855f2ef39aa3fd6c71abdc6918a","187.190.161.228","Mozilla/5.0 (Windows NT 10.0; Win64; x64) AppleWebKit/537.36 (KHTML, like Gecko) Chrome/138.0.0.0 Safari/537.36","WebKit","Chrome","138.0.0.0","Windows","10.0","https://app.prolific.com/","es-US,es-419;q=0.9,es;q=0.8","610c6c0904a537eaadf52096","686d226cabeef709c732f8e1","686e31244f373a2c40936d25","610c6c0904a537eaadf52096","2025-07-09T09:36:48.637Z","","","","","","ControlQ","","","","","","","","","","","","","","","","","","","","","","","","","","","","","","","","","","","","","","50",""
"3295","","<div style=""width:500px;"">
  <p>How would you describe your current emotional state?</p>
  </div>","65","html-slider-response","49","1800541","0.0-10.0-3.1","27","1","2025-07-09 09:06:48","7701e855f2ef39aa3fd6c71abdc6918a","187.190.161.228","Mozilla/5.0 (Windows NT 10.0; Win64; x64) AppleWebKit/537.36 (KHTML, like Gecko) Chrome/138.0.0.0 Safari/537.36","WebKit","Chrome","138.0.0.0","Windows","10.0","https://app.prolific.com/","es-US,es-419;q=0.9,es;q=0.8","610c6c0904a537eaadf52096","686d226cabeef709c732f8e1","686e31244f373a2c40936d25","610c6c0904a537eaadf52096","2025-07-09T09:36:51.934Z","","","","","","StressQ","","","","","","","","","","","","","","","","","","","","","","","","","","","","","","","","","","","","","","50",""
"3272","","<div style=""width:500px;"">
  <p>What best describes how you currently feel?</p>
  </div>","63","html-slider-response","50","1803814","0.0-10.0-4.1","27","1","2025-07-09 09:06:48","7701e855f2ef39aa3fd6c71abdc6918a","187.190.161.228","Mozilla/5.0 (Windows NT 10.0; Win64; x64) AppleWebKit/537.36 (KHTML, like Gecko) Chrome/138.0.0.0 Safari/537.36","WebKit","Chrome","138.0.0.0","Windows","10.0","https://app.prolific.com/","es-US,es-419;q=0.9,es;q=0.8","610c6c0904a537eaadf52096","686d226cabeef709c732f8e1","686e31244f373a2c40936d25","610c6c0904a537eaadf52096","2025-07-09T09:36:55.206Z","","","","","","MotivationQ","","","","","","","","","","","","","","","","","","","","","","","","","","","","","","","","","","","","","","50",""
"","","","","ctl-task-cpt","51","1828397","0.0-10.0-0.2","27","1","2025-07-09 09:06:48","7701e855f2ef39aa3fd6c71abdc6918a","187.190.161.228","Mozilla/5.0 (Windows NT 10.0; Win64; x64) AppleWebKit/537.36 (KHTML, like Gecko) Chrome/138.0.0.0 Safari/537.36","WebKit","Chrome","138.0.0.0","Windows","10.0","https://app.prolific.com/","es-US,es-419;q=0.9,es;q=0.8","610c6c0904a537eaadf52096","686d226cabeef709c732f8e1","686e31244f373a2c40936d25","610c6c0904a537eaadf52096","2025-07-09T09:37:19.789Z","","","","","","","","","","","","","","","","win-only","2","g1:SE,g2:NW","0.8","3","0","1806187.3","957.8","5960","21556.1","1","4","4","6","2","4","4","4","0","0.030303030303030304","5002.2","3000","1455","[""left"",""up""]","{""num_key_presses"":6,""num_perfect"":6,""num_errors"":0,""num_randdir"":0,""num_randdir_good_moves"":0,""num_whilered"":0,""num_whileblue"":0,""num_blue"":0,""num_good_moves"":6}","[346.14285714285717,351.04910714285717,0.3,346.14285714285717,351.04910714285717,115.7,346.14285714285717,351.04910714285717,218.7,346.14285714285717,351.04910714285717,323.1,348.14285714285717,353.04910714285717,437.9,352.14285714285717,363.04910714285717,538.4,352.14285714285717,363.04910714285717,643.9,352.14285714285717,363.04910714285717,748.1,352.14285714285717,363.04910714285717,854,352.14285714285717,363.04910714285717,954.3,352.14285714285717,363.04910714285717,1057.7,352.14285714285717,363.04910714285717,1161.4,352.14285714285717,363.04910714285717,1264.5,352.14285714285717,363.04910714285717,1368.2,352.14285714285717,363.04910714285717,1472.9,352.14285714285717,363.04910714285717,1598.3,352.14285714285717,363.04910714285717,1698.3,352.14285714285717,363.04910714285717,1798.8,352.14285714285717,363.04910714285717,1898.9,352.14285714285717,363.04910714285717,1999.7,352.14285714285717,363.04910714285717,2104.1,352.14285714285717,363.04910714285717,2206.3,352.14285714285717,363.04910714285717,2307.7,352.14285714285717,363.04910714285717,2417.1,352.14285714285717,363.04910714285717,2518.9,352.14285714285717,363.04910714285717,2623.1,352.14285714285717,363.04910714285717,2743.3,352.14285714285717,363.04910714285717,2852.1,352.14285714285717,363.04910714285717,2953.1,352.14285714285717,363.04910714285717,3067.1,352.14285714285717,363.04910714285717,3175,352.14285714285717,363.04910714285717,3278,352.14285714285717,363.04910714285717,3378.4,352.14285714285717,363.04910714285717,3483.8,352.14285714285717,363.04910714285717,3597.2,352.14285714285717,363.04910714285717,3697.4,352.14285714285717,363.04910714285717,3798.7,352.14285714285717,363.04910714285717,3902.3,352.14285714285717,363.04910714285717,4002.7,352.14285714285717,363.04910714285717,4107.6,352.14285714285717,363.04910714285717,4229.8,352.14285714285717,363.04910714285717,4335.5,352.14285714285717,363.04910714285717,4439.2,352.14285714285717,363.04910714285717,4541.8,352.14285714285717,363.04910714285717,4652.2,352.14285714285717,363.04910714285717,4752.7,352.14285714285717,363.04910714285717,4858.4,352.14285714285717,363.04910714285717,4959]","[1401.1,1401.1,1000,0,401.1,""smooth"",""left"",""left"",""good_move"",4852.1,3450.7,3032.8,1401.4,417.9,""smooth"",""up"",""up"",""good_move"",7535.8,2683.4,2203.1,4852.4,480.3,""smooth"",""up"",""up"",""good_move"",10393.2,2857.2,2494.5,7536,362.7,""smooth"",""left"",""left"",""good_move"",12623.7,2230.2,1869.7,10393.5,360.5,""smooth"",""left"",""left"",""good_move"",15463.5,2839.8,2526.2,12623.8,313.5,""smooth"",""up"",""up"",""good_move""]","","",""
"5975","","<div style=""width:500px;"">
  <p>What determined the result of this run?</p>
  </div>","86","html-slider-response","52","1834374","0.0-10.0-1.2","27","1","2025-07-09 09:06:48","7701e855f2ef39aa3fd6c71abdc6918a","187.190.161.228","Mozilla/5.0 (Windows NT 10.0; Win64; x64) AppleWebKit/537.36 (KHTML, like Gecko) Chrome/138.0.0.0 Safari/537.36","WebKit","Chrome","138.0.0.0","Windows","10.0","https://app.prolific.com/","es-US,es-419;q=0.9,es;q=0.8","610c6c0904a537eaadf52096","686d226cabeef709c732f8e1","686e31244f373a2c40936d25","610c6c0904a537eaadf52096","2025-07-09T09:37:25.766Z","","","","","","AttribQ","","","","","","","","","","","","","","","","","","","","","","","","","","","","","","","","","","","","","","50",""
"3503","","<div style=""width:500px;"">
  <p>How much control did you have over the ball?</p>
  </div>","77","html-slider-response","53","1837877","0.0-10.0-2.2","27","1","2025-07-09 09:06:48","7701e855f2ef39aa3fd6c71abdc6918a","187.190.161.228","Mozilla/5.0 (Windows NT 10.0; Win64; x64) AppleWebKit/537.36 (KHTML, like Gecko) Chrome/138.0.0.0 Safari/537.36","WebKit","Chrome","138.0.0.0","Windows","10.0","https://app.prolific.com/","es-US,es-419;q=0.9,es;q=0.8","610c6c0904a537eaadf52096","686d226cabeef709c732f8e1","686e31244f373a2c40936d25","610c6c0904a537eaadf52096","2025-07-09T09:37:29.270Z","","","","","","ControlQ","","","","","","","","","","","","","","","","","","","","","","","","","","","","","","","","","","","","","","50",""
"3231","","<div style=""width:500px;"">
  <p>How would you describe your current emotional state?</p>
  </div>","24","html-slider-response","54","1841110","0.0-10.0-3.2","27","1","2025-07-09 09:06:48","7701e855f2ef39aa3fd6c71abdc6918a","187.190.161.228","Mozilla/5.0 (Windows NT 10.0; Win64; x64) AppleWebKit/537.36 (KHTML, like Gecko) Chrome/138.0.0.0 Safari/537.36","WebKit","Chrome","138.0.0.0","Windows","10.0","https://app.prolific.com/","es-US,es-419;q=0.9,es;q=0.8","610c6c0904a537eaadf52096","686d226cabeef709c732f8e1","686e31244f373a2c40936d25","610c6c0904a537eaadf52096","2025-07-09T09:37:32.502Z","","","","","","StressQ","","","","","","","","","","","","","","","","","","","","","","","","","","","","","","","","","","","","","","50",""
"5918","","<div style=""width:500px;"">
  <p>What best describes how you currently feel?</p>
  </div>","80","html-slider-response","55","1847029","0.0-10.0-4.2","27","1","2025-07-09 09:06:48","7701e855f2ef39aa3fd6c71abdc6918a","187.190.161.228","Mozilla/5.0 (Windows NT 10.0; Win64; x64) AppleWebKit/537.36 (KHTML, like Gecko) Chrome/138.0.0.0 Safari/537.36","WebKit","Chrome","138.0.0.0","Windows","10.0","https://app.prolific.com/","es-US,es-419;q=0.9,es;q=0.8","610c6c0904a537eaadf52096","686d226cabeef709c732f8e1","686e31244f373a2c40936d25","610c6c0904a537eaadf52096","2025-07-09T09:37:38.421Z","","","","","","MotivationQ","","","","","","","","","","","","","","","","","","","","","","","","","","","","","","","","","","","","","","50",""
"","","","","ctl-task-cpt","56","1871178","0.0-10.0-0.3","27","1","2025-07-09 09:06:48","7701e855f2ef39aa3fd6c71abdc6918a","187.190.161.228","Mozilla/5.0 (Windows NT 10.0; Win64; x64) AppleWebKit/537.36 (KHTML, like Gecko) Chrome/138.0.0.0 Safari/537.36","WebKit","Chrome","138.0.0.0","Windows","10.0","https://app.prolific.com/","es-US,es-419;q=0.9,es;q=0.8","610c6c0904a537eaadf52096","686d226cabeef709c732f8e1","686e31244f373a2c40936d25","610c6c0904a537eaadf52096","2025-07-09T09:38:02.570Z","","","","","","","","","","","","","","","","win-only","1","g1:NE,g2:SW","0.7","4","0","1849402.6","1106","6111.5","21136.6","1","4","8","6","1","1","0","4","4","0.030303030303030304","5005.5","3000","1695","[""up"",""right""]","{""num_key_presses"":5,""num_perfect"":3,""num_errors"":1,""num_randdir"":1,""num_randdir_good_moves"":1,""num_whilered"":0,""num_whileblue"":0,""num_blue"":0,""num_good_moves"":4}","[347.14285714285717,347.04910714285717,0.2,347.14285714285717,347.04910714285717,100.9,347.14285714285717,347.04910714285717,215.8,347.14285714285717,347.04910714285717,319.4,347.14285714285717,347.04910714285717,420.1,347.14285714285717,347.04910714285717,524.1,347.14285714285717,347.04910714285717,627.2,347.14285714285717,347.04910714285717,732.9,347.14285714285717,347.04910714285717,835.3,347.14285714285717,347.04910714285717,939.5,347.14285714285717,347.04910714285717,1048.4,347.14285714285717,347.04910714285717,1150.2,347.14285714285717,347.04910714285717,1257.9,347.14285714285717,347.04910714285717,1360,347.14285714285717,347.04910714285717,1468.1,347.14285714285717,347.04910714285717,1579.8,347.14285714285717,347.04910714285717,1685.1,347.14285714285717,347.04910714285717,1791.9,347.14285714285717,347.04910714285717,1898.9,347.14285714285717,347.04910714285717,1999.9,346.14285714285717,347.04910714285717,2105.1,346.14285714285717,347.04910714285717,2205.3,346.14285714285717,347.04910714285717,2310,346.14285714285717,347.04910714285717,2414.6,345.14285714285717,348.04910714285717,2514.9,346.14285714285717,354.04910714285717,2618.9,346.14285714285717,354.04910714285717,2720.5,346.14285714285717,355.04910714285717,2836.6,346.14285714285717,355.04910714285717,2939.6,346.14285714285717,355.04910714285717,3039.8,346.14285714285717,355.04910714285717,3139.9,346.14285714285717,355.04910714285717,3245.9,346.14285714285717,355.04910714285717,3354.7,346.14285714285717,355.04910714285717,3469,346.14285714285717,355.04910714285717,3569,346.14285714285717,355.04910714285717,3669.9,346.14285714285717,355.04910714285717,3774.6,346.14285714285717,355.04910714285717,3874.8,346.14285714285717,355.04910714285717,3985.1,346.14285714285717,355.04910714285717,4089.2,346.14285714285717,355.04910714285717,4190.5,346.14285714285717,355.04910714285717,4290.8,346.14285714285717,355.04910714285717,4411.2,346.14285714285717,355.04910714285717,4531.8,346.14285714285717,355.04910714285717,4634.3,346.14285714285717,355.04910714285717,4755.8,346.14285714285717,355.04910714285717,4859.8,346.14285714285717,355.04910714285717,4965.2]","[1007.7,1007.7,1000,0,7.7,""error"",""-"",""-"",""no_move"",5093.2,4085.3,2401.1,2009.9,682.2,""smooth"",""up"",""up"",""good_move"",7658.9,2565.2,2076.2,5093.7,489,""oops"",""up"",""right"",""good_move"",10857,3197.7,2730.3,7659.3,467.4,""smooth"",""up"",""up"",""good_move"",14893.9,4036.9,3646.1,10857.1,390.8,""smooth"",""right"",""right"",""good_move""]","","",""
"8211","","<div style=""width:500px;"">
  <p>What determined the result of this run?</p>
  </div>","81","html-slider-response","57","1879390","0.0-10.0-1.3","27","1","2025-07-09 09:06:48","7701e855f2ef39aa3fd6c71abdc6918a","187.190.161.228","Mozilla/5.0 (Windows NT 10.0; Win64; x64) AppleWebKit/537.36 (KHTML, like Gecko) Chrome/138.0.0.0 Safari/537.36","WebKit","Chrome","138.0.0.0","Windows","10.0","https://app.prolific.com/","es-US,es-419;q=0.9,es;q=0.8","610c6c0904a537eaadf52096","686d226cabeef709c732f8e1","686e31244f373a2c40936d25","610c6c0904a537eaadf52096","2025-07-09T09:38:10.782Z","","","","","","AttribQ","","","","","","","","","","","","","","","","","","","","","","","","","","","","","","","","","","","","","","50",""
"5230","","<div style=""width:500px;"">
  <p>How much control did you have over the ball?</p>
  </div>","38","html-slider-response","58","1884622","0.0-10.0-2.3","27","1","2025-07-09 09:06:48","7701e855f2ef39aa3fd6c71abdc6918a","187.190.161.228","Mozilla/5.0 (Windows NT 10.0; Win64; x64) AppleWebKit/537.36 (KHTML, like Gecko) Chrome/138.0.0.0 Safari/537.36","WebKit","Chrome","138.0.0.0","Windows","10.0","https://app.prolific.com/","es-US,es-419;q=0.9,es;q=0.8","610c6c0904a537eaadf52096","686d226cabeef709c732f8e1","686e31244f373a2c40936d25","610c6c0904a537eaadf52096","2025-07-09T09:38:16.014Z","","","","","","ControlQ","","","","","","","","","","","","","","","","","","","","","","","","","","","","","","","","","","","","","","50",""
"9231","","<div style=""width:500px;"">
  <p>How would you describe your current emotional state?</p>
  </div>","32","html-slider-response","59","1893854","0.0-10.0-3.3","27","1","2025-07-09 09:06:48","7701e855f2ef39aa3fd6c71abdc6918a","187.190.161.228","Mozilla/5.0 (Windows NT 10.0; Win64; x64) AppleWebKit/537.36 (KHTML, like Gecko) Chrome/138.0.0.0 Safari/537.36","WebKit","Chrome","138.0.0.0","Windows","10.0","https://app.prolific.com/","es-US,es-419;q=0.9,es;q=0.8","610c6c0904a537eaadf52096","686d226cabeef709c732f8e1","686e31244f373a2c40936d25","610c6c0904a537eaadf52096","2025-07-09T09:38:25.246Z","","","","","","StressQ","","","","","","","","","","","","","","","","","","","","","","","","","","","","","","","","","","","","","","50",""
"3462","","<div style=""width:500px;"">
  <p>What best describes how you currently feel?</p>
  </div>","76","html-slider-response","60","1897318","0.0-10.0-4.3","27","1","2025-07-09 09:06:48","7701e855f2ef39aa3fd6c71abdc6918a","187.190.161.228","Mozilla/5.0 (Windows NT 10.0; Win64; x64) AppleWebKit/537.36 (KHTML, like Gecko) Chrome/138.0.0.0 Safari/537.36","WebKit","Chrome","138.0.0.0","Windows","10.0","https://app.prolific.com/","es-US,es-419;q=0.9,es;q=0.8","610c6c0904a537eaadf52096","686d226cabeef709c732f8e1","686e31244f373a2c40936d25","610c6c0904a537eaadf52096","2025-07-09T09:38:28.710Z","","","","","","MotivationQ","","","","","","","","","","","","","","","","","","","","","","","","","","","","","","","","","","","","","","50",""
"","","","","ctl-task-cpt","61","1949343","0.0-10.0-0.4","27","1","2025-07-09 09:06:48","7701e855f2ef39aa3fd6c71abdc6918a","187.190.161.228","Mozilla/5.0 (Windows NT 10.0; Win64; x64) AppleWebKit/537.36 (KHTML, like Gecko) Chrome/138.0.0.0 Safari/537.36","WebKit","Chrome","138.0.0.0","Windows","10.0","https://app.prolific.com/","es-US,es-419;q=0.9,es;q=0.8","610c6c0904a537eaadf52096","686d226cabeef709c732f8e1","686e31244f373a2c40936d25","610c6c0904a537eaadf52096","2025-07-09T09:39:20.735Z","","","","","","","","","","","","","","","","win-only","1","g1:NE,g2:SW","0.6","5","0","1899691","1174.2","6175.6","49017.2","1","4","4","6","1","-1","-3","1","4","0.007575757575757576","5001.4","3000","-1960","[""up"",""right""]","{""num_key_presses"":12,""num_perfect"":6,""num_errors"":2,""num_randdir"":4,""num_randdir_good_moves"":1,""num_whilered"":0,""num_whileblue"":1,""num_blue"":3,""num_good_moves"":7}","[347.14285714285717,345.04910714285717,0.1,347.14285714285717,345.04910714285717,101.5,347.14285714285717,345.04910714285717,201.8,347.14285714285717,345.04910714285717,329.4,347.14285714285717,345.04910714285717,429.5,347.14285714285717,345.04910714285717,531.4,347.14285714285717,345.04910714285717,637.3,347.14285714285717,345.04910714285717,741,347.14285714285717,345.04910714285717,846.8,347.14285714285717,345.04910714285717,952.4,347.14285714285717,345.04910714285717,1057.4,347.14285714285717,345.04910714285717,1173.3,347.14285714285717,345.04910714285717,1279.9,347.14285714285717,345.04910714285717,1392.7,347.14285714285717,345.04910714285717,1496.6,347.14285714285717,345.04910714285717,1620.9,347.14285714285717,345.04910714285717,1721.5,347.14285714285717,345.04910714285717,1825.7,347.14285714285717,345.04910714285717,1937.2,347.14285714285717,345.04910714285717,2046.4,347.14285714285717,345.04910714285717,2150.5,347.14285714285717,345.04910714285717,2252.5,347.14285714285717,345.04910714285717,2356.4,347.14285714285717,345.04910714285717,2457.8,347.14285714285717,345.04910714285717,2561.5,347.14285714285717,345.04910714285717,2668.7,347.14285714285717,345.04910714285717,2778.9,347.14285714285717,345.04910714285717,2881.3,347.14285714285717,345.04910714285717,3000.6,347.14285714285717,345.04910714285717,3102,347.14285714285717,345.04910714285717,3213.1,347.14285714285717,345.04910714285717,3325.6,347.14285714285717,345.04910714285717,3426.3,347.14285714285717,345.04910714285717,3531.5,347.14285714285717,345.04910714285717,3638.1,347.14285714285717,345.04910714285717,3758.9,347.14285714285717,345.04910714285717,3862.1,347.14285714285717,345.04910714285717,3962.8,347.14285714285717,345.04910714285717,4088.6,347.14285714285717,345.04910714285717,4192.5,347.14285714285717,345.04910714285717,4296.1,347.14285714285717,345.04910714285717,4396.4,347.14285714285717,345.04910714285717,4498,347.14285714285717,345.04910714285717,4601.4,347.14285714285717,345.04910714285717,4706,347.14285714285717,345.04910714285717,4807.4,347.14285714285717,345.04910714285717,4911.4]","[855.4,855.4,1000,0.1,-144.7,""error"",""-"",""-"",""no_move"",4410.8,3555.3,2172.7,1862.6,375.5,""smooth"",""up"",""up"",""good_move"",7458.3,3047,2608.2,4411.3,438.8,""smooth"",""right"",""right"",""good_move"",10568.1,3109.6,2651.4,7458.5,458.2,""smooth"",""up"",""up"",""good_move"",16594.1,6025.8,2342.5,13876.7,374.9,""oops"",""right"",""left"",""bad_move"",18754.5,2160.1,1623.4,16594.4,536.7,""oops"",""right"",""left"",""bad_move"",20922.5,2167,1057.5,18755.5,1109.5,""smooth"",""down"",""down"",""bad_move"",24218.4,3295.5,2886.1,20922.9,409.4,""smooth"",""right"",""right"",""good_move"",27308.5,3089.7,2760.4,24218.8,329.3,""oops"",""right"",""down"",""bad_move"",30523.4,3214.7,2803.1,27308.7,411.6,""while_blue"",""up"",""up"",""good_move"",33594.1,3070.2,2584.4,30523.9,485.8,""smooth"",""up"",""up"",""good_move"",36463.3,2869,2590.9,33594.3,278.1,""oops"",""right"",""right"",""good_move""]","","",""
"88822","","<div style=""width:500px;"">
  <p>What determined the result of this run?</p>
  </div>","72","html-slider-response","62","2038166","0.0-10.0-1.4","27","1","2025-07-09 09:06:48","7701e855f2ef39aa3fd6c71abdc6918a","187.190.161.228","Mozilla/5.0 (Windows NT 10.0; Win64; x64) AppleWebKit/537.36 (KHTML, like Gecko) Chrome/138.0.0.0 Safari/537.36","WebKit","Chrome","138.0.0.0","Windows","10.0","https://app.prolific.com/","es-US,es-419;q=0.9,es;q=0.8","610c6c0904a537eaadf52096","686d226cabeef709c732f8e1","686e31244f373a2c40936d25","610c6c0904a537eaadf52096","2025-07-09T09:40:49.558Z","","","","","","AttribQ","","","","","","","","","","","","","","","","","","","","","","","","","","","","","","","","","","","","","","50",""
"5095","","<div style=""width:500px;"">
  <p>How much control did you have over the ball?</p>
  </div>","9","html-slider-response","63","2043262","0.0-10.0-2.4","27","1","2025-07-09 09:06:48","7701e855f2ef39aa3fd6c71abdc6918a","187.190.161.228","Mozilla/5.0 (Windows NT 10.0; Win64; x64) AppleWebKit/537.36 (KHTML, like Gecko) Chrome/138.0.0.0 Safari/537.36","WebKit","Chrome","138.0.0.0","Windows","10.0","https://app.prolific.com/","es-US,es-419;q=0.9,es;q=0.8","610c6c0904a537eaadf52096","686d226cabeef709c732f8e1","686e31244f373a2c40936d25","610c6c0904a537eaadf52096","2025-07-09T09:40:54.654Z","","","","","","ControlQ","","","","","","","","","","","","","","","","","","","","","","","","","","","","","","","","","","","","","","50",""
"7679","","<div style=""width:500px;"">
  <p>How would you describe your current emotional state?</p>
  </div>","67","html-slider-response","64","2050942","0.0-10.0-3.4","27","1","2025-07-09 09:06:48","7701e855f2ef39aa3fd6c71abdc6918a","187.190.161.228","Mozilla/5.0 (Windows NT 10.0; Win64; x64) AppleWebKit/537.36 (KHTML, like Gecko) Chrome/138.0.0.0 Safari/537.36","WebKit","Chrome","138.0.0.0","Windows","10.0","https://app.prolific.com/","es-US,es-419;q=0.9,es;q=0.8","610c6c0904a537eaadf52096","686d226cabeef709c732f8e1","686e31244f373a2c40936d25","610c6c0904a537eaadf52096","2025-07-09T09:41:02.334Z","","","","","","StressQ","","","","","","","","","","","","","","","","","","","","","","","","","","","","","","","","","","","","","","50",""
"5694","","<div style=""width:500px;"">
  <p>What best describes how you currently feel?</p>
  </div>","66","html-slider-response","65","2056638","0.0-10.0-4.4","27","1","2025-07-09 09:06:48","7701e855f2ef39aa3fd6c71abdc6918a","187.190.161.228","Mozilla/5.0 (Windows NT 10.0; Win64; x64) AppleWebKit/537.36 (KHTML, like Gecko) Chrome/138.0.0.0 Safari/537.36","WebKit","Chrome","138.0.0.0","Windows","10.0","https://app.prolific.com/","es-US,es-419;q=0.9,es;q=0.8","610c6c0904a537eaadf52096","686d226cabeef709c732f8e1","686e31244f373a2c40936d25","610c6c0904a537eaadf52096","2025-07-09T09:41:08.030Z","","","","","","MotivationQ","","","","","","","","","","","","","","","","","","","","","","","","","","","","","","","","","","","","","","50",""
"","","","","ctl-task-cpt","66","2131014","0.0-10.0-0.5","27","1","2025-07-09 09:06:48","7701e855f2ef39aa3fd6c71abdc6918a","187.190.161.228","Mozilla/5.0 (Windows NT 10.0; Win64; x64) AppleWebKit/537.36 (KHTML, like Gecko) Chrome/138.0.0.0 Safari/537.36","WebKit","Chrome","138.0.0.0","Windows","10.0","https://app.prolific.com/","es-US,es-419;q=0.9,es;q=0.8","610c6c0904a537eaadf52096","686d226cabeef709c732f8e1","686e31244f373a2c40936d25","610c6c0904a537eaadf52096","2025-07-09T09:42:22.406Z","","","","","","","","","","","","","","","","win-only","2","g1:SE,g2:NW","0.5","6","0","2059010.8","13331.1","18331.6","71364.2","1","4","8","6","2","8","8","9","1","0.06818181818181818","5000.5","3000","145","[""left"",""up""]","{""num_key_presses"":10,""num_perfect"":5,""num_errors"":0,""num_randdir"":5,""num_randdir_good_moves"":3,""num_whilered"":0,""num_whileblue"":0,""num_blue"":7,""num_good_moves"":8}","[352.14285714285717,342.04910714285717,0.2,352.14285714285717,342.04910714285717,103,352.14285714285717,342.04910714285717,234.7,352.14285714285717,342.04910714285717,335.4,352.14285714285717,342.04910714285717,445.6,352.14285714285717,342.04910714285717,549.6,352.14285714285717,342.04910714285717,657.6,352.14285714285717,342.04910714285717,765.8,352.14285714285717,342.04910714285717,869.2,352.14285714285717,342.04910714285717,969.9,352.14285714285717,342.04910714285717,1070.6,352.14285714285717,342.04910714285717,1180.3,352.14285714285717,342.04910714285717,1284.5,352.14285714285717,342.04910714285717,1385.7,352.14285714285717,342.04910714285717,1486.4,352.14285714285717,342.04910714285717,1595.2,352.14285714285717,342.04910714285717,1700.8,352.14285714285717,342.04910714285717,1805.1,352.14285714285717,342.04910714285717,1922.2,352.14285714285717,342.04910714285717,2025.2,352.14285714285717,342.04910714285717,2130.7,352.14285714285717,342.04910714285717,2230.7,352.14285714285717,342.04910714285717,2334.4,352.14285714285717,342.04910714285717,2449,352.14285714285717,342.04910714285717,2549.7,352.14285714285717,342.04910714285717,2654.2,352.14285714285717,342.04910714285717,2763.1,352.14285714285717,342.04910714285717,2864.7,352.14285714285717,342.04910714285717,2965.2,352.14285714285717,342.04910714285717,3077,352.14285714285717,342.04910714285717,3196.8,352.14285714285717,342.04910714285717,3306.6,352.14285714285717,342.04910714285717,3413.6,355.14285714285717,343.04910714285717,3515.4,355.14285714285717,343.04910714285717,3619.8,355.14285714285717,343.04910714285717,3720.8,360.14285714285717,321.04910714285717,3820.9,352.14285714285717,339.04910714285717,3924.9,352.14285714285717,339.04910714285717,4030.4,352.14285714285717,339.04910714285717,4135.2,352.14285714285717,339.04910714285717,4259,354.14285714285717,338.04910714285717,4359.1,385.14285714285717,329.04910714285717,4459.8,414.14285714285717,336.04910714285717,4560.5,417.14285714285717,337.04910714285717,4675.5,417.14285714285717,337.04910714285717,4778.6,417.14285714285717,337.04910714285717,4879.1,417.14285714285717,337.04910714285717,4979.4]","[1557.1,1557.1,1000,0,557.1,""oops"",""left"",""right"",""bad_move"",8156.9,6599.4,2190.5,5593.8,372.6,""oops"",""right"",""up"",""good_move"",15285.7,7128.5,2672.3,12152.7,460.8,""oops"",""up"",""left"",""good_move"",20732.9,5446.7,2276.5,18069.2,387.2,""oops"",""down"",""left"",""good_move"",31609,10875.9,3333.7,27830.1,445.2,""oops"",""down"",""right"",""bad_move"",34035.4,2426.2,1822.7,31609.2,603.5,""smooth"",""left"",""left"",""good_move"",37564.9,3529.1,3062,34035.8,467.1,""smooth"",""up"",""up"",""good_move"",44063,6497.8,2323.2,41382,357.8,""smooth"",""left"",""left"",""good_move"",46594,2530.8,1939,44063.2,591.8,""smooth"",""up"",""up"",""good_move"",52852.7,6258.4,2434.8,50089.5,328.4,""smooth"",""left"",""left"",""good_move""]","","",""
"3568","","<div style=""width:500px;"">
  <p>What determined the result of this run?</p>
  </div>","83","html-slider-response","67","2134584","0.0-10.0-1.5","27","1","2025-07-09 09:06:48","7701e855f2ef39aa3fd6c71abdc6918a","187.190.161.228","Mozilla/5.0 (Windows NT 10.0; Win64; x64) AppleWebKit/537.36 (KHTML, like Gecko) Chrome/138.0.0.0 Safari/537.36","WebKit","Chrome","138.0.0.0","Windows","10.0","https://app.prolific.com/","es-US,es-419;q=0.9,es;q=0.8","610c6c0904a537eaadf52096","686d226cabeef709c732f8e1","686e31244f373a2c40936d25","610c6c0904a537eaadf52096","2025-07-09T09:42:25.976Z","","","","","","AttribQ","","","","","","","","","","","","","","","","","","","","","","","","","","","","","","","","","","","","","","50",""
"3364","","<div style=""width:500px;"">
  <p>How much control did you have over the ball?</p>
  </div>","31","html-slider-response","68","2137950","0.0-10.0-2.5","27","1","2025-07-09 09:06:48","7701e855f2ef39aa3fd6c71abdc6918a","187.190.161.228","Mozilla/5.0 (Windows NT 10.0; Win64; x64) AppleWebKit/537.36 (KHTML, like Gecko) Chrome/138.0.0.0 Safari/537.36","WebKit","Chrome","138.0.0.0","Windows","10.0","https://app.prolific.com/","es-US,es-419;q=0.9,es;q=0.8","610c6c0904a537eaadf52096","686d226cabeef709c732f8e1","686e31244f373a2c40936d25","610c6c0904a537eaadf52096","2025-07-09T09:42:29.342Z","","","","","","ControlQ","","","","","","","","","","","","","","","","","","","","","","","","","","","","","","","","","","","","","","50",""
"2391","","<div style=""width:500px;"">
  <p>How would you describe your current emotional state?</p>
  </div>","71","html-slider-response","69","2140342","0.0-10.0-3.5","27","1","2025-07-09 09:06:48","7701e855f2ef39aa3fd6c71abdc6918a","187.190.161.228","Mozilla/5.0 (Windows NT 10.0; Win64; x64) AppleWebKit/537.36 (KHTML, like Gecko) Chrome/138.0.0.0 Safari/537.36","WebKit","Chrome","138.0.0.0","Windows","10.0","https://app.prolific.com/","es-US,es-419;q=0.9,es;q=0.8","610c6c0904a537eaadf52096","686d226cabeef709c732f8e1","686e31244f373a2c40936d25","610c6c0904a537eaadf52096","2025-07-09T09:42:31.734Z","","","","","","StressQ","","","","","","","","","","","","","","","","","","","","","","","","","","","","","","","","","","","","","","50",""
"4303","","<div style=""width:500px;"">
  <p>What best describes how you currently feel?</p>
  </div>","67","html-slider-response","70","2144647","0.0-10.0-4.5","27","1","2025-07-09 09:06:48","7701e855f2ef39aa3fd6c71abdc6918a","187.190.161.228","Mozilla/5.0 (Windows NT 10.0; Win64; x64) AppleWebKit/537.36 (KHTML, like Gecko) Chrome/138.0.0.0 Safari/537.36","WebKit","Chrome","138.0.0.0","Windows","10.0","https://app.prolific.com/","es-US,es-419;q=0.9,es;q=0.8","610c6c0904a537eaadf52096","686d226cabeef709c732f8e1","686e31244f373a2c40936d25","610c6c0904a537eaadf52096","2025-07-09T09:42:36.039Z","","","","","","MotivationQ","","","","","","","","","","","","","","","","","","","","","","","","","","","","","","","","","","","","","","50",""
"","","","","ctl-task-cpt","71","2199048","0.0-10.0-0.6","27","1","2025-07-09 09:06:48","7701e855f2ef39aa3fd6c71abdc6918a","187.190.161.228","Mozilla/5.0 (Windows NT 10.0; Win64; x64) AppleWebKit/537.36 (KHTML, like Gecko) Chrome/138.0.0.0 Safari/537.36","WebKit","Chrome","138.0.0.0","Windows","10.0","https://app.prolific.com/","es-US,es-419;q=0.9,es;q=0.8","610c6c0904a537eaadf52096","686d226cabeef709c732f8e1","686e31244f373a2c40936d25","610c6c0904a537eaadf52096","2025-07-09T09:43:30.440Z","","","","","","","","","","","","","","","","win-only","2","g1:SE,g2:NW","0.4","7","0","2147021.2","1084.7","6101.6","51379.1","1","4","8","6","1","-1","-2","7","9","0.05303030303030303","5016.9","3000","-1900","[""down"",""right""]","{""num_key_presses"":11,""num_perfect"":4,""num_errors"":1,""num_randdir"":6,""num_randdir_good_moves"":2,""num_whilered"":0,""num_whileblue"":1,""num_blue"":4,""num_good_moves"":6}","[356.14285714285717,340.04910714285717,0.2,356.14285714285717,340.04910714285717,102.7,356.14285714285717,340.04910714285717,228,356.14285714285717,340.04910714285717,330.8,356.14285714285717,340.04910714285717,431.1,356.14285714285717,340.04910714285717,531.8,356.14285714285717,340.04910714285717,637,356.14285714285717,340.04910714285717,748.9,356.14285714285717,340.04910714285717,851.5,356.14285714285717,340.04910714285717,961.2,356.14285714285717,340.04910714285717,1064.7,356.14285714285717,340.04910714285717,1174.4,356.14285714285717,340.04910714285717,1275.9,356.14285714285717,340.04910714285717,1393.9,356.14285714285717,340.04910714285717,1503.2,356.14285714285717,340.04910714285717,1610.2,356.14285714285717,340.04910714285717,1710.6,356.14285714285717,340.04910714285717,1811.4,356.14285714285717,340.04910714285717,1924.5,356.14285714285717,340.04910714285717,2028.1,356.14285714285717,340.04910714285717,2132.3,356.14285714285717,340.04910714285717,2245.1,356.14285714285717,340.04910714285717,2363,356.14285714285717,340.04910714285717,2465.9,356.14285714285717,340.04910714285717,2566.5,356.14285714285717,340.04910714285717,2671.2,356.14285714285717,340.04910714285717,2785.1,356.14285714285717,340.04910714285717,2886.2,356.14285714285717,340.04910714285717,2995.7,356.14285714285717,340.04910714285717,3096.6,356.14285714285717,340.04910714285717,3201.3,356.14285714285717,340.04910714285717,3321.9,356.14285714285717,340.04910714285717,3422.9,356.14285714285717,340.04910714285717,3549,377.14285714285717,376.04910714285717,3656.7,403.14285714285717,421.04910714285717,3761.7,404.14285714285717,428.04910714285717,3879.9,404.14285714285717,429.04910714285717,3985.5,404.14285714285717,429.04910714285717,4086.8,403.14285714285717,446.04910714285717,4195.5,402.14285714285717,448.04910714285717,4297.4,402.14285714285717,448.04910714285717,4400.9,402.14285714285717,448.04910714285717,4515.6,402.14285714285717,448.04910714285717,4615.8,402.14285714285717,448.04910714285717,4723.9,402.14285714285717,448.04910714285717,4847.4,402.14285714285717,448.04910714285717,4950.9]","[1506.1,1506.1,1000,0,506.1,""smooth"",""right"",""right"",""good_move"",11632.2,10125.5,2455.9,8745.4,430.9,""oops"",""down"",""down"",""good_move"",18171.6,6539.2,2417.6,15154.4,599.6,""oops"",""down"",""up"",""bad_move"",20891.9,2720.1,2154.4,18171.9,565.6,""oops"",""left"",""up"",""bad_move"",24039.9,3147.8,2740.7,20892.1,407.1,""oops"",""right"",""down"",""good_move"",26706.5,2666.3,2261.6,24040.2,404.7,""smooth"",""right"",""right"",""good_move"",29602.4,2895.6,2470.5,26706.8,425.1,""smooth"",""down"",""down"",""good_move"",32922.7,3320.2,2852.8,29602.5,467.4,""oops"",""down"",""up"",""bad_move"",35733,2810,2339,32923,471,""oops"",""left"",""up"",""bad_move"",38610.9,2877.7,2514.4,35733.2,363.3,""smooth"",""down"",""down"",""good_move"",41797.5,3186.4,2847.8,38611.1,338.6,""while_blue"",""down"",""up"",""bad_move""]","","",""
"5414","","<div style=""width:500px;"">
  <p>What determined the result of this run?</p>
  </div>","85","html-slider-response","72","2204463","0.0-10.0-1.6","27","1","2025-07-09 09:06:48","7701e855f2ef39aa3fd6c71abdc6918a","187.190.161.228","Mozilla/5.0 (Windows NT 10.0; Win64; x64) AppleWebKit/537.36 (KHTML, like Gecko) Chrome/138.0.0.0 Safari/537.36","WebKit","Chrome","138.0.0.0","Windows","10.0","https://app.prolific.com/","es-US,es-419;q=0.9,es;q=0.8","610c6c0904a537eaadf52096","686d226cabeef709c732f8e1","686e31244f373a2c40936d25","610c6c0904a537eaadf52096","2025-07-09T09:43:35.855Z","","","","","","AttribQ","","","","","","","","","","","","","","","","","","","","","","","","","","","","","","","","","","","","","","50",""
"2654","","<div style=""width:500px;"">
  <p>How much control did you have over the ball?</p>
  </div>","5","html-slider-response","73","2207118","0.0-10.0-2.6","27","1","2025-07-09 09:06:48","7701e855f2ef39aa3fd6c71abdc6918a","187.190.161.228","Mozilla/5.0 (Windows NT 10.0; Win64; x64) AppleWebKit/537.36 (KHTML, like Gecko) Chrome/138.0.0.0 Safari/537.36","WebKit","Chrome","138.0.0.0","Windows","10.0","https://app.prolific.com/","es-US,es-419;q=0.9,es;q=0.8","610c6c0904a537eaadf52096","686d226cabeef709c732f8e1","686e31244f373a2c40936d25","610c6c0904a537eaadf52096","2025-07-09T09:43:38.510Z","","","","","","ControlQ","","","","","","","","","","","","","","","","","","","","","","","","","","","","","","","","","","","","","","50",""
"5143","","<div style=""width:500px;"">
  <p>How would you describe your current emotional state?</p>
  </div>","71","html-slider-response","74","2212262","0.0-10.0-3.6","27","1","2025-07-09 09:06:48","7701e855f2ef39aa3fd6c71abdc6918a","187.190.161.228","Mozilla/5.0 (Windows NT 10.0; Win64; x64) AppleWebKit/537.36 (KHTML, like Gecko) Chrome/138.0.0.0 Safari/537.36","WebKit","Chrome","138.0.0.0","Windows","10.0","https://app.prolific.com/","es-US,es-419;q=0.9,es;q=0.8","610c6c0904a537eaadf52096","686d226cabeef709c732f8e1","686e31244f373a2c40936d25","610c6c0904a537eaadf52096","2025-07-09T09:43:43.654Z","","","","","","StressQ","","","","","","","","","","","","","","","","","","","","","","","","","","","","","","","","","","","","","","50",""
"2839","","<div style=""width:500px;"">
  <p>What best describes how you currently feel?</p>
  </div>","63","html-slider-response","75","2215102","0.0-10.0-4.6","27","1","2025-07-09 09:06:48","7701e855f2ef39aa3fd6c71abdc6918a","187.190.161.228","Mozilla/5.0 (Windows NT 10.0; Win64; x64) AppleWebKit/537.36 (KHTML, like Gecko) Chrome/138.0.0.0 Safari/537.36","WebKit","Chrome","138.0.0.0","Windows","10.0","https://app.prolific.com/","es-US,es-419;q=0.9,es;q=0.8","610c6c0904a537eaadf52096","686d226cabeef709c732f8e1","686e31244f373a2c40936d25","610c6c0904a537eaadf52096","2025-07-09T09:43:46.494Z","","","","","","MotivationQ","","","","","","","","","","","","","","","","","","","","","","","","","","","","","","","","","","","","","","50",""
"","","","","ctl-task-cpt","76","2265598","0.0-10.0-0.7","27","1","2025-07-09 09:06:48","7701e855f2ef39aa3fd6c71abdc6918a","187.190.161.228","Mozilla/5.0 (Windows NT 10.0; Win64; x64) AppleWebKit/537.36 (KHTML, like Gecko) Chrome/138.0.0.0 Safari/537.36","WebKit","Chrome","138.0.0.0","Windows","10.0","https://app.prolific.com/","es-US,es-419;q=0.9,es;q=0.8","610c6c0904a537eaadf52096","686d226cabeef709c732f8e1","686e31244f373a2c40936d25","610c6c0904a537eaadf52096","2025-07-09T09:44:36.990Z","","","","","","","","","","","","","","","","win-only","2","g1:SE,g2:NW","0.3","8","0","2217475.2","1260.6","6285.9","47465.6","1","4","4","6","1","-1","-1","6","7","0.045454545454545456","5025.3","3000","-1835","[""down"",""right""]","{""num_key_presses"":8,""num_perfect"":3,""num_errors"":0,""num_randdir"":5,""num_randdir_good_moves"":2,""num_whilered"":0,""num_whileblue"":0,""num_blue"":4,""num_good_moves"":4}","[348.14285714285717,343.04910714285717,0.2,348.14285714285717,343.04910714285717,101.1,348.14285714285717,343.04910714285717,221.6,348.14285714285717,343.04910714285717,326.1,348.14285714285717,343.04910714285717,452.8,348.14285714285717,343.04910714285717,555.5,348.14285714285717,343.04910714285717,661,348.14285714285717,343.04910714285717,787.3,348.14285714285717,343.04910714285717,890.4,348.14285714285717,343.04910714285717,990.6,348.14285714285717,343.04910714285717,1091.2,348.14285714285717,343.04910714285717,1195.5,348.14285714285717,343.04910714285717,1300.3,348.14285714285717,343.04910714285717,1400.7,348.14285714285717,343.04910714285717,1501.9,348.14285714285717,343.04910714285717,1605.4,348.14285714285717,343.04910714285717,1705.7,348.14285714285717,343.04910714285717,1811.3,348.14285714285717,343.04910714285717,1920.3,348.14285714285717,343.04910714285717,2031.4,348.14285714285717,343.04910714285717,2135,348.14285714285717,343.04910714285717,2239.4,348.14285714285717,343.04910714285717,2339.7,348.14285714285717,343.04910714285717,2441.4,348.14285714285717,343.04910714285717,2545.2,348.14285714285717,343.04910714285717,2664.5,348.14285714285717,343.04910714285717,2765.4,348.14285714285717,343.04910714285717,2898.3,348.14285714285717,343.04910714285717,3007,348.14285714285717,343.04910714285717,3109.7,348.14285714285717,343.04910714285717,3223.2,348.14285714285717,343.04910714285717,3325,348.14285714285717,343.04910714285717,3447.2,348.14285714285717,343.04910714285717,3552.7,348.14285714285717,343.04910714285717,3659.6,348.14285714285717,343.04910714285717,3764.1,348.14285714285717,343.04910714285717,3866,348.14285714285717,343.04910714285717,3969.4,348.14285714285717,343.04910714285717,4079.4,348.14285714285717,343.04910714285717,4179.9,348.14285714285717,343.04910714285717,4289.6,348.14285714285717,343.04910714285717,4390.4,348.14285714285717,343.04910714285717,4492.8,348.14285714285717,343.04910714285717,4596,348.14285714285717,343.04910714285717,4710.3,348.14285714285717,343.04910714285717,4814.8,348.14285714285717,343.04910714285717,4939.2]","[1605.7,1605.7,1000,0,605.7,""smooth"",""down"",""down"",""good_move"",4499.1,2893,2471.8,1606.1,421.2,""oops"",""right"",""left"",""bad_move"",11679.3,7180,2539.5,8684.3,455.6,""oops"",""left"",""down"",""good_move"",14928.5,3248.9,2705.4,11679.6,543.5,""oops"",""right"",""left"",""bad_move"",18130.4,3201.6,2123.8,14928.8,1077.8,""smooth"",""up"",""up"",""bad_move"",20689.2,2558.5,1665.5,18130.7,893,""oops"",""right"",""up"",""bad_move"",27303,6613.6,2112.2,24724.8,466,""smooth"",""right"",""right"",""good_move"",30787.2,3484,3059,27303.2,425,""oops"",""right"",""down"",""good_move""]","","",""
"3791","","<div style=""width:500px;"">
  <p>What determined the result of this run?</p>
  </div>","81","html-slider-response","77","2269390","0.0-10.0-1.7","27","1","2025-07-09 09:06:48","7701e855f2ef39aa3fd6c71abdc6918a","187.190.161.228","Mozilla/5.0 (Windows NT 10.0; Win64; x64) AppleWebKit/537.36 (KHTML, like Gecko) Chrome/138.0.0.0 Safari/537.36","WebKit","Chrome","138.0.0.0","Windows","10.0","https://app.prolific.com/","es-US,es-419;q=0.9,es;q=0.8","610c6c0904a537eaadf52096","686d226cabeef709c732f8e1","686e31244f373a2c40936d25","610c6c0904a537eaadf52096","2025-07-09T09:44:40.782Z","","","","","","AttribQ","","","","","","","","","","","","","","","","","","","","","","","","","","","","","","","","","","","","","","50",""
"3383","","<div style=""width:500px;"">
  <p>How much control did you have over the ball?</p>
  </div>","0","html-slider-response","78","2272774","0.0-10.0-2.7","27","1","2025-07-09 09:06:48","7701e855f2ef39aa3fd6c71abdc6918a","187.190.161.228","Mozilla/5.0 (Windows NT 10.0; Win64; x64) AppleWebKit/537.36 (KHTML, like Gecko) Chrome/138.0.0.0 Safari/537.36","WebKit","Chrome","138.0.0.0","Windows","10.0","https://app.prolific.com/","es-US,es-419;q=0.9,es;q=0.8","610c6c0904a537eaadf52096","686d226cabeef709c732f8e1","686e31244f373a2c40936d25","610c6c0904a537eaadf52096","2025-07-09T09:44:44.166Z","","","","","","ControlQ","","","","","","","","","","","","","","","","","","","","","","","","","","","","","","","","","","","","","","50",""
"3911","","<div style=""width:500px;"">
  <p>How would you describe your current emotional state?</p>
  </div>","73","html-slider-response","79","2276686","0.0-10.0-3.7","27","1","2025-07-09 09:06:48","7701e855f2ef39aa3fd6c71abdc6918a","187.190.161.228","Mozilla/5.0 (Windows NT 10.0; Win64; x64) AppleWebKit/537.36 (KHTML, like Gecko) Chrome/138.0.0.0 Safari/537.36","WebKit","Chrome","138.0.0.0","Windows","10.0","https://app.prolific.com/","es-US,es-419;q=0.9,es;q=0.8","610c6c0904a537eaadf52096","686d226cabeef709c732f8e1","686e31244f373a2c40936d25","610c6c0904a537eaadf52096","2025-07-09T09:44:48.078Z","","","","","","StressQ","","","","","","","","","","","","","","","","","","","","","","","","","","","","","","","","","","","","","","50",""
"8207","","<div style=""width:500px;"">
  <p>What best describes how you currently feel?</p>
  </div>","55","html-slider-response","80","2284894","0.0-10.0-4.7","27","1","2025-07-09 09:06:48","7701e855f2ef39aa3fd6c71abdc6918a","187.190.161.228","Mozilla/5.0 (Windows NT 10.0; Win64; x64) AppleWebKit/537.36 (KHTML, like Gecko) Chrome/138.0.0.0 Safari/537.36","WebKit","Chrome","138.0.0.0","Windows","10.0","https://app.prolific.com/","es-US,es-419;q=0.9,es;q=0.8","610c6c0904a537eaadf52096","686d226cabeef709c732f8e1","686e31244f373a2c40936d25","610c6c0904a537eaadf52096","2025-07-09T09:44:56.286Z","","","","","","MotivationQ","","","","","","","","","","","","","","","","","","","","","","","","","","","","","","","","","","","","","","50",""
"","","","","ctl-task-cpt","81","2331714","0.0-10.0-0.8","27","1","2025-07-09 09:06:48","7701e855f2ef39aa3fd6c71abdc6918a","187.190.161.228","Mozilla/5.0 (Windows NT 10.0; Win64; x64) AppleWebKit/537.36 (KHTML, like Gecko) Chrome/138.0.0.0 Safari/537.36","WebKit","Chrome","138.0.0.0","Windows","10.0","https://app.prolific.com/","es-US,es-419;q=0.9,es;q=0.8","610c6c0904a537eaadf52096","686d226cabeef709c732f8e1","686e31244f373a2c40936d25","610c6c0904a537eaadf52096","2025-07-09T09:45:43.106Z","","","","","","","","","","","","","","","","win-only","0","g1:NW,g2:SE","0.2","9","0","2287267.2","1265.9","6267.3","43800.9","1","4","8","6","1","-1","-1","5","6","0.03787878787878788","5001.4","3000","-1850","[""left"",""up""]","{""num_key_presses"":11,""num_perfect"":2,""num_errors"":0,""num_randdir"":9,""num_randdir_good_moves"":2,""num_whilered"":0,""num_whileblue"":0,""num_blue"":1,""num_good_moves"":3}","[350.14285714285717,342.04910714285717,0.3,350.14285714285717,342.04910714285717,106.3,350.14285714285717,342.04910714285717,209.5,350.14285714285717,342.04910714285717,310.3,350.14285714285717,342.04910714285717,410.5,350.14285714285717,342.04910714285717,514.8,350.14285714285717,342.04910714285717,621.1,350.14285714285717,342.04910714285717,736.6,350.14285714285717,342.04910714285717,862.4,350.14285714285717,342.04910714285717,964.8,350.14285714285717,342.04910714285717,1075.5,350.14285714285717,342.04910714285717,1210.9,350.14285714285717,342.04910714285717,1341.5,350.14285714285717,342.04910714285717,1472.6,350.14285714285717,342.04910714285717,1574.7,350.14285714285717,342.04910714285717,1681.4,350.14285714285717,342.04910714285717,1788.5,350.14285714285717,342.04910714285717,1899.4,350.14285714285717,342.04910714285717,2001.5,350.14285714285717,342.04910714285717,2122,350.14285714285717,342.04910714285717,2227.6,350.14285714285717,342.04910714285717,2330.5,350.14285714285717,342.04910714285717,2434.3,350.14285714285717,342.04910714285717,2563,350.14285714285717,342.04910714285717,2674.1,350.14285714285717,342.04910714285717,2782.7,350.14285714285717,342.04910714285717,2895.1,350.14285714285717,342.04910714285717,2996.3,350.14285714285717,342.04910714285717,3114.4,350.14285714285717,342.04910714285717,3221.8,350.14285714285717,342.04910714285717,3325.3,350.14285714285717,342.04910714285717,3430,350.14285714285717,342.04910714285717,3555.9,350.14285714285717,342.04910714285717,3656.3,350.14285714285717,342.04910714285717,3771.8,350.14285714285717,342.04910714285717,3878.9,350.14285714285717,342.04910714285717,3996.2,350.14285714285717,342.04910714285717,4144.5,350.14285714285717,342.04910714285717,4244.6,350.14285714285717,342.04910714285717,4362.8,350.14285714285717,342.04910714285717,4465,350.14285714285717,342.04910714285717,4591.9,350.14285714285717,342.04910714285717,4694.8,350.14285714285717,342.04910714285717,4796.1,350.14285714285717,342.04910714285717,4903.9]","[1445.2,1445.2,1000,0,445.2,""oops"",""up"",""down"",""bad_move"",4013.7,2568.2,1688.3,1445.5,879.9,""smooth"",""down"",""down"",""bad_move"",6801.8,2788,2403,4013.8,385,""oops"",""right"",""down"",""bad_move"",9975.9,3174,2731.1,6801.9,442.9,""oops"",""up"",""right"",""bad_move"",12818,2841.8,2407.9,9976.2,433.9,""oops"",""down"",""left"",""good_move"",15539.8,2721.4,2322.4,12818.4,399,""oops"",""down"",""right"",""bad_move"",18782.6,3242.6,2819.6,15540,423,""oops"",""up"",""right"",""bad_move"",25222.7,6439.8,3062.3,21728.7,431.7,""oops"",""left"",""left"",""good_move"",27836.4,2613.4,2177,25223,436.4,""oops"",""left"",""right"",""bad_move"",31492.4,3655.6,3251.4,27836.8,404.2,""smooth"",""up"",""up"",""good_move"",34823.1,3330,2972.1,31493.1,357.9,""oops"",""left"",""down"",""bad_move""]","","",""
"3994","","<div style=""width:500px;"">
  <p>What determined the result of this run?</p>
  </div>","77","html-slider-response","82","2335711","0.0-10.0-1.8","27","1","2025-07-09 09:06:48","7701e855f2ef39aa3fd6c71abdc6918a","187.190.161.228","Mozilla/5.0 (Windows NT 10.0; Win64; x64) AppleWebKit/537.36 (KHTML, like Gecko) Chrome/138.0.0.0 Safari/537.36","WebKit","Chrome","138.0.0.0","Windows","10.0","https://app.prolific.com/","es-US,es-419;q=0.9,es;q=0.8","610c6c0904a537eaadf52096","686d226cabeef709c732f8e1","686e31244f373a2c40936d25","610c6c0904a537eaadf52096","2025-07-09T09:45:47.103Z","","","","","","AttribQ","","","","","","","","","","","","","","","","","","","","","","","","","","","","","","","","","","","","","","50",""
"5798","","<div style=""width:500px;"">
  <p>How much control did you have over the ball?</p>
  </div>","0","html-slider-response","83","2341510","0.0-10.0-2.8","27","1","2025-07-09 09:06:48","7701e855f2ef39aa3fd6c71abdc6918a","187.190.161.228","Mozilla/5.0 (Windows NT 10.0; Win64; x64) AppleWebKit/537.36 (KHTML, like Gecko) Chrome/138.0.0.0 Safari/537.36","WebKit","Chrome","138.0.0.0","Windows","10.0","https://app.prolific.com/","es-US,es-419;q=0.9,es;q=0.8","610c6c0904a537eaadf52096","686d226cabeef709c732f8e1","686e31244f373a2c40936d25","610c6c0904a537eaadf52096","2025-07-09T09:45:52.902Z","","","","","","ControlQ","","","","","","","","","","","","","","","","","","","","","","","","","","","","","","","","","","","","","","50",""
"5519","","<div style=""width:500px;"">
  <p>How would you describe your current emotional state?</p>
  </div>","77","html-slider-response","84","2347030","0.0-10.0-3.8","27","1","2025-07-09 09:06:48","7701e855f2ef39aa3fd6c71abdc6918a","187.190.161.228","Mozilla/5.0 (Windows NT 10.0; Win64; x64) AppleWebKit/537.36 (KHTML, like Gecko) Chrome/138.0.0.0 Safari/537.36","WebKit","Chrome","138.0.0.0","Windows","10.0","https://app.prolific.com/","es-US,es-419;q=0.9,es;q=0.8","610c6c0904a537eaadf52096","686d226cabeef709c732f8e1","686e31244f373a2c40936d25","610c6c0904a537eaadf52096","2025-07-09T09:45:58.422Z","","","","","","StressQ","","","","","","","","","","","","","","","","","","","","","","","","","","","","","","","","","","","","","","50",""
"3575","","<div style=""width:500px;"">
  <p>What best describes how you currently feel?</p>
