"rt","response_timestamp","stimulus","response","trial_type","trial_index","time_elapsed","internal_node_id","run_id","condition","recorded_at","source_code_version","ip","user_agent","device","browser","browser_version","platform","platform_version","referer","accept_language","PROLIFIC_PID","STUDY_ID","SESSION_ID","prolific_id","realtime","view_history","question_order","consent","success","question_id","eventType","responses","item_order","radio_event_ids","radio_event_times","key_event_times","mouse_event_times","straightlining","zigzagging","honeypot","which_type","canvas_config","goals_layout","control_level","trial_number","tutorial_trial_number","trial_start_time","phase1_start_time","phase2_start_time","phase3_start_time","goal_1_value","goal_1_distance","goal_2_value","goal_2_distance","goal_selected","outcome","outcome_total","participant_final_score","participant_initial_score","participant_final_score_prop","goal_choice_rt","allocated_time","allocated_time_remaining","goal_direction","counts","mouse_movements","key_presses","correct","slider_start"
"52780","1752052091522","<p style='font-size:40px;line-height:1.25'><strong>Welcome to the experiment!</strong></p><p style='font-size:1.1em;line-height:1.25'>Thank you for your interest in our experiment! Before you begin, it is important that we obtain your informed consent to participate in the study.</p><p style='font-size:1.1em;line-height:1.25'>On the next screen will be an <strong>information sheet</strong> for you to read. To participate in the study we need you to read this information sheet and the following consent form carefully. If you agree with all the statements, please click the <strong>I agree</strong> button.</p><p style='font-size:1.1em;line-height:1.25'>Press <strong>Next</strong> to read the information sheet.</p>","0","custom-html-button-response","0","52784","0.0-0.0","49","1","2025-07-09 09:07:14","7701e855f2ef39aa3fd6c71abdc6918a","41.114.9.251","Mozilla/5.0 (Windows NT 10.0; Win64; x64) AppleWebKit/537.36 (KHTML, like Gecko) Chrome/138.0.0.0 Safari/537.36","WebKit","Chrome","138.0.0.0","Windows","10.0","https://app.prolific.com/","en-US,en;q=0.9","6612e7f231d13a67b8e758cc","686d226cabeef709c732f8e1","686e3131478e3dc0e5fff262","6612e7f231d13a67b8e758cc","2025-07-09T09:08:11.523Z","","","","","","","","","","","","","","","","","","","","","","","","","","","","","","","","","","","","","","","","","","","",""
"259068","","","","instructions","1","311853","0.0-1.0","49","1","2025-07-09 09:07:14","7701e855f2ef39aa3fd6c71abdc6918a","41.114.9.251","Mozilla/5.0 (Windows NT 10.0; Win64; x64) AppleWebKit/537.36 (KHTML, like Gecko) Chrome/138.0.0.0 Safari/537.36","WebKit","Chrome","138.0.0.0","Windows","10.0","https://app.prolific.com/","en-US,en;q=0.9","6612e7f231d13a67b8e758cc","686d226cabeef709c732f8e1","686e3131478e3dc0e5fff262","6612e7f231d13a67b8e758cc","","[{""page_index"":0,""viewing_time"":181878},{""page_index"":1,""viewing_time"":77190}]","","","","","","","","","","","","","","","","","","","","","","","","","","","","","","","","","","","","","","","","","","",""
"66944","","","{""Q0"":"""",""Q1"":"""",""Q2"":"""",""Q3"":"""",""Q4"":"""",""Q5"":"""",""Q6"":""I agree""}","survey-multi-choice","2","378815","0.0-2.0","49","1","2025-07-09 09:07:14","7701e855f2ef39aa3fd6c71abdc6918a","41.114.9.251","Mozilla/5.0 (Windows NT 10.0; Win64; x64) AppleWebKit/537.36 (KHTML, like Gecko) Chrome/138.0.0.0 Safari/537.36","WebKit","Chrome","138.0.0.0","Windows","10.0","https://app.prolific.com/","en-US,en;q=0.9","6612e7f231d13a67b8e758cc","686d226cabeef709c732f8e1","686e3131478e3dc0e5fff262","6612e7f231d13a67b8e758cc","","","[0,1,2,3,4,5,6]","true","","","","","","","","","","","","","","","","","","","","","","","","","","","","","","","","","","","","","","","","",""
"30130","","","","fullscreen","3","409961","0.0-4.0","49","1","2025-07-09 09:07:14","7701e855f2ef39aa3fd6c71abdc6918a","41.114.9.251","Mozilla/5.0 (Windows NT 10.0; Win64; x64) AppleWebKit/537.36 (KHTML, like Gecko) Chrome/138.0.0.0 Safari/537.36","WebKit","Chrome","138.0.0.0","Windows","10.0","https://app.prolific.com/","en-US,en;q=0.9","6612e7f231d13a67b8e758cc","686d226cabeef709c732f8e1","686e3131478e3dc0e5fff262","6612e7f231d13a67b8e758cc","","","","","true","","","","","","","","","","","","","","","","","","","","","","","","","","","","","","","","","","","","","","","",""
"19485","1752052468186"," <p style='font-size:1.1em;line-height:1.25'>Thank you for completing the consent form and closing all other tabs.</p><p style='font-size:1.1em;line-height:1.25'>We will now invite you to fill in some demographic information and questionnaires, before starting the game.<br>This will take about 5 minutes.<br></p><p style='font-size:1.1em;line-height:1.25'>Press the <strong>Next</strong> button to continue.</p>","0","custom-html-button-response","4","429448","0.0-5.0","49","1","2025-07-09 09:07:14","7701e855f2ef39aa3fd6c71abdc6918a","41.114.9.251","Mozilla/5.0 (Windows NT 10.0; Win64; x64) AppleWebKit/537.36 (KHTML, like Gecko) Chrome/138.0.0.0 Safari/537.36","WebKit","Chrome","138.0.0.0","Windows","10.0","https://app.prolific.com/","en-US,en;q=0.9","6612e7f231d13a67b8e758cc","686d226cabeef709c732f8e1","686e3131478e3dc0e5fff262","6612e7f231d13a67b8e758cc","2025-07-09T09:14:28.187Z","","","","","","","","","","","","","","","","","","","","","","","","","","","","","","","","","","","","","","","","","","","",""
"4828","","","{""age"":""31""}","survey-text","5","434281","0.0-6.0-0.0","49","1","2025-07-09 09:07:14","7701e855f2ef39aa3fd6c71abdc6918a","41.114.9.251","Mozilla/5.0 (Windows NT 10.0; Win64; x64) AppleWebKit/537.36 (KHTML, like Gecko) Chrome/138.0.0.0 Safari/537.36","WebKit","Chrome","138.0.0.0","Windows","10.0","https://app.prolific.com/","en-US,en;q=0.9","6612e7f231d13a67b8e758cc","686d226cabeef709c732f8e1","686e3131478e3dc0e5fff262","6612e7f231d13a67b8e758cc","","","","","","0","demographics","","","","","","","","","","","","","","","","","","","","","","","","","","","","","","","","","","","","","",""
"8413","","","{""gender_identity"":""female/woman""}","survey-multi-choice","6","442695","0.0-6.0-1.0","49","1","2025-07-09 09:07:14","7701e855f2ef39aa3fd6c71abdc6918a","41.114.9.251","Mozilla/5.0 (Windows NT 10.0; Win64; x64) AppleWebKit/537.36 (KHTML, like Gecko) Chrome/138.0.0.0 Safari/537.36","WebKit","Chrome","138.0.0.0","Windows","10.0","https://app.prolific.com/","en-US,en;q=0.9","6612e7f231d13a67b8e758cc","686d226cabeef709c732f8e1","686e3131478e3dc0e5fff262","6612e7f231d13a67b8e758cc","","","[0]","","","1","demographics","","","","","","","","","","","","","","","","","","","","","","","","","","","","","","","","","","","","","",""
"6397","","","{""assigned_sex"":""female""}","survey-multi-choice","7","449095","0.0-6.0-2.0","49","1","2025-07-09 09:07:14","7701e855f2ef39aa3fd6c71abdc6918a","41.114.9.251","Mozilla/5.0 (Windows NT 10.0; Win64; x64) AppleWebKit/537.36 (KHTML, like Gecko) Chrome/138.0.0.0 Safari/537.36","WebKit","Chrome","138.0.0.0","Windows","10.0","https://app.prolific.com/","en-US,en;q=0.9","6612e7f231d13a67b8e758cc","686d226cabeef709c732f8e1","686e3131478e3dc0e5fff262","6612e7f231d13a67b8e758cc","","","[0]","","","2","demographics","","","","","","","","","","","","","","","","","","","","","","","","","","","","","","","","","","","","","",""
"8783","","","{""menstrual_cycle"":""Yes""}","survey-multi-choice","8","457880","0.0-6.0-3.0","49","1","2025-07-09 09:07:14","7701e855f2ef39aa3fd6c71abdc6918a","41.114.9.251","Mozilla/5.0 (Windows NT 10.0; Win64; x64) AppleWebKit/537.36 (KHTML, like Gecko) Chrome/138.0.0.0 Safari/537.36","WebKit","Chrome","138.0.0.0","Windows","10.0","https://app.prolific.com/","en-US,en;q=0.9","6612e7f231d13a67b8e758cc","686d226cabeef709c732f8e1","686e3131478e3dc0e5fff262","6612e7f231d13a67b8e758cc","","","[0]","","","4","demographics","","","","","","","","","","","","","","","","","","","","","","","","","","","","","","","","","","","","","",""
"20465","","","{""education"":""Vocational Qualifications (e.g. City & Guilds)""}","survey-multi-choice","9","478348","0.0-6.0-4.0","49","1","2025-07-09 09:07:14","7701e855f2ef39aa3fd6c71abdc6918a","41.114.9.251","Mozilla/5.0 (Windows NT 10.0; Win64; x64) AppleWebKit/537.36 (KHTML, like Gecko) Chrome/138.0.0.0 Safari/537.36","WebKit","Chrome","138.0.0.0","Windows","10.0","https://app.prolific.com/","en-US,en;q=0.9","6612e7f231d13a67b8e758cc","686d226cabeef709c732f8e1","686e3131478e3dc0e5fff262","6612e7f231d13a67b8e758cc","","","[0]","","","5","demographics","","","","","","","","","","","","","","","","","","","","","","","","","","","","","","","","","","","","","",""
"17164","","","{""education"":""GCSE/Standard Grades""}","survey-multi-choice","10","495514","0.0-6.0-5.0","49","1","2025-07-09 09:07:14","7701e855f2ef39aa3fd6c71abdc6918a","41.114.9.251","Mozilla/5.0 (Windows NT 10.0; Win64; x64) AppleWebKit/537.36 (KHTML, like Gecko) Chrome/138.0.0.0 Safari/537.36","WebKit","Chrome","138.0.0.0","Windows","10.0","https://app.prolific.com/","en-US,en;q=0.9","6612e7f231d13a67b8e758cc","686d226cabeef709c732f8e1","686e3131478e3dc0e5fff262","6612e7f231d13a67b8e758cc","2025-07-09T09:15:34.254Z","","[0]","","","6","demographics","","","","","","","","","","","","","","","","","","","","","","","","","","","","","","","","","","","","","",""
"35082","","","{""mental_health_condition"":""No"",""mental_health_treatment"":""No"",""psychiatric_medication"":""No""}","survey-text","11","530601","0.0-7.0-0.0","49","1","2025-07-09 09:07:14","7701e855f2ef39aa3fd6c71abdc6918a","41.114.9.251","Mozilla/5.0 (Windows NT 10.0; Win64; x64) AppleWebKit/537.36 (KHTML, like Gecko) Chrome/138.0.0.0 Safari/537.36","WebKit","Chrome","138.0.0.0","Windows","10.0","https://app.prolific.com/","en-US,en;q=0.9","6612e7f231d13a67b8e758cc","686d226cabeef709c732f8e1","686e3131478e3dc0e5fff262","6612e7f231d13a67b8e758cc","2025-07-09T09:16:09.340Z","","","","","1","mental_health","","","","","","","","","","","","","","","","","","","","","","","","","","","","","","","","","","","","","",""
"25592","","","{""depression_history"":[""Yes""]}","survey-multi-select","12","556196","0.0-7.0-1.0","49","1","2025-07-09 09:07:14","7701e855f2ef39aa3fd6c71abdc6918a","41.114.9.251","Mozilla/5.0 (Windows NT 10.0; Win64; x64) AppleWebKit/537.36 (KHTML, like Gecko) Chrome/138.0.0.0 Safari/537.36","WebKit","Chrome","138.0.0.0","Windows","10.0","https://app.prolific.com/","en-US,en;q=0.9","6612e7f231d13a67b8e758cc","686d226cabeef709c732f8e1","686e3131478e3dc0e5fff262","6612e7f231d13a67b8e758cc","","","[0]","","","","mental_health","","","","","","","","","","","","","","","","","","","","","","","","","","","","","","","","","","","","","",""
"30413","","","{""depression_episodes"":""3-5"",""depression_recent"":""Within the past year""}","survey-multi-choice","13","586611","0.0-7.0-2.0-0.0","49","1","2025-07-09 09:07:14","7701e855f2ef39aa3fd6c71abdc6918a","41.114.9.251","Mozilla/5.0 (Windows NT 10.0; Win64; x64) AppleWebKit/537.36 (KHTML, like Gecko) Chrome/138.0.0.0 Safari/537.36","WebKit","Chrome","138.0.0.0","Windows","10.0","https://app.prolific.com/","en-US,en;q=0.9","6612e7f231d13a67b8e758cc","686d226cabeef709c732f8e1","686e3131478e3dc0e5fff262","6612e7f231d13a67b8e758cc","2025-07-09T09:17:05.350Z","","[0,1]","","","3","mental_health","","","","","","","","","","","","","","","","","","","","","","","","","","","","","","","","","","","","","",""
"123462.69999998808","","","","survey-template","14","710079","0.0-7.0-3.0","49","1","2025-07-09 09:07:14","7701e855f2ef39aa3fd6c71abdc6918a","41.114.9.251","Mozilla/5.0 (Windows NT 10.0; Win64; x64) AppleWebKit/537.36 (KHTML, like Gecko) Chrome/138.0.0.0 Safari/537.36","WebKit","Chrome","138.0.0.0","Windows","10.0","https://app.prolific.com/","en-US,en;q=0.9","6612e7f231d13a67b8e758cc","686d226cabeef709c732f8e1","686e3131478e3dc0e5fff262","6612e7f231d13a67b8e758cc","2025-07-09T09:19:08.818Z","","","","","","ius","{""Q01"":""2"",""Q02"":""3"",""Q03"":""3"",""Q04"":""4"",""Q05"":""3"",""Q06"":""1"",""Q07"":""3"",""Q08"":""0"",""Q09"":""2"",""Q10"":""3"",""Q11"":""2"",""Q12"":""3"",""Q13"":""3""}","[0,1,2,3,4,5,6,7,8,9,10,11,12]","[""Q01"",""Q02"",""Q03"",""Q04"",""Q05"",""Q06"",""Q07"",""Q08"",""Q09"",""Q10"",""Q11"",""Q12"",""Q13""]","[22480.19999998808,30446.899999976158,39997.89999997616,46946.09999996424,58494,66797.39999997616,72863.5,84564,94504,100846.19999998808,109745.5,114662.39999997616,121945.19999998808]","[]","[22480.19999998808,30446.899999976158,39997.89999997616,46946.09999996424,58494,66797.39999997616,72863.5,84564,94504,100846.19999998808,109745.5,114662.39999997616,121945.19999998808,123460.79999995232]","0.5384615384615384","0.5","0","","","","","","","","","","","","","","","","","","","","","","","","","","","","",""
"9581","1752052758400","<p style='font-size:1.1em;line-height:1.25'>In the following, we will ask you a few questions relating to your experiences over the past month.<br></p><p style='font-size:1.1em;line-height:1.25'>Press the <strong>Next</strong> button to continue.</p>","0","custom-html-button-response","15","719661","0.0-7.0-4.0","49","1","2025-07-09 09:07:14","7701e855f2ef39aa3fd6c71abdc6918a","41.114.9.251","Mozilla/5.0 (Windows NT 10.0; Win64; x64) AppleWebKit/537.36 (KHTML, like Gecko) Chrome/138.0.0.0 Safari/537.36","WebKit","Chrome","138.0.0.0","Windows","10.0","https://app.prolific.com/","en-US,en;q=0.9","6612e7f231d13a67b8e758cc","686d226cabeef709c732f8e1","686e3131478e3dc0e5fff262","6612e7f231d13a67b8e758cc","2025-07-09T09:19:18.400Z","","","","","","","","","","","","","","","","","","","","","","","","","","","","","","","","","","","","","","","","","","","",""
"131817","","","","survey-template","16","851481","0.0-7.0-5.0","49","1","2025-07-09 09:07:14","7701e855f2ef39aa3fd6c71abdc6918a","41.114.9.251","Mozilla/5.0 (Windows NT 10.0; Win64; x64) AppleWebKit/537.36 (KHTML, like Gecko) Chrome/138.0.0.0 Safari/537.36","WebKit","Chrome","138.0.0.0","Windows","10.0","https://app.prolific.com/","en-US,en;q=0.9","6612e7f231d13a67b8e758cc","686d226cabeef709c732f8e1","686e3131478e3dc0e5fff262","6612e7f231d13a67b8e758cc","2025-07-09T09:21:30.220Z","","","","","","pss","{""Q01"":""3"",""Q02"":""3"",""Q03"":""2"",""Q04"":""2"",""Q05"":""4"",""Q06"":""3"",""Q07"":""2"",""Q08"":""3"",""Q09"":""4"",""Q10"":""2""}","[0,1,2,3,4,5,6,7,8,9]","[""Q01"",""Q02"",""Q03"",""Q04"",""Q05"",""Q06"",""Q07"",""Q08"",""Q09"",""Q10""]","[25665.80000001192,37283.40000003576,44168.69999998808,56554.40000003576,66714.5,89615.40000003576,98164.69999998808,104384.90000003576,116731,130263.69999998808]","[]","[0,25665.80000001192,37283.40000003576,44168.69999998808,56554.40000003576,66714.5,89615.40000003576,98164.69999998808,104384.90000003576,116731,130263.69999998808,131814.60000002384]","0.4","0.3333333333333333","0","","","","","","","","","","","","","","","","","","","","","","","","","","","","",""
"8161","1752052898382","<p style='font-size:1.1em;line-height:1.25'>Thank you for your answers! Now we will ask you a few more questions relating to your feelings in the last 24 hours.<br></p><p style='font-size:1.1em;line-height:1.25'>Press the <strong>Next</strong> button to continue.</p>","0","custom-html-button-response","17","859643","0.0-7.0-6.0","49","1","2025-07-09 09:07:14","7701e855f2ef39aa3fd6c71abdc6918a","41.114.9.251","Mozilla/5.0 (Windows NT 10.0; Win64; x64) AppleWebKit/537.36 (KHTML, like Gecko) Chrome/138.0.0.0 Safari/537.36","WebKit","Chrome","138.0.0.0","Windows","10.0","https://app.prolific.com/","en-US,en;q=0.9","6612e7f231d13a67b8e758cc","686d226cabeef709c732f8e1","686e3131478e3dc0e5fff262","6612e7f231d13a67b8e758cc","2025-07-09T09:21:38.383Z","","","","","","","","","","","","","","","","","","","","","","","","","","","","","","","","","","","","","","","","","","","",""
"169300.10000002384","","","","survey-template","18","1028948","0.0-7.0-7.0","49","1","2025-07-09 09:07:14","7701e855f2ef39aa3fd6c71abdc6918a","41.114.9.251","Mozilla/5.0 (Windows NT 10.0; Win64; x64) AppleWebKit/537.36 (KHTML, like Gecko) Chrome/138.0.0.0 Safari/537.36","WebKit","Chrome","138.0.0.0","Windows","10.0","https://app.prolific.com/","en-US,en;q=0.9","6612e7f231d13a67b8e758cc","686d226cabeef709c732f8e1","686e3131478e3dc0e5fff262","6612e7f231d13a67b8e758cc","2025-07-09T09:24:27.687Z","","","","","","drsp","{""Q01"":""3"",""Q02"":""1"",""Q03"":""0"",""Q04"":""1"",""Q05"":""2"",""Q06"":""2"",""Q07"":""4"",""Q08"":""3"",""Q09"":""1"",""Q10"":""2"",""Q11"":""0"",""Q12"":""0"",""Q13"":""0"",""Q14"":""3"",""Q15"":""0"",""Q16"":""1"",""Q17"":""0"",""Q18"":""3"",""Q19"":""1"",""Q20"":""0"",""Q21"":""0""}","[0,1,2,3,4,5,6,7,8,9,10,11,12,13,14,15,16,17,18,19,20]","[""Q01"",""Q02"",""Q03"",""Q04"",""Q05"",""Q05"",""Q06"",""Q07"",""Q08"",""Q09"",""Q09"",""Q10"",""Q11"",""Q12"",""Q13"",""Q14"",""Q15"",""Q14"",""Q16"",""Q17"",""Q18"",""Q19"",""Q20"",""Q21""]","[6781.899999976158,14101.399999976158,19179.899999976158,24018.19999998808,31597.600000023842,32930.89999997616,40546.39999997616,47469.80000001192,52664.39999997616,58446.80000001192,61448.30000001192,66881.5,72364,78831.30000001192,82053.19999998808,91931.39999997616,98312.19999998808,106863.19999998808,118631.60000002384,121636.19999998808,137647.69999998808,149547.10000002384,160815,167279.39999997616]","[]","[0.10000002384185791,6781.899999976158,14101.399999976158,19179.899999976158,24018.19999998808,31597.600000023842,32930.89999997616,40546.39999997616,47469.80000001192,52664.39999997616,58446.80000001192,61448.30000001192,66881.5,72364,78831.30000001192,82053.19999998808,91931.39999997616,98312.19999998808,105417.80000001192,106863.19999998808,118631.60000002384,121636.19999998808,137647.69999998808,149547.10000002384,157663.39999997616,160815,167279.39999997616,169296.69999998808]","0.38095238095238093","0.4","0","","","","","","","","","","","","","","","","","","","","","","","","","","","","",""
"21466","","","","survey-template","19","1050416","0.0-7.0-8.0","49","1","2025-07-09 09:07:14","7701e855f2ef39aa3fd6c71abdc6918a","41.114.9.251","Mozilla/5.0 (Windows NT 10.0; Win64; x64) AppleWebKit/537.36 (KHTML, like Gecko) Chrome/138.0.0.0 Safari/537.36","WebKit","Chrome","138.0.0.0","Windows","10.0","https://app.prolific.com/","en-US,en;q=0.9","6612e7f231d13a67b8e758cc","686d226cabeef709c732f8e1","686e3131478e3dc0e5fff262","6612e7f231d13a67b8e758cc","2025-07-09T09:24:49.155Z","","","","","","stress","{""Q01"":""1"",""Q02"":""5"",""Q03"":""1""}","[0,1,2]","[""Q01"",""Q02"",""Q03""]","[8081.5,12093.600000023842,19646.5]","[]","[8081.5,12093.600000023842,19646.5,21465.19999998808]","0.6666666666666666","1","0","","","","","","","","","","","","","","","","","","","","","","","","","","","","",""
"316530","","","","instructions","20","1366947","0.0-8.0-0.0","49","1","2025-07-09 09:07:14","7701e855f2ef39aa3fd6c71abdc6918a","41.114.9.251","Mozilla/5.0 (Windows NT 10.0; Win64; x64) AppleWebKit/537.36 (KHTML, like Gecko) Chrome/138.0.0.0 Safari/537.36","WebKit","Chrome","138.0.0.0","Windows","10.0","https://app.prolific.com/","en-US,en;q=0.9","6612e7f231d13a67b8e758cc","686d226cabeef709c732f8e1","686e3131478e3dc0e5fff262","6612e7f231d13a67b8e758cc","","[{""page_index"":0,""viewing_time"":77276},{""page_index"":1,""viewing_time"":104472},{""page_index"":2,""viewing_time"":63513},{""page_index"":3,""viewing_time"":71269}]","","","","","","","","","","","","","","","","","","","","","","","","","","","","","","","","","","","","","","","","","","",""
"","","","","ctl-task-cpt","21","1418487","0.0-8.0-1.0","49","1","2025-07-09 09:07:14","7701e855f2ef39aa3fd6c71abdc6918a","41.114.9.251","Mozilla/5.0 (Windows NT 10.0; Win64; x64) AppleWebKit/537.36 (KHTML, like Gecko) Chrome/138.0.0.0 Safari/537.36","WebKit","Chrome","138.0.0.0","Windows","10.0","https://app.prolific.com/","en-US,en;q=0.9","6612e7f231d13a67b8e758cc","686d226cabeef709c732f8e1","686e3131478e3dc0e5fff262","6612e7f231d13a67b8e758cc","","","","","","","","","","","","","","","","","win-only","3","g1:SW,g2:NE","1","0","1","1370323.2","11799.5","15800.8","48530.3","2","4","4","6","2","-4","-10","0","0","0","4001.3","4000","-2990","[""up"",""right""]","{""num_key_presses"":12,""num_perfect"":5,""num_errors"":6,""num_randdir"":0,""num_randdir_good_moves"":0,""num_whilered"":1,""num_whileblue"":0,""num_blue"":1,""num_good_moves"":5}","[296.22232142857143,294.12857142857143,3.5,296.22232142857143,294.12857142857143,102.6,296.22232142857143,294.12857142857143,206.3,296.22232142857143,294.12857142857143,307.3,296.22232142857143,294.12857142857143,411,296.22232142857143,294.12857142857143,512.2,296.22232142857143,294.12857142857143,616.3,296.22232142857143,294.12857142857143,716.4,296.22232142857143,294.12857142857143,821.4,296.22232142857143,294.12857142857143,921.9,296.22232142857143,294.12857142857143,1026.5,296.22232142857143,294.12857142857143,1126.9,293.22232142857143,297.12857142857143,1231.2,288.22232142857143,301.12857142857143,1331.4,286.22232142857143,306.12857142857143,1437.4,278.22232142857143,321.12857142857143,1541,269.22232142857143,334.12857142857143,1641.2,264.22232142857143,340.12857142857143,1741.4,264.22232142857143,341.12857142857143,1841.7,262.22232142857143,341.12857142857143,1941.8,262.22232142857143,341.12857142857143,2047.3,262.22232142857143,341.12857142857143,2147.3,262.22232142857143,341.12857142857143,2247.4,263.22232142857143,341.12857142857143,2352.2,306.22232142857143,321.12857142857143,2456.9,341.22232142857143,300.12857142857143,2561.6,346.22232142857143,295.12857142857143,2666.5,346.22232142857143,294.12857142857143,2766.5,346.22232142857143,293.12857142857143,2871.9,346.22232142857143,291.12857142857143,2972.8,346.22232142857143,288.12857142857143,3076.9,346.22232142857143,287.12857142857143,3180.9,346.22232142857143,287.12857142857143,3281.1,346.22232142857143,286.12857142857143,3382,347.22232142857143,286.12857142857143,3486.7,347.22232142857143,286.12857142857143,3586.7,347.22232142857143,286.12857142857143,3686.8,347.22232142857143,286.12857142857143,3791.1,347.22232142857143,286.12857142857143,3891.1,347.22232142857143,286.12857142857143,3991.5]","[4693.3,4693.3,2436.7,2005.4,251.2,""smooth"",""right"",""right"",""good_move"",5604.3,909.7,2398.9,4694.7,-1489.3,""error"",""-"",""-"",""no_move"",8133.9,2529.3,2539.3,6605.7,-1011,""error"",""-"",""-"",""no_move"",11564.5,3430.3,2663.8,9135.8,-235.1,""error"",""-"",""-"",""no_move"",15648.9,4083,2161.9,12570.1,916.9,""smooth"",""right"",""right"",""good_move"",15948,298.5,3086,15649.7,-2787.6,""error"",""-"",""-"",""no_move"",18315.1,2366.8,2474.1,16950.5,-1109.5,""error"",""-"",""-"",""no_move"",18609.1,293.6,2474.1,16950.5,-815.5,""while_red"",""-"",""-"",""no_move"",23629,5313.5,2468.6,19320.3,1840.2,""smooth"",""up"",""up"",""good_move"",26923.7,3294.1,2821,23629.6,473.1,""smooth"",""up"",""up"",""good_move"",28980.3,2056.2,1727.8,26924.1,328.4,""smooth"",""up"",""up"",""good_move"",29479.9,499.1,2670.9,28980.8,-2171.7,""error"",""-"",""-"",""no_move""]","",""
"58059","","","","instructions","22","1476547","0.0-8.0-2.0","49","1","2025-07-09 09:07:14","7701e855f2ef39aa3fd6c71abdc6918a","41.114.9.251","Mozilla/5.0 (Windows NT 10.0; Win64; x64) AppleWebKit/537.36 (KHTML, like Gecko) Chrome/138.0.0.0 Safari/537.36","WebKit","Chrome","138.0.0.0","Windows","10.0","https://app.prolific.com/","en-US,en;q=0.9","6612e7f231d13a67b8e758cc","686d226cabeef709c732f8e1","686e3131478e3dc0e5fff262","6612e7f231d13a67b8e758cc","","[{""page_index"":0,""viewing_time"":58059}]","","","","","","","","","","","","","","","","","","","","","","","","","","","","","","","","","","","","","","","","","","",""
"","","","","ctl-task-cpt","23","1524581","0.0-8.0-3.0","49","1","2025-07-09 09:07:14","7701e855f2ef39aa3fd6c71abdc6918a","41.114.9.251","Mozilla/5.0 (Windows NT 10.0; Win64; x64) AppleWebKit/537.36 (KHTML, like Gecko) Chrome/138.0.0.0 Safari/537.36","WebKit","Chrome","138.0.0.0","Windows","10.0","https://app.prolific.com/","en-US,en;q=0.9","6612e7f231d13a67b8e758cc","686d226cabeef709c732f8e1","686e3131478e3dc0e5fff262","6612e7f231d13a67b8e758cc","","","","","","","","","","","","","","","","","win-only","3","g1:SW,g2:NE","0.35","0","3","1479922.6","8226.6","12232.7","45014.1","2","4","8","6","1","-2","-4","0","0","0","4006","4000","-3000","[""down"",""left""]","{""num_key_presses"":8,""num_perfect"":3,""num_errors"":2,""num_randdir"":3,""num_randdir_good_moves"":2,""num_whilered"":0,""num_whileblue"":1,""num_blue"":3,""num_good_moves"":5}","[296.22232142857143,296.12857142857143,0.5,296.22232142857143,296.12857142857143,100.4,296.22232142857143,296.12857142857143,206.4,296.22232142857143,296.12857142857143,306.5,296.22232142857143,296.12857142857143,409.3,296.22232142857143,296.12857142857143,514.3,296.22232142857143,296.12857142857143,615.4,296.22232142857143,296.12857142857143,722,296.22232142857143,296.12857142857143,822.9,296.22232142857143,296.12857142857143,925.3,296.22232142857143,296.12857142857143,1029.7,296.22232142857143,296.12857142857143,1129.9,296.22232142857143,296.12857142857143,1233.9,296.22232142857143,296.12857142857143,1334,296.22232142857143,296.12857142857143,1434.2,296.22232142857143,296.12857142857143,1540.1,296.22232142857143,296.12857142857143,1641.2,296.22232142857143,296.12857142857143,1744.7,296.22232142857143,296.12857142857143,1850.1,296.22232142857143,296.12857142857143,1956.1,296.22232142857143,296.12857142857143,2059.9,296.22232142857143,296.12857142857143,2160.2,296.22232142857143,296.12857142857143,2264.5,296.22232142857143,296.12857142857143,2364.7,296.22232142857143,296.12857142857143,2464.8,296.22232142857143,296.12857142857143,2570.8,296.22232142857143,296.12857142857143,2672.3,296.22232142857143,296.12857142857143,2774.7,296.22232142857143,296.12857142857143,2880.1,296.22232142857143,296.12857142857143,2984.3,296.22232142857143,296.12857142857143,3084.6,296.22232142857143,296.12857142857143,3189.7,296.22232142857143,296.12857142857143,3293.9,296.22232142857143,296.12857142857143,3393.9,296.22232142857143,296.12857142857143,3494.8,296.22232142857143,296.12857142857143,3594.8,296.22232142857143,296.12857142857143,3694.9,296.22232142857143,296.12857142857143,3799.7,296.22232142857143,296.12857142857143,3900.6]","[266.1,266.1,1000,0,-733.9,""error"",""-"",""-"",""no_move"",4470.1,4203.8,2647.8,1266.4,555.9,""oops"",""down"",""left"",""good_move"",10826.8,6356.1,1892.8,8408.3,525.7,""oops"",""left"",""left"",""good_move"",13872.9,3045.6,2605.1,10827.4,440.4,""smooth"",""down"",""down"",""good_move"",16837.1,2963.8,2289.2,13873.3,674.6,""oops"",""down"",""right"",""bad_move"",19733.4,2895.9,2500.7,16837.5,395.2,""while_blue"",""left"",""right"",""bad_move"",26841.5,7107.6,3488.3,23018.4,334.8,""smooth"",""left"",""left"",""good_move"",30542.5,3700.7,2427.3,26841.8,1273.4,""smooth"",""left"",""left"",""good_move""]","",""
"107593","","","","instructions","24","1632175","0.0-8.0-4.0","49","1","2025-07-09 09:07:14","7701e855f2ef39aa3fd6c71abdc6918a","41.114.9.251","Mozilla/5.0 (Windows NT 10.0; Win64; x64) AppleWebKit/537.36 (KHTML, like Gecko) Chrome/138.0.0.0 Safari/537.36","WebKit","Chrome","138.0.0.0","Windows","10.0","https://app.prolific.com/","en-US,en;q=0.9","6612e7f231d13a67b8e758cc","686d226cabeef709c732f8e1","686e3131478e3dc0e5fff262","6612e7f231d13a67b8e758cc","","[{""page_index"":0,""viewing_time"":34562},{""page_index"":1,""viewing_time"":73030}]","","","","","","","","","","","","","","","","","","","","","","","","","","","","","","","","","","","","","","","","","","",""
"71395","","","{""green_ball"":[""Ball always moves in the direction I press""]}","survey-multi-select","25","1703573","0.0-8.0-5.0-0.0","49","1","2025-07-09 09:07:14","7701e855f2ef39aa3fd6c71abdc6918a","41.114.9.251","Mozilla/5.0 (Windows NT 10.0; Win64; x64) AppleWebKit/537.36 (KHTML, like Gecko) Chrome/138.0.0.0 Safari/537.36","WebKit","Chrome","138.0.0.0","Windows","10.0","https://app.prolific.com/","en-US,en;q=0.9","6612e7f231d13a67b8e758cc","686d226cabeef709c732f8e1","686e3131478e3dc0e5fff262","6612e7f231d13a67b8e758cc","","","[0]","","","","quiz","","","","","","","","","","","","","","","","","","","","","","","","","","","","","","","","","","","","","false",""
"7259","","<p align='center'><b>INCORRECT.</b> Usually the green ball moves in the indicated direction, but sometimes it shakes and moves randomly. </p>","0","html-button-response","26","1710835","0.0-8.0-5.0-1.0","49","1","2025-07-09 09:07:14","7701e855f2ef39aa3fd6c71abdc6918a","41.114.9.251","Mozilla/5.0 (Windows NT 10.0; Win64; x64) AppleWebKit/537.36 (KHTML, like Gecko) Chrome/138.0.0.0 Safari/537.36","WebKit","Chrome","138.0.0.0","Windows","10.0","https://app.prolific.com/","en-US,en;q=0.9","6612e7f231d13a67b8e758cc","686d226cabeef709c732f8e1","686e3131478e3dc0e5fff262","6612e7f231d13a67b8e758cc","","","","","","","","","","","","","","","","","","","","","","","","","","","","","","","","","","","","","","","","","","","","",""
"24197","","","{""green_ball"":[""Ball always shakes and moves in a random direction""]}","survey-multi-select","27","1735036","0.0-8.0-5.1-0.1","49","1","2025-07-09 09:07:14","7701e855f2ef39aa3fd6c71abdc6918a","41.114.9.251","Mozilla/5.0 (Windows NT 10.0; Win64; x64) AppleWebKit/537.36 (KHTML, like Gecko) Chrome/138.0.0.0 Safari/537.36","WebKit","Chrome","138.0.0.0","Windows","10.0","https://app.prolific.com/","en-US,en;q=0.9","6612e7f231d13a67b8e758cc","686d226cabeef709c732f8e1","686e3131478e3dc0e5fff262","6612e7f231d13a67b8e758cc","","","[0]","","","","quiz","","","","","","","","","","","","","","","","","","","","","","","","","","","","","","","","","","","","","false",""
"27115","","<p align='center'><b>INCORRECT.</b> Usually the green ball moves in the indicated direction, but sometimes it shakes and moves randomly. </p>","0","html-button-response","28","1762155","0.0-8.0-5.1-1.1","49","1","2025-07-09 09:07:14","7701e855f2ef39aa3fd6c71abdc6918a","41.114.9.251","Mozilla/5.0 (Windows NT 10.0; Win64; x64) AppleWebKit/537.36 (KHTML, like Gecko) Chrome/138.0.0.0 Safari/537.36","WebKit","Chrome","138.0.0.0","Windows","10.0","https://app.prolific.com/","en-US,en;q=0.9","6612e7f231d13a67b8e758cc","686d226cabeef709c732f8e1","686e3131478e3dc0e5fff262","6612e7f231d13a67b8e758cc","","","","","","","","","","","","","","","","","","","","","","","","","","","","","","","","","","","","","","","","","","","","",""
"68796","","","{""green_ball"":[""Ball always shakes and moves in a random direction"",""Ball always moves in the direction I press"",""Ball sometimes shakes and moves in a random direction""]}","survey-multi-select","29","1830955","0.0-8.0-5.2-0.2","49","1","2025-07-09 09:07:14","7701e855f2ef39aa3fd6c71abdc6918a","41.114.9.251","Mozilla/5.0 (Windows NT 10.0; Win64; x64) AppleWebKit/537.36 (KHTML, like Gecko) Chrome/138.0.0.0 Safari/537.36","WebKit","Chrome","138.0.0.0","Windows","10.0","https://app.prolific.com/","en-US,en;q=0.9","6612e7f231d13a67b8e758cc","686d226cabeef709c732f8e1","686e3131478e3dc0e5fff262","6612e7f231d13a67b8e758cc","","","[0]","","","","quiz","","","","","","","","","","","","","","","","","","","","","","","","","","","","","","","","","","","","","false",""
"6921","","<p align='center'><b>INCORRECT.</b> Usually the green ball moves in the indicated direction, but sometimes it shakes and moves randomly. </p>","0","html-button-response","30","1837878","0.0-8.0-5.2-1.2","49","1","2025-07-09 09:07:14","7701e855f2ef39aa3fd6c71abdc6918a","41.114.9.251","Mozilla/5.0 (Windows NT 10.0; Win64; x64) AppleWebKit/537.36 (KHTML, like Gecko) Chrome/138.0.0.0 Safari/537.36","WebKit","Chrome","138.0.0.0","Windows","10.0","https://app.prolific.com/","en-US,en;q=0.9","6612e7f231d13a67b8e758cc","686d226cabeef709c732f8e1","686e3131478e3dc0e5fff262","6612e7f231d13a67b8e758cc","","","","","","","","","","","","","","","","","","","","","","","","","","","","","","","","","","","","","","","","","","","","",""
"6622","","","{""green_ball"":[""Ball sometimes shakes and moves in a random direction""]}","survey-multi-select","31","1844501","0.0-8.0-5.3-0.3","49","1","2025-07-09 09:07:14","7701e855f2ef39aa3fd6c71abdc6918a","41.114.9.251","Mozilla/5.0 (Windows NT 10.0; Win64; x64) AppleWebKit/537.36 (KHTML, like Gecko) Chrome/138.0.0.0 Safari/537.36","WebKit","Chrome","138.0.0.0","Windows","10.0","https://app.prolific.com/","en-US,en;q=0.9","6612e7f231d13a67b8e758cc","686d226cabeef709c732f8e1","686e3131478e3dc0e5fff262","6612e7f231d13a67b8e758cc","","","[0]","","","","quiz","","","","","","","","","","","","","","","","","","","","","","","","","","","","","","","","","","","","","true",""
"12601","","<p align='center'><b>CORRECT!</b> Indeed, the green ball may sometimes shake and move in a random direction.</p>","0","html-button-response","32","1857104","0.0-8.0-5.3-1.3","49","1","2025-07-09 09:07:14","7701e855f2ef39aa3fd6c71abdc6918a","41.114.9.251","Mozilla/5.0 (Windows NT 10.0; Win64; x64) AppleWebKit/537.36 (KHTML, like Gecko) Chrome/138.0.0.0 Safari/537.36","WebKit","Chrome","138.0.0.0","Windows","10.0","https://app.prolific.com/","en-US,en;q=0.9","6612e7f231d13a67b8e758cc","686d226cabeef709c732f8e1","686e3131478e3dc0e5fff262","6612e7f231d13a67b8e758cc","","","","","","","","","","","","","","","","","","","","","","","","","","","","","","","","","","","","","","","","","","","","",""
"29753","","","{""yellow_ball"":[""Ball doesn‘t move and I get -1 penalty point""]}","survey-multi-select","33","1886860","0.0-8.0-6.0-0.0","49","1","2025-07-09 09:07:14","7701e855f2ef39aa3fd6c71abdc6918a","41.114.9.251","Mozilla/5.0 (Windows NT 10.0; Win64; x64) AppleWebKit/537.36 (KHTML, like Gecko) Chrome/138.0.0.0 Safari/537.36","WebKit","Chrome","138.0.0.0","Windows","10.0","https://app.prolific.com/","en-US,en;q=0.9","6612e7f231d13a67b8e758cc","686d226cabeef709c732f8e1","686e3131478e3dc0e5fff262","6612e7f231d13a67b8e758cc","","","[0]","","","","quiz","","","","","","","","","","","","","","","","","","","","","","","","","","","","","","","","","","","","","true",""
"3444","","<p align='center'><b>CORRECT!</b> Indeed, the yellow ball never moves and you receive a penalty.</p>","0","html-button-response","34","1890307","0.0-8.0-6.0-1.0","49","1","2025-07-09 09:07:14","7701e855f2ef39aa3fd6c71abdc6918a","41.114.9.251","Mozilla/5.0 (Windows NT 10.0; Win64; x64) AppleWebKit/537.36 (KHTML, like Gecko) Chrome/138.0.0.0 Safari/537.36","WebKit","Chrome","138.0.0.0","Windows","10.0","https://app.prolific.com/","en-US,en;q=0.9","6612e7f231d13a67b8e758cc","686d226cabeef709c732f8e1","686e3131478e3dc0e5fff262","6612e7f231d13a67b8e758cc","","","","","","","","","","","","","","","","","","","","","","","","","","","","","","","","","","","","","","","","","","","","",""
"5989","","","{""blue_ball"":[""Ball doesn‘t move and I get -1 penalty point""]}","survey-multi-select","35","1896298","0.0-8.0-7.0-0.0","49","1","2025-07-09 09:07:14","7701e855f2ef39aa3fd6c71abdc6918a","41.114.9.251","Mozilla/5.0 (Windows NT 10.0; Win64; x64) AppleWebKit/537.36 (KHTML, like Gecko) Chrome/138.0.0.0 Safari/537.36","WebKit","Chrome","138.0.0.0","Windows","10.0","https://app.prolific.com/","en-US,en;q=0.9","6612e7f231d13a67b8e758cc","686d226cabeef709c732f8e1","686e3131478e3dc0e5fff262","6612e7f231d13a67b8e758cc","","","[0]","","","","quiz","","","","","","","","","","","","","","","","","","","","","","","","","","","","","","","","","","","","","false",""
"8808","","<p align='center'><b>INCORRECT.</b> The blue ball always shakes and moves randomly.</p>","0","html-button-response","36","1905106","0.0-8.0-7.0-1.0","49","1","2025-07-09 09:07:14","7701e855f2ef39aa3fd6c71abdc6918a","41.114.9.251","Mozilla/5.0 (Windows NT 10.0; Win64; x64) AppleWebKit/537.36 (KHTML, like Gecko) Chrome/138.0.0.0 Safari/537.36","WebKit","Chrome","138.0.0.0","Windows","10.0","https://app.prolific.com/","en-US,en;q=0.9","6612e7f231d13a67b8e758cc","686d226cabeef709c732f8e1","686e3131478e3dc0e5fff262","6612e7f231d13a67b8e758cc","","","","","","","","","","","","","","","","","","","","","","","","","","","","","","","","","","","","","","","","","","","","",""
"13613","","","{""blue_ball"":[""Ball always shakes and moves in a random direction""]}","survey-multi-select","37","1918721","0.0-8.0-7.1-0.1","49","1","2025-07-09 09:07:14","7701e855f2ef39aa3fd6c71abdc6918a","41.114.9.251","Mozilla/5.0 (Windows NT 10.0; Win64; x64) AppleWebKit/537.36 (KHTML, like Gecko) Chrome/138.0.0.0 Safari/537.36","WebKit","Chrome","138.0.0.0","Windows","10.0","https://app.prolific.com/","en-US,en;q=0.9","6612e7f231d13a67b8e758cc","686d226cabeef709c732f8e1","686e3131478e3dc0e5fff262","6612e7f231d13a67b8e758cc","","","[0]","","","","quiz","","","","","","","","","","","","","","","","","","","","","","","","","","","","","","","","","","","","","true",""
"4088","","<p align='center'><b>CORRECT!</b> Indeed, the blue ball always shakes and moves in a random direction. Also there is a penalty of -1 point.</p>","0","html-button-response","38","1922810","0.0-8.0-7.1-1.1","49","1","2025-07-09 09:07:14","7701e855f2ef39aa3fd6c71abdc6918a","41.114.9.251","Mozilla/5.0 (Windows NT 10.0; Win64; x64) AppleWebKit/537.36 (KHTML, like Gecko) Chrome/138.0.0.0 Safari/537.36","WebKit","Chrome","138.0.0.0","Windows","10.0","https://app.prolific.com/","en-US,en;q=0.9","6612e7f231d13a67b8e758cc","686d226cabeef709c732f8e1","686e3131478e3dc0e5fff262","6612e7f231d13a67b8e758cc","","","","","","","","","","","","","","","","","","","","","","","","","","","","","","","","","","","","","","","","","","","","",""
"10813","","","{""bonus"":[""When I reach 50% of points""]}","survey-multi-select","39","1933625","0.0-8.0-8.0-0.0","49","1","2025-07-09 09:07:14","7701e855f2ef39aa3fd6c71abdc6918a","41.114.9.251","Mozilla/5.0 (Windows NT 10.0; Win64; x64) AppleWebKit/537.36 (KHTML, like Gecko) Chrome/138.0.0.0 Safari/537.36","WebKit","Chrome","138.0.0.0","Windows","10.0","https://app.prolific.com/","en-US,en;q=0.9","6612e7f231d13a67b8e758cc","686d226cabeef709c732f8e1","686e3131478e3dc0e5fff262","6612e7f231d13a67b8e758cc","","","[0]","","","","quiz","","","","","","","","","","","","","","","","","","","","","","","","","","","","","","","","","","","","","true",""
"3617","","<p align='center'><b>CORRECT!</b> Indeed, you receive 2 pounds extra when you reach 50% of points.</p>","0","html-button-response","40","1937243","0.0-8.0-8.0-1.0","49","1","2025-07-09 09:07:14","7701e855f2ef39aa3fd6c71abdc6918a","41.114.9.251","Mozilla/5.0 (Windows NT 10.0; Win64; x64) AppleWebKit/537.36 (KHTML, like Gecko) Chrome/138.0.0.0 Safari/537.36","WebKit","Chrome","138.0.0.0","Windows","10.0","https://app.prolific.com/","en-US,en;q=0.9","6612e7f231d13a67b8e758cc","686d226cabeef709c732f8e1","686e3131478e3dc0e5fff262","6612e7f231d13a67b8e758cc","","","","","","","","","","","","","","","","","","","","","","","","","","","","","","","","","","","","","","","","","","","","",""
"13451","","","","instructions","41","1950696","0.0-8.0-9.0","49","1","2025-07-09 09:07:14","7701e855f2ef39aa3fd6c71abdc6918a","41.114.9.251","Mozilla/5.0 (Windows NT 10.0; Win64; x64) AppleWebKit/537.36 (KHTML, like Gecko) Chrome/138.0.0.0 Safari/537.36","WebKit","Chrome","138.0.0.0","Windows","10.0","https://app.prolific.com/","en-US,en;q=0.9","6612e7f231d13a67b8e758cc","686d226cabeef709c732f8e1","686e3131478e3dc0e5fff262","6612e7f231d13a67b8e758cc","","[{""page_index"":0,""viewing_time"":13451}]","","","","","","","","","","","","","","","","","","","","","","","","","","","","","","","","","","","","","","","","","","",""
"52873","","<p>Before you start with this game please answer the following three questions yourself. </p>
  <p>Through this game, we measure several aspects of your cognitive performance, such as reaction times, multi-tasking capabilities </p>
  <p>and the ability to assess the situation you are in.</p>
  <p></p>
  <p><b>How good do you usually are in such tasks?</b></p>","97","html-slider-response","42","2003571","0.0-9.0-0.0","49","1","2025-07-09 09:07:14","7701e855f2ef39aa3fd6c71abdc6918a","41.114.9.251","Mozilla/5.0 (Windows NT 10.0; Win64; x64) AppleWebKit/537.36 (KHTML, like Gecko) Chrome/138.0.0.0 Safari/537.36","WebKit","Chrome","138.0.0.0","Windows","10.0","https://app.prolific.com/","en-US,en;q=0.9","6612e7f231d13a67b8e758cc","686d226cabeef709c732f8e1","686e3131478e3dc0e5fff262","6612e7f231d13a67b8e758cc","2025-07-09T09:40:42.311Z","","","","","","PreSkillQ","","","","","","","","","","","","","","","","","","","","","","","","","","","","","","","","","","","","","","50"
"9862","","<div style=""width:500px;"">
  <p>How well do you think you will perform in this task compared to other participants?</p>
  </div>","100","html-slider-response","43","2013437","0.0-9.0-1.0","49","1","2025-07-09 09:07:14","7701e855f2ef39aa3fd6c71abdc6918a","41.114.9.251","Mozilla/5.0 (Windows NT 10.0; Win64; x64) AppleWebKit/537.36 (KHTML, like Gecko) Chrome/138.0.0.0 Safari/537.36","WebKit","Chrome","138.0.0.0","Windows","10.0","https://app.prolific.com/","en-US,en;q=0.9","6612e7f231d13a67b8e758cc","686d226cabeef709c732f8e1","686e3131478e3dc0e5fff262","6612e7f231d13a67b8e758cc","2025-07-09T09:40:52.176Z","","","","","","PrePerfQ","","","","","","","","","","","","","","","","","","","","","","","","","","","","","","","","","","","","","","50"
"9263","","<div style=""width:500px;"">
  <p>What best describes how you currently feel?</p>
  </div>","95","html-slider-response","44","2022701","0.0-9.0-2.0","49","1","2025-07-09 09:07:14","7701e855f2ef39aa3fd6c71abdc6918a","41.114.9.251","Mozilla/5.0 (Windows NT 10.0; Win64; x64) AppleWebKit/537.36 (KHTML, like Gecko) Chrome/138.0.0.0 Safari/537.36","WebKit","Chrome","138.0.0.0","Windows","10.0","https://app.prolific.com/","en-US,en;q=0.9","6612e7f231d13a67b8e758cc","686d226cabeef709c732f8e1","686e3131478e3dc0e5fff262","6612e7f231d13a67b8e758cc","2025-07-09T09:41:01.440Z","","","","","","PreMotivationQ","","","","","","","","","","","","","","","","","","","","","","","","","","","","","","","","","","","","","","50"
"","","","","ctl-task-cpt","45","2057078","0.0-10.0-0.0","49","1","2025-07-09 09:07:14","7701e855f2ef39aa3fd6c71abdc6918a","41.114.9.251","Mozilla/5.0 (Windows NT 10.0; Win64; x64) AppleWebKit/537.36 (KHTML, like Gecko) Chrome/138.0.0.0 Safari/537.36","WebKit","Chrome","138.0.0.0","Windows","10.0","https://app.prolific.com/","en-US,en;q=0.9","6612e7f231d13a67b8e758cc","686d226cabeef709c732f8e1","686e3131478e3dc0e5fff262","6612e7f231d13a67b8e758cc","2025-07-09T09:41:35.817Z","","","","","","","","","","","","","","","","win-only","3","g1:SW,g2:NE","1","1","0","2026077.4","12043","17045.7","31360.7","1","4","8","6","1","1","1","1","0","0.007575757575757576","5002.6","3000","980","[""down"",""left""]","{""num_key_presses"":4,""num_perfect"":4,""num_errors"":0,""num_randdir"":0,""num_randdir_good_moves"":0,""num_whilered"":0,""num_whileblue"":0,""num_blue"":1,""num_good_moves"":4}","[299.22232142857143,291.12857142857143,0.4,299.22232142857143,292.12857142857143,116.7,299.22232142857143,292.12857142857143,216.7,299.22232142857143,292.12857142857143,316.7,299.22232142857143,292.12857142857143,418,299.22232142857143,292.12857142857143,518.4,299.22232142857143,292.12857142857143,623.3,299.22232142857143,292.12857142857143,723.3,299.22232142857143,292.12857142857143,828.1,299.22232142857143,292.12857142857143,931.1,299.22232142857143,292.12857142857143,1033,299.22232142857143,292.12857142857143,1134.6,299.22232142857143,292.12857142857143,1238.3,299.22232142857143,292.12857142857143,1342.4,299.22232142857143,292.12857142857143,1443,299.22232142857143,292.12857142857143,1543,299.22232142857143,292.12857142857143,1643.4,299.22232142857143,292.12857142857143,1747.6,299.22232142857143,292.12857142857143,1850,299.22232142857143,292.12857142857143,1953.1,299.22232142857143,292.12857142857143,2053.8,299.22232142857143,292.12857142857143,2157.5,299.22232142857143,292.12857142857143,2257.8,299.22232142857143,292.12857142857143,2365.3,299.22232142857143,292.12857142857143,2465.4,299.22232142857143,292.12857142857143,2566.6,299.22232142857143,292.12857142857143,2667.8,299.22232142857143,292.12857142857143,2772.8,299.22232142857143,292.12857142857143,2873,299.22232142857143,292.12857142857143,2973.3,299.22232142857143,292.12857142857143,3078.3,299.22232142857143,292.12857142857143,3186.6,299.22232142857143,292.12857142857143,3287.5,299.22232142857143,292.12857142857143,3387.9,299.22232142857143,292.12857142857143,3488.4,299.22232142857143,292.12857142857143,3592.9,299.22232142857143,292.12857142857143,3693.3,299.22232142857143,292.12857142857143,3800.6,299.22232142857143,292.12857142857143,3903.2,299.22232142857143,292.12857142857143,4003.8,299.22232142857143,292.12857142857143,4108.3,299.22232142857143,292.12857142857143,4208.3,299.22232142857143,292.12857142857143,4315.8,299.22232142857143,292.12857142857143,4416.5,299.22232142857143,292.12857142857143,4518.6,299.22232142857143,292.12857142857143,4623,299.22232142857143,292.12857142857143,4723.1,299.22232142857143,292.12857142857143,4831.1,299.22232142857143,292.12857142857143,4936.7]","[1474.7,1474.7,1000,0,474.7,""smooth"",""down"",""down"",""good_move"",8601,7125.8,3038.2,5195.6,367.2,""smooth"",""down"",""down"",""good_move"",11152.7,2551.4,1838.1,8601.3,713.3,""smooth"",""left"",""left"",""good_move"",14227.1,3074,2562.7,11153.2,511.3,""smooth"",""left"",""left"",""good_move""]","",""
"13391","","<div style=""width:500px;"">
  <p>What determined the result of this run?</p>
  </div>","100","html-slider-response","46","2070471","0.0-10.0-1.0","49","1","2025-07-09 09:07:14","7701e855f2ef39aa3fd6c71abdc6918a","41.114.9.251","Mozilla/5.0 (Windows NT 10.0; Win64; x64) AppleWebKit/537.36 (KHTML, like Gecko) Chrome/138.0.0.0 Safari/537.36","WebKit","Chrome","138.0.0.0","Windows","10.0","https://app.prolific.com/","en-US,en;q=0.9","6612e7f231d13a67b8e758cc","686d226cabeef709c732f8e1","686e3131478e3dc0e5fff262","6612e7f231d13a67b8e758cc","2025-07-09T09:41:49.210Z","","","","","","AttribQ","","","","","","","","","","","","","","","","","","","","","","","","","","","","","","","","","","","","","","50"
"5897","","<div style=""width:500px;"">
  <p>How much control did you have over the ball?</p>
  </div>","100","html-slider-response","47","2076370","0.0-10.0-2.0","49","1","2025-07-09 09:07:14","7701e855f2ef39aa3fd6c71abdc6918a","41.114.9.251","Mozilla/5.0 (Windows NT 10.0; Win64; x64) AppleWebKit/537.36 (KHTML, like Gecko) Chrome/138.0.0.0 Safari/537.36","WebKit","Chrome","138.0.0.0","Windows","10.0","https://app.prolific.com/","en-US,en;q=0.9","6612e7f231d13a67b8e758cc","686d226cabeef709c732f8e1","686e3131478e3dc0e5fff262","6612e7f231d13a67b8e758cc","2025-07-09T09:41:55.109Z","","","","","","ControlQ","","","","","","","","","","","","","","","","","","","","","","","","","","","","","","","","","","","","","","50"
"8720","","<div style=""width:500px;"">
  <p>How would you describe your current emotional state?</p>
  </div>","1","html-slider-response","48","2085092","0.0-10.0-3.0","49","1","2025-07-09 09:07:14","7701e855f2ef39aa3fd6c71abdc6918a","41.114.9.251","Mozilla/5.0 (Windows NT 10.0; Win64; x64) AppleWebKit/537.36 (KHTML, like Gecko) Chrome/138.0.0.0 Safari/537.36","WebKit","Chrome","138.0.0.0","Windows","10.0","https://app.prolific.com/","en-US,en;q=0.9","6612e7f231d13a67b8e758cc","686d226cabeef709c732f8e1","686e3131478e3dc0e5fff262","6612e7f231d13a67b8e758cc","2025-07-09T09:42:03.831Z","","","","","","StressQ","","","","","","","","","","","","","","","","","","","","","","","","","","","","","","","","","","","","","","50"
"7059","","<div style=""width:500px;"">
  <p>What best describes how you currently feel?</p>
  </div>","99","html-slider-response","49","2092153","0.0-10.0-4.0","49","1","2025-07-09 09:07:14","7701e855f2ef39aa3fd6c71abdc6918a","41.114.9.251","Mozilla/5.0 (Windows NT 10.0; Win64; x64) AppleWebKit/537.36 (KHTML, like Gecko) Chrome/138.0.0.0 Safari/537.36","WebKit","Chrome","138.0.0.0","Windows","10.0","https://app.prolific.com/","en-US,en;q=0.9","6612e7f231d13a67b8e758cc","686d226cabeef709c732f8e1","686e3131478e3dc0e5fff262","6612e7f231d13a67b8e758cc","2025-07-09T09:42:10.892Z","","","","","","MotivationQ","","","","","","","","","","","","","","","","","","","","","","","","","","","","","","","","","","","","","","50"
"","","","","ctl-task-cpt","50","2129753","0.0-10.0-0.1","49","1","2025-07-09 09:07:14","7701e855f2ef39aa3fd6c71abdc6918a","41.114.9.251","Mozilla/5.0 (Windows NT 10.0; Win64; x64) AppleWebKit/537.36 (KHTML, like Gecko) Chrome/138.0.0.0 Safari/537.36","WebKit","Chrome","138.0.0.0","Windows","10.0","https://app.prolific.com/","en-US,en;q=0.9","6612e7f231d13a67b8e758cc","686d226cabeef709c732f8e1","686e3131478e3dc0e5fff262","6612e7f231d13a67b8e758cc","2025-07-09T09:42:48.492Z","","","","","","","","","","","","","","","","win-only","0","g1:NW,g2:SE","0.9","2","0","2095528.8","9028.4","14030.9","34581.3","1","4","4","6","1","1","1","2","1","0.015151515151515152","5002.5","3000","505","[""left"",""up""]","{""num_key_presses"":6,""num_perfect"":5,""num_errors"":0,""num_randdir"":1,""num_randdir_good_moves"":0,""num_whilered"":0,""num_whileblue"":0,""num_blue"":1,""num_good_moves"":5}","[297.22232142857143,302.12857142857143,0.5,297.22232142857143,302.12857142857143,108.3,297.22232142857143,302.12857142857143,214.3,297.22232142857143,302.12857142857143,314.3,297.22232142857143,302.12857142857143,418.1,297.22232142857143,302.12857142857143,520,297.22232142857143,302.12857142857143,622.5,297.22232142857143,302.12857142857143,723.9,297.22232142857143,302.12857142857143,829.4,297.22232142857143,302.12857142857143,932.3,297.22232142857143,302.12857142857143,1034.3,297.22232142857143,302.12857142857143,1134.6,297.22232142857143,302.12857142857143,1237.6,297.22232142857143,302.12857142857143,1346.6,297.22232142857143,302.12857142857143,1447.5,297.22232142857143,302.12857142857143,1552.1,297.22232142857143,302.12857142857143,1653.3,297.22232142857143,302.12857142857143,1756.9,297.22232142857143,302.12857142857143,1859.7,297.22232142857143,302.12857142857143,1969.9,297.22232142857143,302.12857142857143,2070.5,297.22232142857143,302.12857142857143,2173.9,297.22232142857143,302.12857142857143,2283.1,297.22232142857143,302.12857142857143,2387.6,297.22232142857143,302.12857142857143,2496.5,297.22232142857143,302.12857142857143,2600.1,297.22232142857143,302.12857142857143,2703.5,297.22232142857143,302.12857142857143,2806.8,297.22232142857143,302.12857142857143,2907.4,297.22232142857143,302.12857142857143,3011.9,297.22232142857143,302.12857142857143,3120.4,297.22232142857143,302.12857142857143,3222.1,297.22232142857143,302.12857142857143,3322.1,297.22232142857143,302.12857142857143,3422.6,297.22232142857143,302.12857142857143,3529.4,297.22232142857143,302.12857142857143,3630.1,297.22232142857143,302.12857142857143,3734.5,297.22232142857143,302.12857142857143,3836.8,297.22232142857143,302.12857142857143,3936.8,297.22232142857143,302.12857142857143,4037.2,297.22232142857143,302.12857142857143,4147.3,297.22232142857143,302.12857142857143,4248.8,297.22232142857143,302.12857142857143,4353.6,297.22232142857143,302.12857142857143,4457.3,297.22232142857143,302.12857142857143,4570.5,297.22232142857143,302.12857142857143,4672.6,297.22232142857143,302.12857142857143,4772.8,297.22232142857143,302.12857142857143,4874,297.22232142857143,302.12857142857143,4979.6]","[1633.2,1633.2,1000,0,633.2,""smooth"",""up"",""up"",""good_move"",4255.5,2621.8,2118.4,1633.7,503.4,""smooth"",""left"",""left"",""good_move"",10964.5,6707.6,2736.6,7745.9,482,""oops"",""up"",""right"",""bad_move"",13820.5,2855.6,2263.9,10964.9,591.7,""smooth"",""up"",""up"",""good_move"",17183.7,3362.9,2831.2,13820.8,531.7,""smooth"",""left"",""left"",""good_move"",20432.9,3248.8,2937.2,17184.1,311.6,""smooth"",""left"",""left"",""good_move""]","",""
"9783","","<div style=""width:500px;"">
  <p>What determined the result of this run?</p>
  </div>","100","html-slider-response","51","2139537","0.0-10.0-1.1","49","1","2025-07-09 09:07:14","7701e855f2ef39aa3fd6c71abdc6918a","41.114.9.251","Mozilla/5.0 (Windows NT 10.0; Win64; x64) AppleWebKit/537.36 (KHTML, like Gecko) Chrome/138.0.0.0 Safari/537.36","WebKit","Chrome","138.0.0.0","Windows","10.0","https://app.prolific.com/","en-US,en;q=0.9","6612e7f231d13a67b8e758cc","686d226cabeef709c732f8e1","686e3131478e3dc0e5fff262","6612e7f231d13a67b8e758cc","2025-07-09T09:42:58.276Z","","","","","","AttribQ","","","","","","","","","","","","","","","","","","","","","","","","","","","","","","","","","","","","","","50"
"8566","","<div style=""width:500px;"">
  <p>How much control did you have over the ball?</p>
  </div>","100","html-slider-response","52","2148104","0.0-10.0-2.1","49","1","2025-07-09 09:07:14","7701e855f2ef39aa3fd6c71abdc6918a","41.114.9.251","Mozilla/5.0 (Windows NT 10.0; Win64; x64) AppleWebKit/537.36 (KHTML, like Gecko) Chrome/138.0.0.0 Safari/537.36","WebKit","Chrome","138.0.0.0","Windows","10.0","https://app.prolific.com/","en-US,en;q=0.9","6612e7f231d13a67b8e758cc","686d226cabeef709c732f8e1","686e3131478e3dc0e5fff262","6612e7f231d13a67b8e758cc","2025-07-09T09:43:06.843Z","","","","","","ControlQ","","","","","","","","","","","","","","","","","","","","","","","","","","","","","","","","","","","","","","50"
"9774","","<div style=""width:500px;"">
  <p>How would you describe your current emotional state?</p>
  </div>","0","html-slider-response","53","2157880","0.0-10.0-3.1","49","1","2025-07-09 09:07:14","7701e855f2ef39aa3fd6c71abdc6918a","41.114.9.251","Mozilla/5.0 (Windows NT 10.0; Win64; x64) AppleWebKit/537.36 (KHTML, like Gecko) Chrome/138.0.0.0 Safari/537.36","WebKit","Chrome","138.0.0.0","Windows","10.0","https://app.prolific.com/","en-US,en;q=0.9","6612e7f231d13a67b8e758cc","686d226cabeef709c732f8e1","686e3131478e3dc0e5fff262","6612e7f231d13a67b8e758cc","2025-07-09T09:43:16.619Z","","","","","","StressQ","","","","","","","","","","","","","","","","","","","","","","","","","","","","","","","","","","","","","","50"
"9891","","<div style=""width:500px;"">
  <p>What best describes how you currently feel?</p>
  </div>","100","html-slider-response","54","2167773","0.0-10.0-4.1","49","1","2025-07-09 09:07:14","7701e855f2ef39aa3fd6c71abdc6918a","41.114.9.251","Mozilla/5.0 (Windows NT 10.0; Win64; x64) AppleWebKit/537.36 (KHTML, like Gecko) Chrome/138.0.0.0 Safari/537.36","WebKit","Chrome","138.0.0.0","Windows","10.0","https://app.prolific.com/","en-US,en;q=0.9","6612e7f231d13a67b8e758cc","686d226cabeef709c732f8e1","686e3131478e3dc0e5fff262","6612e7f231d13a67b8e758cc","2025-07-09T09:43:26.512Z","","","","","","MotivationQ","","","","","","","","","","","","","","","","","","","","","","","","","","","","","","","","","","","","","","50"
"","","","","ctl-task-cpt","55","2195286","0.0-10.0-0.2","49","1","2025-07-09 09:07:14","7701e855f2ef39aa3fd6c71abdc6918a","41.114.9.251","Mozilla/5.0 (Windows NT 10.0; Win64; x64) AppleWebKit/537.36 (KHTML, like Gecko) Chrome/138.0.0.0 Safari/537.36","WebKit","Chrome","138.0.0.0","Windows","10.0","https://app.prolific.com/","en-US,en;q=0.9","6612e7f231d13a67b8e758cc","686d226cabeef709c732f8e1","686e3131478e3dc0e5fff262","6612e7f231d13a67b8e758cc","2025-07-09T09:43:54.026Z","","","","","","","","","","","","","","","","win-only","3","g1:SW,g2:NE","0.8","3","0","2171152.1","6537","11542.4","24490.9","1","4","4","6","1","1","1","3","2","0.022727272727272728","5005.4","3000","1410","[""down"",""left""]","{""num_key_presses"":4,""num_perfect"":3,""num_errors"":0,""num_randdir"":1,""num_randdir_good_moves"":1,""num_whilered"":0,""num_whileblue"":0,""num_blue"":1,""num_good_moves"":4}","[290.22232142857143,294.12857142857143,0.8,290.22232142857143,294.12857142857143,104.6,290.22232142857143,294.12857142857143,208.6,290.22232142857143,294.12857142857143,309.1,290.22232142857143,294.12857142857143,409.1,290.22232142857143,294.12857142857143,521.9,290.22232142857143,294.12857142857143,622.1,290.22232142857143,294.12857142857143,724.3,290.22232142857143,294.12857142857143,824.3,290.22232142857143,294.12857142857143,933.6,290.22232142857143,294.12857142857143,1033.6,290.22232142857143,294.12857142857143,1133.6,290.22232142857143,294.12857142857143,1235.3,290.22232142857143,294.12857142857143,1335.6,290.22232142857143,294.12857142857143,1438.5,290.22232142857143,294.12857142857143,1539.9,290.22232142857143,294.12857142857143,1644.9,290.22232142857143,294.12857142857143,1749.2,290.22232142857143,294.12857142857143,1850.5,290.22232142857143,294.12857142857143,1954,290.22232142857143,294.12857142857143,2054.2,290.22232142857143,294.12857142857143,2161,290.22232142857143,294.12857142857143,2270.4,290.22232142857143,294.12857142857143,2374.7,290.22232142857143,294.12857142857143,2483.5,290.22232142857143,294.12857142857143,2583.8,290.22232142857143,294.12857142857143,2685.2,290.22232142857143,294.12857142857143,2785.8,290.22232142857143,294.12857142857143,2889.4,290.22232142857143,294.12857142857143,2989.6,290.22232142857143,294.12857142857143,3089.6,290.22232142857143,294.12857142857143,3197,290.22232142857143,294.12857142857143,3299,290.22232142857143,294.12857142857143,3405.3,290.22232142857143,294.12857142857143,3509.1,290.22232142857143,294.12857142857143,3610.5,290.22232142857143,294.12857142857143,3719.2,290.22232142857143,294.12857142857143,3820.6,290.22232142857143,294.12857142857143,3924.2,290.22232142857143,294.12857142857143,4033.9,290.22232142857143,294.12857142857143,4140.1,290.22232142857143,294.12857142857143,4252,290.22232142857143,294.12857142857143,4353.9,290.22232142857143,294.12857142857143,4463.3,290.22232142857143,294.12857142857143,4566.4,290.22232142857143,294.12857142857143,4666.5,290.22232142857143,294.12857142857143,4768.7,290.22232142857143,294.12857142857143,4874.5,290.22232142857143,294.12857142857143,4986.6]","[1575.6,1575.6,1000,0,575.7,""oops"",""down"",""down"",""good_move"",4566,2989.2,2266.2,1576.8,723,""smooth"",""down"",""down"",""good_move"",9389.7,4823.4,1497.8,7513.3,378.6,""smooth"",""left"",""left"",""good_move"",12825.3,3434.3,3067.3,9391,367,""smooth"",""left"",""left"",""good_move""]","",""
"4670","","<div style=""width:500px;"">
  <p>What determined the result of this run?</p>
  </div>","100","html-slider-response","56","2199958","0.0-10.0-1.2","49","1","2025-07-09 09:07:14","7701e855f2ef39aa3fd6c71abdc6918a","41.114.9.251","Mozilla/5.0 (Windows NT 10.0; Win64; x64) AppleWebKit/537.36 (KHTML, like Gecko) Chrome/138.0.0.0 Safari/537.36","WebKit","Chrome","138.0.0.0","Windows","10.0","https://app.prolific.com/","en-US,en;q=0.9","6612e7f231d13a67b8e758cc","686d226cabeef709c732f8e1","686e3131478e3dc0e5fff262","6612e7f231d13a67b8e758cc","2025-07-09T09:43:58.697Z","","","","","","AttribQ","","","","","","","","","","","","","","","","","","","","","","","","","","","","","","","","","","","","","","50"
"6782","","<div style=""width:500px;"">
  <p>How much control did you have over the ball?</p>
  </div>","100","html-slider-response","57","2206742","0.0-10.0-2.2","49","1","2025-07-09 09:07:14","7701e855f2ef39aa3fd6c71abdc6918a","41.114.9.251","Mozilla/5.0 (Windows NT 10.0; Win64; x64) AppleWebKit/537.36 (KHTML, like Gecko) Chrome/138.0.0.0 Safari/537.36","WebKit","Chrome","138.0.0.0","Windows","10.0","https://app.prolific.com/","en-US,en;q=0.9","6612e7f231d13a67b8e758cc","686d226cabeef709c732f8e1","686e3131478e3dc0e5fff262","6612e7f231d13a67b8e758cc","2025-07-09T09:44:05.481Z","","","","","","ControlQ","","","","","","","","","","","","","","","","","","","","","","","","","","","","","","","","","","","","","","50"
"6171","","<div style=""width:500px;"">
  <p>How would you describe your current emotional state?</p>
  </div>","0","html-slider-response","58","2212915","0.0-10.0-3.2","49","1","2025-07-09 09:07:14","7701e855f2ef39aa3fd6c71abdc6918a","41.114.9.251","Mozilla/5.0 (Windows NT 10.0; Win64; x64) AppleWebKit/537.36 (KHTML, like Gecko) Chrome/138.0.0.0 Safari/537.36","WebKit","Chrome","138.0.0.0","Windows","10.0","https://app.prolific.com/","en-US,en;q=0.9","6612e7f231d13a67b8e758cc","686d226cabeef709c732f8e1","686e3131478e3dc0e5fff262","6612e7f231d13a67b8e758cc","2025-07-09T09:44:11.654Z","","","","","","StressQ","","","","","","","","","","","","","","","","","","","","","","","","","","","","","","","","","","","","","","50"
"4336","","<div style=""width:500px;"">
  <p>What best describes how you currently feel?</p>
  </div>","100","html-slider-response","59","2217253","0.0-10.0-4.2","49","1","2025-07-09 09:07:14","7701e855f2ef39aa3fd6c71abdc6918a","41.114.9.251","Mozilla/5.0 (Windows NT 10.0; Win64; x64) AppleWebKit/537.36 (KHTML, like Gecko) Chrome/138.0.0.0 Safari/537.36","WebKit","Chrome","138.0.0.0","Windows","10.0","https://app.prolific.com/","en-US,en;q=0.9","6612e7f231d13a67b8e758cc","686d226cabeef709c732f8e1","686e3131478e3dc0e5fff262","6612e7f231d13a67b8e758cc","2025-07-09T09:44:15.992Z","","","","","","MotivationQ","","","","","","","","","","","","","","","","","","","","","","","","","","","","","","","","","","","","","","50"
"","","","","ctl-task-cpt","60","2263488","0.0-10.0-0.3","49","1","2025-07-09 09:07:14","7701e855f2ef39aa3fd6c71abdc6918a","41.114.9.251","Mozilla/5.0 (Windows NT 10.0; Win64; x64) AppleWebKit/537.36 (KHTML, like Gecko) Chrome/138.0.0.0 Safari/537.36","WebKit","Chrome","138.0.0.0","Windows","10.0","https://app.prolific.com/","en-US,en;q=0.9","6612e7f231d13a67b8e758cc","686d226cabeef709c732f8e1","686e3131478e3dc0e5fff262","6612e7f231d13a67b8e758cc","2025-07-09T09:45:02.227Z","","","","","","","","","","","","","","","","win-only","2","g1:SE,g2:NW","0.7","4","0","2220630.1","6327.5","11331.2","43221.6","1","4","8","6","1","1","1","4","3","0.030303030303030304","5003.7","3000","305","[""down"",""right""]","{""num_key_presses"":8,""num_perfect"":6,""num_errors"":0,""num_randdir"":2,""num_randdir_good_moves"":0,""num_whilered"":0,""num_whileblue"":0,""num_blue"":3,""num_good_moves"":6}","[296.22232142857143,300.12857142857143,0.8,296.22232142857143,300.12857142857143,113.2,296.22232142857143,300.12857142857143,213.8,296.22232142857143,300.12857142857143,316,296.22232142857143,300.12857142857143,419.5,296.22232142857143,300.12857142857143,526.4,296.22232142857143,300.12857142857143,630.9,296.22232142857143,300.12857142857143,737.7,296.22232142857143,300.12857142857143,838.2,296.22232142857143,300.12857142857143,940.4,296.22232142857143,300.12857142857143,1046.1,296.22232142857143,300.12857142857143,1147.5,296.22232142857143,300.12857142857143,1254.8,296.22232142857143,300.12857142857143,1356.3,296.22232142857143,300.12857142857143,1471,296.22232142857143,300.12857142857143,1573.5,296.22232142857143,300.12857142857143,1673.6,296.22232142857143,300.12857142857143,1788.3,296.22232142857143,300.12857142857143,1888.9,296.22232142857143,300.12857142857143,1993.8,296.22232142857143,300.12857142857143,2094,296.22232142857143,300.12857142857143,2195.9,296.22232142857143,300.12857142857143,2300.7,296.22232142857143,300.12857142857143,2404.6,296.22232142857143,300.12857142857143,2509.9,296.22232142857143,300.12857142857143,2613.7,296.22232142857143,300.12857142857143,2716.6,296.22232142857143,300.12857142857143,2818.5,296.22232142857143,300.12857142857143,2921.5,296.22232142857143,300.12857142857143,3022.6,296.22232142857143,300.12857142857143,3124.7,296.22232142857143,300.12857142857143,3225.7,296.22232142857143,300.12857142857143,3330,296.22232142857143,300.12857142857143,3437.2,296.22232142857143,300.12857142857143,3539.9,296.22232142857143,300.12857142857143,3644.2,296.22232142857143,300.12857142857143,3752.4,296.22232142857143,300.12857142857143,3853.3,296.22232142857143,300.12857142857143,3961,296.22232142857143,300.12857142857143,4065.1,296.22232142857143,300.12857142857143,4169.1,296.22232142857143,300.12857142857143,4269.4,296.22232142857143,300.12857142857143,4378,296.22232142857143,300.12857142857143,4490.5,296.22232142857143,300.12857142857143,4600.6,296.22232142857143,300.12857142857143,4700.6,296.22232142857143,300.12857142857143,4802.9,296.22232142857143,300.12857142857143,4904.4]","[1481,1481,1000,0,481,""smooth"",""down"",""down"",""good_move"",5019.4,3537.5,3092.4,1481.9,445.1,""oops"",""right"",""up"",""bad_move"",8102.4,3082.6,2584.9,5019.8,497.7,""smooth"",""right"",""right"",""good_move"",10631.1,2528.2,1964.9,8102.9,563.3,""smooth"",""right"",""right"",""good_move"",12896.4,2265,1739.4,10631.4,525.6,""oops"",""down"",""up"",""bad_move"",16138.1,3241,2791,12897.3,449.9,""smooth"",""down"",""down"",""good_move"",25823.2,9683.3,2211,23216.4,395.8,""smooth"",""down"",""down"",""good_move"",31776.5,5953,2040.1,29440.3,296.2,""smooth"",""down"",""down"",""good_move""]","",""
"6576","","<div style=""width:500px;"">
  <p>What determined the result of this run?</p>
  </div>","91","html-slider-response","61","2270066","0.0-10.0-1.3","49","1","2025-07-09 09:07:14","7701e855f2ef39aa3fd6c71abdc6918a","41.114.9.251","Mozilla/5.0 (Windows NT 10.0; Win64; x64) AppleWebKit/537.36 (KHTML, like Gecko) Chrome/138.0.0.0 Safari/537.36","WebKit","Chrome","138.0.0.0","Windows","10.0","https://app.prolific.com/","en-US,en;q=0.9","6612e7f231d13a67b8e758cc","686d226cabeef709c732f8e1","686e3131478e3dc0e5fff262","6612e7f231d13a67b8e758cc","2025-07-09T09:45:08.805Z","","","","","","AttribQ","","","","","","","","","","","","","","","","","","","","","","","","","","","","","","","","","","","","","","50"
"6472","","<div style=""width:500px;"">
  <p>How much control did you have over the ball?</p>
  </div>","53","html-slider-response","62","2276540","0.0-10.0-2.3","49","1","2025-07-09 09:07:14","7701e855f2ef39aa3fd6c71abdc6918a","41.114.9.251","Mozilla/5.0 (Windows NT 10.0; Win64; x64) AppleWebKit/537.36 (KHTML, like Gecko) Chrome/138.0.0.0 Safari/537.36","WebKit","Chrome","138.0.0.0","Windows","10.0","https://app.prolific.com/","en-US,en;q=0.9","6612e7f231d13a67b8e758cc","686d226cabeef709c732f8e1","686e3131478e3dc0e5fff262","6612e7f231d13a67b8e758cc","2025-07-09T09:45:15.279Z","","","","","","ControlQ","","","","","","","","","","","","","","","","","","","","","","","","","","","","","","","","","","","","","","50"
"6626","","<div style=""width:500px;"">
  <p>How would you describe your current emotional state?</p>
  </div>","25","html-slider-response","63","2283168","0.0-10.0-3.3","49","1","2025-07-09 09:07:14","7701e855f2ef39aa3fd6c71abdc6918a","41.114.9.251","Mozilla/5.0 (Windows NT 10.0; Win64; x64) AppleWebKit/537.36 (KHTML, like Gecko) Chrome/138.0.0.0 Safari/537.36","WebKit","Chrome","138.0.0.0","Windows","10.0","https://app.prolific.com/","en-US,en;q=0.9","6612e7f231d13a67b8e758cc","686d226cabeef709c732f8e1","686e3131478e3dc0e5fff262","6612e7f231d13a67b8e758cc","2025-07-09T09:45:21.907Z","","","","","","StressQ","","","","","","","","","","","","","","","","","","","","","","","","","","","","","","","","","","","","","","50"
"6836","","<div style=""width:500px;"">
  <p>What best describes how you currently feel?</p>
  </div>","99","html-slider-response","64","2290006","0.0-10.0-4.3","49","1","2025-07-09 09:07:14","7701e855f2ef39aa3fd6c71abdc6918a","41.114.9.251","Mozilla/5.0 (Windows NT 10.0; Win64; x64) AppleWebKit/537.36 (KHTML, like Gecko) Chrome/138.0.0.0 Safari/537.36","WebKit","Chrome","138.0.0.0","Windows","10.0","https://app.prolific.com/","en-US,en;q=0.9","6612e7f231d13a67b8e758cc","686d226cabeef709c732f8e1","686e3131478e3dc0e5fff262","6612e7f231d13a67b8e758cc","2025-07-09T09:45:28.745Z","","","","","","MotivationQ","","","","","","","","","","","","","","","","","","","","","","","","","","","","","","","","","","","","","","50"
"","","","","ctl-task-cpt","65","2329738","0.0-10.0-0.4","49","1","2025-07-09 09:07:14","7701e855f2ef39aa3fd6c71abdc6918a","41.114.9.251","Mozilla/5.0 (Windows NT 10.0; Win64; x64) AppleWebKit/537.36 (KHTML, like Gecko) Chrome/138.0.0.0 Safari/537.36","WebKit","Chrome","138.0.0.0","Windows","10.0","https://app.prolific.com/","en-US,en;q=0.9","6612e7f231d13a67b8e758cc","686d226cabeef709c732f8e1","686e3131478e3dc0e5fff262","6612e7f231d13a67b8e758cc","2025-07-09T09:46:08.478Z","","","","","","","","","","","","","","","","win-only","3","g1:SW,g2:NE","0.6","5","0","2293381.5","5682.1","10696.7","36710.6","1","4","8","6","1","1","0","4","4","0.030303030303030304","5014.6","3000","885","[""down"",""left""]","{""num_key_presses"":7,""num_perfect"":4,""num_errors"":1,""num_randdir"":2,""num_randdir_good_moves"":1,""num_whilered"":0,""num_whileblue"":0,""num_blue"":2,""num_good_moves"":5}","[297.22232142857143,304.12857142857143,1.3,297.22232142857143,304.12857142857143,100.5,297.22232142857143,304.12857142857143,221.4,297.22232142857143,304.12857142857143,325.3,297.22232142857143,304.12857142857143,432.4,297.22232142857143,304.12857142857143,534,297.22232142857143,304.12857142857143,642,297.22232142857143,304.12857142857143,749.9,297.22232142857143,304.12857142857143,854.2,297.22232142857143,304.12857142857143,966.4,297.22232142857143,304.12857142857143,1079.3,297.22232142857143,304.12857142857143,1184.4,297.22232142857143,304.12857142857143,1289.4,297.22232142857143,304.12857142857143,1390.3,297.22232142857143,304.12857142857143,1495.3,297.22232142857143,304.12857142857143,1601.5,297.22232142857143,304.12857142857143,1706.8,297.22232142857143,304.12857142857143,1810.2,297.22232142857143,304.12857142857143,1916.3,297.22232142857143,304.12857142857143,2034,297.22232142857143,304.12857142857143,2145.4,297.22232142857143,304.12857142857143,2246.4,297.22232142857143,304.12857142857143,2347.8,297.22232142857143,304.12857142857143,2449.1,297.22232142857143,304.12857142857143,2549.6,297.22232142857143,304.12857142857143,2649.8,297.22232142857143,304.12857142857143,2764.4,297.22232142857143,304.12857142857143,2868.3,297.22232142857143,304.12857142857143,2978.4,297.22232142857143,304.12857142857143,3079.2,297.22232142857143,304.12857142857143,3184.6,297.22232142857143,304.12857142857143,3289.2,297.22232142857143,304.12857142857143,3398.8,297.22232142857143,304.12857142857143,3500.4,297.22232142857143,304.12857142857143,3600.5,297.22232142857143,304.12857142857143,3713,297.22232142857143,304.12857142857143,3818.8,297.22232142857143,304.12857142857143,3921.9,297.22232142857143,304.12857142857143,4028.5,297.22232142857143,304.12857142857143,4128.8,297.22232142857143,304.12857142857143,4229.8,297.22232142857143,304.12857142857143,4330.1,297.22232142857143,304.12857142857143,4450.2,297.22232142857143,304.12857142857143,4555.6,297.22232142857143,304.12857142857143,4661,297.22232142857143,304.12857142857143,4763.5,297.22232142857143,304.12857142857143,4866.3,297.22232142857143,304.12857142857143,4978.6]","[879,879,1000,0,-121,""error"",""-"",""-"",""no_move"",4655.4,3776.1,2270.2,1884.2,501,""oops"",""down"",""up"",""bad_move"",10069.9,5413.2,2156.3,7379.1,534.6,""smooth"",""left"",""left"",""good_move"",14096.4,4025.5,3569.7,10070.9,455.8,""smooth"",""left"",""left"",""good_move"",19850,5753.2,1919.5,17414.6,515.9,""smooth"",""down"",""down"",""good_move"",22840.7,2990.1,2443.9,19850.6,546.2,""oops"",""down"",""down"",""good_move"",25896.5,3054.7,2625.3,22841.8,429.4,""smooth"",""down"",""down"",""good_move""]","",""
"5757","","<div style=""width:500px;"">
  <p>What determined the result of this run?</p>
  </div>","60","html-slider-response","66","2335497","0.0-10.0-1.4","49","1","2025-07-09 09:07:14","7701e855f2ef39aa3fd6c71abdc6918a","41.114.9.251","Mozilla/5.0 (Windows NT 10.0; Win64; x64) AppleWebKit/537.36 (KHTML, like Gecko) Chrome/138.0.0.0 Safari/537.36","WebKit","Chrome","138.0.0.0","Windows","10.0","https://app.prolific.com/","en-US,en;q=0.9","6612e7f231d13a67b8e758cc","686d226cabeef709c732f8e1","686e3131478e3dc0e5fff262","6612e7f231d13a67b8e758cc","2025-07-09T09:46:14.237Z","","","","","","AttribQ","","","","","","","","","","","","","","","","","","","","","","","","","","","","","","","","","","","","","","50"
"5519","","<div style=""width:500px;"">
  <p>How much control did you have over the ball?</p>
  </div>","64","html-slider-response","67","2341018","0.0-10.0-2.4","49","1","2025-07-09 09:07:14","7701e855f2ef39aa3fd6c71abdc6918a","41.114.9.251","Mozilla/5.0 (Windows NT 10.0; Win64; x64) AppleWebKit/537.36 (KHTML, like Gecko) Chrome/138.0.0.0 Safari/537.36","WebKit","Chrome","138.0.0.0","Windows","10.0","https://app.prolific.com/","en-US,en;q=0.9","6612e7f231d13a67b8e758cc","686d226cabeef709c732f8e1","686e3131478e3dc0e5fff262","6612e7f231d13a67b8e758cc","2025-07-09T09:46:19.757Z","","","","","","ControlQ","","","","","","","","","","","","","","","","","","","","","","","","","","","","","","","","","","","","","","50"
"4176","","<div style=""width:500px;"">
  <p>How would you describe your current emotional state?</p>
  </div>","24","html-slider-response","68","2345196","0.0-10.0-3.4","49","1","2025-07-09 09:07:14","7701e855f2ef39aa3fd6c71abdc6918a","41.114.9.251","Mozilla/5.0 (Windows NT 10.0; Win64; x64) AppleWebKit/537.36 (KHTML, like Gecko) Chrome/138.0.0.0 Safari/537.36","WebKit","Chrome","138.0.0.0","Windows","10.0","https://app.prolific.com/","en-US,en;q=0.9","6612e7f231d13a67b8e758cc","686d226cabeef709c732f8e1","686e3131478e3dc0e5fff262","6612e7f231d13a67b8e758cc","2025-07-09T09:46:23.936Z","","","","","","StressQ","","","","","","","","","","","","","","","","","","","","","","","","","","","","","","","","","","","","","","50"
"5690","","<div style=""width:500px;"">
  <p>What best describes how you currently feel?</p>
  </div>","98","html-slider-response","69","2350889","0.0-10.0-4.4","49","1","2025-07-09 09:07:14","7701e855f2ef39aa3fd6c71abdc6918a","41.114.9.251","Mozilla/5.0 (Windows NT 10.0; Win64; x64) AppleWebKit/537.36 (KHTML, like Gecko) Chrome/138.0.0.0 Safari/537.36","WebKit","Chrome","138.0.0.0","Windows","10.0","https://app.prolific.com/","en-US,en;q=0.9","6612e7f231d13a67b8e758cc","686d226cabeef709c732f8e1","686e3131478e3dc0e5fff262","6612e7f231d13a67b8e758cc","2025-07-09T09:46:29.628Z","","","","","","MotivationQ","","","","","","","","","","","","","","","","","","","","","","","","","","","","","","","","","","","","","","50"
"","","","","ctl-task-cpt","70","2417181","0.0-10.0-0.5","49","1","2025-07-09 09:07:14","7701e855f2ef39aa3fd6c71abdc6918a","41.114.9.251","Mozilla/5.0 (Windows NT 10.0; Win64; x64) AppleWebKit/537.36 (KHTML, like Gecko) Chrome/138.0.0.0 Safari/537.36","WebKit","Chrome","138.0.0.0","Windows","10.0","https://app.prolific.com/","en-US,en;q=0.9","6612e7f231d13a67b8e758cc","686d226cabeef709c732f8e1","686e3131478e3dc0e5fff262","6612e7f231d13a67b8e758cc","2025-07-09T09:47:35.920Z","","","","","","","","","","","","","","","","win-only","2","g1:SE,g2:NW","0.5","6","0","2354267.4","24972.1","29984.1","63267.8","1","4","4","6","2","-4","-4","0","4","0","5012","3000","-1900","[""left"",""up""]","{""num_key_presses"":8,""num_perfect"":4,""num_errors"":0,""num_randdir"":4,""num_randdir_good_moves"":1,""num_whilered"":0,""num_whileblue"":0,""num_blue"":2,""num_good_moves"":5}","[297.22232142857143,294.12857142857143,0.7,297.22232142857143,294.12857142857143,107.4,297.22232142857143,294.12857142857143,211.5,297.22232142857143,294.12857142857143,336.9,297.22232142857143,294.12857142857143,456.6,297.22232142857143,294.12857142857143,562.5,297.22232142857143,294.12857142857143,673.6,297.22232142857143,294.12857142857143,779.7,297.22232142857143,294.12857142857143,880.8,297.22232142857143,294.12857142857143,984.8,297.22232142857143,294.12857142857143,1085,297.22232142857143,294.12857142857143,1186.8,297.22232142857143,294.12857142857143,1289.9,297.22232142857143,294.12857142857143,1407.8,297.22232142857143,294.12857142857143,1513.7,297.22232142857143,294.12857142857143,1629.6,297.22232142857143,294.12857142857143,1736.2,297.22232142857143,294.12857142857143,1840.2,297.22232142857143,294.12857142857143,1941.3,297.22232142857143,294.12857142857143,2050.4,297.22232142857143,294.12857142857143,2151.6,297.22232142857143,294.12857142857143,2253.4,297.22232142857143,294.12857142857143,2355.5,297.22232142857143,294.12857142857143,2463.6,297.22232142857143,294.12857142857143,2579,297.22232142857143,294.12857142857143,2684.8,297.22232142857143,294.12857142857143,2795.1,297.22232142857143,294.12857142857143,2899.8,297.22232142857143,294.12857142857143,3014.9,297.22232142857143,294.12857142857143,3128.7,297.22232142857143,294.12857142857143,3234.6,297.22232142857143,294.12857142857143,3343.8,297.22232142857143,294.12857142857143,3463.4,297.22232142857143,294.12857142857143,3570.3,297.22232142857143,294.12857142857143,3671.8,297.22232142857143,294.12857142857143,3778.9,297.22232142857143,294.12857142857143,3883.1,297.22232142857143,294.12857142857143,3984.7,297.22232142857143,294.12857142857143,4086.6,297.22232142857143,294.12857142857143,4190.8,297.22232142857143,294.12857142857143,4294,297.22232142857143,294.12857142857143,4400.8,297.22232142857143,294.12857142857143,4504.8,297.22232142857143,294.12857142857143,4608.4,297.22232142857143,294.12857142857143,4711.3,297.22232142857143,294.12857142857143,4815.8,297.22232142857143,294.12857142857143,4915.9]","[2192.8,2192.8,1000,0,1192.8,""oops"",""left"",""right"",""bad_move"",12688.7,10495.2,2259.4,9866.8,562.5,""smooth"",""up"",""up"",""good_move"",15525.4,2836.1,2307.5,12689.4,528.6,""smooth"",""up"",""up"",""good_move"",19163.1,3636.3,3031.9,15526.9,604.3,""smooth"",""up"",""up"",""good_move"",22577.8,3412.8,3020.3,19165,392.5,""smooth"",""left"",""left"",""good_move"",26041.3,3462.9,3070.2,22578.5,392.7,""oops"",""left"",""right"",""bad_move"",28277.2,2234.2,1555.3,26043,678.9,""oops"",""left"",""left"",""good_move"",30295.7,2018.3,1523.9,28277.4,494.4,""oops"",""left"",""right"",""bad_move""]","",""
"8215","","<div style=""width:500px;"">
  <p>What determined the result of this run?</p>
  </div>","41","html-slider-response","71","2425399","0.0-10.0-1.5","49","1","2025-07-09 09:07:14","7701e855f2ef39aa3fd6c71abdc6918a","41.114.9.251","Mozilla/5.0 (Windows NT 10.0; Win64; x64) AppleWebKit/537.36 (KHTML, like Gecko) Chrome/138.0.0.0 Safari/537.36","WebKit","Chrome","138.0.0.0","Windows","10.0","https://app.prolific.com/","en-US,en;q=0.9","6612e7f231d13a67b8e758cc","686d226cabeef709c732f8e1","686e3131478e3dc0e5fff262","6612e7f231d13a67b8e758cc","2025-07-09T09:47:44.138Z","","","","","","AttribQ","","","","","","","","","","","","","","","","","","","","","","","","","","","","","","","","","","","","","","50"
"7278","","<div style=""width:500px;"">
  <p>How much control did you have over the ball?</p>
  </div>","1","html-slider-response","72","2432680","0.0-10.0-2.5","49","1","2025-07-09 09:07:14","7701e855f2ef39aa3fd6c71abdc6918a","41.114.9.251","Mozilla/5.0 (Windows NT 10.0; Win64; x64) AppleWebKit/537.36 (KHTML, like Gecko) Chrome/138.0.0.0 Safari/537.36","WebKit","Chrome","138.0.0.0","Windows","10.0","https://app.prolific.com/","en-US,en;q=0.9","6612e7f231d13a67b8e758cc","686d226cabeef709c732f8e1","686e3131478e3dc0e5fff262","6612e7f231d13a67b8e758cc","2025-07-09T09:47:51.420Z","","","","","","ControlQ","","","","","","","","","","","","","","","","","","","","","","","","","","","","","","","","","","","","","","50"
"7966","","<div style=""width:500px;"">
  <p>How would you describe your current emotional state?</p>
  </div>","84","html-slider-response","73","2440649","0.0-10.0-3.5","49","1","2025-07-09 09:07:14","7701e855f2ef39aa3fd6c71abdc6918a","41.114.9.251","Mozilla/5.0 (Windows NT 10.0; Win64; x64) AppleWebKit/537.36 (KHTML, like Gecko) Chrome/138.0.0.0 Safari/537.36","WebKit","Chrome","138.0.0.0","Windows","10.0","https://app.prolific.com/","en-US,en;q=0.9","6612e7f231d13a67b8e758cc","686d226cabeef709c732f8e1","686e3131478e3dc0e5fff262","6612e7f231d13a67b8e758cc","2025-07-09T09:47:59.388Z","","","","","","StressQ","","","","","","","","","","","","","","","","","","","","","","","","","","","","","","","","","","","","","","50"
"6205","","<div style=""width:500px;"">
  <p>What best describes how you currently feel?</p>
  </div>","67","html-slider-response","74","2446856","0.0-10.0-4.5","49","1","2025-07-09 09:07:14","7701e855f2ef39aa3fd6c71abdc6918a","41.114.9.251","Mozilla/5.0 (Windows NT 10.0; Win64; x64) AppleWebKit/537.36 (KHTML, like Gecko) Chrome/138.0.0.0 Safari/537.36","WebKit","Chrome","138.0.0.0","Windows","10.0","https://app.prolific.com/","en-US,en;q=0.9","6612e7f231d13a67b8e758cc","686d226cabeef709c732f8e1","686e3131478e3dc0e5fff262","6612e7f231d13a67b8e758cc","2025-07-09T09:48:05.595Z","","","","","","MotivationQ","","","","","","","","","","","","","","","","","","","","","","","","","","","","","","","","","","","","","","50"
"","","","","ctl-task-cpt","75","2484622","0.0-10.0-0.6","49","1","2025-07-09 09:07:14","7701e855f2ef39aa3fd6c71abdc6918a","41.114.9.251","Mozilla/5.0 (Windows NT 10.0; Win64; x64) AppleWebKit/537.36 (KHTML, like Gecko) Chrome/138.0.0.0 Safari/537.36","WebKit","Chrome","138.0.0.0","Windows","10.0","https://app.prolific.com/","en-US,en;q=0.9","6612e7f231d13a67b8e758cc","686d226cabeef709c732f8e1","686e3131478e3dc0e5fff262","6612e7f231d13a67b8e758cc","2025-07-09T09:48:43.361Z","","","","","","","","","","","","","","","","win-only","1","g1:NE,g2:SW","0.4","7","0","2450233.7","16389.9","21403.6","34741.6","1","4","8","6","1","1","1","1","0","0.007575757575757576","5013.7","3000","2215","[""up"",""right""]","{""num_key_presses"":4,""num_perfect"":4,""num_errors"":0,""num_randdir"":0,""num_randdir_good_moves"":0,""num_whilered"":0,""num_whileblue"":0,""num_blue"":1,""num_good_moves"":4}","[299.22232142857143,296.12857142857143,0.6,299.22232142857143,296.12857142857143,107.3,299.22232142857143,296.12857142857143,208.1,299.22232142857143,296.12857142857143,317.1,299.22232142857143,296.12857142857143,422.2,299.22232142857143,296.12857142857143,532.9,299.22232142857143,296.12857142857143,635.3,299.22232142857143,296.12857142857143,743.6,299.22232142857143,296.12857142857143,844.9,299.22232142857143,296.12857142857143,946.7,299.22232142857143,296.12857142857143,1053.1,299.22232142857143,296.12857142857143,1153.1,299.22232142857143,296.12857142857143,1264.7,299.22232142857143,296.12857142857143,1370,299.22232142857143,296.12857142857143,1471.2,299.22232142857143,296.12857142857143,1579.1,299.22232142857143,296.12857142857143,1686.9,299.22232142857143,296.12857142857143,1789.6,299.22232142857143,296.12857142857143,1890.1,299.22232142857143,296.12857142857143,1997.9,299.22232142857143,296.12857142857143,2104.4,299.22232142857143,296.12857142857143,2213,299.22232142857143,296.12857142857143,2317.2,299.22232142857143,296.12857142857143,2420.7,299.22232142857143,296.12857142857143,2530.6,299.22232142857143,296.12857142857143,2631.9,299.22232142857143,296.12857142857143,2737.2,299.22232142857143,296.12857142857143,2851.2,299.22232142857143,296.12857142857143,2956.8,299.22232142857143,296.12857142857143,3060,299.22232142857143,296.12857142857143,3167.3,299.22232142857143,296.12857142857143,3270.6,299.22232142857143,296.12857142857143,3371,299.22232142857143,296.12857142857143,3476.3,299.22232142857143,296.12857142857143,3577.7,299.22232142857143,296.12857142857143,3680.2,299.22232142857143,296.12857142857143,3780.3,299.22232142857143,296.12857142857143,3888.5,299.22232142857143,296.12857142857143,3990.5,299.22232142857143,296.12857142857143,4095.1,299.22232142857143,296.12857142857143,4206.8,299.22232142857143,296.12857142857143,4316.1,299.22232142857143,296.12857142857143,4423,299.22232142857143,296.12857142857143,4526.9,299.22232142857143,296.12857142857143,4636.6,299.22232142857143,296.12857142857143,4744.9,299.22232142857143,296.12857142857143,4850.4,299.22232142857143,296.12857142857143,4950.9]","[1546.6,1546.6,1000,0,546.6,""smooth"",""right"",""right"",""good_move"",4446.7,2899.4,2488.5,1547.3,410.9,""smooth"",""right"",""right"",""good_move"",7016.2,2568.8,2166,4447.5,402.7,""smooth"",""up"",""up"",""good_move"",13072,6054.9,2197.2,10432.5,442.3,""smooth"",""up"",""up"",""good_move""]","",""
"4945","","<div style=""width:500px;"">
  <p>What determined the result of this run?</p>
  </div>","99","html-slider-response","76","2489572","0.0-10.0-1.6","49","1","2025-07-09 09:07:14","7701e855f2ef39aa3fd6c71abdc6918a","41.114.9.251","Mozilla/5.0 (Windows NT 10.0; Win64; x64) AppleWebKit/537.36 (KHTML, like Gecko) Chrome/138.0.0.0 Safari/537.36","WebKit","Chrome","138.0.0.0","Windows","10.0","https://app.prolific.com/","en-US,en;q=0.9","6612e7f231d13a67b8e758cc","686d226cabeef709c732f8e1","686e3131478e3dc0e5fff262","6612e7f231d13a67b8e758cc","2025-07-09T09:48:48.311Z","","","","","","AttribQ","","","","","","","","","","","","","","","","","","","","","","","","","","","","","","","","","","","","","","50"
"4882","","<div style=""width:500px;"">
  <p>How much control did you have over the ball?</p>
  </div>","100","html-slider-response","77","2494457","0.0-10.0-2.6","49","1","2025-07-09 09:07:14","7701e855f2ef39aa3fd6c71abdc6918a","41.114.9.251","Mozilla/5.0 (Windows NT 10.0; Win64; x64) AppleWebKit/537.36 (KHTML, like Gecko) Chrome/138.0.0.0 Safari/537.36","WebKit","Chrome","138.0.0.0","Windows","10.0","https://app.prolific.com/","en-US,en;q=0.9","6612e7f231d13a67b8e758cc","686d226cabeef709c732f8e1","686e3131478e3dc0e5fff262","6612e7f231d13a67b8e758cc","2025-07-09T09:48:53.196Z","","","","","","ControlQ","","","","","","","","","","","","","","","","","","","","","","","","","","","","","","","","","","","","","","50"
"5717","","<div style=""width:500px;"">
  <p>How would you describe your current emotional state?</p>
  </div>","58","html-slider-response","78","2500178","0.0-10.0-3.6","49","1","2025-07-09 09:07:14","7701e855f2ef39aa3fd6c71abdc6918a","41.114.9.251","Mozilla/5.0 (Windows NT 10.0; Win64; x64) AppleWebKit/537.36 (KHTML, like Gecko) Chrome/138.0.0.0 Safari/537.36","WebKit","Chrome","138.0.0.0","Windows","10.0","https://app.prolific.com/","en-US,en;q=0.9","6612e7f231d13a67b8e758cc","686d226cabeef709c732f8e1","686e3131478e3dc0e5fff262","6612e7f231d13a67b8e758cc","2025-07-09T09:48:58.917Z","","","","","","StressQ","","","","","","","","","","","","","","","","","","","","","","","","","","","","","","","","","","","","","","50"
"5338","","<div style=""width:500px;"">
  <p>What best describes how you currently feel?</p>
  </div>","100","html-slider-response","79","2505519","0.0-10.0-4.6","49","1","2025-07-09 09:07:14","7701e855f2ef39aa3fd6c71abdc6918a","41.114.9.251","Mozilla/5.0 (Windows NT 10.0; Win64; x64) AppleWebKit/537.36 (KHTML, like Gecko) Chrome/138.0.0.0 Safari/537.36","WebKit","Chrome","138.0.0.0","Windows","10.0","https://app.prolific.com/","en-US,en;q=0.9","6612e7f231d13a67b8e758cc","686d226cabeef709c732f8e1","686e3131478e3dc0e5fff262","6612e7f231d13a67b8e758cc","2025-07-09T09:49:04.258Z","","","","","","MotivationQ","","","","","","","","","","","","","","","","","","","","","","","","","","","","","","","","","","","","","","50"
"","","","","ctl-task-cpt","80","2534399","0.0-10.0-0.7","49","1","2025-07-09 09:07:14","7701e855f2ef39aa3fd6c71abdc6918a","41.114.9.251","Mozilla/5.0 (Windows NT 10.0; Win64; x64) AppleWebKit/537.36 (KHTML, like Gecko) Chrome/138.0.0.0 Safari/537.36","WebKit","Chrome","138.0.0.0","Windows","10.0","https://app.prolific.com/","en-US,en;q=0.9","6612e7f231d13a67b8e758cc","686d226cabeef709c732f8e1","686e3131478e3dc0e5fff262","6612e7f231d13a67b8e758cc","2025-07-09T09:49:33.138Z","","","","","","","","","","","","","","","","win-only","0","g1:NW,g2:SE","0.3","8","0","2508895.8","5291.6","10302.1","25841.9","1","4","4","6","1","1","1","2","1","0.015151515151515152","5010.5","3000","2395","[""left"",""up""]","{""num_key_presses"":4,""num_perfect"":1,""num_errors"":0,""num_randdir"":3,""num_randdir_good_moves"":3,""num_whilered"":0,""num_whileblue"":0,""num_blue"":1,""num_good_moves"":4}","[295.22232142857143,295.12857142857143,2.4,295.22232142857143,295.12857142857143,106.9,295.22232142857143,295.12857142857143,218,295.22232142857143,295.12857142857143,324.9,295.22232142857143,295.12857142857143,430.6,295.22232142857143,295.12857142857143,537.5,295.22232142857143,295.12857142857143,642.1,295.22232142857143,295.12857142857143,746.9,295.22232142857143,295.12857142857143,852.4,295.22232142857143,295.12857142857143,958.5,295.22232142857143,295.12857142857143,1068.8,295.22232142857143,295.12857142857143,1176.7,295.22232142857143,295.12857142857143,1281.8,295.22232142857143,295.12857142857143,1385.6,295.22232142857143,295.12857142857143,1490.9,295.22232142857143,295.12857142857143,1597.7,295.22232142857143,295.12857142857143,1701.9,295.22232142857143,295.12857142857143,1802.5,295.22232142857143,295.12857142857143,1908.8,295.22232142857143,295.12857142857143,2009.4,295.22232142857143,295.12857142857143,2115.5,295.22232142857143,295.12857142857143,2224.8,295.22232142857143,295.12857142857143,2326.3,295.22232142857143,295.12857142857143,2433.5,295.22232142857143,295.12857142857143,2539.6,295.22232142857143,295.12857142857143,2651.4,295.22232142857143,295.12857142857143,2759.9,295.22232142857143,295.12857142857143,2864,295.22232142857143,295.12857142857143,2964,295.22232142857143,295.12857142857143,3065.5,295.22232142857143,295.12857142857143,3168.9,295.22232142857143,295.12857142857143,3269.2,295.22232142857143,295.12857142857143,3371.2,295.22232142857143,295.12857142857143,3479.8,295.22232142857143,295.12857142857143,3591.4,295.22232142857143,295.12857142857143,3696.9,295.22232142857143,295.12857142857143,3799.2,295.22232142857143,295.12857142857143,3908.6,295.22232142857143,295.12857142857143,4020.1,295.22232142857143,295.12857142857143,4129,295.22232142857143,295.12857142857143,4235.1,295.22232142857143,295.12857142857143,4335.3,295.22232142857143,295.12857142857143,4441,295.22232142857143,295.12857142857143,4549.6,295.22232142857143,295.12857142857143,4660.3,295.22232142857143,295.12857142857143,4770.5,295.22232142857143,295.12857142857143,4872.5,295.22232142857143,295.12857142857143,4975.3]","[5099.8,5099.8,2626.7,2014.8,458.3,""oops"",""up"",""up"",""good_move"",8415.7,3313.2,1502.9,5102.5,1810.3,""oops"",""left"",""up"",""good_move"",11887,3470.5,2901.3,8416.5,569.2,""smooth"",""left"",""left"",""good_move"",15214.2,3326.5,2864.6,11887.8,461.8,""oops"",""left"",""left"",""good_move""]","",""
"4970","","<div style=""width:500px;"">
  <p>What determined the result of this run?</p>
  </div>","100","html-slider-response","81","2539372","0.0-10.0-1.7","49","1","2025-07-09 09:07:14","7701e855f2ef39aa3fd6c71abdc6918a","41.114.9.251","Mozilla/5.0 (Windows NT 10.0; Win64; x64) AppleWebKit/537.36 (KHTML, like Gecko) Chrome/138.0.0.0 Safari/537.36","WebKit","Chrome","138.0.0.0","Windows","10.0","https://app.prolific.com/","en-US,en;q=0.9","6612e7f231d13a67b8e758cc","686d226cabeef709c732f8e1","686e3131478e3dc0e5fff262","6612e7f231d13a67b8e758cc","2025-07-09T09:49:38.111Z","","","","","","AttribQ","","","","","","","","","","","","","","","","","","","","","","","","","","","","","","","","","","","","","","50"
"9065","","<div style=""width:500px;"">
  <p>How much control did you have over the ball?</p>
  </div>","100","html-slider-response","82","2548440","0.0-10.0-2.7","49","1","2025-07-09 09:07:14","7701e855f2ef39aa3fd6c71abdc6918a","41.114.9.251","Mozilla/5.0 (Windows NT 10.0; Win64; x64) AppleWebKit/537.36 (KHTML, like Gecko) Chrome/138.0.0.0 Safari/537.36","WebKit","Chrome","138.0.0.0","Windows","10.0","https://app.prolific.com/","en-US,en;q=0.9","6612e7f231d13a67b8e758cc","686d226cabeef709c732f8e1","686e3131478e3dc0e5fff262","6612e7f231d13a67b8e758cc","2025-07-09T09:49:47.179Z","","","","","","ControlQ","","","","","","","","","","","","","","","","","","","","","","","","","","","","","","","","","","","","","","50"
"8797","","<div style=""width:500px;"">
  <p>How would you describe your current emotional state?</p>
  </div>","14","html-slider-response","83","2557240","0.0-10.0-3.7","49","1","2025-07-09 09:07:14","7701e855f2ef39aa3fd6c71abdc6918a","41.114.9.251","Mozilla/5.0 (Windows NT 10.0; Win64; x64) AppleWebKit/537.36 (KHTML, like Gecko) Chrome/138.0.0.0 Safari/537.36","WebKit","Chrome","138.0.0.0","Windows","10.0","https://app.prolific.com/","en-US,en;q=0.9","6612e7f231d13a67b8e758cc","686d226cabeef709c732f8e1","686e3131478e3dc0e5fff262","6612e7f231d13a67b8e758cc","2025-07-09T09:49:55.979Z","","","","","","StressQ","","","","","","","","","","","","","","","","","","","","","","","","","","","","","","","","","","","","","","50"
"6882","","<div style=""width:500px;"">
  <p>What best describes how you currently feel?</p>
  </div>","100","html-slider-response","84","2564125","0.0-10.0-4.7","49","1","2025-07-09 09:07:14","7701e855f2ef39aa3fd6c71abdc6918a","41.114.9.251","Mozilla/5.0 (Windows NT 10.0; Win64; x64) AppleWebKit/537.36 (KHTML, like Gecko) Chrome/138.0.0.0 Safari/537.36","WebKit","Chrome","138.0.0.0","Windows","10.0","https://app.prolific.com/","en-US,en;q=0.9","6612e7f231d13a67b8e758cc","686d226cabeef709c732f8e1","686e3131478e3dc0e5fff262","6612e7f231d13a67b8e758cc","2025-07-09T09:50:02.864Z","","","","","","MotivationQ","","","","","","","","","","","","","","","","","","","","","","","","","","","","","","","","","","","","","","50"
"","","","","ctl-task-cpt","85","2660151","0.0-10.0-0.8","49","1","2025-07-09 09:07:14","7701e855f2ef39aa3fd6c71abdc6918a","41.114.9.251","Mozilla/5.0 (Windows NT 10.0; Win64; x64) AppleWebKit/537.36 (KHTML, like Gecko) Chrome/138.0.0.0 Safari/537.36","WebKit","Chrome","138.0.0.0","Windows","10.0","https://app.prolific.com/","en-US,en;q=0.9","6612e7f231d13a67b8e758cc","686d226cabeef709c732f8e1","686e3131478e3dc0e5fff262","6612e7f231d13a67b8e758cc","2025-07-09T09:51:38.890Z","","","","","","","","","","","","","","","","win-only","1","g1:NE,g2:SW","0.2","9","0","2567502.8","5377.9","10387.7","93001.9","1","4","8","6","2","-8","-8","0","2","0","5009.7","3000","-1495","[""down"",""left""]","{""num_key_presses"":18,""num_perfect"":4,""num_errors"":0,""num_randdir"":14,""num_randdir_good_moves"":7,""num_whilered"":0,""num_whileblue"":0,""num_blue"":4,""num_good_moves"":10}","[296.22232142857143,305.12857142857143,0.9,296.22232142857143,305.12857142857143,126.4,296.22232142857143,305.12857142857143,244.8,296.22232142857143,305.12857142857143,369.5,296.22232142857143,305.12857142857143,487.7,296.22232142857143,305.12857142857143,611.8,296.22232142857143,305.12857142857143,736.2,296.22232142857143,305.12857142857143,853.6,296.22232142857143,305.12857142857143,973.9,296.22232142857143,305.12857142857143,1087.9,296.22232142857143,305.12857142857143,1206.6,296.22232142857143,305.12857142857143,1319,296.22232142857143,305.12857142857143,1437,296.22232142857143,305.12857142857143,1552.9,296.22232142857143,305.12857142857143,1673.2,296.22232142857143,305.12857142857143,1785.3,296.22232142857143,305.12857142857143,1904.7,296.22232142857143,305.12857142857143,2013.7,296.22232142857143,305.12857142857143,2134.4,296.22232142857143,305.12857142857143,2249.4,296.22232142857143,305.12857142857143,2365.8,296.22232142857143,305.12857142857143,2486.6,296.22232142857143,305.12857142857143,2599.4,296.22232142857143,305.12857142857143,2719.8,296.22232142857143,305.12857142857143,2835.1,296.22232142857143,305.12857142857143,2954.5,296.22232142857143,305.12857142857143,3069.4,296.22232142857143,305.12857142857143,3196.1,296.22232142857143,305.12857142857143,3307.8,296.22232142857143,305.12857142857143,3426.5,296.22232142857143,305.12857142857143,3545.3,296.22232142857143,305.12857142857143,3660.2,296.22232142857143,305.12857142857143,3779.5,296.22232142857143,305.12857142857143,3895.9,296.22232142857143,305.12857142857143,4010.5,296.22232142857143,305.12857142857143,4132,296.22232142857143,305.12857142857143,4247.4,296.22232142857143,305.12857142857143,4363.2,296.22232142857143,305.12857142857143,4483.3,296.22232142857143,305.12857142857143,4599.5,296.22232142857143,305.12857142857143,4718.2,296.22232142857143,305.12857142857143,4836.4,296.22232142857143,305.12857142857143,4948.7]","[1595.2,1595.2,1000,0,595.2,""smooth"",""down"",""down"",""good_move"",8174.4,6578.5,2599.9,5016.3,558.2,""oops"",""left"",""down"",""good_move"",11467,3292.2,2608.6,8174.8,683.6,""oops"",""left"",""down"",""good_move"",14396.6,2929.3,2266.7,11467.3,662.6,""oops"",""left"",""left"",""good_move"",22419.2,8022.1,2353.7,14397.1,5668.4,""oops"",""left"",""left"",""good_move"",33452.8,11033.1,1925.8,30876.2,650.8,""oops"",""left"",""right"",""bad_move"",36192.7,2739.5,2038,33453.2,701.5,""smooth"",""right"",""right"",""bad_move"",38844.6,2650.2,2150.5,36194.4,499.7,""oops"",""left"",""up"",""bad_move"",42358.6,3512.2,2930.7,38846.4,581.5,""oops"",""left"",""left"",""good_move"",44965.2,2605.1,2021.4,42360.1,583.7,""oops"",""left"",""up"",""bad_move"",48019,3053.1,2501.3,44965.9,551.8,""smooth"",""down"",""down"",""good_move"",51397.1,3376.9,2795.9,48020.2,581.1,""smooth"",""left"",""left"",""good_move"",57387,5989.6,2199.8,54644.5,542.7,""oops"",""down"",""down"",""good_move"",60602.2,3214.7,2705,57387.5,509.7,""oops"",""left"",""right"",""bad_move"",64453.2,3850.5,2747.4,60602.7,1103.1,""oops"",""left"",""right"",""bad_move"",67831.3,3377.7,2574.7,64453.6,803,""oops"",""left"",""left"",""good_move"",71952.9,4121,1742.1,67832,2378.8,""oops"",""left"",""right"",""bad_move"",78638.2,6684.7,2223.6,75843.5,571.2,""oops"",""left"",""up"",""bad_move""]","",""
"7428","","<div style=""width:500px;"">
  <p>What determined the result of this run?</p>
  </div>","25","html-slider-response","86","2667581","0.0-10.0-1.8","49","1","2025-07-09 09:07:14","7701e855f2ef39aa3fd6c71abdc6918a","41.114.9.251","Mozilla/5.0 (Windows NT 10.0; Win64; x64) AppleWebKit/537.36 (KHTML, like Gecko) Chrome/138.0.0.0 Safari/537.36","WebKit","Chrome","138.0.0.0","Windows","10.0","https://app.prolific.com/","en-US,en;q=0.9","6612e7f231d13a67b8e758cc","686d226cabeef709c732f8e1","686e3131478e3dc0e5fff262","6612e7f231d13a67b8e758cc","2025-07-09T09:51:46.320Z","","","","","","AttribQ","","","","","","","","","","","","","","","","","","","","","","","","","","","","","","","","","","","","","","50"
"3844","","<div style=""width:500px;"">
  <p>How much control did you have over the ball?</p>
  </div>","0","html-slider-response","87","2671426","0.0-10.0-2.8","49","1","2025-07-09 09:07:14","7701e855f2ef39aa3fd6c71abdc6918a","41.114.9.251","Mozilla/5.0 (Windows NT 10.0; Win64; x64) AppleWebKit/537.36 (KHTML, like Gecko) Chrome/138.0.0.0 Safari/537.36","WebKit","Chrome","138.0.0.0","Windows","10.0","https://app.prolific.com/","en-US,en;q=0.9","6612e7f231d13a67b8e758cc","686d226cabeef709c732f8e1","686e3131478e3dc0e5fff262","6612e7f231d13a67b8e758cc","2025-07-09T09:51:50.166Z","","","","","","ControlQ","","","","","","","","","","","","","","","","","","","","","","","","","","","","","","","","","","","","","","50"
"8578","","<div style=""width:500px;"">
  <p>How would you describe your current emotional state?</p>
  </div>","100","html-slider-response","88","2680007","0.0-10.0-3.8","49","1","2025-07-09 09:07:14","7701e855f2ef39aa3fd6c71abdc6918a","41.114.9.251","Mozilla/5.0 (Windows NT 10.0; Win64; x64) AppleWebKit/537.36 (KHTML, like Gecko) Chrome/138.0.0.0 Safari/537.36","WebKit","Chrome","138.0.0.0","Windows","10.0","https://app.prolific.com/","en-US,en;q=0.9","6612e7f231d13a67b8e758cc","686d226cabeef709c732f8e1","686e3131478e3dc0e5fff262","6612e7f231d13a67b8e758cc","2025-07-09T09:51:58.746Z","","","","","","StressQ","","","","","","","","","","","","","","","","","","","","","","","","","","","","","","","","","","","","","","50"
"12632","","<div style=""width:500px;"">
  <p>What best describes how you currently feel?</p>
