"rt","response_timestamp","stimulus","response","trial_type","trial_index","time_elapsed","internal_node_id","run_id","condition","recorded_at","source_code_version","ip","user_agent","device","browser","browser_version","platform","platform_version","referer","accept_language","PROLIFIC_PID","STUDY_ID","SESSION_ID","prolific_id","realtime","view_history","question_order","consent","success","question_id","eventType","responses","item_order","radio_event_ids","radio_event_times","key_event_times","mouse_event_times","straightlining","zigzagging","honeypot","which_type","canvas_config","goals_layout","control_level","trial_number","tutorial_trial_number","trial_start_time","phase1_start_time","phase2_start_time","phase3_start_time","goal_1_value","goal_1_distance","goal_2_value","goal_2_distance","goal_selected","outcome","outcome_total","participant_final_score","participant_initial_score","participant_final_score_prop","goal_choice_rt","allocated_time","allocated_time_remaining","goal_direction","counts","mouse_movements","key_presses","correct","slider_start"
"28981","1752052373556","<p style='font-size:40px;line-height:1.25'><strong>Welcome to the experiment!</strong></p><p style='font-size:1.1em;line-height:1.25'>Thank you for your interest in our experiment! Before you begin, it is important that we obtain your informed consent to participate in the study.</p><p style='font-size:1.1em;line-height:1.25'>On the next screen will be an <strong>information sheet</strong> for you to read. To participate in the study we need you to read this information sheet and the following consent form carefully. If you agree with all the statements, please click the <strong>I agree</strong> button.</p><p style='font-size:1.1em;line-height:1.25'>Press <strong>Next</strong> to read the information sheet.</p>","0","custom-html-button-response","0","28983","0.0-0.0","72","1","2025-07-09 09:07:27","7701e855f2ef39aa3fd6c71abdc6918a","165.165.111.188","Mozilla/5.0 (Windows NT 10.0; Win64; x64) AppleWebKit/537.36 (KHTML, like Gecko) Chrome/138.0.0.0 Safari/537.36","WebKit","Chrome","138.0.0.0","Windows","10.0","https://app.prolific.com/","en-ZA,en-GB;q=0.9,en-US;q=0.8,en;q=0.7","6164b4422e2259bfaa67f33a","686d226cabeef709c732f8e1","686e31437de84b1dc20f5c27","6164b4422e2259bfaa67f33a","2025-07-09T09:12:53.558Z","","","","","","","","","","","","","","","","","","","","","","","","","","","","","","","","","","","","","","","","","","","",""
"297073","","","","instructions","1","326058","0.0-1.0","72","1","2025-07-09 09:07:27","7701e855f2ef39aa3fd6c71abdc6918a","165.165.111.188","Mozilla/5.0 (Windows NT 10.0; Win64; x64) AppleWebKit/537.36 (KHTML, like Gecko) Chrome/138.0.0.0 Safari/537.36","WebKit","Chrome","138.0.0.0","Windows","10.0","https://app.prolific.com/","en-ZA,en-GB;q=0.9,en-US;q=0.8,en;q=0.7","6164b4422e2259bfaa67f33a","686d226cabeef709c732f8e1","686e31437de84b1dc20f5c27","6164b4422e2259bfaa67f33a","","[{""page_index"":0,""viewing_time"":283783},{""page_index"":1,""viewing_time"":13290}]","","","","","","","","","","","","","","","","","","","","","","","","","","","","","","","","","","","","","","","","","","",""
"24983","","","{""Q0"":"""",""Q1"":"""",""Q2"":"""",""Q3"":"""",""Q4"":"""",""Q5"":"""",""Q6"":""I agree""}","survey-multi-choice","2","351045","0.0-2.0","72","1","2025-07-09 09:07:27","7701e855f2ef39aa3fd6c71abdc6918a","165.165.111.188","Mozilla/5.0 (Windows NT 10.0; Win64; x64) AppleWebKit/537.36 (KHTML, like Gecko) Chrome/138.0.0.0 Safari/537.36","WebKit","Chrome","138.0.0.0","Windows","10.0","https://app.prolific.com/","en-ZA,en-GB;q=0.9,en-US;q=0.8,en;q=0.7","6164b4422e2259bfaa67f33a","686d226cabeef709c732f8e1","686e31437de84b1dc20f5c27","6164b4422e2259bfaa67f33a","","","[0,1,2,3,4,5,6]","true","","","","","","","","","","","","","","","","","","","","","","","","","","","","","","","","","","","","","","","","",""
"35291","","","","fullscreen","3","387346","0.0-4.0","72","1","2025-07-09 09:07:27","7701e855f2ef39aa3fd6c71abdc6918a","165.165.111.188","Mozilla/5.0 (Windows NT 10.0; Win64; x64) AppleWebKit/537.36 (KHTML, like Gecko) Chrome/138.0.0.0 Safari/537.36","WebKit","Chrome","138.0.0.0","Windows","10.0","https://app.prolific.com/","en-ZA,en-GB;q=0.9,en-US;q=0.8,en;q=0.7","6164b4422e2259bfaa67f33a","686d226cabeef709c732f8e1","686e31437de84b1dc20f5c27","6164b4422e2259bfaa67f33a","","","","","true","","","","","","","","","","","","","","","","","","","","","","","","","","","","","","","","","","","","","","","",""
"10703","1752052742623"," <p style='font-size:1.1em;line-height:1.25'>Thank you for completing the consent form and closing all other tabs.</p><p style='font-size:1.1em;line-height:1.25'>We will now invite you to fill in some demographic information and questionnaires, before starting the game.<br>This will take about 5 minutes.<br></p><p style='font-size:1.1em;line-height:1.25'>Press the <strong>Next</strong> button to continue.</p>","0","custom-html-button-response","4","398050","0.0-5.0","72","1","2025-07-09 09:07:27","7701e855f2ef39aa3fd6c71abdc6918a","165.165.111.188","Mozilla/5.0 (Windows NT 10.0; Win64; x64) AppleWebKit/537.36 (KHTML, like Gecko) Chrome/138.0.0.0 Safari/537.36","WebKit","Chrome","138.0.0.0","Windows","10.0","https://app.prolific.com/","en-ZA,en-GB;q=0.9,en-US;q=0.8,en;q=0.7","6164b4422e2259bfaa67f33a","686d226cabeef709c732f8e1","686e31437de84b1dc20f5c27","6164b4422e2259bfaa67f33a","2025-07-09T09:19:02.624Z","","","","","","","","","","","","","","","","","","","","","","","","","","","","","","","","","","","","","","","","","","","",""
"12262","","","{""age"":""37""}","survey-text","5","410317","0.0-6.0-0.0","72","1","2025-07-09 09:07:27","7701e855f2ef39aa3fd6c71abdc6918a","165.165.111.188","Mozilla/5.0 (Windows NT 10.0; Win64; x64) AppleWebKit/537.36 (KHTML, like Gecko) Chrome/138.0.0.0 Safari/537.36","WebKit","Chrome","138.0.0.0","Windows","10.0","https://app.prolific.com/","en-ZA,en-GB;q=0.9,en-US;q=0.8,en;q=0.7","6164b4422e2259bfaa67f33a","686d226cabeef709c732f8e1","686e31437de84b1dc20f5c27","6164b4422e2259bfaa67f33a","","","","","","0","demographics","","","","","","","","","","","","","","","","","","","","","","","","","","","","","","","","","","","","","",""
"6840","","","{""gender_identity"":""female/woman""}","survey-multi-choice","6","417159","0.0-6.0-1.0","72","1","2025-07-09 09:07:27","7701e855f2ef39aa3fd6c71abdc6918a","165.165.111.188","Mozilla/5.0 (Windows NT 10.0; Win64; x64) AppleWebKit/537.36 (KHTML, like Gecko) Chrome/138.0.0.0 Safari/537.36","WebKit","Chrome","138.0.0.0","Windows","10.0","https://app.prolific.com/","en-ZA,en-GB;q=0.9,en-US;q=0.8,en;q=0.7","6164b4422e2259bfaa67f33a","686d226cabeef709c732f8e1","686e31437de84b1dc20f5c27","6164b4422e2259bfaa67f33a","","","[0]","","","1","demographics","","","","","","","","","","","","","","","","","","","","","","","","","","","","","","","","","","","","","",""
"6530","","","{""assigned_sex"":""female""}","survey-multi-choice","7","423691","0.0-6.0-2.0","72","1","2025-07-09 09:07:27","7701e855f2ef39aa3fd6c71abdc6918a","165.165.111.188","Mozilla/5.0 (Windows NT 10.0; Win64; x64) AppleWebKit/537.36 (KHTML, like Gecko) Chrome/138.0.0.0 Safari/537.36","WebKit","Chrome","138.0.0.0","Windows","10.0","https://app.prolific.com/","en-ZA,en-GB;q=0.9,en-US;q=0.8,en;q=0.7","6164b4422e2259bfaa67f33a","686d226cabeef709c732f8e1","686e31437de84b1dc20f5c27","6164b4422e2259bfaa67f33a","","","[0]","","","2","demographics","","","","","","","","","","","","","","","","","","","","","","","","","","","","","","","","","","","","","",""
"13753","","","{""menstrual_cycle"":""Yes""}","survey-multi-choice","8","437445","0.0-6.0-3.0","72","1","2025-07-09 09:07:27","7701e855f2ef39aa3fd6c71abdc6918a","165.165.111.188","Mozilla/5.0 (Windows NT 10.0; Win64; x64) AppleWebKit/537.36 (KHTML, like Gecko) Chrome/138.0.0.0 Safari/537.36","WebKit","Chrome","138.0.0.0","Windows","10.0","https://app.prolific.com/","en-ZA,en-GB;q=0.9,en-US;q=0.8,en;q=0.7","6164b4422e2259bfaa67f33a","686d226cabeef709c732f8e1","686e31437de84b1dc20f5c27","6164b4422e2259bfaa67f33a","","","[0]","","","4","demographics","","","","","","","","","","","","","","","","","","","","","","","","","","","","","","","","","","","","","",""
"20512","","","{""education"":""Higher National Diploma""}","survey-multi-choice","9","457958","0.0-6.0-4.0","72","1","2025-07-09 09:07:27","7701e855f2ef39aa3fd6c71abdc6918a","165.165.111.188","Mozilla/5.0 (Windows NT 10.0; Win64; x64) AppleWebKit/537.36 (KHTML, like Gecko) Chrome/138.0.0.0 Safari/537.36","WebKit","Chrome","138.0.0.0","Windows","10.0","https://app.prolific.com/","en-ZA,en-GB;q=0.9,en-US;q=0.8,en;q=0.7","6164b4422e2259bfaa67f33a","686d226cabeef709c732f8e1","686e31437de84b1dc20f5c27","6164b4422e2259bfaa67f33a","","","[0]","","","5","demographics","","","","","","","","","","","","","","","","","","","","","","","","","","","","","","","","","","","","","",""
"27536","","","{""education"":""Higher National Diploma""}","survey-multi-choice","10","485496","0.0-6.0-5.0","72","1","2025-07-09 09:07:27","7701e855f2ef39aa3fd6c71abdc6918a","165.165.111.188","Mozilla/5.0 (Windows NT 10.0; Win64; x64) AppleWebKit/537.36 (KHTML, like Gecko) Chrome/138.0.0.0 Safari/537.36","WebKit","Chrome","138.0.0.0","Windows","10.0","https://app.prolific.com/","en-ZA,en-GB;q=0.9,en-US;q=0.8,en;q=0.7","6164b4422e2259bfaa67f33a","686d226cabeef709c732f8e1","686e31437de84b1dc20f5c27","6164b4422e2259bfaa67f33a","2025-07-09T09:20:30.070Z","","[0]","","","6","demographics","","","","","","","","","","","","","","","","","","","","","","","","","","","","","","","","","","","","","",""
"57124","","","{""mental_health_condition"":""N/A"",""mental_health_treatment"":""N/A"",""psychiatric_medication"":""N/A""}","survey-text","11","542622","0.0-7.0-0.0","72","1","2025-07-09 09:07:27","7701e855f2ef39aa3fd6c71abdc6918a","165.165.111.188","Mozilla/5.0 (Windows NT 10.0; Win64; x64) AppleWebKit/537.36 (KHTML, like Gecko) Chrome/138.0.0.0 Safari/537.36","WebKit","Chrome","138.0.0.0","Windows","10.0","https://app.prolific.com/","en-ZA,en-GB;q=0.9,en-US;q=0.8,en;q=0.7","6164b4422e2259bfaa67f33a","686d226cabeef709c732f8e1","686e31437de84b1dc20f5c27","6164b4422e2259bfaa67f33a","2025-07-09T09:21:27.197Z","","","","","1","mental_health","","","","","","","","","","","","","","","","","","","","","","","","","","","","","","","","","","","","","",""
"17050","","","{""depression_history"":[""Yes""]}","survey-multi-select","12","559677","0.0-7.0-1.0","72","1","2025-07-09 09:07:27","7701e855f2ef39aa3fd6c71abdc6918a","165.165.111.188","Mozilla/5.0 (Windows NT 10.0; Win64; x64) AppleWebKit/537.36 (KHTML, like Gecko) Chrome/138.0.0.0 Safari/537.36","WebKit","Chrome","138.0.0.0","Windows","10.0","https://app.prolific.com/","en-ZA,en-GB;q=0.9,en-US;q=0.8,en;q=0.7","6164b4422e2259bfaa67f33a","686d226cabeef709c732f8e1","686e31437de84b1dc20f5c27","6164b4422e2259bfaa67f33a","","","[0]","","","","mental_health","","","","","","","","","","","","","","","","","","","","","","","","","","","","","","","","","","","","","",""
"29869","","","{""depression_episodes"":""3-5"",""depression_recent"":""More than 1 year ago""}","survey-multi-choice","13","589548","0.0-7.0-2.0-0.0","72","1","2025-07-09 09:07:27","7701e855f2ef39aa3fd6c71abdc6918a","165.165.111.188","Mozilla/5.0 (Windows NT 10.0; Win64; x64) AppleWebKit/537.36 (KHTML, like Gecko) Chrome/138.0.0.0 Safari/537.36","WebKit","Chrome","138.0.0.0","Windows","10.0","https://app.prolific.com/","en-ZA,en-GB;q=0.9,en-US;q=0.8,en;q=0.7","6164b4422e2259bfaa67f33a","686d226cabeef709c732f8e1","686e31437de84b1dc20f5c27","6164b4422e2259bfaa67f33a","2025-07-09T09:22:14.123Z","","[0,1]","","","3","mental_health","","","","","","","","","","","","","","","","","","","","","","","","","","","","","","","","","","","","","",""
"137856","","","","survey-template","14","727408","0.0-7.0-3.0","72","1","2025-07-09 09:07:27","7701e855f2ef39aa3fd6c71abdc6918a","165.165.111.188","Mozilla/5.0 (Windows NT 10.0; Win64; x64) AppleWebKit/537.36 (KHTML, like Gecko) Chrome/138.0.0.0 Safari/537.36","WebKit","Chrome","138.0.0.0","Windows","10.0","https://app.prolific.com/","en-ZA,en-GB;q=0.9,en-US;q=0.8,en;q=0.7","6164b4422e2259bfaa67f33a","686d226cabeef709c732f8e1","686e31437de84b1dc20f5c27","6164b4422e2259bfaa67f33a","2025-07-09T09:24:31.982Z","","","","","","ius","{""Q01"":""4"",""Q02"":""3"",""Q03"":""0"",""Q04"":""2"",""Q05"":""2"",""Q06"":""0"",""Q07"":""2"",""Q08"":""0"",""Q09"":""3"",""Q10"":""0"",""Q11"":""1"",""Q12"":""4"",""Q13"":""1""}","[0,1,2,3,4,5,6,7,8,9,10,11,12]","[""Q01"",""Q02"",""Q03"",""Q04"",""Q05"",""Q06"",""Q07"",""Q07"",""Q08"",""Q09"",""Q11"",""Q11"",""Q12"",""Q13"",""Q10""]","[17833.29999999702,24125.20000000298,32488.60000000149,42664.5,54843.20000000298,61587.29999999702,74001.29999999702,79541.5,88458.89999999851,98397,105904.70000000298,112431.29999999702,118096.70000000298,125613.20000000298,135535.3999999985]","[]","[17833.29999999702,24125.20000000298,32488.60000000149,42664.5,54843.20000000298,61587.29999999702,74001.29999999702,79541.5,88458.89999999851,98397,102170.79999999702,105904.70000000298,112431.29999999702,118096.70000000298,123423.29999999702,124395,125613.20000000298,127465.5,134759.3999999985,135535.3999999985,137853.20000000298]","0.3076923076923077","0.16666666666666666","0","","","","","","","","","","","","","","","","","","","","","","","","","","","","",""
"5468","1752053077452","<p style='font-size:1.1em;line-height:1.25'>In the following, we will ask you a few questions relating to your experiences over the past month.<br></p><p style='font-size:1.1em;line-height:1.25'>Press the <strong>Next</strong> button to continue.</p>","0","custom-html-button-response","15","732878","0.0-7.0-4.0","72","1","2025-07-09 09:07:27","7701e855f2ef39aa3fd6c71abdc6918a","165.165.111.188","Mozilla/5.0 (Windows NT 10.0; Win64; x64) AppleWebKit/537.36 (KHTML, like Gecko) Chrome/138.0.0.0 Safari/537.36","WebKit","Chrome","138.0.0.0","Windows","10.0","https://app.prolific.com/","en-ZA,en-GB;q=0.9,en-US;q=0.8,en;q=0.7","6164b4422e2259bfaa67f33a","686d226cabeef709c732f8e1","686e31437de84b1dc20f5c27","6164b4422e2259bfaa67f33a","2025-07-09T09:24:37.452Z","","","","","","","","","","","","","","","","","","","","","","","","","","","","","","","","","","","","","","","","","","","",""
"168830.5","","","","survey-template","16","901711","0.0-7.0-5.0","72","1","2025-07-09 09:07:27","7701e855f2ef39aa3fd6c71abdc6918a","165.165.111.188","Mozilla/5.0 (Windows NT 10.0; Win64; x64) AppleWebKit/537.36 (KHTML, like Gecko) Chrome/138.0.0.0 Safari/537.36","WebKit","Chrome","138.0.0.0","Windows","10.0","https://app.prolific.com/","en-ZA,en-GB;q=0.9,en-US;q=0.8,en;q=0.7","6164b4422e2259bfaa67f33a","686d226cabeef709c732f8e1","686e31437de84b1dc20f5c27","6164b4422e2259bfaa67f33a","2025-07-09T09:27:26.286Z","","","","","","pss","{""Q01"":""2"",""Q02"":""3"",""Q03"":""3"",""Q04"":""2"",""Q05"":""2"",""Q06"":""4"",""Q07"":""2"",""Q08"":""2"",""Q09"":""3"",""Q10"":""2""}","[0,1,2,3,4,5,6,7,8,9]","[""Q01"",""Q02"",""Q03"",""Q04"",""Q05"",""Q06"",""Q07"",""Q08"",""Q09"",""Q10""]","[80040.39999999851,89367.89999999851,106786.19999999553,115590.39999999851,124584.60000000149,132668.1000000015,142785.8999999985,148590.5,155518.29999999702,167578.29999999702]","[]","[0.19999999552965164,80040.39999999851,89367.89999999851,106786.19999999553,115590.39999999851,124584.60000000149,132668.1000000015,142785.8999999985,148590.5,155518.29999999702,167578.29999999702,168828.5]","0.6","0.4444444444444444","0","","","","","","","","","","","","","","","","","","","","","","","","","","","","",""
"4787","1752053251074","<p style='font-size:1.1em;line-height:1.25'>Thank you for your answers! Now we will ask you a few more questions relating to your feelings in the last 24 hours.<br></p><p style='font-size:1.1em;line-height:1.25'>Press the <strong>Next</strong> button to continue.</p>","0","custom-html-button-response","17","906501","0.0-7.0-6.0","72","1","2025-07-09 09:07:27","7701e855f2ef39aa3fd6c71abdc6918a","165.165.111.188","Mozilla/5.0 (Windows NT 10.0; Win64; x64) AppleWebKit/537.36 (KHTML, like Gecko) Chrome/138.0.0.0 Safari/537.36","WebKit","Chrome","138.0.0.0","Windows","10.0","https://app.prolific.com/","en-ZA,en-GB;q=0.9,en-US;q=0.8,en;q=0.7","6164b4422e2259bfaa67f33a","686d226cabeef709c732f8e1","686e31437de84b1dc20f5c27","6164b4422e2259bfaa67f33a","2025-07-09T09:27:31.075Z","","","","","","","","","","","","","","","","","","","","","","","","","","","","","","","","","","","","","","","","","","","",""
"98609.29999999702","","","","survey-template","18","1005114","0.0-7.0-7.0","72","1","2025-07-09 09:07:27","7701e855f2ef39aa3fd6c71abdc6918a","165.165.111.188","Mozilla/5.0 (Windows NT 10.0; Win64; x64) AppleWebKit/537.36 (KHTML, like Gecko) Chrome/138.0.0.0 Safari/537.36","WebKit","Chrome","138.0.0.0","Windows","10.0","https://app.prolific.com/","en-ZA,en-GB;q=0.9,en-US;q=0.8,en;q=0.7","6164b4422e2259bfaa67f33a","686d226cabeef709c732f8e1","686e31437de84b1dc20f5c27","6164b4422e2259bfaa67f33a","2025-07-09T09:29:09.688Z","","","","","","drsp","{""Q01"":""1"",""Q02"":""0"",""Q03"":""0"",""Q04"":""0"",""Q05"":""1"",""Q06"":""0"",""Q07"":""1"",""Q08"":""0"",""Q09"":""0"",""Q10"":""1"",""Q11"":""0"",""Q12"":""3"",""Q13"":""3"",""Q14"":""0"",""Q15"":""0"",""Q16"":""1"",""Q17"":""0"",""Q18"":""1"",""Q19"":""1"",""Q20"":""0"",""Q21"":""0""}","[0,1,2,3,4,5,6,7,8,9,10,11,12,13,14,15,16,17,18,19,20]","[""Q01"",""Q02"",""Q03"",""Q04"",""Q05"",""Q06"",""Q07"",""Q08"",""Q09"",""Q10"",""Q11"",""Q12"",""Q13"",""Q13"",""Q14"",""Q15"",""Q16"",""Q17"",""Q18"",""Q19"",""Q20"",""Q21""]","[8244.69999999553,10506.69999999553,12563,17282.69999999553,20074.29999999702,25856.39999999851,31050.89999999851,33762.5,37962.79999999702,41078.69999999553,44358.89999999851,49759.39999999851,54028.89999999851,57269,60834.79999999702,67310.89999999851,70188.69999999553,72384.19999999553,80094.79999999702,87684.79999999702,94096.79999999702,97078.59999999404]","[]","[0.19999999552965164,8244.69999999553,10506.69999999553,12563,17282.69999999553,20074.29999999702,25856.39999999851,31050.89999999851,33762.5,37962.79999999702,41078.69999999553,44358.89999999851,49759.39999999851,54028.89999999851,57269,60834.79999999702,67310.89999999851,70188.69999999553,72384.19999999553,80094.79999999702,87684.79999999702,94096.79999999702,97078.59999999404,98604.69999999553]","0.5714285714285714","0.55","0","","","","","","","","","","","","","","","","","","","","","","","","","","","","",""
"18208.20000000298","","","","survey-template","19","1023324","0.0-7.0-8.0","72","1","2025-07-09 09:07:27","7701e855f2ef39aa3fd6c71abdc6918a","165.165.111.188","Mozilla/5.0 (Windows NT 10.0; Win64; x64) AppleWebKit/537.36 (KHTML, like Gecko) Chrome/138.0.0.0 Safari/537.36","WebKit","Chrome","138.0.0.0","Windows","10.0","https://app.prolific.com/","en-ZA,en-GB;q=0.9,en-US;q=0.8,en;q=0.7","6164b4422e2259bfaa67f33a","686d226cabeef709c732f8e1","686e31437de84b1dc20f5c27","6164b4422e2259bfaa67f33a","2025-07-09T09:29:27.898Z","","","","","","stress","{""Q01"":""0"",""Q02"":""1"",""Q03"":""3""}","[0,1,2]","[""Q01"",""Q02"",""Q03""]","[8659.30000000447,11993.10000000149,16967.20000000298]","[]","[8659.30000000447,11993.10000000149,16967.20000000298,18207.20000000298]","0.3333333333333333","0.5","0","","","","","","","","","","","","","","","","","","","","","","","","","","","","",""
"215873","","","","instructions","20","1239198","0.0-8.0-0.0","72","1","2025-07-09 09:07:27","7701e855f2ef39aa3fd6c71abdc6918a","165.165.111.188","Mozilla/5.0 (Windows NT 10.0; Win64; x64) AppleWebKit/537.36 (KHTML, like Gecko) Chrome/138.0.0.0 Safari/537.36","WebKit","Chrome","138.0.0.0","Windows","10.0","https://app.prolific.com/","en-ZA,en-GB;q=0.9,en-US;q=0.8,en;q=0.7","6164b4422e2259bfaa67f33a","686d226cabeef709c732f8e1","686e31437de84b1dc20f5c27","6164b4422e2259bfaa67f33a","","[{""page_index"":0,""viewing_time"":99624},{""page_index"":1,""viewing_time"":52121},{""page_index"":2,""viewing_time"":31559},{""page_index"":3,""viewing_time"":32568}]","","","","","","","","","","","","","","","","","","","","","","","","","","","","","","","","","","","","","","","","","","",""
"","","","","ctl-task-cpt","21","1273682","0.0-8.0-1.0","72","1","2025-07-09 09:07:27","7701e855f2ef39aa3fd6c71abdc6918a","165.165.111.188","Mozilla/5.0 (Windows NT 10.0; Win64; x64) AppleWebKit/537.36 (KHTML, like Gecko) Chrome/138.0.0.0 Safari/537.36","WebKit","Chrome","138.0.0.0","Windows","10.0","https://app.prolific.com/","en-ZA,en-GB;q=0.9,en-US;q=0.8,en;q=0.7","6164b4422e2259bfaa67f33a","686d226cabeef709c732f8e1","686e31437de84b1dc20f5c27","6164b4422e2259bfaa67f33a","","","","","","","","","","","","","","","","","win-only","1","g1:NE,g2:SW","1","0","1","1242723.1","6044.5","10046","31474.2","2","4","4","6","2","-4","-5","0","0","0","4001.5","4000","-2130","[""down"",""left""]","{""num_key_presses"":6,""num_perfect"":4,""num_errors"":1,""num_randdir"":0,""num_randdir_good_moves"":0,""num_whilered"":1,""num_whileblue"":0,""num_blue"":1,""num_good_moves"":4}","[416.5714133126395,422.82142761775424,0.7,416.5714133126395,422.82142761775424,103.7,416.5714133126395,422.82142761775424,216.5,416.5714133126395,422.82142761775424,316.9,416.5714133126395,422.82142761775424,423.6,416.5714133126395,422.82142761775424,533.1,416.5714133126395,422.82142761775424,643.7,416.5714133126395,422.82142761775424,743.8,416.5714133126395,422.82142761775424,850.1,416.5714133126395,422.82142761775424,950.6,416.5714133126395,422.82142761775424,1053.9,416.5714133126395,422.82142761775424,1163.5,416.5714133126395,422.82142761775424,1263.5,416.5714133126395,422.82142761775424,1364.4,416.5714133126395,422.82142761775424,1472,416.5714133126395,422.82142761775424,1573.9,416.5714133126395,422.82142761775424,1684,416.5714133126395,422.82142761775424,1794,416.5714133126395,422.82142761775424,1899.1,416.5714133126395,422.82142761775424,1999.2,416.5714133126395,422.82142761775424,2100.7,416.5714133126395,422.82142761775424,2204.4,416.5714133126395,422.82142761775424,2313.7,416.5714133126395,422.82142761775424,2413.9,416.5714133126395,422.82142761775424,2514.2,416.5714133126395,422.82142761775424,2614.2,416.5714133126395,422.82142761775424,2731.1,416.5714133126395,422.82142761775424,2834.5,416.5714133126395,422.82142761775424,2938.3,416.5714133126395,422.82142761775424,3040,416.5714133126395,422.82142761775424,3143.9,416.5714133126395,422.82142761775424,3250.9,416.5714133126395,422.82142761775424,3355.7,407.8214133126395,424.07142761775424,3463.5,622.8214133126395,286.57142761775424,3563.5,946.5714133126395,66.57142761775425,3663.8,1042.8214133126396,-83.42857238224575,3767.7,1056.5714133126396,-103.42857238224575,3867.9,926.5714133126395,-53.42857238224575,3968.3]","[4164.3,4164.4,1000,0,3164.4,""smooth"",""down"",""down"",""good_move"",4438.7,273.7,2355.7,4165.1,-2082.1,""error"",""-"",""-"",""no_move"",4750.9,311.9,2355.7,4165.1,-1769.9,""while_red"",""-"",""-"",""no_move"",8716,4277.1,2518.1,5442.5,755.5,""smooth"",""left"",""left"",""good_move"",15279.2,6562.5,2668.8,11982.6,627.8,""smooth"",""down"",""down"",""good_move"",19217.8,3938.4,2702.8,15279.4,1235.6,""smooth"",""left"",""left"",""good_move""]","",""
"26980","","","","instructions","22","1300662","0.0-8.0-2.0","72","1","2025-07-09 09:07:27","7701e855f2ef39aa3fd6c71abdc6918a","165.165.111.188","Mozilla/5.0 (Windows NT 10.0; Win64; x64) AppleWebKit/537.36 (KHTML, like Gecko) Chrome/138.0.0.0 Safari/537.36","WebKit","Chrome","138.0.0.0","Windows","10.0","https://app.prolific.com/","en-ZA,en-GB;q=0.9,en-US;q=0.8,en;q=0.7","6164b4422e2259bfaa67f33a","686d226cabeef709c732f8e1","686e31437de84b1dc20f5c27","6164b4422e2259bfaa67f33a","","[{""page_index"":0,""viewing_time"":26980}]","","","","","","","","","","","","","","","","","","","","","","","","","","","","","","","","","","","","","","","","","","",""
"","","","","ctl-task-cpt","23","1335782","0.0-8.0-3.0","72","1","2025-07-09 09:07:27","7701e855f2ef39aa3fd6c71abdc6918a","165.165.111.188","Mozilla/5.0 (Windows NT 10.0; Win64; x64) AppleWebKit/537.36 (KHTML, like Gecko) Chrome/138.0.0.0 Safari/537.36","WebKit","Chrome","138.0.0.0","Windows","10.0","https://app.prolific.com/","en-ZA,en-GB;q=0.9,en-US;q=0.8,en;q=0.7","6164b4422e2259bfaa67f33a","686d226cabeef709c732f8e1","686e31437de84b1dc20f5c27","6164b4422e2259bfaa67f33a","","","","","","","","","","","","","","","","","win-only","1","g1:NE,g2:SW","0.35","0","3","1304183.5","2873.2","6876.6","32102.2","2","4","8","6","1","-2","-2","0","0","0","4003.4","4000","-2060","[""up"",""right""]","{""num_key_presses"":6,""num_perfect"":2,""num_errors"":0,""num_randdir"":4,""num_randdir_good_moves"":1,""num_whilered"":0,""num_whileblue"":0,""num_blue"":1,""num_good_moves"":3}","[421.5714133126395,417.82142761775424,0.2,421.5714133126395,417.82142761775424,100.7,421.5714133126395,417.82142761775424,204.3,421.5714133126395,417.82142761775424,313.9,421.5714133126395,417.82142761775424,420.3,421.5714133126395,417.82142761775424,524.4,421.5714133126395,417.82142761775424,624.4,421.5714133126395,417.82142761775424,724.4,421.5714133126395,417.82142761775424,834,421.5714133126395,417.82142761775424,934.1,421.5714133126395,417.82142761775424,1044,421.5714133126395,417.82142761775424,1150.9,421.5714133126395,417.82142761775424,1254.1,421.5714133126395,417.82142761775424,1364.4,421.5714133126395,417.82142761775424,1470.7,421.5714133126395,417.82142761775424,1574.2,421.5714133126395,417.82142761775424,1684.8,406.5714133126395,444.07142761775424,1794.1,406.5714133126395,444.07142761775424,1894.3,406.5714133126395,444.07142761775424,1994.3,406.5714133126395,444.07142761775424,2101.3,406.5714133126395,444.07142761775424,2201.3,406.5714133126395,444.07142761775424,2304.3,406.5714133126395,440.32142761775424,2413.9,406.5714133126395,435.32142761775424,2515.3,407.8214133126395,431.57142761775424,2621.1,407.8214133126395,431.57142761775424,2723.5,410.3214133126395,426.57142761775424,2834.2,415.3214133126395,421.57142761775424,2943.8,416.5714133126395,416.57142761775424,3044,421.5714133126395,485.32142761775424,3150.9,421.5714133126395,485.32142761775424,3251.3,421.5714133126395,485.32142761775424,3351.5,412.8214133126395,486.57142761775424,3453.8,971.5714133126395,102.82142761775425,3557.9,1221.5714133126396,-110.92857238224575,3663.5,1221.5714133126396,-110.92857238224575,3764.2,1010.3214133126395,-59.67857238224575,3892.6]","[3050.7,3050.7,1000,0,2050.7,""smooth"",""up"",""up"",""good_move"",6186,3134.8,2386.2,3051.2,748.6,""smooth"",""right"",""right"",""good_move"",9393.3,3206.9,2477.4,6186.4,729.5,""oops"",""up"",""left"",""bad_move"",12522.9,3129.4,2446.9,9393.5,682.5,""oops"",""right"",""down"",""bad_move"",19275,6751.8,2358.7,16357.6,558.7,""oops"",""right"",""right"",""good_move"",22557.4,3282.2,2383.6,19275.2,898.6,""oops"",""up"",""down"",""bad_move""]","",""
"62886","","","","instructions","24","1398669","0.0-8.0-4.0","72","1","2025-07-09 09:07:27","7701e855f2ef39aa3fd6c71abdc6918a","165.165.111.188","Mozilla/5.0 (Windows NT 10.0; Win64; x64) AppleWebKit/537.36 (KHTML, like Gecko) Chrome/138.0.0.0 Safari/537.36","WebKit","Chrome","138.0.0.0","Windows","10.0","https://app.prolific.com/","en-ZA,en-GB;q=0.9,en-US;q=0.8,en;q=0.7","6164b4422e2259bfaa67f33a","686d226cabeef709c732f8e1","686e31437de84b1dc20f5c27","6164b4422e2259bfaa67f33a","","[{""page_index"":0,""viewing_time"":17956},{""page_index"":1,""viewing_time"":44930}]","","","","","","","","","","","","","","","","","","","","","","","","","","","","","","","","","","","","","","","","","","",""
"24777","","","{""green_ball"":[""Ball always moves in the direction I press"",""Ball sometimes shakes and moves in a random direction""]}","survey-multi-select","25","1423449","0.0-8.0-5.0-0.0","72","1","2025-07-09 09:07:27","7701e855f2ef39aa3fd6c71abdc6918a","165.165.111.188","Mozilla/5.0 (Windows NT 10.0; Win64; x64) AppleWebKit/537.36 (KHTML, like Gecko) Chrome/138.0.0.0 Safari/537.36","WebKit","Chrome","138.0.0.0","Windows","10.0","https://app.prolific.com/","en-ZA,en-GB;q=0.9,en-US;q=0.8,en;q=0.7","6164b4422e2259bfaa67f33a","686d226cabeef709c732f8e1","686e31437de84b1dc20f5c27","6164b4422e2259bfaa67f33a","","","[0]","","","","quiz","","","","","","","","","","","","","","","","","","","","","","","","","","","","","","","","","","","","","false",""
"10135","","<p align='center'><b>INCORRECT.</b> Usually the green ball moves in the indicated direction, but sometimes it shakes and moves randomly. </p>","0","html-button-response","26","1433585","0.0-8.0-5.0-1.0","72","1","2025-07-09 09:07:27","7701e855f2ef39aa3fd6c71abdc6918a","165.165.111.188","Mozilla/5.0 (Windows NT 10.0; Win64; x64) AppleWebKit/537.36 (KHTML, like Gecko) Chrome/138.0.0.0 Safari/537.36","WebKit","Chrome","138.0.0.0","Windows","10.0","https://app.prolific.com/","en-ZA,en-GB;q=0.9,en-US;q=0.8,en;q=0.7","6164b4422e2259bfaa67f33a","686d226cabeef709c732f8e1","686e31437de84b1dc20f5c27","6164b4422e2259bfaa67f33a","","","","","","","","","","","","","","","","","","","","","","","","","","","","","","","","","","","","","","","","","","","","",""
"15149","","","{""green_ball"":[""Ball always moves in the direction I press""]}","survey-multi-select","27","1448737","0.0-8.0-5.1-0.1","72","1","2025-07-09 09:07:27","7701e855f2ef39aa3fd6c71abdc6918a","165.165.111.188","Mozilla/5.0 (Windows NT 10.0; Win64; x64) AppleWebKit/537.36 (KHTML, like Gecko) Chrome/138.0.0.0 Safari/537.36","WebKit","Chrome","138.0.0.0","Windows","10.0","https://app.prolific.com/","en-ZA,en-GB;q=0.9,en-US;q=0.8,en;q=0.7","6164b4422e2259bfaa67f33a","686d226cabeef709c732f8e1","686e31437de84b1dc20f5c27","6164b4422e2259bfaa67f33a","","","[0]","","","","quiz","","","","","","","","","","","","","","","","","","","","","","","","","","","","","","","","","","","","","false",""
"10896","","<p align='center'><b>INCORRECT.</b> Usually the green ball moves in the indicated direction, but sometimes it shakes and moves randomly. </p>","0","html-button-response","28","1459635","0.0-8.0-5.1-1.1","72","1","2025-07-09 09:07:27","7701e855f2ef39aa3fd6c71abdc6918a","165.165.111.188","Mozilla/5.0 (Windows NT 10.0; Win64; x64) AppleWebKit/537.36 (KHTML, like Gecko) Chrome/138.0.0.0 Safari/537.36","WebKit","Chrome","138.0.0.0","Windows","10.0","https://app.prolific.com/","en-ZA,en-GB;q=0.9,en-US;q=0.8,en;q=0.7","6164b4422e2259bfaa67f33a","686d226cabeef709c732f8e1","686e31437de84b1dc20f5c27","6164b4422e2259bfaa67f33a","","","","","","","","","","","","","","","","","","","","","","","","","","","","","","","","","","","","","","","","","","","","",""
"11282","","","{""green_ball"":[""Ball sometimes shakes and moves in a random direction""]}","survey-multi-select","29","1470918","0.0-8.0-5.2-0.2","72","1","2025-07-09 09:07:27","7701e855f2ef39aa3fd6c71abdc6918a","165.165.111.188","Mozilla/5.0 (Windows NT 10.0; Win64; x64) AppleWebKit/537.36 (KHTML, like Gecko) Chrome/138.0.0.0 Safari/537.36","WebKit","Chrome","138.0.0.0","Windows","10.0","https://app.prolific.com/","en-ZA,en-GB;q=0.9,en-US;q=0.8,en;q=0.7","6164b4422e2259bfaa67f33a","686d226cabeef709c732f8e1","686e31437de84b1dc20f5c27","6164b4422e2259bfaa67f33a","","","[0]","","","","quiz","","","","","","","","","","","","","","","","","","","","","","","","","","","","","","","","","","","","","true",""
"4025","","<p align='center'><b>CORRECT!</b> Indeed, the green ball may sometimes shake and move in a random direction.</p>","0","html-button-response","30","1474944","0.0-8.0-5.2-1.2","72","1","2025-07-09 09:07:27","7701e855f2ef39aa3fd6c71abdc6918a","165.165.111.188","Mozilla/5.0 (Windows NT 10.0; Win64; x64) AppleWebKit/537.36 (KHTML, like Gecko) Chrome/138.0.0.0 Safari/537.36","WebKit","Chrome","138.0.0.0","Windows","10.0","https://app.prolific.com/","en-ZA,en-GB;q=0.9,en-US;q=0.8,en;q=0.7","6164b4422e2259bfaa67f33a","686d226cabeef709c732f8e1","686e31437de84b1dc20f5c27","6164b4422e2259bfaa67f33a","","","","","","","","","","","","","","","","","","","","","","","","","","","","","","","","","","","","","","","","","","","","",""
"11718","","","{""yellow_ball"":[""Ball doesn‘t move and I get -1 penalty point""]}","survey-multi-select","31","1486663","0.0-8.0-6.0-0.0","72","1","2025-07-09 09:07:27","7701e855f2ef39aa3fd6c71abdc6918a","165.165.111.188","Mozilla/5.0 (Windows NT 10.0; Win64; x64) AppleWebKit/537.36 (KHTML, like Gecko) Chrome/138.0.0.0 Safari/537.36","WebKit","Chrome","138.0.0.0","Windows","10.0","https://app.prolific.com/","en-ZA,en-GB;q=0.9,en-US;q=0.8,en;q=0.7","6164b4422e2259bfaa67f33a","686d226cabeef709c732f8e1","686e31437de84b1dc20f5c27","6164b4422e2259bfaa67f33a","","","[0]","","","","quiz","","","","","","","","","","","","","","","","","","","","","","","","","","","","","","","","","","","","","true",""
"1818","","<p align='center'><b>CORRECT!</b> Indeed, the yellow ball never moves and you receive a penalty.</p>","0","html-button-response","32","1488482","0.0-8.0-6.0-1.0","72","1","2025-07-09 09:07:27","7701e855f2ef39aa3fd6c71abdc6918a","165.165.111.188","Mozilla/5.0 (Windows NT 10.0; Win64; x64) AppleWebKit/537.36 (KHTML, like Gecko) Chrome/138.0.0.0 Safari/537.36","WebKit","Chrome","138.0.0.0","Windows","10.0","https://app.prolific.com/","en-ZA,en-GB;q=0.9,en-US;q=0.8,en;q=0.7","6164b4422e2259bfaa67f33a","686d226cabeef709c732f8e1","686e31437de84b1dc20f5c27","6164b4422e2259bfaa67f33a","","","","","","","","","","","","","","","","","","","","","","","","","","","","","","","","","","","","","","","","","","","","",""
"9712","","","{""blue_ball"":[""Ball always shakes and moves in a random direction""]}","survey-multi-select","33","1498195","0.0-8.0-7.0-0.0","72","1","2025-07-09 09:07:27","7701e855f2ef39aa3fd6c71abdc6918a","165.165.111.188","Mozilla/5.0 (Windows NT 10.0; Win64; x64) AppleWebKit/537.36 (KHTML, like Gecko) Chrome/138.0.0.0 Safari/537.36","WebKit","Chrome","138.0.0.0","Windows","10.0","https://app.prolific.com/","en-ZA,en-GB;q=0.9,en-US;q=0.8,en;q=0.7","6164b4422e2259bfaa67f33a","686d226cabeef709c732f8e1","686e31437de84b1dc20f5c27","6164b4422e2259bfaa67f33a","","","[0]","","","","quiz","","","","","","","","","","","","","","","","","","","","","","","","","","","","","","","","","","","","","true",""
"2471","","<p align='center'><b>CORRECT!</b> Indeed, the blue ball always shakes and moves in a random direction. Also there is a penalty of -1 point.</p>","0","html-button-response","34","1500668","0.0-8.0-7.0-1.0","72","1","2025-07-09 09:07:27","7701e855f2ef39aa3fd6c71abdc6918a","165.165.111.188","Mozilla/5.0 (Windows NT 10.0; Win64; x64) AppleWebKit/537.36 (KHTML, like Gecko) Chrome/138.0.0.0 Safari/537.36","WebKit","Chrome","138.0.0.0","Windows","10.0","https://app.prolific.com/","en-ZA,en-GB;q=0.9,en-US;q=0.8,en;q=0.7","6164b4422e2259bfaa67f33a","686d226cabeef709c732f8e1","686e31437de84b1dc20f5c27","6164b4422e2259bfaa67f33a","","","","","","","","","","","","","","","","","","","","","","","","","","","","","","","","","","","","","","","","","","","","",""
"7640","","","{""bonus"":[""When I reach 50% of points""]}","survey-multi-select","35","1508310","0.0-8.0-8.0-0.0","72","1","2025-07-09 09:07:27","7701e855f2ef39aa3fd6c71abdc6918a","165.165.111.188","Mozilla/5.0 (Windows NT 10.0; Win64; x64) AppleWebKit/537.36 (KHTML, like Gecko) Chrome/138.0.0.0 Safari/537.36","WebKit","Chrome","138.0.0.0","Windows","10.0","https://app.prolific.com/","en-ZA,en-GB;q=0.9,en-US;q=0.8,en;q=0.7","6164b4422e2259bfaa67f33a","686d226cabeef709c732f8e1","686e31437de84b1dc20f5c27","6164b4422e2259bfaa67f33a","","","[0]","","","","quiz","","","","","","","","","","","","","","","","","","","","","","","","","","","","","","","","","","","","","true",""
"1673","","<p align='center'><b>CORRECT!</b> Indeed, you receive 2 pounds extra when you reach 50% of points.</p>","0","html-button-response","36","1509985","0.0-8.0-8.0-1.0","72","1","2025-07-09 09:07:27","7701e855f2ef39aa3fd6c71abdc6918a","165.165.111.188","Mozilla/5.0 (Windows NT 10.0; Win64; x64) AppleWebKit/537.36 (KHTML, like Gecko) Chrome/138.0.0.0 Safari/537.36","WebKit","Chrome","138.0.0.0","Windows","10.0","https://app.prolific.com/","en-ZA,en-GB;q=0.9,en-US;q=0.8,en;q=0.7","6164b4422e2259bfaa67f33a","686d226cabeef709c732f8e1","686e31437de84b1dc20f5c27","6164b4422e2259bfaa67f33a","","","","","","","","","","","","","","","","","","","","","","","","","","","","","","","","","","","","","","","","","","","","",""
"4475","","","","instructions","37","1514460","0.0-8.0-9.0","72","1","2025-07-09 09:07:27","7701e855f2ef39aa3fd6c71abdc6918a","165.165.111.188","Mozilla/5.0 (Windows NT 10.0; Win64; x64) AppleWebKit/537.36 (KHTML, like Gecko) Chrome/138.0.0.0 Safari/537.36","WebKit","Chrome","138.0.0.0","Windows","10.0","https://app.prolific.com/","en-ZA,en-GB;q=0.9,en-US;q=0.8,en;q=0.7","6164b4422e2259bfaa67f33a","686d226cabeef709c732f8e1","686e31437de84b1dc20f5c27","6164b4422e2259bfaa67f33a","","[{""page_index"":0,""viewing_time"":4474}]","","","","","","","","","","","","","","","","","","","","","","","","","","","","","","","","","","","","","","","","","","",""
"34048","","<p>Before you start with this game please answer the following three questions yourself. </p>
  <p>Through this game, we measure several aspects of your cognitive performance, such as reaction times, multi-tasking capabilities </p>
  <p>and the ability to assess the situation you are in.</p>
  <p></p>
  <p><b>How good do you usually are in such tasks?</b></p>","89","html-slider-response","38","1548510","0.0-9.0-0.0","72","1","2025-07-09 09:07:27","7701e855f2ef39aa3fd6c71abdc6918a","165.165.111.188","Mozilla/5.0 (Windows NT 10.0; Win64; x64) AppleWebKit/537.36 (KHTML, like Gecko) Chrome/138.0.0.0 Safari/537.36","WebKit","Chrome","138.0.0.0","Windows","10.0","https://app.prolific.com/","en-ZA,en-GB;q=0.9,en-US;q=0.8,en;q=0.7","6164b4422e2259bfaa67f33a","686d226cabeef709c732f8e1","686e31437de84b1dc20f5c27","6164b4422e2259bfaa67f33a","2025-07-09T09:38:13.084Z","","","","","","PreSkillQ","","","","","","","","","","","","","","","","","","","","","","","","","","","","","","","","","","","","","","50"
"22769","","<div style=""width:500px;"">
  <p>How well do you think you will perform in this task compared to other participants?</p>
  </div>","85","html-slider-response","39","1571280","0.0-9.0-1.0","72","1","2025-07-09 09:07:27","7701e855f2ef39aa3fd6c71abdc6918a","165.165.111.188","Mozilla/5.0 (Windows NT 10.0; Win64; x64) AppleWebKit/537.36 (KHTML, like Gecko) Chrome/138.0.0.0 Safari/537.36","WebKit","Chrome","138.0.0.0","Windows","10.0","https://app.prolific.com/","en-ZA,en-GB;q=0.9,en-US;q=0.8,en;q=0.7","6164b4422e2259bfaa67f33a","686d226cabeef709c732f8e1","686e31437de84b1dc20f5c27","6164b4422e2259bfaa67f33a","2025-07-09T09:38:35.855Z","","","","","","PrePerfQ","","","","","","","","","","","","","","","","","","","","","","","","","","","","","","","","","","","","","","50"
"15843","","<div style=""width:500px;"">
  <p>What best describes how you currently feel?</p>
  </div>","100","html-slider-response","40","1587125","0.0-9.0-2.0","72","1","2025-07-09 09:07:27","7701e855f2ef39aa3fd6c71abdc6918a","165.165.111.188","Mozilla/5.0 (Windows NT 10.0; Win64; x64) AppleWebKit/537.36 (KHTML, like Gecko) Chrome/138.0.0.0 Safari/537.36","WebKit","Chrome","138.0.0.0","Windows","10.0","https://app.prolific.com/","en-ZA,en-GB;q=0.9,en-US;q=0.8,en;q=0.7","6164b4422e2259bfaa67f33a","686d226cabeef709c732f8e1","686e31437de84b1dc20f5c27","6164b4422e2259bfaa67f33a","2025-07-09T09:38:51.699Z","","","","","","PreMotivationQ","","","","","","","","","","","","","","","","","","","","","","","","","","","","","","","","","","","","","","50"
"","","","","ctl-task-cpt","41","1619793","0.0-10.0-0.0","72","1","2025-07-09 09:07:27","7701e855f2ef39aa3fd6c71abdc6918a","165.165.111.188","Mozilla/5.0 (Windows NT 10.0; Win64; x64) AppleWebKit/537.36 (KHTML, like Gecko) Chrome/138.0.0.0 Safari/537.36","WebKit","Chrome","138.0.0.0","Windows","10.0","https://app.prolific.com/","en-ZA,en-GB;q=0.9,en-US;q=0.8,en;q=0.7","6164b4422e2259bfaa67f33a","686d226cabeef709c732f8e1","686e31437de84b1dc20f5c27","6164b4422e2259bfaa67f33a","2025-07-09T09:39:24.367Z","","","","","","","","","","","","","","","","win-only","2","g1:SE,g2:NW","1","1","0","1590648.7","2605.4","7616.4","29655.8","1","4","8","6","2","-8","-8","0","0","0","2742.3","3000","-1875","[""left"",""up""]","{""num_key_presses"":5,""num_perfect"":5,""num_errors"":0,""num_randdir"":0,""num_randdir_good_moves"":0,""num_whilered"":0,""num_whileblue"":0,""num_blue"":1,""num_good_moves"":5}","[421.5714133126395,419.07142761775424,0.3,421.5714133126395,419.07142761775424,111.9,421.5714133126395,419.07142761775424,212.5,421.5714133126395,419.07142761775424,319.2,421.5714133126395,419.07142761775424,421,424.0714133126395,476.57142761775424,528.3,427.8214133126395,542.8214276177542,629.3,419.0714133126395,526.5714276177542,729.5,419.0714133126395,530.3214276177542,832.2,421.5714133126395,547.8214276177542,940.7,421.5714133126395,547.8214276177542,1042.5,410.3214133126395,542.8214276177542,1147.3,1.571413312639507,62.82142761775425,1248.5,-48.42858668736049,-42.17857238224575,1350.9,-40.92858668736049,-88.42857238224575,1450.9,-38.42858668736049,-107.17857238224575,1551,-5.928586687360493,94.07142761775425,1653.1,-7.178586687360493,156.57142761775424,1762.4,-19.678586687360493,126.57142761775425,1862.5,-198.4285866873605,186.57142761775424,1967.8,-145.9285866873605,167.82142761775424,2070.7,-75.9285866873605,131.57142761775424,2171.1,-79.6785866873605,127.82142761775425,2275.4,-0.9285866873604931,97.82142761775425,2382.8,59.07141331263951,86.57142761775425,2490.5,61.57141331263951,85.32142761775425,2590.5,61.57141331263951,86.57142761775425,2697.5,61.57141331263951,86.57142761775425,2801.7,61.57141331263951,86.57142761775425,2908.5,60.32141331263951,86.57142761775425,3010.8,60.32141331263951,86.57142761775425,3111.4,59.07141331263951,86.57142761775425,3217.7,59.07141331263951,90.32142761775425,3318.2,59.07141331263951,94.07142761775425,3419.1,91.5714133126395,164.07142761775424,3532.1,141.5714133126395,247.82142761775424,3635.3,152.8214133126395,266.57142761775424,3741.2,155.3214133126395,266.57142761775424,3847.8,155.3214133126395,266.57142761775424,3948.3,155.3214133126395,266.57142761775424,4050.8,155.3214133126395,266.57142761775424,4151.4,155.3214133126395,266.57142761775424,4260.8,155.3214133126395,269.07142761775424,4370.8,157.8214133126395,280.32142761775424,4470.8,200.3214133126395,310.32142761775424,4582.3,206.5714133126395,315.32142761775424,4690.5,205.3214133126395,322.82142761775424,4791,42.82141331263951,361.57142761775424,4898.4]","[1988.2,1988.2,1000,0,988.2,""smooth"",""left"",""left"",""good_move"",5666.8,3678,2773.3,1988.8,904.7,""smooth"",""left"",""left"",""good_move"",9178.4,3511.4,2890,5667,621.4,""smooth"",""left"",""left"",""good_move"",12465.6,3287.1,2304.6,9178.6,982.5,""smooth"",""up"",""up"",""good_move"",19344.5,6878.6,2274.5,16399.1,671,""smooth"",""up"",""up"",""good_move""]","",""
"7394","","<div style=""width:500px;"">
  <p>What determined the result of this run?</p>
  </div>","100","html-slider-response","42","1627189","0.0-10.0-1.0","72","1","2025-07-09 09:07:27","7701e855f2ef39aa3fd6c71abdc6918a","165.165.111.188","Mozilla/5.0 (Windows NT 10.0; Win64; x64) AppleWebKit/537.36 (KHTML, like Gecko) Chrome/138.0.0.0 Safari/537.36","WebKit","Chrome","138.0.0.0","Windows","10.0","https://app.prolific.com/","en-ZA,en-GB;q=0.9,en-US;q=0.8,en;q=0.7","6164b4422e2259bfaa67f33a","686d226cabeef709c732f8e1","686e31437de84b1dc20f5c27","6164b4422e2259bfaa67f33a","2025-07-09T09:39:31.763Z","","","","","","AttribQ","","","","","","","","","","","","","","","","","","","","","","","","","","","","","","","","","","","","","","50"
"5460","","<div style=""width:500px;"">
  <p>How much control did you have over the ball?</p>
  </div>","100","html-slider-response","43","1632650","0.0-10.0-2.0","72","1","2025-07-09 09:07:27","7701e855f2ef39aa3fd6c71abdc6918a","165.165.111.188","Mozilla/5.0 (Windows NT 10.0; Win64; x64) AppleWebKit/537.36 (KHTML, like Gecko) Chrome/138.0.0.0 Safari/537.36","WebKit","Chrome","138.0.0.0","Windows","10.0","https://app.prolific.com/","en-ZA,en-GB;q=0.9,en-US;q=0.8,en;q=0.7","6164b4422e2259bfaa67f33a","686d226cabeef709c732f8e1","686e31437de84b1dc20f5c27","6164b4422e2259bfaa67f33a","2025-07-09T09:39:37.225Z","","","","","","ControlQ","","","","","","","","","","","","","","","","","","","","","","","","","","","","","","","","","","","","","","50"
"6031","","<div style=""width:500px;"">
  <p>How would you describe your current emotional state?</p>
  </div>","0","html-slider-response","44","1638683","0.0-10.0-3.0","72","1","2025-07-09 09:07:27","7701e855f2ef39aa3fd6c71abdc6918a","165.165.111.188","Mozilla/5.0 (Windows NT 10.0; Win64; x64) AppleWebKit/537.36 (KHTML, like Gecko) Chrome/138.0.0.0 Safari/537.36","WebKit","Chrome","138.0.0.0","Windows","10.0","https://app.prolific.com/","en-ZA,en-GB;q=0.9,en-US;q=0.8,en;q=0.7","6164b4422e2259bfaa67f33a","686d226cabeef709c732f8e1","686e31437de84b1dc20f5c27","6164b4422e2259bfaa67f33a","2025-07-09T09:39:43.257Z","","","","","","StressQ","","","","","","","","","","","","","","","","","","","","","","","","","","","","","","","","","","","","","","50"
"6276","","<div style=""width:500px;"">
  <p>What best describes how you currently feel?</p>
  </div>","100","html-slider-response","45","1644960","0.0-10.0-4.0","72","1","2025-07-09 09:07:27","7701e855f2ef39aa3fd6c71abdc6918a","165.165.111.188","Mozilla/5.0 (Windows NT 10.0; Win64; x64) AppleWebKit/537.36 (KHTML, like Gecko) Chrome/138.0.0.0 Safari/537.36","WebKit","Chrome","138.0.0.0","Windows","10.0","https://app.prolific.com/","en-ZA,en-GB;q=0.9,en-US;q=0.8,en;q=0.7","6164b4422e2259bfaa67f33a","686d226cabeef709c732f8e1","686e31437de84b1dc20f5c27","6164b4422e2259bfaa67f33a","2025-07-09T09:39:49.535Z","","","","","","MotivationQ","","","","","","","","","","","","","","","","","","","","","","","","","","","","","","","","","","","","","","50"
"","","","","ctl-task-cpt","46","1694121","0.0-10.0-0.1","72","1","2025-07-09 09:07:27","7701e855f2ef39aa3fd6c71abdc6918a","165.165.111.188","Mozilla/5.0 (Windows NT 10.0; Win64; x64) AppleWebKit/537.36 (KHTML, like Gecko) Chrome/138.0.0.0 Safari/537.36","WebKit","Chrome","138.0.0.0","Windows","10.0","https://app.prolific.com/","en-ZA,en-GB;q=0.9,en-US;q=0.8,en;q=0.7","6164b4422e2259bfaa67f33a","686d226cabeef709c732f8e1","686e31437de84b1dc20f5c27","6164b4422e2259bfaa67f33a","2025-07-09T09:40:38.695Z","","","","","","","","","","","","","","","","win-only","0","g1:NW,g2:SE","0.9","2","0","1648482.6","1879.9","6886","46136.3","1","4","4","6","2","4","4","4","0","0.030303030303030304","1486.3","3000","990","[""down"",""right""]","{""num_key_presses"":6,""num_perfect"":6,""num_errors"":0,""num_randdir"":0,""num_randdir_good_moves"":0,""num_whilered"":0,""num_whileblue"":0,""num_blue"":6,""num_good_moves"":6}","[422.8214133126395,419.07142761775424,0.1,422.8214133126395,419.07142761775424,106,422.8214133126395,419.07142761775424,214.5,422.8214133126395,419.07142761775424,315.7,422.8214133126395,419.07142761775424,416.2,422.8214133126395,419.07142761775424,521,601.5714133126395,640.3214276177542,621.3,681.5714133126395,684.0714276177542,727.1,681.5714133126395,684.0714276177542,836,684.0714133126395,690.3214276177542,936.3,685.3214133126395,687.8214276177542,1036.3,736.5714133126395,697.8214276177542,1136.3,752.8214133126395,726.5714276177542,1236.5,754.0714133126395,726.5714276177542,1342.6,754.0714133126395,726.5714276177542,1456.4,754.0714133126395,726.5714276177542,1566.7,752.8214133126395,724.0714276177542,1682.9,751.5714133126395,722.8214276177542,1786.3,751.5714133126395,721.5714276177542,1892.9,751.5714133126395,721.5714276177542,2006,751.5714133126395,721.5714276177542,2106,751.5714133126395,721.5714276177542,2206.4,751.5714133126395,721.5714276177542,2315.9,751.5714133126395,721.5714276177542,2416.3,751.5714133126395,721.5714276177542,2525.9,751.5714133126395,721.5714276177542,2626.2,751.5714133126395,721.5714276177542,2736.1,751.5714133126395,721.5714276177542,2843.2,751.5714133126395,721.5714276177542,2956.1,751.5714133126395,721.5714276177542,3056.4,751.5714133126395,721.5714276177542,3157.4,751.5714133126395,721.5714276177542,3260.5,751.5714133126395,721.5714276177542,3365.1,751.5714133126395,721.5714276177542,3466.2,751.5714133126395,721.5714276177542,3576.6,751.5714133126395,721.5714276177542,3686.2,751.5714133126395,721.5714276177542,3786.3,751.5714133126395,721.5714276177542,3893.2,751.5714133126395,721.5714276177542,3993.3,751.5714133126395,721.5714276177542,4093.3,751.5714133126395,721.5714276177542,4193.4,716.5714133126395,710.3214276177542,4294.7,557.8214133126395,770.3214276177542,4403.2,532.8214133126395,774.0714276177542,4506.1,560.3214133126395,784.0714276177542,4606.2,559.0714133126395,784.0714276177542,4710.9,559.0714133126395,784.0714276177542,4811,559.0714133126395,784.0714276177542,4911.2]","[9259.1,9259.1,2773.1,5941.3,544.7,""smooth"",""right"",""right"",""good_move"",12587.8,3328,2768.6,9259.8,559.4,""smooth"",""right"",""right"",""good_move"",16121,3533,2740.3,12588,792.7,""smooth"",""right"",""right"",""good_move"",22317.2,6196.1,2068.1,19789.9,459.3,""smooth"",""down"",""down"",""good_move"",32013.5,9695.9,2155.2,29298.8,559.5,""smooth"",""down"",""down"",""good_move"",39087.6,7073.6,2854,35649.8,583.8,""smooth"",""down"",""down"",""good_move""]","",""
"7758","","<div style=""width:500px;"">
  <p>What determined the result of this run?</p>
  </div>","99","html-slider-response","47","1701881","0.0-10.0-1.1","72","1","2025-07-09 09:07:27","7701e855f2ef39aa3fd6c71abdc6918a","165.165.111.188","Mozilla/5.0 (Windows NT 10.0; Win64; x64) AppleWebKit/537.36 (KHTML, like Gecko) Chrome/138.0.0.0 Safari/537.36","WebKit","Chrome","138.0.0.0","Windows","10.0","https://app.prolific.com/","en-ZA,en-GB;q=0.9,en-US;q=0.8,en;q=0.7","6164b4422e2259bfaa67f33a","686d226cabeef709c732f8e1","686e31437de84b1dc20f5c27","6164b4422e2259bfaa67f33a","2025-07-09T09:40:46.455Z","","","","","","AttribQ","","","","","","","","","","","","","","","","","","","","","","","","","","","","","","","","","","","","","","50"
"5856","","<div style=""width:500px;"">
  <p>How much control did you have over the ball?</p>
  </div>","97","html-slider-response","48","1707739","0.0-10.0-2.1","72","1","2025-07-09 09:07:27","7701e855f2ef39aa3fd6c71abdc6918a","165.165.111.188","Mozilla/5.0 (Windows NT 10.0; Win64; x64) AppleWebKit/537.36 (KHTML, like Gecko) Chrome/138.0.0.0 Safari/537.36","WebKit","Chrome","138.0.0.0","Windows","10.0","https://app.prolific.com/","en-ZA,en-GB;q=0.9,en-US;q=0.8,en;q=0.7","6164b4422e2259bfaa67f33a","686d226cabeef709c732f8e1","686e31437de84b1dc20f5c27","6164b4422e2259bfaa67f33a","2025-07-09T09:40:52.313Z","","","","","","ControlQ","","","","","","","","","","","","","","","","","","","","","","","","","","","","","","","","","","","","","","50"
"4448","","<div style=""width:500px;"">
  <p>How would you describe your current emotional state?</p>
  </div>","3","html-slider-response","49","1712189","0.0-10.0-3.1","72","1","2025-07-09 09:07:27","7701e855f2ef39aa3fd6c71abdc6918a","165.165.111.188","Mozilla/5.0 (Windows NT 10.0; Win64; x64) AppleWebKit/537.36 (KHTML, like Gecko) Chrome/138.0.0.0 Safari/537.36","WebKit","Chrome","138.0.0.0","Windows","10.0","https://app.prolific.com/","en-ZA,en-GB;q=0.9,en-US;q=0.8,en;q=0.7","6164b4422e2259bfaa67f33a","686d226cabeef709c732f8e1","686e31437de84b1dc20f5c27","6164b4422e2259bfaa67f33a","2025-07-09T09:40:56.763Z","","","","","","StressQ","","","","","","","","","","","","","","","","","","","","","","","","","","","","","","","","","","","","","","50"
"4346","","<div style=""width:500px;"">
  <p>What best describes how you currently feel?</p>
  </div>","98","html-slider-response","50","1716537","0.0-10.0-4.1","72","1","2025-07-09 09:07:27","7701e855f2ef39aa3fd6c71abdc6918a","165.165.111.188","Mozilla/5.0 (Windows NT 10.0; Win64; x64) AppleWebKit/537.36 (KHTML, like Gecko) Chrome/138.0.0.0 Safari/537.36","WebKit","Chrome","138.0.0.0","Windows","10.0","https://app.prolific.com/","en-ZA,en-GB;q=0.9,en-US;q=0.8,en;q=0.7","6164b4422e2259bfaa67f33a","686d226cabeef709c732f8e1","686e31437de84b1dc20f5c27","6164b4422e2259bfaa67f33a","2025-07-09T09:41:01.111Z","","","","","","MotivationQ","","","","","","","","","","","","","","","","","","","","","","","","","","","","","","","","","","","","","","50"
"","","","","ctl-task-cpt","51","1742456","0.0-10.0-0.2","72","1","2025-07-09 09:07:27","7701e855f2ef39aa3fd6c71abdc6918a","165.165.111.188","Mozilla/5.0 (Windows NT 10.0; Win64; x64) AppleWebKit/537.36 (KHTML, like Gecko) Chrome/138.0.0.0 Safari/537.36","WebKit","Chrome","138.0.0.0","Windows","10.0","https://app.prolific.com/","en-ZA,en-GB;q=0.9,en-US;q=0.8,en;q=0.7","6164b4422e2259bfaa67f33a","686d226cabeef709c732f8e1","686e31437de84b1dc20f5c27","6164b4422e2259bfaa67f33a","2025-07-09T09:41:27.030Z","","","","","","","","","","","","","","","","win-only","2","g1:SE,g2:NW","0.8","3","0","1720059.9","1535.5","6542","22908.9","1","4","4","6","1","1","1","5","4","0.03787878787878788","2511","3000","625","[""down"",""right""]","{""num_key_presses"":4,""num_perfect"":4,""num_errors"":0,""num_randdir"":0,""num_randdir_good_moves"":0,""num_whilered"":0,""num_whileblue"":0,""num_blue"":1,""num_good_moves"":4}","[422.8214133126395,415.32142761775424,0.2,422.8214133126395,415.32142761775424,102.4,422.8214133126395,417.82142761775424,202.4,422.8214133126395,417.82142761775424,302.5,422.8214133126395,417.82142761775424,404.2,424.0714133126395,417.82142761775424,509.4,424.0714133126395,419.07142761775424,609.8,317.8214133126395,367.82142761775424,723,245.3214133126395,314.07142761775424,827,231.5714133126395,286.57142761775424,933.1,160.3214133126395,221.57142761775424,1044.9,91.5714133126395,134.07142761775424,1152.1,71.5714133126395,115.32142761775425,1253.7,124.0714133126395,169.07142761775424,1358.2,120.3214133126395,165.32142761775424,1459.9,146.5714133126395,170.32142761775424,1560,680.3214133126395,757.8214276177542,1660.7,774.0714133126395,889.0714276177542,1771.6,775.3214133126395,875.3214276177542,1871.8,762.8214133126395,847.8214276177542,1971.9,736.5714133126395,786.5714276177542,2072.1,735.3214133126395,781.5714276177542,2183.5,736.5714133126395,781.5714276177542,2288.7,736.5714133126395,784.0714276177542,2392.1,737.8214133126395,785.3214276177542,2492.2,739.0714133126395,786.5714276177542,2604.1,739.0714133126395,786.5714276177542,2704.9,739.0714133126395,787.8214276177542,2808,739.0714133126395,787.8214276177542,2910.5,741.5714133126395,795.3214276177542,3021.6,751.5714133126395,806.5714276177542,3122.8,751.5714133126395,806.5714276177542,3225.2,751.5714133126395,806.5714276177542,3334.3,836.5714133126395,866.5714276177542,3439.1,1169.0714133126396,960.3214276177542,3542.6,1335.3214133126396,960.3214276177542,3643.3,1341.5714133126396,960.3214276177542,3752.7,1341.5714133126396,960.3214276177542,3853.5,1337.8214133126396,957.8214276177542,3959.9,1337.8214133126396,956.5714276177542,4063.2,1337.8214133126396,956.5714276177542,4172.3,1337.8214133126396,956.5714276177542,4272.4,1337.8214133126396,956.5714276177542,4372.4,1337.8214133126396,956.5714276177542,4473.1,1337.8214133126396,956.5714276177542,4574.3,1337.8214133126396,956.5714276177542,4682.4,1337.8214133126396,956.5714276177542,4782.5,1337.8214133126396,956.5714276177542,4888,1337.8214133126396,956.5714276177542,4995.3]","[4919.4,4919.4,2315.1,2017.7,586.6,""smooth"",""right"",""right"",""good_move"",8631.4,3711.5,3069,4919.9,642.5,""smooth"",""right"",""right"",""good_move"",12402.5,3770.9,1925.2,8631.6,1845.7,""smooth"",""down"",""down"",""good_move"",16207.4,3804.5,3247,12402.9,557.5,""smooth"",""down"",""down"",""good_move""]","",""
"5232","","<div style=""width:500px;"">
  <p>What determined the result of this run?</p>
  </div>","99","html-slider-response","52","1747690","0.0-10.0-1.2","72","1","2025-07-09 09:07:27","7701e855f2ef39aa3fd6c71abdc6918a","165.165.111.188","Mozilla/5.0 (Windows NT 10.0; Win64; x64) AppleWebKit/537.36 (KHTML, like Gecko) Chrome/138.0.0.0 Safari/537.36","WebKit","Chrome","138.0.0.0","Windows","10.0","https://app.prolific.com/","en-ZA,en-GB;q=0.9,en-US;q=0.8,en;q=0.7","6164b4422e2259bfaa67f33a","686d226cabeef709c732f8e1","686e31437de84b1dc20f5c27","6164b4422e2259bfaa67f33a","2025-07-09T09:41:32.264Z","","","","","","AttribQ","","","","","","","","","","","","","","","","","","","","","","","","","","","","","","","","","","","","","","50"
"2481","","<div style=""width:500px;"">
  <p>How much control did you have over the ball?</p>
  </div>","100","html-slider-response","53","1750172","0.0-10.0-2.2","72","1","2025-07-09 09:07:27","7701e855f2ef39aa3fd6c71abdc6918a","165.165.111.188","Mozilla/5.0 (Windows NT 10.0; Win64; x64) AppleWebKit/537.36 (KHTML, like Gecko) Chrome/138.0.0.0 Safari/537.36","WebKit","Chrome","138.0.0.0","Windows","10.0","https://app.prolific.com/","en-ZA,en-GB;q=0.9,en-US;q=0.8,en;q=0.7","6164b4422e2259bfaa67f33a","686d226cabeef709c732f8e1","686e31437de84b1dc20f5c27","6164b4422e2259bfaa67f33a","2025-07-09T09:41:34.746Z","","","","","","ControlQ","","","","","","","","","","","","","","","","","","","","","","","","","","","","","","","","","","","","","","50"
"3507","","<div style=""width:500px;"">
  <p>How would you describe your current emotional state?</p>
  </div>","0","html-slider-response","54","1753681","0.0-10.0-3.2","72","1","2025-07-09 09:07:27","7701e855f2ef39aa3fd6c71abdc6918a","165.165.111.188","Mozilla/5.0 (Windows NT 10.0; Win64; x64) AppleWebKit/537.36 (KHTML, like Gecko) Chrome/138.0.0.0 Safari/537.36","WebKit","Chrome","138.0.0.0","Windows","10.0","https://app.prolific.com/","en-ZA,en-GB;q=0.9,en-US;q=0.8,en;q=0.7","6164b4422e2259bfaa67f33a","686d226cabeef709c732f8e1","686e31437de84b1dc20f5c27","6164b4422e2259bfaa67f33a","2025-07-09T09:41:38.255Z","","","","","","StressQ","","","","","","","","","","","","","","","","","","","","","","","","","","","","","","","","","","","","","","50"
"5222","","<div style=""width:500px;"">
  <p>What best describes how you currently feel?</p>
  </div>","100","html-slider-response","55","1758905","0.0-10.0-4.2","72","1","2025-07-09 09:07:27","7701e855f2ef39aa3fd6c71abdc6918a","165.165.111.188","Mozilla/5.0 (Windows NT 10.0; Win64; x64) AppleWebKit/537.36 (KHTML, like Gecko) Chrome/138.0.0.0 Safari/537.36","WebKit","Chrome","138.0.0.0","Windows","10.0","https://app.prolific.com/","en-ZA,en-GB;q=0.9,en-US;q=0.8,en;q=0.7","6164b4422e2259bfaa67f33a","686d226cabeef709c732f8e1","686e31437de84b1dc20f5c27","6164b4422e2259bfaa67f33a","2025-07-09T09:41:43.479Z","","","","","","MotivationQ","","","","","","","","","","","","","","","","","","","","","","","","","","","","","","","","","","","","","","50"
"","","","","ctl-task-cpt","56","1787656","0.0-10.0-0.3","72","1","2025-07-09 09:07:27","7701e855f2ef39aa3fd6c71abdc6918a","165.165.111.188","Mozilla/5.0 (Windows NT 10.0; Win64; x64) AppleWebKit/537.36 (KHTML, like Gecko) Chrome/138.0.0.0 Safari/537.36","WebKit","Chrome","138.0.0.0","Windows","10.0","https://app.prolific.com/","en-ZA,en-GB;q=0.9,en-US;q=0.8,en;q=0.7","6164b4422e2259bfaa67f33a","686d226cabeef709c732f8e1","686e31437de84b1dc20f5c27","6164b4422e2259bfaa67f33a","2025-07-09T09:42:12.230Z","","","","","","","","","","","","","","","","win-only","3","g1:SW,g2:NE","0.7","4","0","1762426.5","2703.3","7707.4","25738.6","1","4","8","6","2","8","8","13","5","0.09848484848484848","1953.1","3000","265","[""up"",""right""]","{""num_key_presses"":6,""num_perfect"":5,""num_errors"":0,""num_randdir"":1,""num_randdir_good_moves"":1,""num_whilered"":0,""num_whileblue"":0,""num_blue"":0,""num_good_moves"":6}","[419.0714133126395,407.82142761775424,0.2,419.0714133126395,407.82142761775424,101.6,419.0714133126395,407.82142761775424,201.9,419.0714133126395,407.82142761775424,314.4,419.0714133126395,407.82142761775424,415.3,419.0714133126395,407.82142761775424,519,419.0714133126395,407.82142761775424,623.7,419.0714133126395,407.82142761775424,723.8,517.8214133126395,306.57142761775424,832.3,606.5714133126395,215.32142761775424,933.5,651.5714133126395,185.32142761775424,1033.5,705.3214133126395,157.82142761775424,1133.8,716.5714133126395,137.82142761775424,1241.1,725.3214133126395,116.57142761775425,1344.6,722.8214133126395,116.57142761775425,1452.8,734.0714133126395,96.57142761775425,1560.4,734.0714133126395,99.07142761775425,1663.9,734.0714133126395,99.07142761775425,1764.7,734.0714133126395,99.07142761775425,1869,734.0714133126395,101.57142761775425,1977.3,736.5714133126395,102.82142761775425,2084,736.5714133126395,105.32142761775425,2184,735.3214133126395,106.57142761775425,2285.3,734.0714133126395,107.82142761775425,2393.9,734.0714133126395,107.82142761775425,2503.4,734.0714133126395,107.82142761775425,2603.5,734.0714133126395,107.82142761775425,2713.7,744.0714133126395,130.32142761775424,2818.2,751.5714133126395,159.07142761775424,2920,759.0714133126395,315.32142761775424,3021.2,776.5714133126395,386.57142761775424,3127.8,782.8214133126395,391.57142761775424,3231.7,795.3214133126395,394.07142761775424,3333.8,796.5714133126395,391.57142761775424,3433.9,796.5714133126395,391.57142761775424,3535.3,796.5714133126395,390.32142761775424,3643.3,796.5714133126395,390.32142761775424,3743.9,796.5714133126395,390.32142761775424,3854,796.5714133126395,390.32142761775424,3954.1,796.5714133126395,390.32142761775424,4054.2,796.5714133126395,390.32142761775424,4164.1,796.5714133126395,390.32142761775424,4264.3,796.5714133126395,390.32142761775424,4370,796.5714133126395,390.32142761775424,4470.1,796.5714133126395,390.32142761775424,4570.9,796.5714133126395,390.32142761775424,4672.1,796.5714133126395,390.32142761775424,4772.7,796.5714133126395,390.32142761775424,4873.7,796.5714133126395,390.32142761775424,4984.2]","[2132,2132,1000,0,1132,""smooth"",""right"",""right"",""good_move"",5153.6,3021.3,2386.7,2132.3,634.6,""smooth"",""up"",""up"",""good_move"",8717.9,3564,2775.3,5153.9,788.7,""smooth"",""up"",""up"",""good_move"",11526.3,2808.2,2157.4,8718.1,650.8,""smooth"",""right"",""right"",""good_move"",14596.9,3070.4,2586.8,11526.5,483.6,""oops"",""up"",""right"",""good_move"",17905.9,3308.8,2813,14597.1,495.8,""smooth"",""up"",""up"",""good_move""]","",""
"6570","","<div style=""width:500px;"">
  <p>What determined the result of this run?</p>
  </div>","100","html-slider-response","57","1794227","0.0-10.0-1.3","72","1","2025-07-09 09:07:27","7701e855f2ef39aa3fd6c71abdc6918a","165.165.111.188","Mozilla/5.0 (Windows NT 10.0; Win64; x64) AppleWebKit/537.36 (KHTML, like Gecko) Chrome/138.0.0.0 Safari/537.36","WebKit","Chrome","138.0.0.0","Windows","10.0","https://app.prolific.com/","en-ZA,en-GB;q=0.9,en-US;q=0.8,en;q=0.7","6164b4422e2259bfaa67f33a","686d226cabeef709c732f8e1","686e31437de84b1dc20f5c27","6164b4422e2259bfaa67f33a","2025-07-09T09:42:18.801Z","","","","","","AttribQ","","","","","","","","","","","","","","","","","","","","","","","","","","","","","","","","","","","","","","50"
"8208","","<div style=""width:500px;"">
  <p>How much control did you have over the ball?</p>
  </div>","96","html-slider-response","58","1802437","0.0-10.0-2.3","72","1","2025-07-09 09:07:27","7701e855f2ef39aa3fd6c71abdc6918a","165.165.111.188","Mozilla/5.0 (Windows NT 10.0; Win64; x64) AppleWebKit/537.36 (KHTML, like Gecko) Chrome/138.0.0.0 Safari/537.36","WebKit","Chrome","138.0.0.0","Windows","10.0","https://app.prolific.com/","en-ZA,en-GB;q=0.9,en-US;q=0.8,en;q=0.7","6164b4422e2259bfaa67f33a","686d226cabeef709c732f8e1","686e31437de84b1dc20f5c27","6164b4422e2259bfaa67f33a","2025-07-09T09:42:27.011Z","","","","","","ControlQ","","","","","","","","","","","","","","","","","","","","","","","","","","","","","","","","","","","","","","50"
"4060","","<div style=""width:500px;"">
  <p>How would you describe your current emotional state?</p>
  </div>","0","html-slider-response","59","1806499","0.0-10.0-3.3","72","1","2025-07-09 09:07:27","7701e855f2ef39aa3fd6c71abdc6918a","165.165.111.188","Mozilla/5.0 (Windows NT 10.0; Win64; x64) AppleWebKit/537.36 (KHTML, like Gecko) Chrome/138.0.0.0 Safari/537.36","WebKit","Chrome","138.0.0.0","Windows","10.0","https://app.prolific.com/","en-ZA,en-GB;q=0.9,en-US;q=0.8,en;q=0.7","6164b4422e2259bfaa67f33a","686d226cabeef709c732f8e1","686e31437de84b1dc20f5c27","6164b4422e2259bfaa67f33a","2025-07-09T09:42:31.073Z","","","","","","StressQ","","","","","","","","","","","","","","","","","","","","","","","","","","","","","","","","","","","","","","50"
"3273","","<div style=""width:500px;"">
  <p>What best describes how you currently feel?</p>
  </div>","100","html-slider-response","60","1809772","0.0-10.0-4.3","72","1","2025-07-09 09:07:27","7701e855f2ef39aa3fd6c71abdc6918a","165.165.111.188","Mozilla/5.0 (Windows NT 10.0; Win64; x64) AppleWebKit/537.36 (KHTML, like Gecko) Chrome/138.0.0.0 Safari/537.36","WebKit","Chrome","138.0.0.0","Windows","10.0","https://app.prolific.com/","en-ZA,en-GB;q=0.9,en-US;q=0.8,en;q=0.7","6164b4422e2259bfaa67f33a","686d226cabeef709c732f8e1","686e31437de84b1dc20f5c27","6164b4422e2259bfaa67f33a","2025-07-09T09:42:34.346Z","","","","","","MotivationQ","","","","","","","","","","","","","","","","","","","","","","","","","","","","","","","","","","","","","","50"
"","","","","ctl-task-cpt","61","1845903","0.0-10.0-0.4","72","1","2025-07-09 09:07:27","7701e855f2ef39aa3fd6c71abdc6918a","165.165.111.188","Mozilla/5.0 (Windows NT 10.0; Win64; x64) AppleWebKit/537.36 (KHTML, like Gecko) Chrome/138.0.0.0 Safari/537.36","WebKit","Chrome","138.0.0.0","Windows","10.0","https://app.prolific.com/","en-ZA,en-GB;q=0.9,en-US;q=0.8,en;q=0.7","6164b4422e2259bfaa67f33a","686d226cabeef709c732f8e1","686e31437de84b1dc20f5c27","6164b4422e2259bfaa67f33a","2025-07-09T09:43:10.477Z","","","","","","","","","","","","","","","","win-only","0","g1:NW,g2:SE","0.6","5","0","1813293.7","1824.7","6833.7","33121.5","1","4","8","6","2","8","8","21","13","0.1590909090909091","1312.4","3000","125","[""down"",""right""]","{""num_key_presses"":8,""num_perfect"":5,""num_errors"":0,""num_randdir"":3,""num_randdir_good_moves"":2,""num_whilered"":0,""num_whileblue"":0,""num_blue"":1,""num_good_moves"":7}","[417.8214133126395,417.82142761775424,0.1,417.8214133126395,417.82142761775424,100.9,417.8214133126395,417.82142761775424,205.9,417.8214133126395,417.82142761775424,309.1,417.8214133126395,417.82142761775424,414.4,427.8214133126395,441.57142761775424,517.7,536.5714133126395,566.5714276177542,623.9,699.0714133126395,714.0714276177542,723.9,741.5714133126395,741.5714276177542,834.1,752.8214133126395,747.8214276177542,936.9,759.0714133126395,751.5714276177542,1041.3,759.0714133126395,751.5714276177542,1141.7,759.0714133126395,751.5714276177542,1250.7,759.0714133126395,751.5714276177542,1350.9,759.0714133126395,750.3214276177542,1461.1,757.8214133126395,749.0714276177542,1567.8,757.8214133126395,747.8214276177542,1673.8,757.8214133126395,746.5714276177542,1785.5,756.5714133126395,746.5714276177542,1890.9,756.5714133126395,746.5714276177542,1993.9,756.5714133126395,746.5714276177542,2094.2,756.5714133126395,746.5714276177542,2200.8,756.5714133126395,746.5714276177542,2301,756.5714133126395,746.5714276177542,2401.5,886.5714133126395,836.5714276177542,2509.7,1027.8214133126396,851.5714276177542,2613.7,966.5714133126395,789.0714276177542,2714.2,391.5714133126395,524.0714276177542,2818,351.5714133126395,526.5714276177542,2920.6,806.5714133126395,491.57142761775424,3022.2,932.8214133126395,451.57142761775424,3122.7,932.8214133126395,451.57142761775424,3225.7,932.8214133126395,451.57142761775424,3325.7,1149.0714133126396,484.07142761775424,3428,1375.3214133126396,542.8214276177542,3531.1,1375.3214133126396,537.8214276177542,3633.7,1371.5714133126396,536.5714276177542,3742.6,1371.5714133126396,536.5714276177542,3844.1,1371.5714133126396,536.5714276177542,3951.7,1371.5714133126396,536.5714276177542,4052.1,1371.5714133126396,536.5714276177542,4174,1371.5714133126396,536.5714276177542,4274.5,1371.5714133126396,536.5714276177542,4385.9,1371.5714133126396,536.5714276177542,4486,1371.5714133126396,536.5714276177542,4586.5,1371.5714133126396,536.5714276177542,4694.6,1371.5714133126396,536.5714276177542,4802.2,1371.5714133126396,536.5714276177542,4908.8]","[1663.2,1663.2,1000,0,663.2,""smooth"",""right"",""right"",""good_move"",4599.8,2936.3,2316.3,1663.5,620,""smooth"",""down"",""down"",""good_move"",7844.1,3244,2685.6,4600.1,558.4,""smooth"",""down"",""down"",""good_move"",10313.1,2468.8,1934.7,7844.3,534.1,""smooth"",""right"",""right"",""good_move"",13451.5,3138.3,2532.6,10313.2,605.7,""oops"",""down"",""up"",""bad_move"",16685.6,3233.8,2626.3,13451.8,607.5,""oops"",""down"",""down"",""good_move"",19645.7,2959.8,2495.4,16685.9,464.4,""smooth"",""right"",""right"",""good_move"",26142.6,6496.7,2277.8,23452.4,412.4,""oops"",""down"",""down"",""good_move""]","",""
"4848","","<div style=""width:500px;"">
  <p>What determined the result of this run?</p>
  </div>","99","html-slider-response","62","1850752","0.0-10.0-1.4","72","1","2025-07-09 09:07:27","7701e855f2ef39aa3fd6c71abdc6918a","165.165.111.188","Mozilla/5.0 (Windows NT 10.0; Win64; x64) AppleWebKit/537.36 (KHTML, like Gecko) Chrome/138.0.0.0 Safari/537.36","WebKit","Chrome","138.0.0.0","Windows","10.0","https://app.prolific.com/","en-ZA,en-GB;q=0.9,en-US;q=0.8,en;q=0.7","6164b4422e2259bfaa67f33a","686d226cabeef709c732f8e1","686e31437de84b1dc20f5c27","6164b4422e2259bfaa67f33a","2025-07-09T09:43:15.326Z","","","","","","AttribQ","","","","","","","","","","","","","","","","","","","","","","","","","","","","","","","","","","","","","","50"
"7056","","<div style=""width:500px;"">
  <p>How much control did you have over the ball?</p>
  </div>","82","html-slider-response","63","1857809","0.0-10.0-2.4","72","1","2025-07-09 09:07:27","7701e855f2ef39aa3fd6c71abdc6918a","165.165.111.188","Mozilla/5.0 (Windows NT 10.0; Win64; x64) AppleWebKit/537.36 (KHTML, like Gecko) Chrome/138.0.0.0 Safari/537.36","WebKit","Chrome","138.0.0.0","Windows","10.0","https://app.prolific.com/","en-ZA,en-GB;q=0.9,en-US;q=0.8,en;q=0.7","6164b4422e2259bfaa67f33a","686d226cabeef709c732f8e1","686e31437de84b1dc20f5c27","6164b4422e2259bfaa67f33a","2025-07-09T09:43:22.383Z","","","","","","ControlQ","","","","","","","","","","","","","","","","","","","","","","","","","","","","","","","","","","","","","","50"
"5694","","<div style=""width:500px;"">
  <p>How would you describe your current emotional state?</p>
  </div>","0","html-slider-response","64","1863504","0.0-10.0-3.4","72","1","2025-07-09 09:07:27","7701e855f2ef39aa3fd6c71abdc6918a","165.165.111.188","Mozilla/5.0 (Windows NT 10.0; Win64; x64) AppleWebKit/537.36 (KHTML, like Gecko) Chrome/138.0.0.0 Safari/537.36","WebKit","Chrome","138.0.0.0","Windows","10.0","https://app.prolific.com/","en-ZA,en-GB;q=0.9,en-US;q=0.8,en;q=0.7","6164b4422e2259bfaa67f33a","686d226cabeef709c732f8e1","686e31437de84b1dc20f5c27","6164b4422e2259bfaa67f33a","2025-07-09T09:43:28.078Z","","","","","","StressQ","","","","","","","","","","","","","","","","","","","","","","","","","","","","","","","","","","","","","","50"
"6653","","<div style=""width:500px;"">
  <p>What best describes how you currently feel?</p>
  </div>","100","html-slider-response","65","1870158","0.0-10.0-4.4","72","1","2025-07-09 09:07:27","7701e855f2ef39aa3fd6c71abdc6918a","165.165.111.188","Mozilla/5.0 (Windows NT 10.0; Win64; x64) AppleWebKit/537.36 (KHTML, like Gecko) Chrome/138.0.0.0 Safari/537.36","WebKit","Chrome","138.0.0.0","Windows","10.0","https://app.prolific.com/","en-ZA,en-GB;q=0.9,en-US;q=0.8,en;q=0.7","6164b4422e2259bfaa67f33a","686d226cabeef709c732f8e1","686e31437de84b1dc20f5c27","6164b4422e2259bfaa67f33a","2025-07-09T09:43:34.732Z","","","","","","MotivationQ","","","","","","","","","","","","","","","","","","","","","","","","","","","","","","","","","","","","","","50"
"","","","","ctl-task-cpt","66","1900406","0.0-10.0-0.5","72","1","2025-07-09 09:07:27","7701e855f2ef39aa3fd6c71abdc6918a","165.165.111.188","Mozilla/5.0 (Windows NT 10.0; Win64; x64) AppleWebKit/537.36 (KHTML, like Gecko) Chrome/138.0.0.0 Safari/537.36","WebKit","Chrome","138.0.0.0","Windows","10.0","https://app.prolific.com/","en-ZA,en-GB;q=0.9,en-US;q=0.8,en;q=0.7","6164b4422e2259bfaa67f33a","686d226cabeef709c732f8e1","686e31437de84b1dc20f5c27","6164b4422e2259bfaa67f33a","2025-07-09T09:44:04.980Z","","","","","","","","","","","","","","","","win-only","2","g1:SE,g2:NW","0.5","6","0","1873680.6","1401.3","6406.2","27216.3","1","4","4","6","2","-4","-4","17","21","0.12878787878787878","1624.5","3000","-1815","[""left"",""up""]","{""num_key_presses"":6,""num_perfect"":3,""num_errors"":0,""num_randdir"":3,""num_randdir_good_moves"":0,""num_whilered"":0,""num_whileblue"":0,""num_blue"":0,""num_good_moves"":2}","[412.8214133126395,421.57142761775424,0.2,412.8214133126395,421.57142761775424,110.5,412.8214133126395,421.57142761775424,224,412.8214133126395,421.57142761775424,325.2,412.8214133126395,421.57142761775424,433.7,415.3214133126395,422.82142761775424,535.7,426.5714133126395,451.57142761775424,643.8,429.0714133126395,456.57142761775424,744.3,341.5714133126395,367.82142761775424,850.1,-93.4285866873605,101.57142761775425,952.8,-203.4285866873605,26.571427617754253,1053.1,-168.4285866873605,36.57142761775425,1157.6,-18.428586687360493,97.82142761775425,1269.7,24.071413312639507,95.32142761775425,1371.3,39.07141331263951,87.82142761775425,1475.9,45.32141331263951,85.32142761775425,1577.4,45.32141331263951,85.32142761775425,1679.1,45.32141331263951,85.32142761775425,1784.5,45.32141331263951,85.32142761775425,1894.2,50.32141331263951,91.57142761775425,1999.8,781.5714133126395,897.8214276177542,2109.7,936.5714133126395,956.5714276177542,2228.4,937.8214133126395,946.5714276177542,2334.1,941.5714133126395,946.5714276177542,2435.9,979.0714133126395,946.5714276177542,2545.3,1324.0714133126396,795.3214276177542,2649.4,1375.3214133126396,560.3214276177542,2753.7,1375.3214133126396,507.82142761775424,2862.6,1374.0714133126396,482.82142761775424,2967.7,1370.3214133126396,476.57142761775424,3073.5,1296.5714133126396,421.57142761775424,3174.9,1262.8214133126396,447.82142761775424,3284.4,1251.5714133126396,454.07142761775424,3384.9,1129.0714133126396,497.82142761775424,3493.9,754.0714133126395,612.8214276177542,3594.7,762.8214133126395,609.0714276177542,3695.6,765.3214133126395,610.3214276177542,3805.4,764.0714133126395,610.3214276177542,3914.1,764.0714133126395,610.3214276177542,4014.3,764.0714133126395,610.3214276177542,4114.6,764.0714133126395,610.3214276177542,4225,764.0714133126395,610.3214276177542,4325.7,764.0714133126395,610.3214276177542,4427,764.0714133126395,610.3214276177542,4536.9,764.0714133126395,610.3214276177542,4637.6,764.0714133126395,610.3214276177542,4745.4,764.0714133126395,610.3214276177542,4855,764.0714133126395,610.3214276177542,4955.1]","[1493,1493,1000,0,493,""smooth"",""left"",""left"",""good_move"",5592,4098.7,2459.2,1493.4,1639.4,""smooth"",""up"",""up"",""good_move"",8803.5,3211.2,2728.4,5592.3,482.8,""oops"",""down"",""down"",""bad_move"",12145.9,3342.1,2688.8,8803.8,653.3,""smooth"",""down"",""down"",""bad_move"",15361.4,3215.3,2673.3,12146.1,542,""oops"",""down"",""down"",""bad_move"",18542.2,3180.5,2548.8,15361.7,631.7,""oops"",""down"",""right"",""bad_move""]","",""
"11125","","<div style=""width:500px;"">
  <p>What determined the result of this run?</p>
  </div>","30","html-slider-response","67","1911532","0.0-10.0-1.5","72","1","2025-07-09 09:07:27","7701e855f2ef39aa3fd6c71abdc6918a","165.165.111.188","Mozilla/5.0 (Windows NT 10.0; Win64; x64) AppleWebKit/537.36 (KHTML, like Gecko) Chrome/138.0.0.0 Safari/537.36","WebKit","Chrome","138.0.0.0","Windows","10.0","https://app.prolific.com/","en-ZA,en-GB;q=0.9,en-US;q=0.8,en;q=0.7","6164b4422e2259bfaa67f33a","686d226cabeef709c732f8e1","686e31437de84b1dc20f5c27","6164b4422e2259bfaa67f33a","2025-07-09T09:44:16.107Z","","","","","","AttribQ","","","","","","","","","","","","","","","","","","","","","","","","","","","","","","","","","","","","","","50"
"5207","","<div style=""width:500px;"">
  <p>How much control did you have over the ball?</p>
  </div>","0","html-slider-response","68","1916740","0.0-10.0-2.5","72","1","2025-07-09 09:07:27","7701e855f2ef39aa3fd6c71abdc6918a","165.165.111.188","Mozilla/5.0 (Windows NT 10.0; Win64; x64) AppleWebKit/537.36 (KHTML, like Gecko) Chrome/138.0.0.0 Safari/537.36","WebKit","Chrome","138.0.0.0","Windows","10.0","https://app.prolific.com/","en-ZA,en-GB;q=0.9,en-US;q=0.8,en;q=0.7","6164b4422e2259bfaa67f33a","686d226cabeef709c732f8e1","686e31437de84b1dc20f5c27","6164b4422e2259bfaa67f33a","2025-07-09T09:44:21.315Z","","","","","","ControlQ","","","","","","","","","","","","","","","","","","","","","","","","","","","","","","","","","","","","","","50"
"8121","","<div style=""width:500px;"">
  <p>How would you describe your current emotional state?</p>
  </div>","6","html-slider-response","69","1924863","0.0-10.0-3.5","72","1","2025-07-09 09:07:27","7701e855f2ef39aa3fd6c71abdc6918a","165.165.111.188","Mozilla/5.0 (Windows NT 10.0; Win64; x64) AppleWebKit/537.36 (KHTML, like Gecko) Chrome/138.0.0.0 Safari/537.36","WebKit","Chrome","138.0.0.0","Windows","10.0","https://app.prolific.com/","en-ZA,en-GB;q=0.9,en-US;q=0.8,en;q=0.7","6164b4422e2259bfaa67f33a","686d226cabeef709c732f8e1","686e31437de84b1dc20f5c27","6164b4422e2259bfaa67f33a","2025-07-09T09:44:29.437Z","","","","","","StressQ","","","","","","","","","","","","","","","","","","","","","","","","","","","","","","","","","","","","","","50"
"5719","","<div style=""width:500px;"">
  <p>What best describes how you currently feel?</p>
  </div>","100","html-slider-response","70","1930583","0.0-10.0-4.5","72","1","2025-07-09 09:07:27","7701e855f2ef39aa3fd6c71abdc6918a","165.165.111.188","Mozilla/5.0 (Windows NT 10.0; Win64; x64) AppleWebKit/537.36 (KHTML, like Gecko) Chrome/138.0.0.0 Safari/537.36","WebKit","Chrome","138.0.0.0","Windows","10.0","https://app.prolific.com/","en-ZA,en-GB;q=0.9,en-US;q=0.8,en;q=0.7","6164b4422e2259bfaa67f33a","686d226cabeef709c732f8e1","686e31437de84b1dc20f5c27","6164b4422e2259bfaa67f33a","2025-07-09T09:44:35.157Z","","","","","","MotivationQ","","","","","","","","","","","","","","","","","","","","","","","","","","","","","","","","","","","","","","50"
"","","","","ctl-task-cpt","71","1963525","0.0-10.0-0.6","72","1","2025-07-09 09:07:27","7701e855f2ef39aa3fd6c71abdc6918a","165.165.111.188","Mozilla/5.0 (Windows NT 10.0; Win64; x64) AppleWebKit/537.36 (KHTML, like Gecko) Chrome/138.0.0.0 Safari/537.36","WebKit","Chrome","138.0.0.0","Windows","10.0","https://app.prolific.com/","en-ZA,en-GB;q=0.9,en-US;q=0.8,en;q=0.7","6164b4422e2259bfaa67f33a","686d226cabeef709c732f8e1","686e31437de84b1dc20f5c27","6164b4422e2259bfaa67f33a","2025-07-09T09:45:08.099Z","","","","","","","","","","","","","","","","win-only","2","g1:SE,g2:NW","0.4","7","0","1934105.1","1467.6","6470.5","29930","1","4","8","6","2","-8","-8","9","17","0.06818181818181818","1693.8","3000","-1835","[""left"",""up""]","{""num_key_presses"":7,""num_perfect"":3,""num_errors"":0,""num_randdir"":4,""num_randdir_good_moves"":1,""num_whilered"":0,""num_whileblue"":0,""num_blue"":0,""num_good_moves"":4}","[416.5714133126395,412.82142761775424,0.1,416.5714133126395,412.82142761775424,101.8,416.5714133126395,412.82142761775424,203,416.5714133126395,414.07142761775424,309.2,416.5714133126395,414.07142761775424,409.6,416.5714133126395,415.32142761775424,509.9,417.8214133126395,415.32142761775424,621,404.0714133126395,405.32142761775424,726.4,220.3214133126395,280.32142761775424,837.6,121.5714133126395,215.32142761775424,960.9,37.82141331263951,157.82142761775424,1071.2,1.571413312639507,126.57142761775425,1178.6,9.071413312639507,107.82142761775425,1284.7,37.82141331263951,99.07142761775425,1393.7,47.82141331263951,101.57142761775425,1502.1,44.07141331263951,97.82142761775425,1603.2,41.57141331263951,96.57142761775425,1708.6,41.57141331263951,95.32142761775425,1810.6,41.57141331263951,95.32142761775425,1915.1,44.07141331263951,99.07142761775425,2025.9,229.0714133126395,281.57142761775424,2127.1,1146.5714133126396,960.3214276177542,2238.4,1280.3214133126396,960.3214276177542,2339,1375.3214133126396,846.5714276177542,2448.2,1375.3214133126396,552.8214276177542,2552.8,1365.3214133126396,529.0714276177542,2666.2,1349.0714133126396,515.3214276177542,2772.4,1347.8214133126396,514.0714276177542,2877.3,1350.3214133126396,519.0714276177542,2987.6,1350.3214133126396,522.8214276177542,3088.4,1350.3214133126396,524.0714276177542,3191.1,1350.3214133126396,524.0714276177542,3293,1351.5714133126396,525.3214276177542,3393.7,1351.5714133126396,526.5714276177542,3494.4,1351.5714133126396,526.5714276177542,3602.6,1351.5714133126396,526.5714276177542,3702.9,1351.5714133126396,526.5714276177542,3811.9,1352.8214133126396,526.5714276177542,3918.7,1352.8214133126396,526.5714276177542,4019.5,1352.8214133126396,526.5714276177542,4121.1,1352.8214133126396,526.5714276177542,4222.7,1352.8214133126396,526.5714276177542,4327.7,1355.3214133126396,526.5714276177542,4428.4,1355.3214133126396,525.3214276177542,4533.3,1355.3214133126396,525.3214276177542,4642.6,1355.3214133126396,525.3214276177542,4742.9,1355.3214133126396,525.3214276177542,4843.2,1355.3214133126396,525.3214276177542,4952.1]","[1084.6,1084.6,1000,0,84.6,""oops"",""left"",""right"",""bad_move"",4226.5,3141.6,2145.2,1084.9,996.4,""oops"",""left"",""right"",""bad_move"",7569.3,3342.6,2895.9,4226.7,446.7,""smooth"",""up"",""up"",""good_move"",9915.3,2345.7,1592.6,7569.6,753.1,""oops"",""up"",""left"",""good_move"",12919.4,3003.8,2303.4,9915.6,700.4,""smooth"",""up"",""up"",""good_move"",16473.3,3553.8,2647.2,12919.6,906.6,""oops"",""left"",""right"",""bad_move"",19785.4,3311.9,2591.8,16473.5,720.1,""smooth"",""left"",""left"",""good_move""]","",""
"4373","","<div style=""width:500px;"">
  <p>What determined the result of this run?</p>
  </div>","21","html-slider-response","72","1967899","0.0-10.0-1.6","72","1","2025-07-09 09:07:27","7701e855f2ef39aa3fd6c71abdc6918a","165.165.111.188","Mozilla/5.0 (Windows NT 10.0; Win64; x64) AppleWebKit/537.36 (KHTML, like Gecko) Chrome/138.0.0.0 Safari/537.36","WebKit","Chrome","138.0.0.0","Windows","10.0","https://app.prolific.com/","en-ZA,en-GB;q=0.9,en-US;q=0.8,en;q=0.7","6164b4422e2259bfaa67f33a","686d226cabeef709c732f8e1","686e31437de84b1dc20f5c27","6164b4422e2259bfaa67f33a","2025-07-09T09:45:12.473Z","","","","","","AttribQ","","","","","","","","","","","","","","","","","","","","","","","","","","","","","","","","","","","","","","50"
"4176","","<div style=""width:500px;"">
  <p>How much control did you have over the ball?</p>
  </div>","2","html-slider-response","73","1972077","0.0-10.0-2.6","72","1","2025-07-09 09:07:27","7701e855f2ef39aa3fd6c71abdc6918a","165.165.111.188","Mozilla/5.0 (Windows NT 10.0; Win64; x64) AppleWebKit/537.36 (KHTML, like Gecko) Chrome/138.0.0.0 Safari/537.36","WebKit","Chrome","138.0.0.0","Windows","10.0","https://app.prolific.com/","en-ZA,en-GB;q=0.9,en-US;q=0.8,en;q=0.7","6164b4422e2259bfaa67f33a","686d226cabeef709c732f8e1","686e31437de84b1dc20f5c27","6164b4422e2259bfaa67f33a","2025-07-09T09:45:16.651Z","","","","","","ControlQ","","","","","","","","","","","","","","","","","","","","","","","","","","","","","","","","","","","","","","50"
"5553","","<div style=""width:500px;"">
  <p>How would you describe your current emotional state?</p>
  </div>","54","html-slider-response","74","1977630","0.0-10.0-3.6","72","1","2025-07-09 09:07:27","7701e855f2ef39aa3fd6c71abdc6918a","165.165.111.188","Mozilla/5.0 (Windows NT 10.0; Win64; x64) AppleWebKit/537.36 (KHTML, like Gecko) Chrome/138.0.0.0 Safari/537.36","WebKit","Chrome","138.0.0.0","Windows","10.0","https://app.prolific.com/","en-ZA,en-GB;q=0.9,en-US;q=0.8,en;q=0.7","6164b4422e2259bfaa67f33a","686d226cabeef709c732f8e1","686e31437de84b1dc20f5c27","6164b4422e2259bfaa67f33a","2025-07-09T09:45:22.205Z","","","","","","StressQ","","","","","","","","","","","","","","","","","","","","","","","","","","","","","","","","","","","","","","50"
"4021","","<div style=""width:500px;"">
  <p>What best describes how you currently feel?</p>
  </div>","100","html-slider-response","75","1981653","0.0-10.0-4.6","72","1","2025-07-09 09:07:27","7701e855f2ef39aa3fd6c71abdc6918a","165.165.111.188","Mozilla/5.0 (Windows NT 10.0; Win64; x64) AppleWebKit/537.36 (KHTML, like Gecko) Chrome/138.0.0.0 Safari/537.36","WebKit","Chrome","138.0.0.0","Windows","10.0","https://app.prolific.com/","en-ZA,en-GB;q=0.9,en-US;q=0.8,en;q=0.7","6164b4422e2259bfaa67f33a","686d226cabeef709c732f8e1","686e31437de84b1dc20f5c27","6164b4422e2259bfaa67f33a","2025-07-09T09:45:26.227Z","","","","","","MotivationQ","","","","","","","","","","","","","","","","","","","","","","","","","","","","","","","","","","","","","","50"
"","","","","ctl-task-cpt","76","2027359","0.0-10.0-0.7","72","1","2025-07-09 09:07:27","7701e855f2ef39aa3fd6c71abdc6918a","165.165.111.188","Mozilla/5.0 (Windows NT 10.0; Win64; x64) AppleWebKit/537.36 (KHTML, like Gecko) Chrome/138.0.0.0 Safari/537.36","WebKit","Chrome","138.0.0.0","Windows","10.0","https://app.prolific.com/","en-ZA,en-GB;q=0.9,en-US;q=0.8,en;q=0.7","6164b4422e2259bfaa67f33a","686d226cabeef709c732f8e1","686e31437de84b1dc20f5c27","6164b4422e2259bfaa67f33a","2025-07-09T09:46:11.933Z","","","","","","","","","","","","","","","","win-only","0","g1:NW,g2:SE","0.3","8","0","1985174.6","1970.1","6977.8","42675.4","1","4","4","6","2","-4","-4","5","9","0.03787878787878788","3163.7","3000","-1815","[""down"",""right""]","{""num_key_presses"":10,""num_perfect"":3,""num_errors"":0,""num_randdir"":7,""num_randdir_good_moves"":2,""num_whilered"":0,""num_whileblue"":0,""num_blue"":1,""num_good_moves"":5}","[411.5714133126395,417.82142761775424,0.3,411.5714133126395,417.82142761775424,101.1,411.5714133126395,417.82142761775424,203.9,411.5714133126395,417.82142761775424,307.8,411.5714133126395,417.82142761775424,412,411.5714133126395,417.82142761775424,517.8,411.5714133126395,417.82142761775424,634.6,410.3214133126395,417.82142761775424,735.8,410.3214133126395,417.82142761775424,836.2,410.3214133126395,417.82142761775424,939.9,401.5714133126395,414.07142761775424,1050.6,375.3214133126395,401.57142761775424,1157.2,574.0714133126395,779.0714276177542,1257.5,775.3214133126395,960.3214276177542,1359.4,775.3214133126395,959.0714276177542,1460.3,791.5714133126395,926.5714276177542,1561.3,849.0714133126395,837.8214276177542,1673.8,689.0714133126395,651.5714276177542,1788,486.5714133126395,510.32142761775424,1902.9,796.5714133126395,825.3214276177542,2008.3,886.5714133126395,960.3214276177542,2116.8,886.5714133126395,956.5714276177542,2216.8,906.5714133126395,960.3214276177542,2324.8,934.0714133126395,959.0714276177542,2425.4,916.5714133126395,896.5714276177542,2535.9,877.8214133126395,831.5714276177542,2643.2,856.5714133126395,817.8214276177542,2747.9,805.3214133126395,810.3214276177542,2851.2,782.8214133126395,787.8214276177542,2959.3,766.5714133126395,774.0714276177542,3067.9,766.5714133126395,774.0714276177542,3175.7,766.5714133126395,774.0714276177542,3277.3,766.5714133126395,774.0714276177542,3387.9,767.8214133126395,780.3214276177542,3496,1031.5714133126396,960.3214276177542,3597.4,1375.3214133126396,960.3214276177542,3707.7,1375.3214133126396,960.3214276177542,3809.6,1375.3214133126396,960.3214276177542,3911.4,1375.3214133126396,947.8214276177542,4015.9,1374.0714133126396,939.0714276177542,4117.2,1372.8214133126396,936.5714276177542,4224.6,1370.3214133126396,939.0714276177542,4325.3,1370.3214133126396,939.0714276177542,4426.4,1370.3214133126396,939.0714276177542,4531.7,1369.0714133126396,939.0714276177542,4637.6,1369.0714133126396,939.0714276177542,4742,1369.0714133126396,939.0714276177542,4845.5,1369.0714133126396,939.0714276177542,4946.6]","[1318.4,1318.4,1000,0,318.4,""oops"",""right"",""right"",""good_move"",4575.5,3256.7,2794.4,1318.8,462.3,""oops"",""down"",""right"",""good_move"",7730.6,3154.8,2714.2,4575.8,440.6,""smooth"",""down"",""down"",""good_move"",11593.8,3862.9,3471.8,7730.9,391.1,""smooth"",""right"",""right"",""good_move"",14572.4,2978.4,2288.3,11594.1,690,""oops"",""down"",""up"",""bad_move"",18583.1,4010.4,3552,14572.7,458.4,""oops"",""down"",""left"",""bad_move"",21670.2,3086.9,2648.2,18583.3,438.7,""oops"",""down"",""left"",""bad_move"",27707.7,6037.3,2459.1,24760.3,488.3,""smooth"",""down"",""down"",""good_move"",30671.6,2963.7,2381.7,27707.9,582,""oops"",""down"",""left"",""bad_move"",33732.9,3061.2,2392.1,30671.7,669.1,""oops"",""down"",""left"",""bad_move""]","",""
"7664","","<div style=""width:500px;"">
  <p>What determined the result of this run?</p>
  </div>","24","html-slider-response","77","2035025","0.0-10.0-1.7","72","1","2025-07-09 09:07:27","7701e855f2ef39aa3fd6c71abdc6918a","165.165.111.188","Mozilla/5.0 (Windows NT 10.0; Win64; x64) AppleWebKit/537.36 (KHTML, like Gecko) Chrome/138.0.0.0 Safari/537.36","WebKit","Chrome","138.0.0.0","Windows","10.0","https://app.prolific.com/","en-ZA,en-GB;q=0.9,en-US;q=0.8,en;q=0.7","6164b4422e2259bfaa67f33a","686d226cabeef709c732f8e1","686e31437de84b1dc20f5c27","6164b4422e2259bfaa67f33a","2025-07-09T09:46:19.599Z","","","","","","AttribQ","","","","","","","","","","","","","","","","","","","","","","","","","","","","","","","","","","","","","","50"
"4811","","<div style=""width:500px;"">
  <p>How much control did you have over the ball?</p>
  </div>","1","html-slider-response","78","2039837","0.0-10.0-2.7","72","1","2025-07-09 09:07:27","7701e855f2ef39aa3fd6c71abdc6918a","165.165.111.188","Mozilla/5.0 (Windows NT 10.0; Win64; x64) AppleWebKit/537.36 (KHTML, like Gecko) Chrome/138.0.0.0 Safari/537.36","WebKit","Chrome","138.0.0.0","Windows","10.0","https://app.prolific.com/","en-ZA,en-GB;q=0.9,en-US;q=0.8,en;q=0.7","6164b4422e2259bfaa67f33a","686d226cabeef709c732f8e1","686e31437de84b1dc20f5c27","6164b4422e2259bfaa67f33a","2025-07-09T09:46:24.411Z","","","","","","ControlQ","","","","","","","","","","","","","","","","","","","","","","","","","","","","","","","","","","","","","","50"
"7717","","<div style=""width:500px;"">
  <p>How would you describe your current emotional state?</p>
  </div>","64","html-slider-response","79","2047555","0.0-10.0-3.7","72","1","2025-07-09 09:07:27","7701e855f2ef39aa3fd6c71abdc6918a","165.165.111.188","Mozilla/5.0 (Windows NT 10.0; Win64; x64) AppleWebKit/537.36 (KHTML, like Gecko) Chrome/138.0.0.0 Safari/537.36","WebKit","Chrome","138.0.0.0","Windows","10.0","https://app.prolific.com/","en-ZA,en-GB;q=0.9,en-US;q=0.8,en;q=0.7","6164b4422e2259bfaa67f33a","686d226cabeef709c732f8e1","686e31437de84b1dc20f5c27","6164b4422e2259bfaa67f33a","2025-07-09T09:46:32.130Z","","","","","","StressQ","","","","","","","","","","","","","","","","","","","","","","","","","","","","","","","","","","","","","","50"
"3545","","<div style=""width:500px;"">
  <p>What best describes how you currently feel?</p>
  </div>","100","html-slider-response","80","2051103","0.0-10.0-4.7","72","1","2025-07-09 09:07:27","7701e855f2ef39aa3fd6c71abdc6918a","165.165.111.188","Mozilla/5.0 (Windows NT 10.0; Win64; x64) AppleWebKit/537.36 (KHTML, like Gecko) Chrome/138.0.0.0 Safari/537.36","WebKit","Chrome","138.0.0.0","Windows","10.0","https://app.prolific.com/","en-ZA,en-GB;q=0.9,en-US;q=0.8,en;q=0.7","6164b4422e2259bfaa67f33a","686d226cabeef709c732f8e1","686e31437de84b1dc20f5c27","6164b4422e2259bfaa67f33a","2025-07-09T09:46:35.677Z","","","","","","MotivationQ","","","","","","","","","","","","","","","","","","","","","","","","","","","","","","","","","","","","","","50"
"","","","","ctl-task-cpt","81","2089934","0.0-10.0-0.8","72","1","2025-07-09 09:07:27","7701e855f2ef39aa3fd6c71abdc6918a","165.165.111.188","Mozilla/5.0 (Windows NT 10.0; Win64; x64) AppleWebKit/537.36 (KHTML, like Gecko) Chrome/138.0.0.0 Safari/537.36","WebKit","Chrome","138.0.0.0","Windows","10.0","https://app.prolific.com/","en-ZA,en-GB;q=0.9,en-US;q=0.8,en;q=0.7","6164b4422e2259bfaa67f33a","686d226cabeef709c732f8e1","686e31437de84b1dc20f5c27","6164b4422e2259bfaa67f33a","2025-07-09T09:47:14.508Z","","","","","","","","","","","","","","","","win-only","3","g1:SW,g2:NE","0.2","9","0","2054624.4","1240.7","6242.1","35812.1","1","4","8","6","2","-8","-8","0","5","0","1896.3","3000","-2115","[""up"",""right""]","{""num_key_presses"":6,""num_perfect"":1,""num_errors"":0,""num_randdir"":5,""num_randdir_good_moves"":2,""num_whilered"":0,""num_whileblue"":0,""num_blue"":3,""num_good_moves"":3}","[411.5714133126395,422.82142761775424,0.3,411.5714133126395,422.82142761775424,101.1,411.5714133126395,422.82142761775424,206.8,411.5714133126395,422.82142761775424,311.2,411.5714133126395,422.82142761775424,425.1,411.5714133126395,422.82142761775424,525.9,451.5714133126395,377.82142761775424,634.2,677.8214133126395,271.57142761775424,734.7,694.0714133126395,244.07142761775424,843.1,702.8214133126395,222.82142761775424,946.1,707.8214133126395,182.82142761775424,1059.6,721.5714133126395,104.07142761775425,1159.7,721.5714133126395,79.07142761775425,1273.2,721.5714133126395,86.57142761775425,1373.4,729.0714133126395,96.57142761775425,1491,729.0714133126395,97.82142761775425,1593.4,729.0714133126395,99.07142761775425,1697.3,729.0714133126395,100.32142761775425,1800,729.0714133126395,100.32142761775425,1900.7,729.0714133126395,100.32142761775425,2001.8,727.8214133126395,100.32142761775425,2102.1,727.8214133126395,100.32142761775425,2202.1,726.5714133126395,101.57142761775425,2311.6,736.5714133126395,222.82142761775424,2416.3,826.5714133126395,816.5714276177542,2520.1,1094.0714133126396,960.3214276177542,2623.6,1265.3214133126396,787.8214276177542,2733.7,1274.0714133126396,621.5714276177542,2835.8,1236.5714133126396,621.5714276177542,2940.7,1229.0714133126396,617.8214276177542,3048.9,1232.8214133126396,626.5714276177542,3150.7,1360.3214133126396,577.8214276177542,3251.1,1372.8214133126396,541.5714276177542,3364.9,1339.0714133126396,562.8214276177542,3477.5,1160.3214133126396,635.3214276177542,3579.9,1142.8214133126396,644.0714276177542,3681.6,1145.3214133126396,645.3214276177542,3786.4,1145.3214133126396,645.3214276177542,3893.1,1145.3214133126396,645.3214276177542,3994.7,1145.3214133126396,645.3214276177542,4097.6,1145.3214133126396,645.3214276177542,4208.2,1145.3214133126396,645.3214276177542,4313.7,1145.3214133126396,645.3214276177542,4416.5,1145.3214133126396,645.3214276177542,4520.1,1145.3214133126396,645.3214276177542,4630.9,1145.3214133126396,645.3214276177542,4730.9,1145.3214133126396,645.3214276177542,4830.9,1145.3214133126396,645.3214276177542,4939.1]","[1617.2,1617.2,1000,0,617.2,""oops"",""right"",""up"",""good_move"",7755.3,6137.9,2431.7,4861.4,462.2,""oops"",""up"",""left"",""bad_move"",11442.7,3687.1,2865.1,7755.6,822,""oops"",""up"",""down"",""bad_move"",14205.1,2762.2,1608.1,11442.9,1154.1,""oops"",""right"",""left"",""bad_move"",16952,2746.8,2131.3,14205.3,615.4,""oops"",""right"",""right"",""good_move"",20515.7,3563,2980.4,16952.7,582.6,""smooth"",""right"",""right"",""good_move""]","",""
"6029","","<div style=""width:500px;"">
  <p>What determined the result of this run?</p>
  </div>","6","html-slider-response","82","2095964","0.0-10.0-1.8","72","1","2025-07-09 09:07:27","7701e855f2ef39aa3fd6c71abdc6918a","165.165.111.188","Mozilla/5.0 (Windows NT 10.0; Win64; x64) AppleWebKit/537.36 (KHTML, like Gecko) Chrome/138.0.0.0 Safari/537.36","WebKit","Chrome","138.0.0.0","Windows","10.0","https://app.prolific.com/","en-ZA,en-GB;q=0.9,en-US;q=0.8,en;q=0.7","6164b4422e2259bfaa67f33a","686d226cabeef709c732f8e1","686e31437de84b1dc20f5c27","6164b4422e2259bfaa67f33a","2025-07-09T09:47:20.538Z","","","","","","AttribQ","","","","","","","","","","","","","","","","","","","","","","","","","","","","","","","","","","","","","","50"
"4605","","<div style=""width:500px;"">
  <p>How much control did you have over the ball?</p>
  </div>","0","html-slider-response","83","2100570","0.0-10.0-2.8","72","1","2025-07-09 09:07:27","7701e855f2ef39aa3fd6c71abdc6918a","165.165.111.188","Mozilla/5.0 (Windows NT 10.0; Win64; x64) AppleWebKit/537.36 (KHTML, like Gecko) Chrome/138.0.0.0 Safari/537.36","WebKit","Chrome","138.0.0.0","Windows","10.0","https://app.prolific.com/","en-ZA,en-GB;q=0.9,en-US;q=0.8,en;q=0.7","6164b4422e2259bfaa67f33a","686d226cabeef709c732f8e1","686e31437de84b1dc20f5c27","6164b4422e2259bfaa67f33a","2025-07-09T09:47:25.144Z","","","","","","ControlQ","","","","","","","","","","","","","","","","","","","","","","","","","","","","","","","","","","","","","","50"
"6572","","<div style=""width:500px;"">
  <p>How would you describe your current emotional state?</p>
  </div>","42","html-slider-response","84","2107143","0.0-10.0-3.8","72","1","2025-07-09 09:07:27","7701e855f2ef39aa3fd6c71abdc6918a","165.165.111.188","Mozilla/5.0 (Windows NT 10.0; Win64; x64) AppleWebKit/537.36 (KHTML, like Gecko) Chrome/138.0.0.0 Safari/537.36","WebKit","Chrome","138.0.0.0","Windows","10.0","https://app.prolific.com/","en-ZA,en-GB;q=0.9,en-US;q=0.8,en;q=0.7","6164b4422e2259bfaa67f33a","686d226cabeef709c732f8e1","686e31437de84b1dc20f5c27","6164b4422e2259bfaa67f33a","2025-07-09T09:47:31.717Z","","","","","","StressQ","","","","","","","","","","","","","","","","","","","","","","","","","","","","","","","","","","","","","","50"
"6506","","<div style=""width:500px;"">
  <p>What best describes how you currently feel?</p>
  </div>","100","html-slider-response","85","2113650","0.0-10.0-4.8","72","1","2025-07-09 09:07:27","7701e855f2ef39aa3fd6c71abdc6918a","165.165.111.188","Mozilla/5.0 (Windows NT 10.0; Win64; x64) AppleWebKit/537.36 (KHTML, like Gecko) Chrome/138.0.0.0 Safari/537.36","WebKit","Chrome","138.0.0.0","Windows","10.0","https://app.prolific.com/","en-ZA,en-GB;q=0.9,en-US;q=0.8,en;q=0.7","6164b4422e2259bfaa67f33a","686d226cabeef709c732f8e1","686e31437de84b1dc20f5c27","6164b4422e2259bfaa67f33a","2025-07-09T09:47:38.225Z","","","","","","MotivationQ","","","","","","","","","","","","","","","","","","","","","","","","","","","","","","","","","","","","","","50"
