"rt","response_timestamp","stimulus","response","trial_type","trial_index","time_elapsed","internal_node_id","run_id","condition","recorded_at","source_code_version","ip","user_agent","device","browser","browser_version","platform","platform_version","referer","accept_language","PROLIFIC_PID","STUDY_ID","SESSION_ID","prolific_id","realtime","view_history","question_order","consent","success","question_id","eventType","responses","item_order","radio_event_ids","radio_event_times","key_event_times","mouse_event_times","straightlining","zigzagging","honeypot","which_type","canvas_config","goals_layout","control_level","trial_number","tutorial_trial_number","trial_start_time","phase1_start_time","phase2_start_time","phase3_start_time","goal_1_value","goal_1_distance","goal_2_value","goal_2_distance","goal_selected","outcome","outcome_total","participant_final_score","participant_initial_score","participant_final_score_prop","goal_choice_rt","allocated_time","allocated_time_remaining","goal_direction","counts","mouse_movements","key_presses","correct","slider_start","sub_question"
"13083","1752052046888","<p style='font-size:40px;line-height:1.25'><strong>Welcome to the experiment!</strong></p><p style='font-size:1.1em;line-height:1.25'>Thank you for your interest in our experiment! Before you begin, it is important that we obtain your informed consent to participate in the study.</p><p style='font-size:1.1em;line-height:1.25'>On the next screen will be an <strong>information sheet</strong> for you to read. To participate in the study we need you to read this information sheet and the following consent form carefully. If you agree with all the statements, please click the <strong>I agree</strong> button.</p><p style='font-size:1.1em;line-height:1.25'>Press <strong>Next</strong> to read the information sheet.</p>","0","custom-html-button-response","0","13085","0.0-0.0","47","1","2025-07-09 09:07:13","7701e855f2ef39aa3fd6c71abdc6918a","155.93.134.159","Mozilla/5.0 (Windows NT 10.0; Win64; x64) AppleWebKit/537.36 (KHTML, like Gecko) Chrome/138.0.0.0 Safari/537.36","WebKit","Chrome","138.0.0.0","Windows","10.0","https://app.prolific.com/","en-US,en;q=0.9","66cddace684f1110e8c8a883","686d226cabeef709c732f8e1","686e313c3e6ec4b372429bde","66cddace684f1110e8c8a883","2025-07-09T09:07:26.889Z","","","","","","","","","","","","","","","","","","","","","","","","","","","","","","","","","","","","","","","","","","","","",""
"47504","","","","instructions","1","60591","0.0-1.0","47","1","2025-07-09 09:07:13","7701e855f2ef39aa3fd6c71abdc6918a","155.93.134.159","Mozilla/5.0 (Windows NT 10.0; Win64; x64) AppleWebKit/537.36 (KHTML, like Gecko) Chrome/138.0.0.0 Safari/537.36","WebKit","Chrome","138.0.0.0","Windows","10.0","https://app.prolific.com/","en-US,en;q=0.9","66cddace684f1110e8c8a883","686d226cabeef709c732f8e1","686e313c3e6ec4b372429bde","66cddace684f1110e8c8a883","","[{""page_index"":0,""viewing_time"":37380},{""page_index"":1,""viewing_time"":10123}]","","","","","","","","","","","","","","","","","","","","","","","","","","","","","","","","","","","","","","","","","","","",""
"16190","","","{""Q0"":"""",""Q1"":"""",""Q2"":"""",""Q3"":"""",""Q4"":"""",""Q5"":"""",""Q6"":""I agree""}","survey-multi-choice","2","76784","0.0-2.0","47","1","2025-07-09 09:07:13","7701e855f2ef39aa3fd6c71abdc6918a","155.93.134.159","Mozilla/5.0 (Windows NT 10.0; Win64; x64) AppleWebKit/537.36 (KHTML, like Gecko) Chrome/138.0.0.0 Safari/537.36","WebKit","Chrome","138.0.0.0","Windows","10.0","https://app.prolific.com/","en-US,en;q=0.9","66cddace684f1110e8c8a883","686d226cabeef709c732f8e1","686e313c3e6ec4b372429bde","66cddace684f1110e8c8a883","","","[0,1,2,3,4,5,6]","true","","","","","","","","","","","","","","","","","","","","","","","","","","","","","","","","","","","","","","","","","",""
"13468","","","","fullscreen","3","91262","0.0-4.0","47","1","2025-07-09 09:07:13","7701e855f2ef39aa3fd6c71abdc6918a","155.93.134.159","Mozilla/5.0 (Windows NT 10.0; Win64; x64) AppleWebKit/537.36 (KHTML, like Gecko) Chrome/138.0.0.0 Safari/537.36","WebKit","Chrome","138.0.0.0","Windows","10.0","https://app.prolific.com/","en-US,en;q=0.9","66cddace684f1110e8c8a883","686d226cabeef709c732f8e1","686e313c3e6ec4b372429bde","66cddace684f1110e8c8a883","","","","","true","","","","","","","","","","","","","","","","","","","","","","","","","","","","","","","","","","","","","","","","",""
"9105","1752052134172"," <p style='font-size:1.1em;line-height:1.25'>Thank you for completing the consent form and closing all other tabs.</p><p style='font-size:1.1em;line-height:1.25'>We will now invite you to fill in some demographic information and questionnaires, before starting the game.<br>This will take about 5 minutes.<br></p><p style='font-size:1.1em;line-height:1.25'>Press the <strong>Next</strong> button to continue.</p>","0","custom-html-button-response","4","100368","0.0-5.0","47","1","2025-07-09 09:07:13","7701e855f2ef39aa3fd6c71abdc6918a","155.93.134.159","Mozilla/5.0 (Windows NT 10.0; Win64; x64) AppleWebKit/537.36 (KHTML, like Gecko) Chrome/138.0.0.0 Safari/537.36","WebKit","Chrome","138.0.0.0","Windows","10.0","https://app.prolific.com/","en-US,en;q=0.9","66cddace684f1110e8c8a883","686d226cabeef709c732f8e1","686e313c3e6ec4b372429bde","66cddace684f1110e8c8a883","2025-07-09T09:08:54.172Z","","","","","","","","","","","","","","","","","","","","","","","","","","","","","","","","","","","","","","","","","","","","",""
"3592","","","{""age"":""23""}","survey-text","5","103963","0.0-6.0-0.0","47","1","2025-07-09 09:07:13","7701e855f2ef39aa3fd6c71abdc6918a","155.93.134.159","Mozilla/5.0 (Windows NT 10.0; Win64; x64) AppleWebKit/537.36 (KHTML, like Gecko) Chrome/138.0.0.0 Safari/537.36","WebKit","Chrome","138.0.0.0","Windows","10.0","https://app.prolific.com/","en-US,en;q=0.9","66cddace684f1110e8c8a883","686d226cabeef709c732f8e1","686e313c3e6ec4b372429bde","66cddace684f1110e8c8a883","","","","","","0","demographics","","","","","","","","","","","","","","","","","","","","","","","","","","","","","","","","","","","","","","",""
"2232","","","{""gender_identity"":""female/woman""}","survey-multi-choice","6","106196","0.0-6.0-1.0","47","1","2025-07-09 09:07:13","7701e855f2ef39aa3fd6c71abdc6918a","155.93.134.159","Mozilla/5.0 (Windows NT 10.0; Win64; x64) AppleWebKit/537.36 (KHTML, like Gecko) Chrome/138.0.0.0 Safari/537.36","WebKit","Chrome","138.0.0.0","Windows","10.0","https://app.prolific.com/","en-US,en;q=0.9","66cddace684f1110e8c8a883","686d226cabeef709c732f8e1","686e313c3e6ec4b372429bde","66cddace684f1110e8c8a883","","","[0]","","","1","demographics","","","","","","","","","","","","","","","","","","","","","","","","","","","","","","","","","","","","","","",""
"3104","","","{""assigned_sex"":""female""}","survey-multi-choice","7","109302","0.0-6.0-2.0","47","1","2025-07-09 09:07:13","7701e855f2ef39aa3fd6c71abdc6918a","155.93.134.159","Mozilla/5.0 (Windows NT 10.0; Win64; x64) AppleWebKit/537.36 (KHTML, like Gecko) Chrome/138.0.0.0 Safari/537.36","WebKit","Chrome","138.0.0.0","Windows","10.0","https://app.prolific.com/","en-US,en;q=0.9","66cddace684f1110e8c8a883","686d226cabeef709c732f8e1","686e313c3e6ec4b372429bde","66cddace684f1110e8c8a883","","","[0]","","","2","demographics","","","","","","","","","","","","","","","","","","","","","","","","","","","","","","","","","","","","","","",""
"3409","","","{""menstrual_cycle"":""Yes""}","survey-multi-choice","8","112712","0.0-6.0-3.0","47","1","2025-07-09 09:07:13","7701e855f2ef39aa3fd6c71abdc6918a","155.93.134.159","Mozilla/5.0 (Windows NT 10.0; Win64; x64) AppleWebKit/537.36 (KHTML, like Gecko) Chrome/138.0.0.0 Safari/537.36","WebKit","Chrome","138.0.0.0","Windows","10.0","https://app.prolific.com/","en-US,en;q=0.9","66cddace684f1110e8c8a883","686d226cabeef709c732f8e1","686e313c3e6ec4b372429bde","66cddace684f1110e8c8a883","","","[0]","","","4","demographics","","","","","","","","","","","","","","","","","","","","","","","","","","","","","","","","","","","","","","",""
"13995","","","{""education"":""Higher National Certificate""}","survey-multi-choice","9","126708","0.0-6.0-4.0","47","1","2025-07-09 09:07:13","7701e855f2ef39aa3fd6c71abdc6918a","155.93.134.159","Mozilla/5.0 (Windows NT 10.0; Win64; x64) AppleWebKit/537.36 (KHTML, like Gecko) Chrome/138.0.0.0 Safari/537.36","WebKit","Chrome","138.0.0.0","Windows","10.0","https://app.prolific.com/","en-US,en;q=0.9","66cddace684f1110e8c8a883","686d226cabeef709c732f8e1","686e313c3e6ec4b372429bde","66cddace684f1110e8c8a883","","","[0]","","","5","demographics","","","","","","","","","","","","","","","","","","","","","","","","","","","","","","","","","","","","","","",""
"8286","","","{""education"":""Higher National Certificate""}","survey-multi-choice","10","134995","0.0-6.0-5.0","47","1","2025-07-09 09:07:13","7701e855f2ef39aa3fd6c71abdc6918a","155.93.134.159","Mozilla/5.0 (Windows NT 10.0; Win64; x64) AppleWebKit/537.36 (KHTML, like Gecko) Chrome/138.0.0.0 Safari/537.36","WebKit","Chrome","138.0.0.0","Windows","10.0","https://app.prolific.com/","en-US,en;q=0.9","66cddace684f1110e8c8a883","686d226cabeef709c732f8e1","686e313c3e6ec4b372429bde","66cddace684f1110e8c8a883","2025-07-09T09:09:28.799Z","","[0]","","","6","demographics","","","","","","","","","","","","","","","","","","","","","","","","","","","","","","","","","","","","","","",""
"14950","","","{""mental_health_condition"":""No"",""mental_health_treatment"":""No"",""psychiatric_medication"":""None""}","survey-text","11","149947","0.0-7.0-0.0","47","1","2025-07-09 09:07:13","7701e855f2ef39aa3fd6c71abdc6918a","155.93.134.159","Mozilla/5.0 (Windows NT 10.0; Win64; x64) AppleWebKit/537.36 (KHTML, like Gecko) Chrome/138.0.0.0 Safari/537.36","WebKit","Chrome","138.0.0.0","Windows","10.0","https://app.prolific.com/","en-US,en;q=0.9","66cddace684f1110e8c8a883","686d226cabeef709c732f8e1","686e313c3e6ec4b372429bde","66cddace684f1110e8c8a883","2025-07-09T09:09:43.751Z","","","","","1","mental_health","","","","","","","","","","","","","","","","","","","","","","","","","","","","","","","","","","","","","","",""
"9056","","","{""depression_history"":[""Yes""]}","survey-multi-select","12","159013","0.0-7.0-1.0","47","1","2025-07-09 09:07:13","7701e855f2ef39aa3fd6c71abdc6918a","155.93.134.159","Mozilla/5.0 (Windows NT 10.0; Win64; x64) AppleWebKit/537.36 (KHTML, like Gecko) Chrome/138.0.0.0 Safari/537.36","WebKit","Chrome","138.0.0.0","Windows","10.0","https://app.prolific.com/","en-US,en;q=0.9","66cddace684f1110e8c8a883","686d226cabeef709c732f8e1","686e313c3e6ec4b372429bde","66cddace684f1110e8c8a883","","","[0]","","","","mental_health","","","","","","","","","","","","","","","","","","","","","","","","","","","","","","","","","","","","","","",""
"10672","","","{""depression_episodes"":""3-5"",""depression_recent"":""More than 1 year ago""}","survey-multi-choice","13","169686","0.0-7.0-2.0-0.0","47","1","2025-07-09 09:07:13","7701e855f2ef39aa3fd6c71abdc6918a","155.93.134.159","Mozilla/5.0 (Windows NT 10.0; Win64; x64) AppleWebKit/537.36 (KHTML, like Gecko) Chrome/138.0.0.0 Safari/537.36","WebKit","Chrome","138.0.0.0","Windows","10.0","https://app.prolific.com/","en-US,en;q=0.9","66cddace684f1110e8c8a883","686d226cabeef709c732f8e1","686e313c3e6ec4b372429bde","66cddace684f1110e8c8a883","2025-07-09T09:10:03.490Z","","[0,1]","","","3","mental_health","","","","","","","","","","","","","","","","","","","","","","","","","","","","","","","","","","","","","","",""
"59767.39999997616","","","","survey-template","14","229457","0.0-7.0-3.0","47","1","2025-07-09 09:07:13","7701e855f2ef39aa3fd6c71abdc6918a","155.93.134.159","Mozilla/5.0 (Windows NT 10.0; Win64; x64) AppleWebKit/537.36 (KHTML, like Gecko) Chrome/138.0.0.0 Safari/537.36","WebKit","Chrome","138.0.0.0","Windows","10.0","https://app.prolific.com/","en-US,en;q=0.9","66cddace684f1110e8c8a883","686d226cabeef709c732f8e1","686e313c3e6ec4b372429bde","66cddace684f1110e8c8a883","2025-07-09T09:11:03.261Z","","","","","","ius","{""Q01"":""4"",""Q02"":""4"",""Q03"":""2"",""Q04"":""3"",""Q05"":""4"",""Q06"":""1"",""Q07"":""3"",""Q08"":""0"",""Q09"":""3"",""Q10"":""2"",""Q11"":""1"",""Q12"":""2"",""Q13"":""2""}","[0,1,2,3,4,5,6,7,8,9,10,11,12]","[""Q01"",""Q02"",""Q01"",""Q03"",""Q04"",""Q05"",""Q06"",""Q07"",""Q08"",""Q09"",""Q10"",""Q11"",""Q11"",""Q11"",""Q12"",""Q13""]","[6787.600000023842,10729.5,11765.700000047684,15541.200000047684,19298.800000071526,22687.399999976158,27757.5,32222.700000047684,37806.5,42113.10000002384,44801.800000071526,47814.39999997616,50474.5,52694.5,55552.89999997616,58960.60000002384]","[]","[6787.600000023842,9178.800000071526,9353.300000071526,10729.5,11765.700000047684,13537.200000047684,13745.300000071526,15541.200000047684,17027.100000023842,17395.800000071526,18064.200000047684,18247.600000023842,19298.800000071526,21171.5,21475.300000071526,22687.399999976158,27757.5,29784.700000047684,29960.899999976158,32222.700000047684,33730.5,33926.60000002384,37806.5,42113.10000002384,44801.800000071526,45950.5,46138.60000002384,47814.39999997616,50474.5,52694.5,55552.89999997616,57428.800000071526,57680.89999997616,58616.800000071526,58960.60000002384,59764.89999997616]","0.3076923076923077","0.4166666666666667","0","","","","","","","","","","","","","","","","","","","","","","","","","","","","","",""
"3573","1752052266835","<p style='font-size:1.1em;line-height:1.25'>In the following, we will ask you a few questions relating to your experiences over the past month.<br></p><p style='font-size:1.1em;line-height:1.25'>Press the <strong>Next</strong> button to continue.</p>","0","custom-html-button-response","15","233031","0.0-7.0-4.0","47","1","2025-07-09 09:07:13","7701e855f2ef39aa3fd6c71abdc6918a","155.93.134.159","Mozilla/5.0 (Windows NT 10.0; Win64; x64) AppleWebKit/537.36 (KHTML, like Gecko) Chrome/138.0.0.0 Safari/537.36","WebKit","Chrome","138.0.0.0","Windows","10.0","https://app.prolific.com/","en-US,en;q=0.9","66cddace684f1110e8c8a883","686d226cabeef709c732f8e1","686e313c3e6ec4b372429bde","66cddace684f1110e8c8a883","2025-07-09T09:11:06.836Z","","","","","","","","","","","","","","","","","","","","","","","","","","","","","","","","","","","","","","","","","","","","",""
"51513.5","","","","survey-template","16","284547","0.0-7.0-5.0","47","1","2025-07-09 09:07:13","7701e855f2ef39aa3fd6c71abdc6918a","155.93.134.159","Mozilla/5.0 (Windows NT 10.0; Win64; x64) AppleWebKit/537.36 (KHTML, like Gecko) Chrome/138.0.0.0 Safari/537.36","WebKit","Chrome","138.0.0.0","Windows","10.0","https://app.prolific.com/","en-US,en;q=0.9","66cddace684f1110e8c8a883","686d226cabeef709c732f8e1","686e313c3e6ec4b372429bde","66cddace684f1110e8c8a883","2025-07-09T09:11:58.351Z","","","","","","pss","{""Q01"":""2"",""Q02"":""3"",""Q03"":""4"",""Q04"":""2"",""Q05"":""2"",""Q06"":""3"",""Q07"":""3"",""Q08"":""1"",""Q09"":""1"",""Q10"":""2""}","[0,1,2,3,4,5,6,7,8,9]","[""Q01"",""Q02"",""Q03"",""Q04"",""Q05"",""Q06"",""Q07"",""Q08"",""Q09"",""Q10""]","[5640.600000023842,10720.699999928474,16069.799999952316,21420,25224.100000023842,32253.699999928474,36479.799999952316,39827.60000002384,44566.10000002384,50191.799999952316]","[]","[0,5640.600000023842,10720.699999928474,16069.799999952316,21420,25224.100000023842,32253.699999928474,36479.799999952316,39827.60000002384,44566.10000002384,50191.799999952316,51511.89999997616]","0.4","0.4444444444444444","0","","","","","","","","","","","","","","","","","","","","","","","","","","","","","",""
"1489","1752052319841","<p style='font-size:1.1em;line-height:1.25'>Thank you for your answers! Now we will ask you a few more questions relating to your feelings in the last 24 hours.<br></p><p style='font-size:1.1em;line-height:1.25'>Press the <strong>Next</strong> button to continue.</p>","0","custom-html-button-response","17","286037","0.0-7.0-6.0","47","1","2025-07-09 09:07:13","7701e855f2ef39aa3fd6c71abdc6918a","155.93.134.159","Mozilla/5.0 (Windows NT 10.0; Win64; x64) AppleWebKit/537.36 (KHTML, like Gecko) Chrome/138.0.0.0 Safari/537.36","WebKit","Chrome","138.0.0.0","Windows","10.0","https://app.prolific.com/","en-US,en;q=0.9","66cddace684f1110e8c8a883","686d226cabeef709c732f8e1","686e313c3e6ec4b372429bde","66cddace684f1110e8c8a883","2025-07-09T09:11:59.841Z","","","","","","","","","","","","","","","","","","","","","","","","","","","","","","","","","","","","","","","","","","","","",""
"78169.30000007153","","","","survey-template","18","364211","0.0-7.0-7.0","47","1","2025-07-09 09:07:13","7701e855f2ef39aa3fd6c71abdc6918a","155.93.134.159","Mozilla/5.0 (Windows NT 10.0; Win64; x64) AppleWebKit/537.36 (KHTML, like Gecko) Chrome/138.0.0.0 Safari/537.36","WebKit","Chrome","138.0.0.0","Windows","10.0","https://app.prolific.com/","en-US,en;q=0.9","66cddace684f1110e8c8a883","686d226cabeef709c732f8e1","686e313c3e6ec4b372429bde","66cddace684f1110e8c8a883","2025-07-09T09:13:18.015Z","","","","","","drsp","{""Q01"":""0"",""Q02"":""0"",""Q03"":""2"",""Q04"":""2"",""Q05"":""3"",""Q06"":""0"",""Q07"":""2"",""Q08"":""0"",""Q09"":""0"",""Q10"":""1"",""Q11"":""2"",""Q12"":""3"",""Q13"":""3"",""Q14"":""3"",""Q15"":""3"",""Q16"":""0"",""Q17"":""0"",""Q18"":""1"",""Q19"":""3"",""Q20"":""1"",""Q21"":""1""}","[0,1,2,3,4,5,6,7,8,9,10,11,12,13,14,15,16,17,18,19,20]","[""Q01"",""Q02"",""Q03"",""Q04"",""Q05"",""Q06"",""Q07"",""Q08"",""Q09"",""Q10"",""Q11"",""Q12"",""Q13"",""Q14"",""Q15"",""Q16"",""Q17"",""Q18"",""Q19"",""Q20"",""Q21""]","[7586.800000071526,8711.200000047684,12217.300000071526,14060.899999976158,17705,23015.300000071526,24519.200000047684,27176.800000071526,29304.600000023842,31929.300000071526,33886.39999997616,36859,39711.10000002384,42724.700000047684,45844.700000047684,49942.89999997616,51990.5,60809.10000002384,67022.5,71676.60000002384,77336.70000004768]","[]","[0,7586.800000071526,8211.700000047684,8711.200000047684,9263,12217.300000071526,14060.899999976158,17705,22231.200000047684,23015.300000071526,24519.200000047684,27176.800000071526,29304.600000023842,31929.300000071526,33886.39999997616,36859,39711.10000002384,42724.700000047684,45844.700000047684,49942.89999997616,51990.5,60809.10000002384,67022.5,71676.60000002384,77336.70000004768,78165.30000007153]","0.3333333333333333","0.25","0","","","","","","","","","","","","","","","","","","","","","","","","","","","","","",""
"16808","","","","survey-template","19","381021","0.0-7.0-8.0","47","1","2025-07-09 09:07:13","7701e855f2ef39aa3fd6c71abdc6918a","155.93.134.159","Mozilla/5.0 (Windows NT 10.0; Win64; x64) AppleWebKit/537.36 (KHTML, like Gecko) Chrome/138.0.0.0 Safari/537.36","WebKit","Chrome","138.0.0.0","Windows","10.0","https://app.prolific.com/","en-US,en;q=0.9","66cddace684f1110e8c8a883","686d226cabeef709c732f8e1","686e313c3e6ec4b372429bde","66cddace684f1110e8c8a883","2025-07-09T09:13:34.825Z","","","","","","stress","{""Q01"":""1"",""Q02"":""5"",""Q03"":""0""}","[0,1,2]","[""Q01"",""Q02"",""Q03""]","[8472.299999952316,11373.199999928474,13892.399999976158]","[]","[8472.299999952316,11373.199999928474,13892.399999976158,16806.899999976158]","0.6666666666666666","0.5","0","","","","","","","","","","","","","","","","","","","","","","","","","","","","","",""
"130086","","","","instructions","20","511109","0.0-8.0-0.0","47","1","2025-07-09 09:07:13","7701e855f2ef39aa3fd6c71abdc6918a","155.93.134.159","Mozilla/5.0 (Windows NT 10.0; Win64; x64) AppleWebKit/537.36 (KHTML, like Gecko) Chrome/138.0.0.0 Safari/537.36","WebKit","Chrome","138.0.0.0","Windows","10.0","https://app.prolific.com/","en-US,en;q=0.9","66cddace684f1110e8c8a883","686d226cabeef709c732f8e1","686e313c3e6ec4b372429bde","66cddace684f1110e8c8a883","","[{""page_index"":0,""viewing_time"":60249},{""page_index"":1,""viewing_time"":30863},{""page_index"":2,""viewing_time"":13820},{""page_index"":3,""viewing_time"":25154}]","","","","","","","","","","","","","","","","","","","","","","","","","","","","","","","","","","","","","","","","","","","",""
"","","","","ctl-task-cpt","21","536119","0.0-8.0-1.0","47","1","2025-07-09 09:07:13","7701e855f2ef39aa3fd6c71abdc6918a","155.93.134.159","Mozilla/5.0 (Windows NT 10.0; Win64; x64) AppleWebKit/537.36 (KHTML, like Gecko) Chrome/138.0.0.0 Safari/537.36","WebKit","Chrome","138.0.0.0","Windows","10.0","https://app.prolific.com/","en-US,en;q=0.9","66cddace684f1110e8c8a883","686d226cabeef709c732f8e1","686e313c3e6ec4b372429bde","66cddace684f1110e8c8a883","","","","","","","","","","","","","","","","","win-only","0","g1:NW,g2:SE","1","0","1","513951.5","1699.3","5704.1","22003.1","2","4","4","6","1","2","2","2","0","0.015151515151515152","1235.6","4000","1280","[""left"",""up""]","{""num_key_presses"":4,""num_perfect"":4,""num_errors"":0,""num_randdir"":0,""num_randdir_good_moves"":0,""num_whilered"":0,""num_whileblue"":0,""num_blue"":1,""num_good_moves"":4}","[419.57142857142856,421.47767857142856,0.5,419.57142857142856,421.47767857142856,100.5,419.57142857142856,421.47767857142856,201,419.57142857142856,421.47767857142856,306.5,419.57142857142856,421.47767857142856,407.8,419.57142857142856,421.47767857142856,511.2,419.57142857142856,421.47767857142856,611.6,419.57142857142856,421.47767857142856,717,347.57142857142856,329.47767857142856,817.2,123.57142857142857,109.47767857142857,935.8,102.57142857142857,80.47767857142857,1038,101.57142857142857,78.47767857142857,1142.1,101.57142857142857,78.47767857142857,1243.8,101.57142857142857,78.47767857142857,1347.3,101.57142857142857,78.47767857142857,1455.6,101.57142857142857,78.47767857142857,1556.1,101.57142857142857,78.47767857142857,1657.2,101.57142857142857,78.47767857142857,1762.3,101.57142857142857,78.47767857142857,1862.7,101.57142857142857,78.47767857142857,1962.7,101.57142857142857,78.47767857142857,2071.3,101.57142857142857,78.47767857142857,2177.8,101.57142857142857,78.47767857142857,2287.5,101.57142857142857,78.47767857142857,2391.6,101.57142857142857,78.47767857142857,2497.1,101.57142857142857,78.47767857142857,2602.1,101.57142857142857,78.47767857142857,2702.4,101.57142857142857,78.47767857142857,2802.6,101.57142857142857,78.47767857142857,2903.2,101.57142857142857,78.47767857142857,3007,101.57142857142857,78.47767857142857,3111.6,101.57142857142857,78.47767857142857,3212,101.57142857142857,78.47767857142857,3312.8,101.57142857142857,78.47767857142857,3413.1,101.57142857142857,78.47767857142857,3520.7,101.57142857142857,78.47767857142857,3621.1,101.57142857142857,78.47767857142857,3722.4,184.57142857142856,238.47767857142856,3822.7,387.57142857142856,302.47767857142856,3927.3]","[6805.4,6805.4,2920.4,2001.6,1883.4,""smooth"",""up"",""up"",""good_move"",9866.4,3060.4,2368.6,6806,691.8,""smooth"",""up"",""up"",""good_move"",13010.3,3143.6,2725.9,9866.7,417.7,""smooth"",""left"",""left"",""good_move"",16205.8,3195.1,2873.9,13010.7,321.2,""smooth"",""left"",""left"",""good_move""]","","",""
"14655","","","","instructions","22","550774","0.0-8.0-2.0","47","1","2025-07-09 09:07:13","7701e855f2ef39aa3fd6c71abdc6918a","155.93.134.159","Mozilla/5.0 (Windows NT 10.0; Win64; x64) AppleWebKit/537.36 (KHTML, like Gecko) Chrome/138.0.0.0 Safari/537.36","WebKit","Chrome","138.0.0.0","Windows","10.0","https://app.prolific.com/","en-US,en;q=0.9","66cddace684f1110e8c8a883","686d226cabeef709c732f8e1","686e313c3e6ec4b372429bde","66cddace684f1110e8c8a883","","[{""page_index"":0,""viewing_time"":14654}]","","","","","","","","","","","","","","","","","","","","","","","","","","","","","","","","","","","","","","","","","","","",""
"","","","","ctl-task-cpt","23","601657","0.0-8.0-3.0","47","1","2025-07-09 09:07:13","7701e855f2ef39aa3fd6c71abdc6918a","155.93.134.159","Mozilla/5.0 (Windows NT 10.0; Win64; x64) AppleWebKit/537.36 (KHTML, like Gecko) Chrome/138.0.0.0 Safari/537.36","WebKit","Chrome","138.0.0.0","Windows","10.0","https://app.prolific.com/","en-US,en;q=0.9","66cddace684f1110e8c8a883","686d226cabeef709c732f8e1","686e313c3e6ec4b372429bde","66cddace684f1110e8c8a883","","","","","","","","","","","","","","","","","win-only","0","g1:NW,g2:SE","0.35","0","3","553614.4","4216.7","8220.8","47871.2","2","4","8","6","2","-8","-11","0","0","0","3468.9","4000","-2520","[""down"",""right""]","{""num_key_presses"":14,""num_perfect"":4,""num_errors"":3,""num_randdir"":7,""num_randdir_good_moves"":4,""num_whilered"":0,""num_whileblue"":2,""num_blue"":2,""num_good_moves"":9}","[420.57142857142856,416.47767857142856,0.3,420.57142857142856,416.47767857142856,104,420.57142857142856,416.47767857142856,204,420.57142857142856,416.47767857142856,304.1,420.57142857142856,416.47767857142856,404.8,420.57142857142856,416.47767857142856,505.1,420.57142857142856,416.47767857142856,610.4,418.57142857142856,406.47767857142856,729.6,372.57142857142856,358.47767857142856,829.9,372.57142857142856,358.47767857142856,948.9,372.57142857142856,358.47767857142856,1049.2,372.57142857142856,358.47767857142856,1155.1,372.57142857142856,358.47767857142856,1259,372.57142857142856,358.47767857142856,1359.1,372.57142857142856,358.47767857142856,1466.1,372.57142857142856,358.47767857142856,1567.6,372.57142857142856,358.47767857142856,1668.6,306.57142857142856,292.47767857142856,1770.2,250.57142857142856,243.47767857142856,1873.9,469.57142857142856,568.4776785714286,1981.7,703.5714285714286,727.4776785714286,2084.8,703.5714285714286,746.4776785714286,2189.6,706.5714285714286,746.4776785714286,2289.8,771.5714285714286,758.4776785714286,2397.9,771.5714285714286,758.4776785714286,2499.8,771.5714285714286,758.4776785714286,2605.2,771.5714285714286,758.4776785714286,2713.3,771.5714285714286,758.4776785714286,2814.4,771.5714285714286,758.4776785714286,2923.3,771.5714285714286,758.4776785714286,3024.2,771.5714285714286,758.4776785714286,3129.9,771.5714285714286,758.4776785714286,3233.9,771.5714285714286,758.4776785714286,3339.2,771.5714285714286,758.4776785714286,3440.2,771.5714285714286,758.4776785714286,3546.1,771.5714285714286,758.4776785714286,3648.7,771.5714285714286,758.4776785714286,3749,771.5714285714286,758.4776785714286,3850,771.5714285714286,758.4776785714286,3954.8]","[1395.1,1395.1,1000,0,395.1,""smooth"",""down"",""down"",""good_move"",3423.6,2028.2,1634.6,1395.5,393.5,""smooth"",""down"",""down"",""good_move"",6343.6,2919.8,2604.2,3423.8,315.6,""smooth"",""down"",""down"",""good_move"",9255.5,2911.5,2616.9,6344,294.6,""while_blue"",""right"",""right"",""good_move"",11702.9,2446,1841.8,9257,604.1,""oops"",""right"",""up"",""bad_move"",14914.4,3211.1,2832.2,11703.4,378.9,""while_blue"",""down"",""up"",""bad_move"",17700.6,2785.7,2156.7,14914.9,629,""oops"",""down"",""right"",""good_move"",20401.8,2701.1,2276.2,17700.8,424.8,""smooth"",""down"",""down"",""good_move"",23472.4,3070.5,2486,20402,584.5,""oops"",""down"",""right"",""good_move"",25818.7,2346,1802.2,23472.7,543.8,""oops"",""down"",""up"",""bad_move"",28285.3,2466.5,2053,25818.8,413.5,""oops"",""down"",""left"",""bad_move"",31061.7,2776,2403.5,28285.7,372.5,""oops"",""down"",""down"",""good_move"",33293.6,2231.5,1916.7,31062.1,314.8,""oops"",""right"",""down"",""good_move"",35540.6,2246.8,2516.5,33293.8,-269.7,""error"",""-"",""-"",""no_move""]","","",""
"44672","","","","instructions","24","646330","0.0-8.0-4.0","47","1","2025-07-09 09:07:13","7701e855f2ef39aa3fd6c71abdc6918a","155.93.134.159","Mozilla/5.0 (Windows NT 10.0; Win64; x64) AppleWebKit/537.36 (KHTML, like Gecko) Chrome/138.0.0.0 Safari/537.36","WebKit","Chrome","138.0.0.0","Windows","10.0","https://app.prolific.com/","en-US,en;q=0.9","66cddace684f1110e8c8a883","686d226cabeef709c732f8e1","686e313c3e6ec4b372429bde","66cddace684f1110e8c8a883","","[{""page_index"":0,""viewing_time"":18452},{""page_index"":1,""viewing_time"":26220}]","","","","","","","","","","","","","","","","","","","","","","","","","","","","","","","","","","","","","","","","","","","",""
"15918","","","{""green_ball"":[""Ball always moves in the direction I press""]}","survey-multi-select","25","662250","0.0-8.0-5.0-0.0","47","1","2025-07-09 09:07:13","7701e855f2ef39aa3fd6c71abdc6918a","155.93.134.159","Mozilla/5.0 (Windows NT 10.0; Win64; x64) AppleWebKit/537.36 (KHTML, like Gecko) Chrome/138.0.0.0 Safari/537.36","WebKit","Chrome","138.0.0.0","Windows","10.0","https://app.prolific.com/","en-US,en;q=0.9","66cddace684f1110e8c8a883","686d226cabeef709c732f8e1","686e313c3e6ec4b372429bde","66cddace684f1110e8c8a883","","","[0]","","","","quiz","","","","","","","","","","","","","","","","","","","","","","","","","","","","","","","","","","","","","false","",""
"6762","","<p align='center'><b>INCORRECT.</b> Usually the green ball moves in the indicated direction, but sometimes it shakes and moves randomly. </p>","0","html-button-response","26","669014","0.0-8.0-5.0-1.0","47","1","2025-07-09 09:07:13","7701e855f2ef39aa3fd6c71abdc6918a","155.93.134.159","Mozilla/5.0 (Windows NT 10.0; Win64; x64) AppleWebKit/537.36 (KHTML, like Gecko) Chrome/138.0.0.0 Safari/537.36","WebKit","Chrome","138.0.0.0","Windows","10.0","https://app.prolific.com/","en-US,en;q=0.9","66cddace684f1110e8c8a883","686d226cabeef709c732f8e1","686e313c3e6ec4b372429bde","66cddace684f1110e8c8a883","","","","","","","","","","","","","","","","","","","","","","","","","","","","","","","","","","","","","","","","","","","","","",""
"10193","","","{""green_ball"":[""Ball sometimes shakes and moves in a random direction""]}","survey-multi-select","27","679209","0.0-8.0-5.1-0.1","47","1","2025-07-09 09:07:13","7701e855f2ef39aa3fd6c71abdc6918a","155.93.134.159","Mozilla/5.0 (Windows NT 10.0; Win64; x64) AppleWebKit/537.36 (KHTML, like Gecko) Chrome/138.0.0.0 Safari/537.36","WebKit","Chrome","138.0.0.0","Windows","10.0","https://app.prolific.com/","en-US,en;q=0.9","66cddace684f1110e8c8a883","686d226cabeef709c732f8e1","686e313c3e6ec4b372429bde","66cddace684f1110e8c8a883","","","[0]","","","","quiz","","","","","","","","","","","","","","","","","","","","","","","","","","","","","","","","","","","","","true","",""
"2876","","<p align='center'><b>CORRECT!</b> Indeed, the green ball may sometimes shake and move in a random direction.</p>","0","html-button-response","28","682086","0.0-8.0-5.1-1.1","47","1","2025-07-09 09:07:13","7701e855f2ef39aa3fd6c71abdc6918a","155.93.134.159","Mozilla/5.0 (Windows NT 10.0; Win64; x64) AppleWebKit/537.36 (KHTML, like Gecko) Chrome/138.0.0.0 Safari/537.36","WebKit","Chrome","138.0.0.0","Windows","10.0","https://app.prolific.com/","en-US,en;q=0.9","66cddace684f1110e8c8a883","686d226cabeef709c732f8e1","686e313c3e6ec4b372429bde","66cddace684f1110e8c8a883","","","","","","","","","","","","","","","","","","","","","","","","","","","","","","","","","","","","","","","","","","","","","",""
"11592","","","{""yellow_ball"":[""Ball doesn‘t move and I get -1 penalty point""]}","survey-multi-select","29","693680","0.0-8.0-6.0-0.0","47","1","2025-07-09 09:07:13","7701e855f2ef39aa3fd6c71abdc6918a","155.93.134.159","Mozilla/5.0 (Windows NT 10.0; Win64; x64) AppleWebKit/537.36 (KHTML, like Gecko) Chrome/138.0.0.0 Safari/537.36","WebKit","Chrome","138.0.0.0","Windows","10.0","https://app.prolific.com/","en-US,en;q=0.9","66cddace684f1110e8c8a883","686d226cabeef709c732f8e1","686e313c3e6ec4b372429bde","66cddace684f1110e8c8a883","","","[0]","","","","quiz","","","","","","","","","","","","","","","","","","","","","","","","","","","","","","","","","","","","","true","",""
"2509","","<p align='center'><b>CORRECT!</b> Indeed, the yellow ball never moves and you receive a penalty.</p>","0","html-button-response","30","696190","0.0-8.0-6.0-1.0","47","1","2025-07-09 09:07:13","7701e855f2ef39aa3fd6c71abdc6918a","155.93.134.159","Mozilla/5.0 (Windows NT 10.0; Win64; x64) AppleWebKit/537.36 (KHTML, like Gecko) Chrome/138.0.0.0 Safari/537.36","WebKit","Chrome","138.0.0.0","Windows","10.0","https://app.prolific.com/","en-US,en;q=0.9","66cddace684f1110e8c8a883","686d226cabeef709c732f8e1","686e313c3e6ec4b372429bde","66cddace684f1110e8c8a883","","","","","","","","","","","","","","","","","","","","","","","","","","","","","","","","","","","","","","","","","","","","","",""
"6404","","","{""blue_ball"":[""Ball doesn‘t move and I get -1 penalty point""]}","survey-multi-select","31","702596","0.0-8.0-7.0-0.0","47","1","2025-07-09 09:07:13","7701e855f2ef39aa3fd6c71abdc6918a","155.93.134.159","Mozilla/5.0 (Windows NT 10.0; Win64; x64) AppleWebKit/537.36 (KHTML, like Gecko) Chrome/138.0.0.0 Safari/537.36","WebKit","Chrome","138.0.0.0","Windows","10.0","https://app.prolific.com/","en-US,en;q=0.9","66cddace684f1110e8c8a883","686d226cabeef709c732f8e1","686e313c3e6ec4b372429bde","66cddace684f1110e8c8a883","","","[0]","","","","quiz","","","","","","","","","","","","","","","","","","","","","","","","","","","","","","","","","","","","","false","",""
"1791","","<p align='center'><b>INCORRECT.</b> The blue ball always shakes and moves randomly.</p>","0","html-button-response","32","704389","0.0-8.0-7.0-1.0","47","1","2025-07-09 09:07:13","7701e855f2ef39aa3fd6c71abdc6918a","155.93.134.159","Mozilla/5.0 (Windows NT 10.0; Win64; x64) AppleWebKit/537.36 (KHTML, like Gecko) Chrome/138.0.0.0 Safari/537.36","WebKit","Chrome","138.0.0.0","Windows","10.0","https://app.prolific.com/","en-US,en;q=0.9","66cddace684f1110e8c8a883","686d226cabeef709c732f8e1","686e313c3e6ec4b372429bde","66cddace684f1110e8c8a883","","","","","","","","","","","","","","","","","","","","","","","","","","","","","","","","","","","","","","","","","","","","","",""
"3923","","","{""blue_ball"":[""Ball always shakes and moves in a random direction""]}","survey-multi-select","33","708316","0.0-8.0-7.1-0.1","47","1","2025-07-09 09:07:13","7701e855f2ef39aa3fd6c71abdc6918a","155.93.134.159","Mozilla/5.0 (Windows NT 10.0; Win64; x64) AppleWebKit/537.36 (KHTML, like Gecko) Chrome/138.0.0.0 Safari/537.36","WebKit","Chrome","138.0.0.0","Windows","10.0","https://app.prolific.com/","en-US,en;q=0.9","66cddace684f1110e8c8a883","686d226cabeef709c732f8e1","686e313c3e6ec4b372429bde","66cddace684f1110e8c8a883","","","[0]","","","","quiz","","","","","","","","","","","","","","","","","","","","","","","","","","","","","","","","","","","","","true","",""
"2746","","<p align='center'><b>CORRECT!</b> Indeed, the blue ball always shakes and moves in a random direction. Also there is a penalty of -1 point.</p>","0","html-button-response","34","711064","0.0-8.0-7.1-1.1","47","1","2025-07-09 09:07:13","7701e855f2ef39aa3fd6c71abdc6918a","155.93.134.159","Mozilla/5.0 (Windows NT 10.0; Win64; x64) AppleWebKit/537.36 (KHTML, like Gecko) Chrome/138.0.0.0 Safari/537.36","WebKit","Chrome","138.0.0.0","Windows","10.0","https://app.prolific.com/","en-US,en;q=0.9","66cddace684f1110e8c8a883","686d226cabeef709c732f8e1","686e313c3e6ec4b372429bde","66cddace684f1110e8c8a883","","","","","","","","","","","","","","","","","","","","","","","","","","","","","","","","","","","","","","","","","","","","","",""
"6588","","","{""bonus"":[""When I reach 50% of points""]}","survey-multi-select","35","717655","0.0-8.0-8.0-0.0","47","1","2025-07-09 09:07:13","7701e855f2ef39aa3fd6c71abdc6918a","155.93.134.159","Mozilla/5.0 (Windows NT 10.0; Win64; x64) AppleWebKit/537.36 (KHTML, like Gecko) Chrome/138.0.0.0 Safari/537.36","WebKit","Chrome","138.0.0.0","Windows","10.0","https://app.prolific.com/","en-US,en;q=0.9","66cddace684f1110e8c8a883","686d226cabeef709c732f8e1","686e313c3e6ec4b372429bde","66cddace684f1110e8c8a883","","","[0]","","","","quiz","","","","","","","","","","","","","","","","","","","","","","","","","","","","","","","","","","","","","true","",""
"1904","","<p align='center'><b>CORRECT!</b> Indeed, you receive 2 pounds extra when you reach 50% of points.</p>","0","html-button-response","36","719560","0.0-8.0-8.0-1.0","47","1","2025-07-09 09:07:13","7701e855f2ef39aa3fd6c71abdc6918a","155.93.134.159","Mozilla/5.0 (Windows NT 10.0; Win64; x64) AppleWebKit/537.36 (KHTML, like Gecko) Chrome/138.0.0.0 Safari/537.36","WebKit","Chrome","138.0.0.0","Windows","10.0","https://app.prolific.com/","en-US,en;q=0.9","66cddace684f1110e8c8a883","686d226cabeef709c732f8e1","686e313c3e6ec4b372429bde","66cddace684f1110e8c8a883","","","","","","","","","","","","","","","","","","","","","","","","","","","","","","","","","","","","","","","","","","","","","",""
"5882","","","","instructions","37","725443","0.0-8.0-9.0","47","1","2025-07-09 09:07:13","7701e855f2ef39aa3fd6c71abdc6918a","155.93.134.159","Mozilla/5.0 (Windows NT 10.0; Win64; x64) AppleWebKit/537.36 (KHTML, like Gecko) Chrome/138.0.0.0 Safari/537.36","WebKit","Chrome","138.0.0.0","Windows","10.0","https://app.prolific.com/","en-US,en;q=0.9","66cddace684f1110e8c8a883","686d226cabeef709c732f8e1","686e313c3e6ec4b372429bde","66cddace684f1110e8c8a883","","[{""page_index"":0,""viewing_time"":5882}]","","","","","","","","","","","","","","","","","","","","","","","","","","","","","","","","","","","","","","","","","","","",""
"7884","","<p>Before you start with this game please answer the following three questions yourself. </p>
  <p>Through this game, we measure several aspects of your cognitive performance, such as reaction times, multi-tasking capabilities </p>
  <p>and the ability to assess the situation you are in.</p>
  <p></p>
  <p><b>How good do you usually are in such tasks?</b></p>","91","html-slider-response","38","733330","0.0-9.0-0.0","47","1","2025-07-09 09:07:13","7701e855f2ef39aa3fd6c71abdc6918a","155.93.134.159","Mozilla/5.0 (Windows NT 10.0; Win64; x64) AppleWebKit/537.36 (KHTML, like Gecko) Chrome/138.0.0.0 Safari/537.36","WebKit","Chrome","138.0.0.0","Windows","10.0","https://app.prolific.com/","en-US,en;q=0.9","66cddace684f1110e8c8a883","686d226cabeef709c732f8e1","686e313c3e6ec4b372429bde","66cddace684f1110e8c8a883","2025-07-09T09:19:27.135Z","","","","","","PreSkillQ","","","","","","","","","","","","","","","","","","","","","","","","","","","","","","","","","","","","","","50",""
"5196","","<div style=""width:500px;"">
  <p>How well do you think you will perform in this task compared to other participants?</p>
  </div>","69","html-slider-response","39","738529","0.0-9.0-1.0","47","1","2025-07-09 09:07:13","7701e855f2ef39aa3fd6c71abdc6918a","155.93.134.159","Mozilla/5.0 (Windows NT 10.0; Win64; x64) AppleWebKit/537.36 (KHTML, like Gecko) Chrome/138.0.0.0 Safari/537.36","WebKit","Chrome","138.0.0.0","Windows","10.0","https://app.prolific.com/","en-US,en;q=0.9","66cddace684f1110e8c8a883","686d226cabeef709c732f8e1","686e313c3e6ec4b372429bde","66cddace684f1110e8c8a883","2025-07-09T09:19:32.333Z","","","","","","PrePerfQ","","","","","","","","","","","","","","","","","","","","","","","","","","","","","","","","","","","","","","50",""
"5148","","<div style=""width:500px;"">
  <p>What best describes how you currently feel?</p>
  </div>","92","html-slider-response","40","743678","0.0-9.0-2.0","47","1","2025-07-09 09:07:13","7701e855f2ef39aa3fd6c71abdc6918a","155.93.134.159","Mozilla/5.0 (Windows NT 10.0; Win64; x64) AppleWebKit/537.36 (KHTML, like Gecko) Chrome/138.0.0.0 Safari/537.36","WebKit","Chrome","138.0.0.0","Windows","10.0","https://app.prolific.com/","en-US,en;q=0.9","66cddace684f1110e8c8a883","686d226cabeef709c732f8e1","686e313c3e6ec4b372429bde","66cddace684f1110e8c8a883","2025-07-09T09:19:37.482Z","","","","","","PreMotivationQ","","","","","","","","","","","","","","","","","","","","","","","","","","","","","","","","","","","","","","50",""
"","","","","ctl-task-cpt","41","775220","0.0-10.0-0.0","47","1","2025-07-09 09:07:13","7701e855f2ef39aa3fd6c71abdc6918a","155.93.134.159","Mozilla/5.0 (Windows NT 10.0; Win64; x64) AppleWebKit/537.36 (KHTML, like Gecko) Chrome/138.0.0.0 Safari/537.36","WebKit","Chrome","138.0.0.0","Windows","10.0","https://app.prolific.com/","en-US,en;q=0.9","66cddace684f1110e8c8a883","686d226cabeef709c732f8e1","686e313c3e6ec4b372429bde","66cddace684f1110e8c8a883","2025-07-09T09:20:09.024Z","","","","","","","","","","","","","","","","win-only","3","g1:SW,g2:NE","1","1","0","746521.1","3378.8","8392.1","28515.8","1","4","8","6","2","8","8","8","0","0.06060606060606061","1091.7","3000","950","[""up"",""right""]","{""num_key_presses"":6,""num_perfect"":6,""num_errors"":0,""num_randdir"":0,""num_randdir_good_moves"":0,""num_whilered"":0,""num_whileblue"":0,""num_blue"":1,""num_good_moves"":6}","[418.57142857142856,421.47767857142856,0.2,418.57142857142856,421.47767857142856,102.7,418.57142857142856,421.47767857142856,206.5,418.57142857142856,421.47767857142856,307.4,418.57142857142856,421.47767857142856,417.2,560.5714285714286,234.47767857142856,522.8,666.5714285714286,60.47767857142857,627.7,712.5714285714286,29.47767857142857,727.9,728.5714285714286,54.47767857142857,832.6,737.5714285714286,77.47767857142857,936.7,738.5714285714286,78.47767857142857,1038,738.5714285714286,78.47767857142857,1144.4,738.5714285714286,78.47767857142857,1248.5,738.5714285714286,78.47767857142857,1352.5,738.5714285714286,78.47767857142857,1463.7,738.5714285714286,78.47767857142857,1563.8,738.5714285714286,78.47767857142857,1665.3,738.5714285714286,78.47767857142857,1766.5,738.5714285714286,78.47767857142857,1867.8,738.5714285714286,78.47767857142857,1968.6,738.5714285714286,78.47767857142857,2071.9,738.5714285714286,78.47767857142857,2172.3,738.5714285714286,78.47767857142857,2278.8,738.5714285714286,78.47767857142857,2381.6,738.5714285714286,78.47767857142857,2482.3,738.5714285714286,88.47767857142857,2582.5,632.5714285714286,267.47767857142856,2686.9,573.5714285714286,385.47767857142856,2787,524.5714285714286,455.47767857142856,2887,510.57142857142856,506.47767857142856,2987,510.57142857142856,506.47767857142856,3094.7,510.57142857142856,506.47767857142856,3197.6,510.57142857142856,506.47767857142856,3302.2,510.57142857142856,506.47767857142856,3402.8,510.57142857142856,506.47767857142856,3511.8,510.57142857142856,506.47767857142856,3612.3,510.57142857142856,506.47767857142856,3716.7,510.57142857142856,506.47767857142856,3819.9,510.57142857142856,506.47767857142856,3927.2,510.57142857142856,506.47767857142856,4027.4,510.57142857142856,506.47767857142856,4131.3,510.57142857142856,506.47767857142856,4231.5,510.57142857142856,506.47767857142856,4332.2,510.57142857142856,506.47767857142856,4432.5,510.57142857142856,506.47767857142856,4543.1,510.57142857142856,506.47767857142856,4643.9,510.57142857142856,506.47767857142856,4747.6,510.57142857142856,506.47767857142856,4853,510.57142857142856,506.47767857142856,4959.5]","[1376.8,1376.8,1000,0,376.8,""smooth"",""right"",""right"",""good_move"",7799.4,6422,2548.3,4914.6,336.5,""smooth"",""right"",""right"",""good_move"",11177.7,3377.9,2926.6,7799.8,451.3,""smooth"",""right"",""right"",""good_move"",13933.3,2755.4,2319.7,11177.9,435.7,""smooth"",""up"",""up"",""good_move"",17393.3,3459.6,2817.1,13933.7,642.5,""smooth"",""up"",""up"",""good_move"",19994.4,2601.1,2185.2,17393.4,415.9,""smooth"",""up"",""up"",""good_move""]","","",""
"4108","","<div style=""width:500px;"">
  <p>What determined the result of this run?</p>
  </div>","100","html-slider-response","42","779330","0.0-10.0-1.0","47","1","2025-07-09 09:07:13","7701e855f2ef39aa3fd6c71abdc6918a","155.93.134.159","Mozilla/5.0 (Windows NT 10.0; Win64; x64) AppleWebKit/537.36 (KHTML, like Gecko) Chrome/138.0.0.0 Safari/537.36","WebKit","Chrome","138.0.0.0","Windows","10.0","https://app.prolific.com/","en-US,en;q=0.9","66cddace684f1110e8c8a883","686d226cabeef709c732f8e1","686e313c3e6ec4b372429bde","66cddace684f1110e8c8a883","2025-07-09T09:20:13.134Z","","","","","","AttribQ","","","","","","","","","","","","","","","","","","","","","","","","","","","","","","","","","","","","","","50",""
"2779","","<div style=""width:500px;"">
  <p>How much control did you have over the ball?</p>
  </div>","100","html-slider-response","43","782111","0.0-10.0-2.0","47","1","2025-07-09 09:07:13","7701e855f2ef39aa3fd6c71abdc6918a","155.93.134.159","Mozilla/5.0 (Windows NT 10.0; Win64; x64) AppleWebKit/537.36 (KHTML, like Gecko) Chrome/138.0.0.0 Safari/537.36","WebKit","Chrome","138.0.0.0","Windows","10.0","https://app.prolific.com/","en-US,en;q=0.9","66cddace684f1110e8c8a883","686d226cabeef709c732f8e1","686e313c3e6ec4b372429bde","66cddace684f1110e8c8a883","2025-07-09T09:20:15.915Z","","","","","","ControlQ","","","","","","","","","","","","","","","","","","","","","","","","","","","","","","","","","","","","","","50",""
"5773","","<div style=""width:500px;"">
  <p>How would you describe your current emotional state?</p>
  </div>","22","html-slider-response","44","787886","0.0-10.0-3.0","47","1","2025-07-09 09:07:13","7701e855f2ef39aa3fd6c71abdc6918a","155.93.134.159","Mozilla/5.0 (Windows NT 10.0; Win64; x64) AppleWebKit/537.36 (KHTML, like Gecko) Chrome/138.0.0.0 Safari/537.36","WebKit","Chrome","138.0.0.0","Windows","10.0","https://app.prolific.com/","en-US,en;q=0.9","66cddace684f1110e8c8a883","686d226cabeef709c732f8e1","686e313c3e6ec4b372429bde","66cddace684f1110e8c8a883","2025-07-09T09:20:21.690Z","","","","","","StressQ","","","","","","","","","","","","","","","","","","","","","","","","","","","","","","","","","","","","","","50",""
"3593","","<div style=""width:500px;"">
  <p>What best describes how you currently feel?</p>
  </div>","79","html-slider-response","45","791480","0.0-10.0-4.0","47","1","2025-07-09 09:07:13","7701e855f2ef39aa3fd6c71abdc6918a","155.93.134.159","Mozilla/5.0 (Windows NT 10.0; Win64; x64) AppleWebKit/537.36 (KHTML, like Gecko) Chrome/138.0.0.0 Safari/537.36","WebKit","Chrome","138.0.0.0","Windows","10.0","https://app.prolific.com/","en-US,en;q=0.9","66cddace684f1110e8c8a883","686d226cabeef709c732f8e1","686e313c3e6ec4b372429bde","66cddace684f1110e8c8a883","2025-07-09T09:20:25.285Z","","","","","","MotivationQ","","","","","","","","","","","","","","","","","","","","","","","","","","","","","","","","","","","","","","50",""
"","","","","ctl-task-cpt","46","824585","0.0-10.0-0.1","47","1","2025-07-09 09:07:13","7701e855f2ef39aa3fd6c71abdc6918a","155.93.134.159","Mozilla/5.0 (Windows NT 10.0; Win64; x64) AppleWebKit/537.36 (KHTML, like Gecko) Chrome/138.0.0.0 Safari/537.36","WebKit","Chrome","138.0.0.0","Windows","10.0","https://app.prolific.com/","en-US,en;q=0.9","66cddace684f1110e8c8a883","686d226cabeef709c732f8e1","686e313c3e6ec4b372429bde","66cddace684f1110e8c8a883","2025-07-09T09:20:58.389Z","","","","","","","","","","","","","","","","win-only","0","g1:NW,g2:SE","0.9","2","0","794322.4","4320.9","9321.7","30090.7","1","4","4","6","2","4","4","12","8","0.09090909090909091","1111.2","3000","1160","[""down"",""right""]","{""num_key_presses"":6,""num_perfect"":6,""num_errors"":0,""num_randdir"":0,""num_randdir_good_moves"":0,""num_whilered"":0,""num_whileblue"":0,""num_blue"":1,""num_good_moves"":6}","[417.57142857142856,416.47767857142856,0.3,417.57142857142856,416.47767857142856,100,417.57142857142856,416.47767857142856,208,417.57142857142856,416.47767857142856,309.6,417.57142857142856,416.47767857142856,422.5,671.5714285714286,657.4776785714286,524.9,957.5714285714286,790.4776785714286,624.9,936.5714285714286,784.4776785714286,730.1,847.5714285714286,778.4776785714286,837,819.5714285714286,772.4776785714286,948.1,803.5714285714286,765.4776785714286,1049.9,802.5714285714286,765.4776785714286,1163.4,802.5714285714286,765.4776785714286,1265.3,802.5714285714286,765.4776785714286,1369.7,802.5714285714286,765.4776785714286,1469.7,802.5714285714286,765.4776785714286,1569.8,802.5714285714286,765.4776785714286,1671.2,593.5714285714286,610.4776785714286,1774.8,388.57142857142856,485.47767857142856,1879.7,387.57142857142856,484.47767857142856,1983.3,389.57142857142856,450.47767857142856,2084.4,387.57142857142856,436.47767857142856,2185.1,386.57142857142856,435.47767857142856,2290.5,386.57142857142856,435.47767857142856,2396.1,386.57142857142856,435.47767857142856,2499.4,386.57142857142856,435.47767857142856,2600.3,386.57142857142856,435.47767857142856,2705.4,386.57142857142856,435.47767857142856,2817.4,386.57142857142856,435.47767857142856,2923.6,386.57142857142856,435.47767857142856,3036.4,386.57142857142856,435.47767857142856,3145,386.57142857142856,435.47767857142856,3260.3,386.57142857142856,435.47767857142856,3365.4,386.57142857142856,435.47767857142856,3471.2,386.57142857142856,435.47767857142856,3583.4,386.57142857142856,435.47767857142856,3684.3,386.57142857142856,435.47767857142856,3785.7,386.57142857142856,435.47767857142856,3898.5,386.57142857142856,435.47767857142856,4000.2,386.57142857142856,435.47767857142856,4105,386.57142857142856,435.47767857142856,4211.2,386.57142857142856,435.47767857142856,4315.5,386.57142857142856,435.47767857142856,4419.5,386.57142857142856,435.47767857142856,4520,386.57142857142856,435.47767857142856,4625.8,386.57142857142856,435.47767857142856,4731.9,386.57142857142856,435.47767857142856,4848.5,386.57142857142856,435.47767857142856,4950.3]","[1507.3,1507.3,1000,0,507.3,""smooth"",""down"",""down"",""good_move"",4010.4,2502.5,2028.4,1507.9,474.1,""smooth"",""down"",""down"",""good_move"",7694,3683,3276.8,4011.1,406.1,""smooth"",""right"",""right"",""good_move"",14595,6900.6,2217.1,11816.3,561.6,""smooth"",""right"",""right"",""good_move"",17665.5,3070.4,2639.6,14595.2,430.8,""smooth"",""right"",""right"",""good_move"",20633.2,2967.3,2553.9,17665.9,413.4,""smooth"",""down"",""down"",""good_move""]","","",""
"2661","","<div style=""width:500px;"">
  <p>What determined the result of this run?</p>
  </div>","100","html-slider-response","47","827248","0.0-10.0-1.1","47","1","2025-07-09 09:07:13","7701e855f2ef39aa3fd6c71abdc6918a","155.93.134.159","Mozilla/5.0 (Windows NT 10.0; Win64; x64) AppleWebKit/537.36 (KHTML, like Gecko) Chrome/138.0.0.0 Safari/537.36","WebKit","Chrome","138.0.0.0","Windows","10.0","https://app.prolific.com/","en-US,en;q=0.9","66cddace684f1110e8c8a883","686d226cabeef709c732f8e1","686e313c3e6ec4b372429bde","66cddace684f1110e8c8a883","2025-07-09T09:21:01.052Z","","","","","","AttribQ","","","","","","","","","","","","","","","","","","","","","","","","","","","","","","","","","","","","","","50",""
"1828","","<div style=""width:500px;"">
  <p>How much control did you have over the ball?</p>
  </div>","100","html-slider-response","48","829077","0.0-10.0-2.1","47","1","2025-07-09 09:07:13","7701e855f2ef39aa3fd6c71abdc6918a","155.93.134.159","Mozilla/5.0 (Windows NT 10.0; Win64; x64) AppleWebKit/537.36 (KHTML, like Gecko) Chrome/138.0.0.0 Safari/537.36","WebKit","Chrome","138.0.0.0","Windows","10.0","https://app.prolific.com/","en-US,en;q=0.9","66cddace684f1110e8c8a883","686d226cabeef709c732f8e1","686e313c3e6ec4b372429bde","66cddace684f1110e8c8a883","2025-07-09T09:21:02.881Z","","","","","","ControlQ","","","","","","","","","","","","","","","","","","","","","","","","","","","","","","","","","","","","","","50",""
"3289","","<div style=""width:500px;"">
  <p>How would you describe your current emotional state?</p>
  </div>","9","html-slider-response","49","832367","0.0-10.0-3.1","47","1","2025-07-09 09:07:13","7701e855f2ef39aa3fd6c71abdc6918a","155.93.134.159","Mozilla/5.0 (Windows NT 10.0; Win64; x64) AppleWebKit/537.36 (KHTML, like Gecko) Chrome/138.0.0.0 Safari/537.36","WebKit","Chrome","138.0.0.0","Windows","10.0","https://app.prolific.com/","en-US,en;q=0.9","66cddace684f1110e8c8a883","686d226cabeef709c732f8e1","686e313c3e6ec4b372429bde","66cddace684f1110e8c8a883","2025-07-09T09:21:06.172Z","","","","","","StressQ","","","","","","","","","","","","","","","","","","","","","","","","","","","","","","","","","","","","","","50",""
"2431","","<div style=""width:500px;"">
  <p>What best describes how you currently feel?</p>
  </div>","100","html-slider-response","50","834800","0.0-10.0-4.1","47","1","2025-07-09 09:07:13","7701e855f2ef39aa3fd6c71abdc6918a","155.93.134.159","Mozilla/5.0 (Windows NT 10.0; Win64; x64) AppleWebKit/537.36 (KHTML, like Gecko) Chrome/138.0.0.0 Safari/537.36","WebKit","Chrome","138.0.0.0","Windows","10.0","https://app.prolific.com/","en-US,en;q=0.9","66cddace684f1110e8c8a883","686d226cabeef709c732f8e1","686e313c3e6ec4b372429bde","66cddace684f1110e8c8a883","2025-07-09T09:21:08.604Z","","","","","","MotivationQ","","","","","","","","","","","","","","","","","","","","","","","","","","","","","","","","","","","","","","50",""
"","","","","ctl-task-cpt","51","865505","0.0-10.0-0.2","47","1","2025-07-09 09:07:13","7701e855f2ef39aa3fd6c71abdc6918a","155.93.134.159","Mozilla/5.0 (Windows NT 10.0; Win64; x64) AppleWebKit/537.36 (KHTML, like Gecko) Chrome/138.0.0.0 Safari/537.36","WebKit","Chrome","138.0.0.0","Windows","10.0","https://app.prolific.com/","en-US,en;q=0.9","66cddace684f1110e8c8a883","686d226cabeef709c732f8e1","686e313c3e6ec4b372429bde","66cddace684f1110e8c8a883","2025-07-09T09:21:39.309Z","","","","","","","","","","","","","","","","win-only","3","g1:SW,g2:NE","0.8","3","0","837642.7","2980.3","7999.6","27684.5","1","4","4","6","2","4","4","16","12","0.12121212121212122","867.2","3000","1380","[""up"",""right""]","{""num_key_presses"":6,""num_perfect"":4,""num_errors"":0,""num_randdir"":2,""num_randdir_good_moves"":2,""num_whilered"":0,""num_whileblue"":0,""num_blue"":1,""num_good_moves"":6}","[412.57142857142856,420.47767857142856,0.2,412.57142857142856,420.47767857142856,115.2,412.57142857142856,420.47767857142856,215.5,412.57142857142856,420.47767857142856,325.8,412.57142857142856,420.47767857142856,428.2,433.57142857142856,408.47767857142856,530.6,649.5714285714286,230.47767857142856,631.8,801.5714285714286,45.47767857142857,751,802.5714285714286,44.47767857142857,872.6,802.5714285714286,44.47767857142857,991.1,802.5714285714286,44.47767857142857,1102.2,802.5714285714286,45.47767857142857,1205.8,627.5714285714286,218.47767857142856,1310.3,490.57142857142856,346.47767857142856,1411.9,429.57142857142856,447.47767857142856,1529.2,428.57142857142856,449.47767857142856,1637.9,425.57142857142856,449.47767857142856,1740.3,383.57142857142856,454.47767857142856,1841.5,364.57142857142856,460.47767857142856,1945.9,364.57142857142856,460.47767857142856,2050.8,364.57142857142856,460.47767857142856,2153,364.57142857142856,460.47767857142856,2255.3,364.57142857142856,460.47767857142856,2356.1,364.57142857142856,460.47767857142856,2457.6,364.57142857142856,460.47767857142856,2565.9,364.57142857142856,460.47767857142856,2669.6,364.57142857142856,460.47767857142856,2770.2,364.57142857142856,460.47767857142856,2887.1,364.57142857142856,460.47767857142856,2992,364.57142857142856,460.47767857142856,3093.3,364.57142857142856,460.47767857142856,3196.4,364.57142857142856,460.47767857142856,3313.8,364.57142857142856,460.47767857142856,3418.5,364.57142857142856,460.47767857142856,3520,364.57142857142856,460.47767857142856,3620,364.57142857142856,460.47767857142856,3721.1,364.57142857142856,460.47767857142856,3825.6,364.57142857142856,460.47767857142856,3936.2,364.57142857142856,460.47767857142856,4036.4,364.57142857142856,460.47767857142856,4140,364.57142857142856,460.47767857142856,4241.2,364.57142857142856,460.47767857142856,4345.7,364.57142857142856,460.47767857142856,4445.9,364.57142857142856,460.47767857142856,4551.8,364.57142857142856,460.47767857142856,4662.5,364.57142857142856,460.47767857142856,4772.7,364.57142857142856,460.47767857142856,4876.9,364.57142857142856,460.47767857142856,4988.6]","[1481.4,1481.4,1000,0,481.4,""oops"",""right"",""right"",""good_move"",4463.4,2981.7,2543.2,1481.8,438.5,""smooth"",""right"",""right"",""good_move"",10768.4,6303.8,2603.3,7872,293.1,""smooth"",""right"",""right"",""good_move"",13566.7,2797.9,2345.1,10768.8,452.8,""oops"",""up"",""up"",""good_move"",16851.5,3283.6,2737.2,13567.9,546.4,""smooth"",""up"",""up"",""good_move"",19536.4,2684.6,2273.8,16851.8,410.8,""smooth"",""up"",""up"",""good_move""]","","",""
"2747","","<div style=""width:500px;"">
  <p>What determined the result of this run?</p>
  </div>","100","html-slider-response","52","868253","0.0-10.0-1.2","47","1","2025-07-09 09:07:13","7701e855f2ef39aa3fd6c71abdc6918a","155.93.134.159","Mozilla/5.0 (Windows NT 10.0; Win64; x64) AppleWebKit/537.36 (KHTML, like Gecko) Chrome/138.0.0.0 Safari/537.36","WebKit","Chrome","138.0.0.0","Windows","10.0","https://app.prolific.com/","en-US,en;q=0.9","66cddace684f1110e8c8a883","686d226cabeef709c732f8e1","686e313c3e6ec4b372429bde","66cddace684f1110e8c8a883","2025-07-09T09:21:42.058Z","","","","","","AttribQ","","","","","","","","","","","","","","","","","","","","","","","","","","","","","","","","","","","","","","50",""
"2600","","<div style=""width:500px;"">
  <p>How much control did you have over the ball?</p>
  </div>","100","html-slider-response","53","870855","0.0-10.0-2.2","47","1","2025-07-09 09:07:13","7701e855f2ef39aa3fd6c71abdc6918a","155.93.134.159","Mozilla/5.0 (Windows NT 10.0; Win64; x64) AppleWebKit/537.36 (KHTML, like Gecko) Chrome/138.0.0.0 Safari/537.36","WebKit","Chrome","138.0.0.0","Windows","10.0","https://app.prolific.com/","en-US,en;q=0.9","66cddace684f1110e8c8a883","686d226cabeef709c732f8e1","686e313c3e6ec4b372429bde","66cddace684f1110e8c8a883","2025-07-09T09:21:44.660Z","","","","","","ControlQ","","","","","","","","","","","","","","","","","","","","","","","","","","","","","","","","","","","","","","50",""
"3476","","<div style=""width:500px;"">
  <p>How would you describe your current emotional state?</p>
  </div>","5","html-slider-response","54","874333","0.0-10.0-3.2","47","1","2025-07-09 09:07:13","7701e855f2ef39aa3fd6c71abdc6918a","155.93.134.159","Mozilla/5.0 (Windows NT 10.0; Win64; x64) AppleWebKit/537.36 (KHTML, like Gecko) Chrome/138.0.0.0 Safari/537.36","WebKit","Chrome","138.0.0.0","Windows","10.0","https://app.prolific.com/","en-US,en;q=0.9","66cddace684f1110e8c8a883","686d226cabeef709c732f8e1","686e313c3e6ec4b372429bde","66cddace684f1110e8c8a883","2025-07-09T09:21:48.137Z","","","","","","StressQ","","","","","","","","","","","","","","","","","","","","","","","","","","","","","","","","","","","","","","50",""
"2587","","<div style=""width:500px;"">
  <p>What best describes how you currently feel?</p>
  </div>","100","html-slider-response","55","876923","0.0-10.0-4.2","47","1","2025-07-09 09:07:13","7701e855f2ef39aa3fd6c71abdc6918a","155.93.134.159","Mozilla/5.0 (Windows NT 10.0; Win64; x64) AppleWebKit/537.36 (KHTML, like Gecko) Chrome/138.0.0.0 Safari/537.36","WebKit","Chrome","138.0.0.0","Windows","10.0","https://app.prolific.com/","en-US,en;q=0.9","66cddace684f1110e8c8a883","686d226cabeef709c732f8e1","686e313c3e6ec4b372429bde","66cddace684f1110e8c8a883","2025-07-09T09:21:50.727Z","","","","","","MotivationQ","","","","","","","","","","","","","","","","","","","","","","","","","","","","","","","","","","","","","","50",""
"","","","","ctl-task-cpt","56","928607","0.0-10.0-0.3","47","1","2025-07-09 09:07:13","7701e855f2ef39aa3fd6c71abdc6918a","155.93.134.159","Mozilla/5.0 (Windows NT 10.0; Win64; x64) AppleWebKit/537.36 (KHTML, like Gecko) Chrome/138.0.0.0 Safari/537.36","WebKit","Chrome","138.0.0.0","Windows","10.0","https://app.prolific.com/","en-US,en;q=0.9","66cddace684f1110e8c8a883","686d226cabeef709c732f8e1","686e313c3e6ec4b372429bde","66cddace684f1110e8c8a883","2025-07-09T09:22:42.411Z","","","","","","","","","","","","","","","","win-only","3","g1:SW,g2:NE","0.7","4","0","879764.8","2280.5","7287","48674.5","1","4","8","6","2","8","8","24","16","0.18181818181818182","1429.4","3000","620","[""up"",""right""]","{""num_key_presses"":10,""num_perfect"":7,""num_errors"":0,""num_randdir"":3,""num_randdir_good_moves"":1,""num_whilered"":0,""num_whileblue"":0,""num_blue"":4,""num_good_moves"":8}","[411.57142857142856,419.47767857142856,0.4,411.57142857142856,419.47767857142856,110.7,411.57142857142856,419.47767857142856,214.7,411.57142857142856,419.47767857142856,316.5,412.57142857142856,419.47767857142856,437.2,469.57142857142856,380.47767857142856,551.4,721.5714285714286,200.47767857142856,673,721.5714285714286,199.47767857142856,774.9,742.5714285714286,79.47767857142857,875.1,766.5714285714286,37.47767857142857,988.7,752.5714285714286,67.47767857142857,1097.8,750.5714285714286,68.47767857142857,1198.2,750.5714285714286,69.47767857142857,1303.7,750.5714285714286,69.47767857142857,1430.9,750.5714285714286,69.47767857142857,1543.1,750.5714285714286,69.47767857142857,1646.7,750.5714285714286,69.47767857142857,1753.3,642.5714285714286,181.47767857142856,1856.5,558.5714285714286,260.47767857142856,1961.5,475.57142857142856,447.47767857142856,2065,466.57142857142856,497.47767857142856,2170.9,432.57142857142856,477.47767857142856,2275,395.57142857142856,469.47767857142856,2375,386.57142857142856,469.47767857142856,2476.5,386.57142857142856,469.47767857142856,2580.9,386.57142857142856,469.47767857142856,2685.4,385.57142857142856,469.47767857142856,2786.1,385.57142857142856,469.47767857142856,2890.9,385.57142857142856,469.47767857142856,2991.3,385.57142857142856,469.47767857142856,3095.5,385.57142857142856,469.47767857142856,3202.8,385.57142857142856,469.47767857142856,3305,385.57142857142856,469.47767857142856,3406,385.57142857142856,469.47767857142856,3506.5,385.57142857142856,469.47767857142856,3610.2,385.57142857142856,469.47767857142856,3712.7,385.57142857142856,469.47767857142856,3832.5,385.57142857142856,469.47767857142856,3936.2,385.57142857142856,469.47767857142856,4036.6,385.57142857142856,469.47767857142856,4141,385.57142857142856,469.47767857142856,4241.1,385.57142857142856,469.47767857142856,4345,385.57142857142856,469.47767857142856,4448,385.57142857142856,469.47767857142856,4549.9,385.57142857142856,469.47767857142856,4651.3,385.57142857142856,469.47767857142856,4755.8,385.57142857142856,469.47767857142856,4861,385.57142857142856,469.47767857142856,4969.3]","[4718.8,4718.8,2312.9,2019.8,386.1,""smooth"",""right"",""right"",""good_move"",7659.1,2939.6,2481.2,4719.5,458.4,""oops"",""right"",""left"",""bad_move"",10219.7,2560.2,2075.6,7659.5,484.6,""smooth"",""right"",""right"",""good_move"",13487.9,3267.7,2889.7,10220.2,378,""smooth"",""up"",""up"",""good_move"",16599.3,3110.9,2299.5,13488.4,811.4,""smooth"",""right"",""right"",""good_move"",19569.9,2970.3,2547.5,16599.6,422.8,""oops"",""right"",""left"",""bad_move"",22260.3,2690.2,2333.8,19570.1,356.4,""oops"",""up"",""up"",""good_move"",29447.4,7186.8,2482.6,26507,457.8,""smooth"",""right"",""right"",""good_move"",34972.2,5524.5,2059.8,32524.4,388,""smooth"",""right"",""right"",""good_move"",41240.7,6268.3,1297.8,39500,442.9,""smooth"",""up"",""up"",""good_move""]","","",""
"2762","","<div style=""width:500px;"">
  <p>What determined the result of this run?</p>
  </div>","100","html-slider-response","57","931371","0.0-10.0-1.3","47","1","2025-07-09 09:07:13","7701e855f2ef39aa3fd6c71abdc6918a","155.93.134.159","Mozilla/5.0 (Windows NT 10.0; Win64; x64) AppleWebKit/537.36 (KHTML, like Gecko) Chrome/138.0.0.0 Safari/537.36","WebKit","Chrome","138.0.0.0","Windows","10.0","https://app.prolific.com/","en-US,en;q=0.9","66cddace684f1110e8c8a883","686d226cabeef709c732f8e1","686e313c3e6ec4b372429bde","66cddace684f1110e8c8a883","2025-07-09T09:22:45.175Z","","","","","","AttribQ","","","","","","","","","","","","","","","","","","","","","","","","","","","","","","","","","","","","","","50",""
"4664","","<div style=""width:500px;"">
  <p>How much control did you have over the ball?</p>
  </div>","55","html-slider-response","58","936036","0.0-10.0-2.3","47","1","2025-07-09 09:07:13","7701e855f2ef39aa3fd6c71abdc6918a","155.93.134.159","Mozilla/5.0 (Windows NT 10.0; Win64; x64) AppleWebKit/537.36 (KHTML, like Gecko) Chrome/138.0.0.0 Safari/537.36","WebKit","Chrome","138.0.0.0","Windows","10.0","https://app.prolific.com/","en-US,en;q=0.9","66cddace684f1110e8c8a883","686d226cabeef709c732f8e1","686e313c3e6ec4b372429bde","66cddace684f1110e8c8a883","2025-07-09T09:22:49.840Z","","","","","","ControlQ","","","","","","","","","","","","","","","","","","","","","","","","","","","","","","","","","","","","","","50",""
"2753","","<div style=""width:500px;"">
  <p>How would you describe your current emotional state?</p>
  </div>","6","html-slider-response","59","938792","0.0-10.0-3.3","47","1","2025-07-09 09:07:13","7701e855f2ef39aa3fd6c71abdc6918a","155.93.134.159","Mozilla/5.0 (Windows NT 10.0; Win64; x64) AppleWebKit/537.36 (KHTML, like Gecko) Chrome/138.0.0.0 Safari/537.36","WebKit","Chrome","138.0.0.0","Windows","10.0","https://app.prolific.com/","en-US,en;q=0.9","66cddace684f1110e8c8a883","686d226cabeef709c732f8e1","686e313c3e6ec4b372429bde","66cddace684f1110e8c8a883","2025-07-09T09:22:52.596Z","","","","","","StressQ","","","","","","","","","","","","","","","","","","","","","","","","","","","","","","","","","","","","","","50",""
"2521","","<div style=""width:500px;"">
  <p>What best describes how you currently feel?</p>
  </div>","93","html-slider-response","60","941315","0.0-10.0-4.3","47","1","2025-07-09 09:07:13","7701e855f2ef39aa3fd6c71abdc6918a","155.93.134.159","Mozilla/5.0 (Windows NT 10.0; Win64; x64) AppleWebKit/537.36 (KHTML, like Gecko) Chrome/138.0.0.0 Safari/537.36","WebKit","Chrome","138.0.0.0","Windows","10.0","https://app.prolific.com/","en-US,en;q=0.9","66cddace684f1110e8c8a883","686d226cabeef709c732f8e1","686e313c3e6ec4b372429bde","66cddace684f1110e8c8a883","2025-07-09T09:22:55.119Z","","","","","","MotivationQ","","","","","","","","","","","","","","","","","","","","","","","","","","","","","","","","","","","","","","50",""
"","","","","ctl-task-cpt","61","978591","0.0-10.0-0.4","47","1","2025-07-09 09:07:13","7701e855f2ef39aa3fd6c71abdc6918a","155.93.134.159","Mozilla/5.0 (Windows NT 10.0; Win64; x64) AppleWebKit/537.36 (KHTML, like Gecko) Chrome/138.0.0.0 Safari/537.36","WebKit","Chrome","138.0.0.0","Windows","10.0","https://app.prolific.com/","en-US,en;q=0.9","66cddace684f1110e8c8a883","686d226cabeef709c732f8e1","686e313c3e6ec4b372429bde","66cddace684f1110e8c8a883","2025-07-09T09:23:32.395Z","","","","","","","","","","","","","","","","win-only","1","g1:NE,g2:SW","0.6","5","0","944156.5","2618","7621.5","34255.9","1","4","4","6","2","4","4","28","24","0.21212121212121213","1632.9","3000","870","[""down"",""left""]","{""num_key_presses"":8,""num_perfect"":5,""num_errors"":0,""num_randdir"":3,""num_randdir_good_moves"":2,""num_whilered"":0,""num_whileblue"":0,""num_blue"":2,""num_good_moves"":7}","[419.57142857142856,415.47767857142856,0.2,419.57142857142856,415.47767857142856,101.7,419.57142857142856,415.47767857142856,202.8,419.57142857142856,415.47767857142856,303.7,419.57142857142856,415.47767857142856,408,419.57142857142856,417.47767857142856,509.2,362.57142857142856,505.47767857142856,616.5,361.57142857142856,507.47767857142856,718.3,509.57142857142856,395.47767857142856,818.5,545.5714285714286,364.47767857142856,923,545.5714285714286,364.47767857142856,1031,545.5714285714286,364.47767857142856,1133.5,200.57142857142856,620.4776785714286,1239.1,85.57142857142857,708.4776785714286,1343,83.57142857142857,711.4776785714286,1461.5,80.57142857142857,732.4776785714286,1581.2,80.57142857142857,732.4776785714286,1681.7,80.57142857142857,732.4776785714286,1787.3,80.57142857142857,732.4776785714286,1892,80.57142857142857,733.4776785714286,1992.2,84.57142857142857,733.4776785714286,2092.4,301.57142857142856,659.4776785714286,2209.3,341.57142857142856,638.4776785714286,2314.3,409.57142857142856,601.4776785714286,2418,438.57142857142856,533.4776785714286,2523.7,450.57142857142856,526.4776785714286,2637.2,481.57142857142856,512.4776785714286,2740.1,481.57142857142856,512.4776785714286,2845.4,481.57142857142856,512.4776785714286,2955.7,481.57142857142856,512.4776785714286,3059.1,481.57142857142856,512.4776785714286,3163.2,481.57142857142856,512.4776785714286,3268.2,481.57142857142856,512.4776785714286,3390.6,481.57142857142856,512.4776785714286,3498.8,481.57142857142856,512.4776785714286,3603.6,481.57142857142856,512.4776785714286,3721.3,481.57142857142856,512.4776785714286,3827.2,481.57142857142856,512.4776785714286,3927.2,481.57142857142856,512.4776785714286,4044.2,481.57142857142856,512.4776785714286,4147.6,481.57142857142856,512.4776785714286,4247.7,481.57142857142856,512.4776785714286,4348.9,481.57142857142856,512.4776785714286,4467.9,481.57142857142856,512.4776785714286,4575.2,481.57142857142856,512.4776785714286,4678.7,481.57142857142856,512.4776785714286,4782.8,481.57142857142856,512.4776785714286,4884.4,481.57142857142856,512.4776785714286,4997.6]","[1425.9,1425.9,1000,0,425.9,""oops"",""down"",""down"",""good_move"",4100.3,2674.2,2122.3,1426.1,551.9,""smooth"",""left"",""left"",""good_move"",10046.1,5944.9,2446,7228.4,371.7,""smooth"",""down"",""down"",""good_move"",12908.1,2861.6,2420.8,10046.5,440.8,""smooth"",""left"",""left"",""good_move"",19085.3,6176.6,1889.5,16725.3,470.5,""smooth"",""left"",""left"",""good_move"",21199.7,2114.2,1682.3,19085.5,431.9,""oops"",""down"",""right"",""bad_move"",23684.9,2484.7,2007.8,21200.2,476.9,""oops"",""down"",""down"",""good_move"",26456,2770.7,2313.3,23685.4,457.4,""smooth"",""left"",""left"",""good_move""]","","",""
"5112","","<div style=""width:500px;"">
  <p>What determined the result of this run?</p>
  </div>","100","html-slider-response","62","983705","0.0-10.0-1.4","47","1","2025-07-09 09:07:13","7701e855f2ef39aa3fd6c71abdc6918a","155.93.134.159","Mozilla/5.0 (Windows NT 10.0; Win64; x64) AppleWebKit/537.36 (KHTML, like Gecko) Chrome/138.0.0.0 Safari/537.36","WebKit","Chrome","138.0.0.0","Windows","10.0","https://app.prolific.com/","en-US,en;q=0.9","66cddace684f1110e8c8a883","686d226cabeef709c732f8e1","686e313c3e6ec4b372429bde","66cddace684f1110e8c8a883","2025-07-09T09:23:37.509Z","","","","","","AttribQ","","","","","","","","","","","","","","","","","","","","","","","","","","","","","","","","","","","","","","50",""
"2434","","<div style=""width:500px;"">
  <p>How much control did you have over the ball?</p>
  </div>","45","html-slider-response","63","986141","0.0-10.0-2.4","47","1","2025-07-09 09:07:13","7701e855f2ef39aa3fd6c71abdc6918a","155.93.134.159","Mozilla/5.0 (Windows NT 10.0; Win64; x64) AppleWebKit/537.36 (KHTML, like Gecko) Chrome/138.0.0.0 Safari/537.36","WebKit","Chrome","138.0.0.0","Windows","10.0","https://app.prolific.com/","en-US,en;q=0.9","66cddace684f1110e8c8a883","686d226cabeef709c732f8e1","686e313c3e6ec4b372429bde","66cddace684f1110e8c8a883","2025-07-09T09:23:39.946Z","","","","","","ControlQ","","","","","","","","","","","","","","","","","","","","","","","","","","","","","","","","","","","","","","50",""
"2147","","<div style=""width:500px;"">
  <p>How would you describe your current emotional state?</p>
  </div>","8","html-slider-response","64","988291","0.0-10.0-3.4","47","1","2025-07-09 09:07:13","7701e855f2ef39aa3fd6c71abdc6918a","155.93.134.159","Mozilla/5.0 (Windows NT 10.0; Win64; x64) AppleWebKit/537.36 (KHTML, like Gecko) Chrome/138.0.0.0 Safari/537.36","WebKit","Chrome","138.0.0.0","Windows","10.0","https://app.prolific.com/","en-US,en;q=0.9","66cddace684f1110e8c8a883","686d226cabeef709c732f8e1","686e313c3e6ec4b372429bde","66cddace684f1110e8c8a883","2025-07-09T09:23:42.095Z","","","","","","StressQ","","","","","","","","","","","","","","","","","","","","","","","","","","","","","","","","","","","","","","50",""
"1931","","<div style=""width:500px;"">
  <p>What best describes how you currently feel?</p>
  </div>","100","html-slider-response","65","990224","0.0-10.0-4.4","47","1","2025-07-09 09:07:13","7701e855f2ef39aa3fd6c71abdc6918a","155.93.134.159","Mozilla/5.0 (Windows NT 10.0; Win64; x64) AppleWebKit/537.36 (KHTML, like Gecko) Chrome/138.0.0.0 Safari/537.36","WebKit","Chrome","138.0.0.0","Windows","10.0","https://app.prolific.com/","en-US,en;q=0.9","66cddace684f1110e8c8a883","686d226cabeef709c732f8e1","686e313c3e6ec4b372429bde","66cddace684f1110e8c8a883","2025-07-09T09:23:44.028Z","","","","","","MotivationQ","","","","","","","","","","","","","","","","","","","","","","","","","","","","","","","","","","","","","","50",""
"","","","","ctl-task-cpt","66","1042362","0.0-10.0-0.5","47","1","2025-07-09 09:07:13","7701e855f2ef39aa3fd6c71abdc6918a","155.93.134.159","Mozilla/5.0 (Windows NT 10.0; Win64; x64) AppleWebKit/537.36 (KHTML, like Gecko) Chrome/138.0.0.0 Safari/537.36","WebKit","Chrome","138.0.0.0","Windows","10.0","https://app.prolific.com/","en-US,en;q=0.9","66cddace684f1110e8c8a883","686d226cabeef709c732f8e1","686e313c3e6ec4b372429bde","66cddace684f1110e8c8a883","2025-07-09T09:24:36.167Z","","","","","","","","","","","","","","","","win-only","1","g1:NE,g2:SW","0.5","6","0","993066.7","7672.1","12677.5","49122.3","1","4","8","6","2","8","8","36","28","0.2727272727272727","2037.6","3000","715","[""down"",""left""]","{""num_key_presses"":10,""num_perfect"":5,""num_errors"":0,""num_randdir"":5,""num_randdir_good_moves"":3,""num_whilered"":0,""num_whileblue"":0,""num_blue"":2,""num_good_moves"":8}","[422.57142857142856,417.47767857142856,0.2,422.57142857142856,417.47767857142856,125.7,422.57142857142856,417.47767857142856,229.7,422.57142857142856,417.47767857142856,331.9,422.57142857142856,417.47767857142856,437.6,422.57142857142856,417.47767857142856,538.9,422.57142857142856,417.47767857142856,638.9,422.57142857142856,417.47767857142856,739,422.57142857142856,417.47767857142856,839.3,422.57142857142856,417.47767857142856,944.6,422.57142857142856,417.47767857142856,1049.3,422.57142857142856,417.47767857142856,1170.8,422.57142857142856,417.47767857142856,1291.3,422.57142857142856,417.47767857142856,1397,418.57142857142856,422.47767857142856,1503,232.57142857142856,586.4776785714286,1619.6,150.57142857142856,665.4776785714286,1737.1,92.57142857142857,707.4776785714286,1838.2,66.57142857142857,727.4776785714286,1939.4,65.57142857142857,727.4776785714286,2044.3,65.57142857142857,727.4776785714286,2167.6,133.57142857142856,703.4776785714286,2288.6,332.57142857142856,645.4776785714286,2390,423.57142857142856,612.4776785714286,2494.2,444.57142857142856,601.4776785714286,2604.4,445.57142857142856,600.4776785714286,2708.5,445.57142857142856,600.4776785714286,2809.9,445.57142857142856,600.4776785714286,2918,446.57142857142856,599.4776785714286,3023.4,515.5714285714286,459.47767857142856,3128.9,515.5714285714286,432.47767857142856,3230.2,515.5714285714286,432.47767857142856,3334.8,515.5714285714286,432.47767857142856,3438.7,515.5714285714286,432.47767857142856,3539.8,515.5714285714286,432.47767857142856,3653.7,460.57142857142856,468.47767857142856,3754.1,459.57142857142856,469.47767857142856,3854.7,459.57142857142856,469.47767857142856,3966.4,459.57142857142856,469.47767857142856,4066.9,459.57142857142856,469.47767857142856,4168.6,459.57142857142856,469.47767857142856,4271.9,459.57142857142856,469.47767857142856,4382.5,459.57142857142856,469.47767857142856,4484.4,459.57142857142856,469.47767857142856,4590.2,459.57142857142856,469.47767857142856,4707.4,459.57142857142856,469.47767857142856,4813.8,459.57142857142856,469.47767857142856,4926.4]","[1368.3,1368.3,1000,0,368.3,""smooth"",""down"",""down"",""good_move"",4045.4,2676.5,2318.7,1369,357.8,""oops"",""left"",""up"",""bad_move"",6891.1,2844.7,2368.6,4046.4,476.1,""oops"",""down"",""up"",""bad_move"",13902.7,7011.3,2758,10663.9,480.9,""smooth"",""left"",""left"",""good_move"",17114.7,3211.3,2446.9,13903.4,764.4,""smooth"",""left"",""left"",""good_move"",20220.6,3105.5,2314.7,17115.1,790.8,""smooth"",""left"",""left"",""good_move"",23360.2,3139.5,2294,20220.8,845.5,""oops"",""down"",""down"",""good_move"",26653.2,3292.5,2896.4,23360.7,396.1,""oops"",""down"",""down"",""good_move"",29816.2,3162.5,2536.3,26653.7,626.2,""oops"",""down"",""down"",""good_move"",36289.8,6472.8,2240.9,33588,460.9,""smooth"",""down"",""down"",""good_move""]","","",""
"3587","","<div style=""width:500px;"">
  <p>What determined the result of this run?</p>
  </div>","100","html-slider-response","67","1045951","0.0-10.0-1.5","47","1","2025-07-09 09:07:13","7701e855f2ef39aa3fd6c71abdc6918a","155.93.134.159","Mozilla/5.0 (Windows NT 10.0; Win64; x64) AppleWebKit/537.36 (KHTML, like Gecko) Chrome/138.0.0.0 Safari/537.36","WebKit","Chrome","138.0.0.0","Windows","10.0","https://app.prolific.com/","en-US,en;q=0.9","66cddace684f1110e8c8a883","686d226cabeef709c732f8e1","686e313c3e6ec4b372429bde","66cddace684f1110e8c8a883","2025-07-09T09:24:39.756Z","","","","","","AttribQ","","","","","","","","","","","","","","","","","","","","","","","","","","","","","","","","","","","","","","50",""
"4731","","<div style=""width:500px;"">
  <p>How much control did you have over the ball?</p>
  </div>","38","html-slider-response","68","1050688","0.0-10.0-2.5","47","1","2025-07-09 09:07:13","7701e855f2ef39aa3fd6c71abdc6918a","155.93.134.159","Mozilla/5.0 (Windows NT 10.0; Win64; x64) AppleWebKit/537.36 (KHTML, like Gecko) Chrome/138.0.0.0 Safari/537.36","WebKit","Chrome","138.0.0.0","Windows","10.0","https://app.prolific.com/","en-US,en;q=0.9","66cddace684f1110e8c8a883","686d226cabeef709c732f8e1","686e313c3e6ec4b372429bde","66cddace684f1110e8c8a883","2025-07-09T09:24:44.492Z","","","","","","ControlQ","","","","","","","","","","","","","","","","","","","","","","","","","","","","","","","","","","","","","","50",""
"3150","","<div style=""width:500px;"">
  <p>How would you describe your current emotional state?</p>
  </div>","7","html-slider-response","69","1053841","0.0-10.0-3.5","47","1","2025-07-09 09:07:13","7701e855f2ef39aa3fd6c71abdc6918a","155.93.134.159","Mozilla/5.0 (Windows NT 10.0; Win64; x64) AppleWebKit/537.36 (KHTML, like Gecko) Chrome/138.0.0.0 Safari/537.36","WebKit","Chrome","138.0.0.0","Windows","10.0","https://app.prolific.com/","en-US,en;q=0.9","66cddace684f1110e8c8a883","686d226cabeef709c732f8e1","686e313c3e6ec4b372429bde","66cddace684f1110e8c8a883","2025-07-09T09:24:47.646Z","","","","","","StressQ","","","","","","","","","","","","","","","","","","","","","","","","","","","","","","","","","","","","","","50",""
"1818","","<div style=""width:500px;"">
  <p>What best describes how you currently feel?</p>
  </div>","100","html-slider-response","70","1055662","0.0-10.0-4.5","47","1","2025-07-09 09:07:13","7701e855f2ef39aa3fd6c71abdc6918a","155.93.134.159","Mozilla/5.0 (Windows NT 10.0; Win64; x64) AppleWebKit/537.36 (KHTML, like Gecko) Chrome/138.0.0.0 Safari/537.36","WebKit","Chrome","138.0.0.0","Windows","10.0","https://app.prolific.com/","en-US,en;q=0.9","66cddace684f1110e8c8a883","686d226cabeef709c732f8e1","686e313c3e6ec4b372429bde","66cddace684f1110e8c8a883","2025-07-09T09:24:49.467Z","","","","","","MotivationQ","","","","","","","","","","","","","","","","","","","","","","","","","","","","","","","","","","","","","","50",""
"","","","","ctl-task-cpt","71","1099000","0.0-10.0-0.6","47","1","2025-07-09 09:07:13","7701e855f2ef39aa3fd6c71abdc6918a","155.93.134.159","Mozilla/5.0 (Windows NT 10.0; Win64; x64) AppleWebKit/537.36 (KHTML, like Gecko) Chrome/138.0.0.0 Safari/537.36","WebKit","Chrome","138.0.0.0","Windows","10.0","https://app.prolific.com/","en-US,en;q=0.9","66cddace684f1110e8c8a883","686d226cabeef709c732f8e1","686e313c3e6ec4b372429bde","66cddace684f1110e8c8a883","2025-07-09T09:25:32.804Z","","","","","","","","","","","","","","","","win-only","1","g1:NE,g2:SW","0.4","7","0","1058507.2","3877.5","8886","40326.7","1","4","4","6","2","-4","-4","32","36","0.24242424242424243","1774.7","3000","-2105","[""down"",""left""]","{""num_key_presses"":9,""num_perfect"":4,""num_errors"":0,""num_randdir"":5,""num_randdir_good_moves"":3,""num_whilered"":0,""num_whileblue"":0,""num_blue"":1,""num_good_moves"":7}","[423.57142857142856,415.47767857142856,0.3,423.57142857142856,415.47767857142856,128.6,423.57142857142856,415.47767857142856,232.4,423.57142857142856,415.47767857142856,333.2,423.57142857142856,415.47767857142856,441.8,423.57142857142856,415.47767857142856,543.9,423.57142857142856,415.47767857142856,646.2,423.57142857142856,415.47767857142856,749.2,423.57142857142856,415.47767857142856,852.5,423.57142857142856,415.47767857142856,955.4,423.57142857142856,415.47767857142856,1060.5,423.57142857142856,415.47767857142856,1173.3,10.57142857142857,765.4776785714286,1276.5,-110.42857142857143,836.4776785714286,1391.2,-104.42857142857143,836.4776785714286,1492.7,16.57142857142857,788.4776785714286,1594.1,45.57142857142857,772.4776785714286,1698.9,54.57142857142857,770.4776785714286,1802.2,55.57142857142857,770.4776785714286,1911.4,270.57142857142856,699.4776785714286,2018.6,455.57142857142856,598.4776785714286,2120.6,486.57142857142856,579.4776785714286,2233.5,486.57142857142856,575.4776785714286,2346.9,486.57142857142856,575.4776785714286,2448.3,486.57142857142856,575.4776785714286,2551.1,486.57142857142856,575.4776785714286,2664.6,486.57142857142856,575.4776785714286,2765.1,486.57142857142856,575.4776785714286,2870.9,486.57142857142856,575.4776785714286,2972.8,486.57142857142856,575.4776785714286,3072.8,486.57142857142856,575.4776785714286,3172.8,486.57142857142856,575.4776785714286,3273.1,486.57142857142856,575.4776785714286,3398,486.57142857142856,575.4776785714286,3499.4,486.57142857142856,575.4776785714286,3601.3,486.57142857142856,575.4776785714286,3704.3,486.57142857142856,575.4776785714286,3809.2,486.57142857142856,575.4776785714286,3930.8,486.57142857142856,575.4776785714286,4033.2,486.57142857142856,575.4776785714286,4135.6,489.57142857142856,528.4776785714286,4239.1,499.57142857142856,495.47767857142856,4343.9,499.57142857142856,495.47767857142856,4453.3,499.57142857142856,495.47767857142856,4558.4,499.57142857142856,495.47767857142856,4660.9,499.57142857142856,495.47767857142856,4763.5,499.57142857142856,495.47767857142856,4869.3,499.57142857142856,495.47767857142856,4981.6]","[1325.1,1325.1,1000,0,325.1,""smooth"",""left"",""left"",""good_move"",4456.1,3130.3,2606.9,1325.8,523.4,""oops"",""down"",""left"",""good_move"",7809.6,3353.4,2962,4456.3,391.4,""smooth"",""left"",""left"",""good_move"",10926.3,3116.4,2589.9,7809.9,526.5,""oops"",""down"",""up"",""bad_move"",17382.7,6456,2809.7,14226.3,346.7,""oops"",""down"",""down"",""good_move"",19959.2,2576.2,2165.8,17383.1,410.3,""smooth"",""down"",""down"",""good_move"",23091.3,3131.7,2699.2,19959.6,432.5,""oops"",""down"",""down"",""good_move"",25657.7,2566.2,1979.9,23091.5,586.3,""oops"",""down"",""up"",""bad_move"",29145.5,3487.4,3033,25658.1,454.4,""smooth"",""down"",""down"",""good_move""]","","",""
"5579","","<div style=""width:500px;"">
  <p>What determined the result of this run?</p>
  </div>","0","html-slider-response","72","1104581","0.0-10.0-1.6","47","1","2025-07-09 09:07:13","7701e855f2ef39aa3fd6c71abdc6918a","155.93.134.159","Mozilla/5.0 (Windows NT 10.0; Win64; x64) AppleWebKit/537.36 (KHTML, like Gecko) Chrome/138.0.0.0 Safari/537.36","WebKit","Chrome","138.0.0.0","Windows","10.0","https://app.prolific.com/","en-US,en;q=0.9","66cddace684f1110e8c8a883","686d226cabeef709c732f8e1","686e313c3e6ec4b372429bde","66cddace684f1110e8c8a883","2025-07-09T09:25:38.385Z","","","","","","AttribQ","","","","","","","","","","","","","","","","","","","","","","","","","","","","","","","","","","","","","","50",""
"2341","","<div style=""width:500px;"">
  <p>How much control did you have over the ball?</p>
  </div>","0","html-slider-response","73","1106923","0.0-10.0-2.6","47","1","2025-07-09 09:07:13","7701e855f2ef39aa3fd6c71abdc6918a","155.93.134.159","Mozilla/5.0 (Windows NT 10.0; Win64; x64) AppleWebKit/537.36 (KHTML, like Gecko) Chrome/138.0.0.0 Safari/537.36","WebKit","Chrome","138.0.0.0","Windows","10.0","https://app.prolific.com/","en-US,en;q=0.9","66cddace684f1110e8c8a883","686d226cabeef709c732f8e1","686e313c3e6ec4b372429bde","66cddace684f1110e8c8a883","2025-07-09T09:25:40.728Z","","","","","","ControlQ","","","","","","","","","","","","","","","","","","","","","","","","","","","","","","","","","","","","","","50",""
"5497","","<div style=""width:500px;"">
  <p>How would you describe your current emotional state?</p>
  </div>","63","html-slider-response","74","1112423","0.0-10.0-3.6","47","1","2025-07-09 09:07:13","7701e855f2ef39aa3fd6c71abdc6918a","155.93.134.159","Mozilla/5.0 (Windows NT 10.0; Win64; x64) AppleWebKit/537.36 (KHTML, like Gecko) Chrome/138.0.0.0 Safari/537.36","WebKit","Chrome","138.0.0.0","Windows","10.0","https://app.prolific.com/","en-US,en;q=0.9","66cddace684f1110e8c8a883","686d226cabeef709c732f8e1","686e313c3e6ec4b372429bde","66cddace684f1110e8c8a883","2025-07-09T09:25:46.227Z","","","","","","StressQ","","","","","","","","","","","","","","","","","","","","","","","","","","","","","","","","","","","","","","50",""
"2820","","<div style=""width:500px;"">
  <p>What best describes how you currently feel?</p>
  </div>","99","html-slider-response","75","1115245","0.0-10.0-4.6","47","1","2025-07-09 09:07:13","7701e855f2ef39aa3fd6c71abdc6918a","155.93.134.159","Mozilla/5.0 (Windows NT 10.0; Win64; x64) AppleWebKit/537.36 (KHTML, like Gecko) Chrome/138.0.0.0 Safari/537.36","WebKit","Chrome","138.0.0.0","Windows","10.0","https://app.prolific.com/","en-US,en;q=0.9","66cddace684f1110e8c8a883","686d226cabeef709c732f8e1","686e313c3e6ec4b372429bde","66cddace684f1110e8c8a883","2025-07-09T09:25:49.049Z","","","","","","MotivationQ","","","","","","","","","","","","","","","","","","","","","","","","","","","","","","","","","","","","","","50",""
"","","","","ctl-task-cpt","76","1158175","0.0-10.0-0.7","47","1","2025-07-09 09:07:13","7701e855f2ef39aa3fd6c71abdc6918a","155.93.134.159","Mozilla/5.0 (Windows NT 10.0; Win64; x64) AppleWebKit/537.36 (KHTML, like Gecko) Chrome/138.0.0.0 Safari/537.36","WebKit","Chrome","138.0.0.0","Windows","10.0","https://app.prolific.com/","en-US,en;q=0.9","66cddace684f1110e8c8a883","686d226cabeef709c732f8e1","686e313c3e6ec4b372429bde","66cddace684f1110e8c8a883","2025-07-09T09:26:31.979Z","","","","","","","","","","","","","","","","win-only","1","g1:NE,g2:SW","0.3","8","0","1118086.6","6009.7","11011.2","39911.6","1","4","8","6","2","8","8","40","32","0.30303030303030304","1798.7","3000","725","[""down"",""left""]","{""num_key_presses"":8,""num_perfect"":3,""num_errors"":0,""num_randdir"":5,""num_randdir_good_moves"":4,""num_whilered"":0,""num_whileblue"":0,""num_blue"":2,""num_good_moves"":7}","[419.57142857142856,419.47767857142856,0.4,419.57142857142856,419.47767857142856,103.7,419.57142857142856,419.47767857142856,209.3,419.57142857142856,419.47767857142856,322.4,419.57142857142856,419.47767857142856,426.8,419.57142857142856,419.47767857142856,529.3,419.57142857142856,419.47767857142856,648.4,419.57142857142856,419.47767857142856,756.6,419.57142857142856,419.47767857142856,872.5,419.57142857142856,419.47767857142856,975.9,419.57142857142856,419.47767857142856,1075.9,419.57142857142856,419.47767857142856,1176.6,412.57142857142856,427.47767857142856,1284.8,249.57142857142856,619.4776785714286,1387,197.57142857142856,679.4776785714286,1487.6,151.57142857142856,712.4776785714286,1590.8,113.57142857142857,761.4776785714286,1713,108.57142857142857,764.4776785714286,1817.7,109.57142857142857,765.4776785714286,1924.9,359.57142857142856,567.4776785714286,2025.2,473.57142857142856,433.47767857142856,2126.7,484.57142857142856,423.47767857142856,2227.5,485.57142857142856,422.47767857142856,2327.5,485.57142857142856,422.47767857142856,2431.8,485.57142857142856,422.47767857142856,2537.4,485.57142857142856,422.47767857142856,2643,485.57142857142856,422.47767857142856,2746.7,485.57142857142856,422.47767857142856,2850.7,485.57142857142856,422.47767857142856,2953.1,485.57142857142856,422.47767857142856,3056.8,485.57142857142856,422.47767857142856,3161.6,485.57142857142856,422.47767857142856,3271.1,485.57142857142856,422.47767857142856,3375.9,485.57142857142856,422.47767857142856,3476.2,485.57142857142856,422.47767857142856,3576.3,485.57142857142856,422.47767857142856,3683.3,485.57142857142856,422.47767857142856,3784.3,485.57142857142856,422.47767857142856,3887.3,485.57142857142856,422.47767857142856,3992.1,485.57142857142856,422.47767857142856,4092.3,485.57142857142856,422.47767857142856,4193.1,485.57142857142856,422.47767857142856,4301.2,485.57142857142856,390.47767857142856,4402.1,485.57142857142856,382.47767857142856,4506.4,485.57142857142856,382.47767857142856,4615.4,485.57142857142856,382.47767857142856,4718.2,485.57142857142856,382.47767857142856,4823.4,485.57142857142856,382.47767857142856,4931.1]","[1377.1,1377.1,1000,0,377.1,""oops"",""down"",""up"",""bad_move"",4192.6,2815.2,2426.8,1377.4,388.4,""oops"",""down"",""down"",""good_move"",7136.6,2943.6,2605.4,4193,338.2,""smooth"",""left"",""left"",""good_move"",10115.9,2978.9,2487.6,7137,491.3,""smooth"",""down"",""down"",""good_move"",20716.4,10600.2,2927.1,17360.1,429.2,""smooth"",""left"",""left"",""good_move"",23403.4,2686.3,2136.9,20717.1,549.4,""oops"",""down"",""down"",""good_move"",26223,2819.2,2450.7,23403.8,368.5,""oops"",""left"",""left"",""good_move"",28775,2551.7,2142.1,26223.3,409.6,""oops"",""down"",""down"",""good_move""]","","",""
"2036","","<div style=""width:500px;"">
  <p>What determined the result of this run?</p>
  </div>","100","html-slider-response","77","1160214","0.0-10.0-1.7","47","1","2025-07-09 09:07:13","7701e855f2ef39aa3fd6c71abdc6918a","155.93.134.159","Mozilla/5.0 (Windows NT 10.0; Win64; x64) AppleWebKit/537.36 (KHTML, like Gecko) Chrome/138.0.0.0 Safari/537.36","WebKit","Chrome","138.0.0.0","Windows","10.0","https://app.prolific.com/","en-US,en;q=0.9","66cddace684f1110e8c8a883","686d226cabeef709c732f8e1","686e313c3e6ec4b372429bde","66cddace684f1110e8c8a883","2025-07-09T09:26:34.018Z","","","","","","AttribQ","","","","","","","","","","","","","","","","","","","","","","","","","","","","","","","","","","","","","","50",""
"2942","","<div style=""width:500px;"">
  <p>How much control did you have over the ball?</p>
  </div>","100","html-slider-response","78","1163158","0.0-10.0-2.7","47","1","2025-07-09 09:07:13","7701e855f2ef39aa3fd6c71abdc6918a","155.93.134.159","Mozilla/5.0 (Windows NT 10.0; Win64; x64) AppleWebKit/537.36 (KHTML, like Gecko) Chrome/138.0.0.0 Safari/537.36","WebKit","Chrome","138.0.0.0","Windows","10.0","https://app.prolific.com/","en-US,en;q=0.9","66cddace684f1110e8c8a883","686d226cabeef709c732f8e1","686e313c3e6ec4b372429bde","66cddace684f1110e8c8a883","2025-07-09T09:26:36.962Z","","","","","","ControlQ","","","","","","","","","","","","","","","","","","","","","","","","","","","","","","","","","","","","","","50",""
"2836","","<div style=""width:500px;"">
  <p>How would you describe your current emotional state?</p>
  </div>","9","html-slider-response","79","1165996","0.0-10.0-3.7","47","1","2025-07-09 09:07:13","7701e855f2ef39aa3fd6c71abdc6918a","155.93.134.159","Mozilla/5.0 (Windows NT 10.0; Win64; x64) AppleWebKit/537.36 (KHTML, like Gecko) Chrome/138.0.0.0 Safari/537.36","WebKit","Chrome","138.0.0.0","Windows","10.0","https://app.prolific.com/","en-US,en;q=0.9","66cddace684f1110e8c8a883","686d226cabeef709c732f8e1","686e313c3e6ec4b372429bde","66cddace684f1110e8c8a883","2025-07-09T09:26:39.800Z","","","","","","StressQ","","","","","","","","","","","","","","","","","","","","","","","","","","","","","","","","","","","","","","50",""
"2145","","<div style=""width:500px;"">
  <p>What best describes how you currently feel?</p>
  </div>","100","html-slider-response","80","1168143","0.0-10.0-4.7","47","1","2025-07-09 09:07:13","7701e855f2ef39aa3fd6c71abdc6918a","155.93.134.159","Mozilla/5.0 (Windows NT 10.0; Win64; x64) AppleWebKit/537.36 (KHTML, like Gecko) Chrome/138.0.0.0 Safari/537.36","WebKit","Chrome","138.0.0.0","Windows","10.0","https://app.prolific.com/","en-US,en;q=0.9","66cddace684f1110e8c8a883","686d226cabeef709c732f8e1","686e313c3e6ec4b372429bde","66cddace684f1110e8c8a883","2025-07-09T09:26:41.948Z","","","","","","MotivationQ","","","","","","","","","","","","","","","","","","","","","","","","","","","","","","","","","","","","","","50",""
"","","","","ctl-task-cpt","81","1217264","0.0-10.0-0.8","47","1","2025-07-09 09:07:13","7701e855f2ef39aa3fd6c71abdc6918a","155.93.134.159","Mozilla/5.0 (Windows NT 10.0; Win64; x64) AppleWebKit/537.36 (KHTML, like Gecko) Chrome/138.0.0.0 Safari/537.36","WebKit","Chrome","138.0.0.0","Windows","10.0","https://app.prolific.com/","en-US,en;q=0.9","66cddace684f1110e8c8a883","686d226cabeef709c732f8e1","686e313c3e6ec4b372429bde","66cddace684f1110e8c8a883","2025-07-09T09:27:31.069Z","","","","","","","","","","","","","","","","win-only","3","g1:SW,g2:NE","0.2","9","0","1170984.6","3124.7","8125.6","46096.7","1","4","4","6","2","-4","-4","36","40","0.2727272727272727","1789.5","3000","-2085","[""up"",""right""]","{""num_key_presses"":10,""num_perfect"":2,""num_errors"":0,""num_randdir"":8,""num_randdir_good_moves"":3,""num_whilered"":0,""num_whileblue"":0,""num_blue"":2,""num_good_moves"":5}","[419.57142857142856,417.47767857142856,0.7,419.57142857142856,417.47767857142856,107.6,419.57142857142856,417.47767857142856,212.8,419.57142857142856,417.47767857142856,319.9,419.57142857142856,417.47767857142856,421.4,419.57142857142856,417.47767857142856,523.4,419.57142857142856,417.47767857142856,624.1,420.57142857142856,417.47767857142856,729.3,420.57142857142856,417.47767857142856,832.2,410.57142857142856,427.47767857142856,934.4,391.57142857142856,448.47767857142856,1035.7,288.57142857142856,561.4776785714286,1137.8,379.57142857142856,490.47767857142856,1252.7,569.5714285714286,241.47767857142856,1353.3,607.5714285714286,189.47767857142856,1454,616.5714285714286,180.47767857142856,1557.5,725.5714285714286,109.47767857142857,1666.3,727.5714285714286,100.47767857142857,1766.7,727.5714285714286,100.47767857142857,1867.1,727.5714285714286,100.47767857142857,1972.4,727.5714285714286,100.47767857142857,2086.4,724.5714285714286,105.47767857142857,2187.2,718.5714285714286,115.47767857142857,2299.9,718.5714285714286,115.47767857142857,2400.1,718.5714285714286,115.47767857142857,2502.5,718.5714285714286,115.47767857142857,2620.2,718.5714285714286,115.47767857142857,2731.6,718.5714285714286,115.47767857142857,2839.1,718.5714285714286,115.47767857142857,2942.6,718.5714285714286,115.47767857142857,3042.8,718.5714285714286,115.47767857142857,3145.8,718.5714285714286,115.47767857142857,3250.2,718.5714285714286,115.47767857142857,3351.2,718.5714285714286,115.47767857142857,3451.6,718.5714285714286,115.47767857142857,3554.1,718.5714285714286,115.47767857142857,3665.7,718.5714285714286,115.47767857142857,3768.8,718.5714285714286,115.47767857142857,3885.7,718.5714285714286,115.47767857142857,3995.5,718.5714285714286,115.47767857142857,4097.4,718.5714285714286,115.47767857142857,4201.1,718.5714285714286,115.47767857142857,4301.5,718.5714285714286,115.47767857142857,4413.6,718.5714285714286,115.47767857142857,4523.9,718.5714285714286,115.47767857142857,4632.9,718.5714285714286,115.47767857142857,4733.8,718.5714285714286,115.47767857142857,4834,718.5714285714286,115.47767857142857,4934.1]","[1397.9,1397.9,1000,0,397.9,""oops"",""up"",""down"",""bad_move"",4283,2884.8,2503.9,1398.2,380.9,""oops"",""right"",""down"",""bad_move"",11654.8,7371.3,3084.6,8184.7,385.5,""smooth"",""right"",""right"",""good_move"",14201.8,2546.5,2171.6,11655.3,374.9,""smooth"",""right"",""right"",""good_move"",17227.5,3025.3,2630.2,14202.2,395.1,""oops"",""right"",""left"",""bad_move"",23155.3,5927.3,1795.3,20856.8,503.2,""oops"",""up"",""left"",""bad_move"",25906.4,2750.7,2283.7,23155.7,467,""oops"",""up"",""left"",""bad_move"",28897.1,2990.3,2508.6,25906.8,481.7,""oops"",""right"",""right"",""good_move"",32055,3157.1,2789.6,28897.9,367.5,""oops"",""right"",""up"",""good_move"",34909.1,2853.6,2490.2,32055.5,363.4,""oops"",""right"",""up"",""good_move""]","","",""
"4744","","<div style=""width:500px;"">
  <p>What determined the result of this run?</p>
  </div>","0","html-slider-response","82","1222010","0.0-10.0-1.8","47","1","2025-07-09 09:07:13","7701e855f2ef39aa3fd6c71abdc6918a","155.93.134.159","Mozilla/5.0 (Windows NT 10.0; Win64; x64) AppleWebKit/537.36 (KHTML, like Gecko) Chrome/138.0.0.0 Safari/537.36","WebKit","Chrome","138.0.0.0","Windows","10.0","https://app.prolific.com/","en-US,en;q=0.9","66cddace684f1110e8c8a883","686d226cabeef709c732f8e1","686e313c3e6ec4b372429bde","66cddace684f1110e8c8a883","2025-07-09T09:27:35.814Z","","","","","","AttribQ","","","","","","","","","","","","","","","","","","","","","","","","","","","","","","","","","","","","","","50",""
"2453","","<div style=""width:500px;"">
  <p>How much control did you have over the ball?</p>
  </div>","0","html-slider-response","83","1224465","0.0-10.0-2.8","47","1","2025-07-09 09:07:13","7701e855f2ef39aa3fd6c71abdc6918a","155.93.134.159","Mozilla/5.0 (Windows NT 10.0; Win64; x64) AppleWebKit/537.36 (KHTML, like Gecko) Chrome/138.0.0.0 Safari/537.36","WebKit","Chrome","138.0.0.0","Windows","10.0","https://app.prolific.com/","en-US,en;q=0.9","66cddace684f1110e8c8a883","686d226cabeef709c732f8e1","686e313c3e6ec4b372429bde","66cddace684f1110e8c8a883","2025-07-09T09:27:38.269Z","","","","","","ControlQ","","","","","","","","","","","","","","","","","","","","","","","","","","","","","","","","","","","","","","50",""
"3053","","<div style=""width:500px;"">
  <p>How would you describe your current emotional state?</p>
  </div>","76","html-slider-response","84","1227519","0.0-10.0-3.8","47","1","2025-07-09 09:07:13","7701e855f2ef39aa3fd6c71abdc6918a","155.93.134.159","Mozilla/5.0 (Windows NT 10.0; Win64; x64) AppleWebKit/537.36 (KHTML, like Gecko) Chrome/138.0.0.0 Safari/537.36","WebKit","Chrome","138.0.0.0","Windows","10.0","https://app.prolific.com/","en-US,en;q=0.9","66cddace684f1110e8c8a883","686d226cabeef709c732f8e1","686e313c3e6ec4b372429bde","66cddace684f1110e8c8a883","2025-07-09T09:27:41.323Z","","","","","","StressQ","","","","","","","","","","","","","","","","","","","","","","","","","","","","","","","","","","","","","","50",""
"1708","","<div style=""width:500px;"">
  <p>What best describes how you currently feel?</p>
  </div>","100","html-slider-response","85","1229230","0.0-10.0-4.8","47","1","2025-07-09 09:07:13","7701e855f2ef39aa3fd6c71abdc6918a","155.93.134.159","Mozilla/5.0 (Windows NT 10.0; Win64; x64) AppleWebKit/537.36 (KHTML, like Gecko) Chrome/138.0.0.0 Safari/537.36","WebKit","Chrome","138.0.0.0","Windows","10.0","https://app.prolific.com/","en-US,en;q=0.9","66cddace684f1110e8c8a883","686d226cabeef709c732f8e1","686e313c3e6ec4b372429bde","66cddace684f1110e8c8a883","2025-07-09T09:27:43.034Z","","","","","","MotivationQ","","","","","","","","","","","","","","","","","","","","","","","","","","","","","","","","","","","","","","50",""
