"rt","response_timestamp","stimulus","response","trial_type","trial_index","time_elapsed","internal_node_id","run_id","condition","recorded_at","source_code_version","ip","user_agent","device","browser","browser_version","platform","platform_version","referer","accept_language","PROLIFIC_PID","STUDY_ID","SESSION_ID","prolific_id","realtime","view_history","question_order","consent","success","question_id","eventType","responses","item_order","radio_event_ids","radio_event_times","key_event_times","mouse_event_times","straightlining","zigzagging","honeypot","which_type","canvas_config","goals_layout","control_level","trial_number","tutorial_trial_number","trial_start_time","phase1_start_time","phase2_start_time","phase3_start_time","goal_1_value","goal_1_distance","goal_2_value","goal_2_distance","goal_selected","outcome","outcome_total","participant_final_score","participant_initial_score","participant_final_score_prop","goal_choice_rt","allocated_time","allocated_time_remaining","goal_direction","counts","mouse_movements","key_presses","correct","slider_start"
"36247","1752052548957","<p style='font-size:40px;line-height:1.25'><strong>Welcome to the experiment!</strong></p><p style='font-size:1.1em;line-height:1.25'>Thank you for your interest in our experiment! Before you begin, it is important that we obtain your informed consent to participate in the study.</p><p style='font-size:1.1em;line-height:1.25'>On the next screen will be an <strong>information sheet</strong> for you to read. To participate in the study we need you to read this information sheet and the following consent form carefully. If you agree with all the statements, please click the <strong>I agree</strong> button.</p><p style='font-size:1.1em;line-height:1.25'>Press <strong>Next</strong> to read the information sheet.</p>","0","custom-html-button-response","0","36253","0.0-0.0","190","1","2025-07-09 09:15:09","7701e855f2ef39aa3fd6c71abdc6918a","41.13.114.44","Mozilla/5.0 (Windows NT 10.0; Win64; x64) AppleWebKit/537.36 (KHTML, like Gecko) Chrome/138.0.0.0 Safari/537.36","WebKit","Chrome","138.0.0.0","Windows","10.0","https://app.prolific.com/","en-US,en;q=0.9","67b9e921b4b5ee4019522dbb","686d226cabeef709c732f8e1","686e311356119378462f47da","67b9e921b4b5ee4019522dbb","2025-07-09T09:15:48.960Z","","","","","","","","","","","","","","","","","","","","","","","","","","","","","","","","","","","","","","","","","","","",""
"158076","","","","instructions","1","194331","0.0-1.0","190","1","2025-07-09 09:15:09","7701e855f2ef39aa3fd6c71abdc6918a","41.13.114.44","Mozilla/5.0 (Windows NT 10.0; Win64; x64) AppleWebKit/537.36 (KHTML, like Gecko) Chrome/138.0.0.0 Safari/537.36","WebKit","Chrome","138.0.0.0","Windows","10.0","https://app.prolific.com/","en-US,en;q=0.9","67b9e921b4b5ee4019522dbb","686d226cabeef709c732f8e1","686e311356119378462f47da","67b9e921b4b5ee4019522dbb","","[{""page_index"":0,""viewing_time"":143503},{""page_index"":1,""viewing_time"":14573}]","","","","","","","","","","","","","","","","","","","","","","","","","","","","","","","","","","","","","","","","","","",""
"13505","","","{""Q0"":"""",""Q1"":"""",""Q2"":"""",""Q3"":"""",""Q4"":"""",""Q5"":"""",""Q6"":""I agree""}","survey-multi-choice","2","207840","0.0-2.0","190","1","2025-07-09 09:15:09","7701e855f2ef39aa3fd6c71abdc6918a","41.13.114.44","Mozilla/5.0 (Windows NT 10.0; Win64; x64) AppleWebKit/537.36 (KHTML, like Gecko) Chrome/138.0.0.0 Safari/537.36","WebKit","Chrome","138.0.0.0","Windows","10.0","https://app.prolific.com/","en-US,en;q=0.9","67b9e921b4b5ee4019522dbb","686d226cabeef709c732f8e1","686e311356119378462f47da","67b9e921b4b5ee4019522dbb","","","[0,1,2,3,4,5,6]","true","","","","","","","","","","","","","","","","","","","","","","","","","","","","","","","","","","","","","","","","",""
"27694","","","","fullscreen","3","236540","0.0-4.0","190","1","2025-07-09 09:15:09","7701e855f2ef39aa3fd6c71abdc6918a","41.13.114.44","Mozilla/5.0 (Windows NT 10.0; Win64; x64) AppleWebKit/537.36 (KHTML, like Gecko) Chrome/138.0.0.0 Safari/537.36","WebKit","Chrome","138.0.0.0","Windows","10.0","https://app.prolific.com/","en-US,en;q=0.9","67b9e921b4b5ee4019522dbb","686d226cabeef709c732f8e1","686e311356119378462f47da","67b9e921b4b5ee4019522dbb","","","","","true","","","","","","","","","","","","","","","","","","","","","","","","","","","","","","","","","","","","","","","",""
"9264","1752052758512"," <p style='font-size:1.1em;line-height:1.25'>Thank you for completing the consent form and closing all other tabs.</p><p style='font-size:1.1em;line-height:1.25'>We will now invite you to fill in some demographic information and questionnaires, before starting the game.<br>This will take about 5 minutes.<br></p><p style='font-size:1.1em;line-height:1.25'>Press the <strong>Next</strong> button to continue.</p>","0","custom-html-button-response","4","245806","0.0-5.0","190","1","2025-07-09 09:15:09","7701e855f2ef39aa3fd6c71abdc6918a","41.13.114.44","Mozilla/5.0 (Windows NT 10.0; Win64; x64) AppleWebKit/537.36 (KHTML, like Gecko) Chrome/138.0.0.0 Safari/537.36","WebKit","Chrome","138.0.0.0","Windows","10.0","https://app.prolific.com/","en-US,en;q=0.9","67b9e921b4b5ee4019522dbb","686d226cabeef709c732f8e1","686e311356119378462f47da","67b9e921b4b5ee4019522dbb","2025-07-09T09:19:18.513Z","","","","","","","","","","","","","","","","","","","","","","","","","","","","","","","","","","","","","","","","","","","",""
"10526","","","{""age"":""23""}","survey-text","5","256346","0.0-6.0-0.0","190","1","2025-07-09 09:15:09","7701e855f2ef39aa3fd6c71abdc6918a","41.13.114.44","Mozilla/5.0 (Windows NT 10.0; Win64; x64) AppleWebKit/537.36 (KHTML, like Gecko) Chrome/138.0.0.0 Safari/537.36","WebKit","Chrome","138.0.0.0","Windows","10.0","https://app.prolific.com/","en-US,en;q=0.9","67b9e921b4b5ee4019522dbb","686d226cabeef709c732f8e1","686e311356119378462f47da","67b9e921b4b5ee4019522dbb","","","","","","0","demographics","","","","","","","","","","","","","","","","","","","","","","","","","","","","","","","","","","","","","",""
"9933","","","{""gender_identity"":""female/woman""}","survey-multi-choice","6","266281","0.0-6.0-1.0","190","1","2025-07-09 09:15:09","7701e855f2ef39aa3fd6c71abdc6918a","41.13.114.44","Mozilla/5.0 (Windows NT 10.0; Win64; x64) AppleWebKit/537.36 (KHTML, like Gecko) Chrome/138.0.0.0 Safari/537.36","WebKit","Chrome","138.0.0.0","Windows","10.0","https://app.prolific.com/","en-US,en;q=0.9","67b9e921b4b5ee4019522dbb","686d226cabeef709c732f8e1","686e311356119378462f47da","67b9e921b4b5ee4019522dbb","","","[0]","","","1","demographics","","","","","","","","","","","","","","","","","","","","","","","","","","","","","","","","","","","","","",""
"9552","","","{""assigned_sex"":""female""}","survey-multi-choice","7","275836","0.0-6.0-2.0","190","1","2025-07-09 09:15:09","7701e855f2ef39aa3fd6c71abdc6918a","41.13.114.44","Mozilla/5.0 (Windows NT 10.0; Win64; x64) AppleWebKit/537.36 (KHTML, like Gecko) Chrome/138.0.0.0 Safari/537.36","WebKit","Chrome","138.0.0.0","Windows","10.0","https://app.prolific.com/","en-US,en;q=0.9","67b9e921b4b5ee4019522dbb","686d226cabeef709c732f8e1","686e311356119378462f47da","67b9e921b4b5ee4019522dbb","","","[0]","","","2","demographics","","","","","","","","","","","","","","","","","","","","","","","","","","","","","","","","","","","","","",""
"10369","","","{""menstrual_cycle"":""Yes""}","survey-multi-choice","8","286207","0.0-6.0-3.0","190","1","2025-07-09 09:15:09","7701e855f2ef39aa3fd6c71abdc6918a","41.13.114.44","Mozilla/5.0 (Windows NT 10.0; Win64; x64) AppleWebKit/537.36 (KHTML, like Gecko) Chrome/138.0.0.0 Safari/537.36","WebKit","Chrome","138.0.0.0","Windows","10.0","https://app.prolific.com/","en-US,en;q=0.9","67b9e921b4b5ee4019522dbb","686d226cabeef709c732f8e1","686e311356119378462f47da","67b9e921b4b5ee4019522dbb","","","[0]","","","4","demographics","","","","","","","","","","","","","","","","","","","","","","","","","","","","","","","","","","","","","",""
"21757","","","{""education"":""Doctoral Degree (e.g., PhD)""}","survey-multi-choice","9","307967","0.0-6.0-4.0","190","1","2025-07-09 09:15:09","7701e855f2ef39aa3fd6c71abdc6918a","41.13.114.44","Mozilla/5.0 (Windows NT 10.0; Win64; x64) AppleWebKit/537.36 (KHTML, like Gecko) Chrome/138.0.0.0 Safari/537.36","WebKit","Chrome","138.0.0.0","Windows","10.0","https://app.prolific.com/","en-US,en;q=0.9","67b9e921b4b5ee4019522dbb","686d226cabeef709c732f8e1","686e311356119378462f47da","67b9e921b4b5ee4019522dbb","","","[0]","","","5","demographics","","","","","","","","","","","","","","","","","","","","","","","","","","","","","","","","","","","","","",""
"19025","","","{""education"":""Doctoral Degree (e.g., PhD)""}","survey-multi-choice","10","326994","0.0-6.0-5.0","190","1","2025-07-09 09:15:09","7701e855f2ef39aa3fd6c71abdc6918a","41.13.114.44","Mozilla/5.0 (Windows NT 10.0; Win64; x64) AppleWebKit/537.36 (KHTML, like Gecko) Chrome/138.0.0.0 Safari/537.36","WebKit","Chrome","138.0.0.0","Windows","10.0","https://app.prolific.com/","en-US,en;q=0.9","67b9e921b4b5ee4019522dbb","686d226cabeef709c732f8e1","686e311356119378462f47da","67b9e921b4b5ee4019522dbb","2025-07-09T09:20:39.701Z","","[0]","","","6","demographics","","","","","","","","","","","","","","","","","","","","","","","","","","","","","","","","","","","","","",""
"23372","","","{""mental_health_condition"":""no"",""mental_health_treatment"":""no"",""psychiatric_medication"":""no""}","survey-text","11","350371","0.0-7.0-0.0","190","1","2025-07-09 09:15:09","7701e855f2ef39aa3fd6c71abdc6918a","41.13.114.44","Mozilla/5.0 (Windows NT 10.0; Win64; x64) AppleWebKit/537.36 (KHTML, like Gecko) Chrome/138.0.0.0 Safari/537.36","WebKit","Chrome","138.0.0.0","Windows","10.0","https://app.prolific.com/","en-US,en;q=0.9","67b9e921b4b5ee4019522dbb","686d226cabeef709c732f8e1","686e311356119378462f47da","67b9e921b4b5ee4019522dbb","2025-07-09T09:21:03.078Z","","","","","1","mental_health","","","","","","","","","","","","","","","","","","","","","","","","","","","","","","","","","","","","","",""
"30876","","","{""depression_history"":[""No""]}","survey-multi-select","12","381251","0.0-7.0-1.0","190","1","2025-07-09 09:15:09","7701e855f2ef39aa3fd6c71abdc6918a","41.13.114.44","Mozilla/5.0 (Windows NT 10.0; Win64; x64) AppleWebKit/537.36 (KHTML, like Gecko) Chrome/138.0.0.0 Safari/537.36","WebKit","Chrome","138.0.0.0","Windows","10.0","https://app.prolific.com/","en-US,en;q=0.9","67b9e921b4b5ee4019522dbb","686d226cabeef709c732f8e1","686e311356119378462f47da","67b9e921b4b5ee4019522dbb","","","[0]","","","","mental_health","","","","","","","","","","","","","","","","","","","","","","","","","","","","","","","","","","","","","",""
"152213.90000000596","","","","survey-template","13","533472","0.0-7.0-3.0","190","1","2025-07-09 09:15:09","7701e855f2ef39aa3fd6c71abdc6918a","41.13.114.44","Mozilla/5.0 (Windows NT 10.0; Win64; x64) AppleWebKit/537.36 (KHTML, like Gecko) Chrome/138.0.0.0 Safari/537.36","WebKit","Chrome","138.0.0.0","Windows","10.0","https://app.prolific.com/","en-US,en;q=0.9","67b9e921b4b5ee4019522dbb","686d226cabeef709c732f8e1","686e311356119378462f47da","67b9e921b4b5ee4019522dbb","2025-07-09T09:24:06.179Z","","","","","","ius","{""Q01"":""1"",""Q02"":""1"",""Q03"":""0"",""Q04"":""3"",""Q05"":""1"",""Q06"":""0"",""Q07"":""0"",""Q08"":""0"",""Q09"":""4"",""Q10"":""1"",""Q11"":""0"",""Q12"":""4"",""Q13"":""4""}","[0,1,2,3,4,5,6,7,8,9,10,11,12]","[""Q01"",""Q02"",""Q03"",""Q04"",""Q05"",""Q06"",""Q07"",""Q08"",""Q09"",""Q10"",""Q11"",""Q12"",""Q13""]","[27589.80000001192,45599.40000000596,51417.70000001788,59187.80000001192,65590.70000001788,75845.30000001192,85733.20000001788,93984.59999999404,106409.30000001192,116046.70000001788,120097.59999999404,128902.70000001788,140741.40000000596]","[]","[27589.80000001192,45599.40000000596,51417.70000001788,59187.80000001192,65590.70000001788,75845.30000001192,85733.20000001788,93984.59999999404,106409.30000001192,116046.70000001788,120097.59999999404,128902.70000001788,140741.40000000596,152210.90000000596]","0.38461538461538464","0.4166666666666667","0","","","","","","","","","","","","","","","","","","","","","","","","","","","","",""
"28157","1752053074337","<p style='font-size:1.1em;line-height:1.25'>In the following, we will ask you a few questions relating to your experiences over the past month.<br></p><p style='font-size:1.1em;line-height:1.25'>Press the <strong>Next</strong> button to continue.</p>","0","custom-html-button-response","14","561631","0.0-7.0-4.0","190","1","2025-07-09 09:15:09","7701e855f2ef39aa3fd6c71abdc6918a","41.13.114.44","Mozilla/5.0 (Windows NT 10.0; Win64; x64) AppleWebKit/537.36 (KHTML, like Gecko) Chrome/138.0.0.0 Safari/537.36","WebKit","Chrome","138.0.0.0","Windows","10.0","https://app.prolific.com/","en-US,en;q=0.9","67b9e921b4b5ee4019522dbb","686d226cabeef709c732f8e1","686e311356119378462f47da","67b9e921b4b5ee4019522dbb","2025-07-09T09:24:34.338Z","","","","","","","","","","","","","","","","","","","","","","","","","","","","","","","","","","","","","","","","","","","",""
"116285","","","","survey-template","15","677920","0.0-7.0-5.0","190","1","2025-07-09 09:15:09","7701e855f2ef39aa3fd6c71abdc6918a","41.13.114.44","Mozilla/5.0 (Windows NT 10.0; Win64; x64) AppleWebKit/537.36 (KHTML, like Gecko) Chrome/138.0.0.0 Safari/537.36","WebKit","Chrome","138.0.0.0","Windows","10.0","https://app.prolific.com/","en-US,en;q=0.9","67b9e921b4b5ee4019522dbb","686d226cabeef709c732f8e1","686e311356119378462f47da","67b9e921b4b5ee4019522dbb","2025-07-09T09:26:30.627Z","","","","","","pss","{""Q01"":""2"",""Q02"":""1"",""Q03"":""0"",""Q04"":""0"",""Q05"":""1"",""Q06"":""1"",""Q07"":""0"",""Q08"":""0"",""Q09"":""1"",""Q10"":""1""}","[0,1,2,3,4,5,6,7,8,9]","[""Q01"",""Q02"",""Q03"",""Q04"",""Q05"",""Q06"",""Q07"",""Q08"",""Q09"",""Q10""]","[15921.699999988079,26123.5,42114.19999998808,50203.89999997616,61090.69999998808,72314.89999997616,90454.39999997616,95540,104844.19999998808,113199]","[]","[0.19999998807907104,15921.699999988079,26123.5,42114.19999998808,50203.89999997616,61090.69999998808,72314.89999997616,90454.39999997616,95540,104844.19999998808,113199,116282.89999997616]","0.4","0.4444444444444444","0","","","","","","","","","","","","","","","","","","","","","","","","","","","","",""
"3197","1752053193826","<p style='font-size:1.1em;line-height:1.25'>Thank you for your answers! Now we will ask you a few more questions relating to your feelings in the last 24 hours.<br></p><p style='font-size:1.1em;line-height:1.25'>Press the <strong>Next</strong> button to continue.</p>","0","custom-html-button-response","16","681119","0.0-7.0-6.0","190","1","2025-07-09 09:15:09","7701e855f2ef39aa3fd6c71abdc6918a","41.13.114.44","Mozilla/5.0 (Windows NT 10.0; Win64; x64) AppleWebKit/537.36 (KHTML, like Gecko) Chrome/138.0.0.0 Safari/537.36","WebKit","Chrome","138.0.0.0","Windows","10.0","https://app.prolific.com/","en-US,en;q=0.9","67b9e921b4b5ee4019522dbb","686d226cabeef709c732f8e1","686e311356119378462f47da","67b9e921b4b5ee4019522dbb","2025-07-09T09:26:33.827Z","","","","","","","","","","","","","","","","","","","","","","","","","","","","","","","","","","","","","","","","","","","",""
"143840.19999998808","","","","survey-template","17","824966","0.0-7.0-7.0","190","1","2025-07-09 09:15:09","7701e855f2ef39aa3fd6c71abdc6918a","41.13.114.44","Mozilla/5.0 (Windows NT 10.0; Win64; x64) AppleWebKit/537.36 (KHTML, like Gecko) Chrome/138.0.0.0 Safari/537.36","WebKit","Chrome","138.0.0.0","Windows","10.0","https://app.prolific.com/","en-US,en;q=0.9","67b9e921b4b5ee4019522dbb","686d226cabeef709c732f8e1","686e311356119378462f47da","67b9e921b4b5ee4019522dbb","2025-07-09T09:28:57.673Z","","","","","","drsp","{""Q01"":""0"",""Q02"":""0"",""Q03"":""0"",""Q04"":""0"",""Q05"":""0"",""Q06"":""0"",""Q07"":""0"",""Q08"":""0"",""Q09"":""0"",""Q10"":""0"",""Q11"":""0"",""Q12"":""2"",""Q13"":""2"",""Q14"":""0"",""Q15"":""0"",""Q16"":""0"",""Q17"":""0"",""Q18"":""0"",""Q19"":""0"",""Q20"":""0"",""Q21"":""0""}","[0,1,2,3,4,5,6,7,8,9,10,11,12,13,14,15,16,17,18,19,20]","[""Q01"",""Q03"",""Q04"",""Q05"",""Q06"",""Q07"",""Q08"",""Q09"",""Q10"",""Q11"",""Q12"",""Q13"",""Q14"",""Q15"",""Q16"",""Q17"",""Q18"",""Q19"",""Q20"",""Q21"",""Q02""]","[7683.9000000059605,11814.90000000596,13835.59999999404,15668.90000000596,19937.79999998212,22088.40000000596,27724.40000000596,42965.29999998212,47617.59999999404,54070.19999998808,61774,67811.09999999404,76213.5,79481.5,85318.5,86650.40000000596,92203.79999998212,105675.59999999404,111578.40000000596,115446.69999998808,123962.09999999404]","[]","[0.09999999403953552,7683.9000000059605,9566.299999982119,11814.90000000596,13835.59999999404,15668.90000000596,19937.79999998212,22088.40000000596,24524.09999999404,27724.40000000596,42965.29999998212,46282.59999999404,47617.59999999404,54070.19999998808,61774,67811.09999999404,76213.5,79481.5,85318.5,86650.40000000596,92203.79999998212,105675.59999999404,111578.40000000596,115446.69999998808,116932.40000000596,123962.09999999404,143834.69999998808]","0.9047619047619048","0","0","","","","","","","","","","","","","","","","","","","","","","","","","","","","",""
"28512.80000001192","","","","survey-template","18","853482","0.0-7.0-8.0","190","1","2025-07-09 09:15:09","7701e855f2ef39aa3fd6c71abdc6918a","41.13.114.44","Mozilla/5.0 (Windows NT 10.0; Win64; x64) AppleWebKit/537.36 (KHTML, like Gecko) Chrome/138.0.0.0 Safari/537.36","WebKit","Chrome","138.0.0.0","Windows","10.0","https://app.prolific.com/","en-US,en;q=0.9","67b9e921b4b5ee4019522dbb","686d226cabeef709c732f8e1","686e311356119378462f47da","67b9e921b4b5ee4019522dbb","2025-07-09T09:29:26.189Z","","","","","","stress","{""Q01"":""0"",""Q02"":""0"",""Q03"":""0""}","[0,1,2]","[""Q01"",""Q02"",""Q03""]","[7249.600000023842,16755,26410.70000001788]","[]","[7249.600000023842,16755,26410.70000001788,28511.40000000596]","0.6666666666666666","1","0","","","","","","","","","","","","","","","","","","","","","","","","","","","","",""
"153082","","","","instructions","19","1006566","0.0-8.0-0.0","190","1","2025-07-09 09:15:09","7701e855f2ef39aa3fd6c71abdc6918a","41.13.114.44","Mozilla/5.0 (Windows NT 10.0; Win64; x64) AppleWebKit/537.36 (KHTML, like Gecko) Chrome/138.0.0.0 Safari/537.36","WebKit","Chrome","138.0.0.0","Windows","10.0","https://app.prolific.com/","en-US,en;q=0.9","67b9e921b4b5ee4019522dbb","686d226cabeef709c732f8e1","686e311356119378462f47da","67b9e921b4b5ee4019522dbb","","[{""page_index"":0,""viewing_time"":39847},{""page_index"":1,""viewing_time"":29802},{""page_index"":0,""viewing_time"":4029},{""page_index"":1,""viewing_time"":8335},{""page_index"":2,""viewing_time"":14942},{""page_index"":1,""viewing_time"":14323},{""page_index"":2,""viewing_time"":1417},{""page_index"":3,""viewing_time"":40386}]","","","","","","","","","","","","","","","","","","","","","","","","","","","","","","","","","","","","","","","","","","",""
"","","","","ctl-task-cpt","20","1051767","0.0-8.0-1.0","190","1","2025-07-09 09:15:09","7701e855f2ef39aa3fd6c71abdc6918a","41.13.114.44","Mozilla/5.0 (Windows NT 10.0; Win64; x64) AppleWebKit/537.36 (KHTML, like Gecko) Chrome/138.0.0.0 Safari/537.36","WebKit","Chrome","138.0.0.0","Windows","10.0","https://app.prolific.com/","en-US,en;q=0.9","67b9e921b4b5ee4019522dbb","686d226cabeef709c732f8e1","686e311356119378462f47da","67b9e921b4b5ee4019522dbb","","","","","","","","","","","","","","","","","win-only","0","g1:NW,g2:SE","1","0","1","1010133.1","11213.1","15218.4","42195.7","2","4","4","6","2","-4","-5","0","0","0","4005.2","4000","-2585","[""down"",""right""]","{""num_key_presses"":6,""num_perfect"":5,""num_errors"":1,""num_randdir"":0,""num_randdir_good_moves"":0,""num_whilered"":0,""num_whileblue"":0,""num_blue"":2,""num_good_moves"":5}","[294.22232142857143,295.12857142857143,0.8,294.22232142857143,295.12857142857143,107.8,294.22232142857143,295.12857142857143,213,294.22232142857143,295.12857142857143,315.9,294.22232142857143,295.12857142857143,418,294.22232142857143,295.12857142857143,523.8,294.22232142857143,295.12857142857143,624.3,294.22232142857143,295.12857142857143,727.7,294.22232142857143,295.12857142857143,833.9,294.22232142857143,295.12857142857143,934.4,294.22232142857143,295.12857142857143,1034.5,294.22232142857143,295.12857142857143,1140,294.22232142857143,295.12857142857143,1241.9,294.22232142857143,295.12857142857143,1344.1,294.22232142857143,295.12857142857143,1447.7,294.22232142857143,295.12857142857143,1547.7,294.22232142857143,295.12857142857143,1647.7,294.22232142857143,295.12857142857143,1747.8,294.22232142857143,295.12857142857143,1848.4,294.22232142857143,295.12857142857143,1953.9,294.22232142857143,295.12857142857143,2059.1,294.22232142857143,295.12857142857143,2161.7,294.22232142857143,295.12857142857143,2275.4,294.22232142857143,295.12857142857143,2375.3,294.22232142857143,295.12857142857143,2477.5,294.22232142857143,295.12857142857143,2577.9,294.22232142857143,295.12857142857143,2678.3,294.22232142857143,295.12857142857143,2793.3,294.22232142857143,295.12857142857143,2893.7,294.22232142857143,295.12857142857143,3000.3,294.22232142857143,295.12857142857143,3103.4,294.22232142857143,295.12857142857143,3203.4,294.22232142857143,295.12857142857143,3309.1,294.22232142857143,295.12857142857143,3413.9,294.22232142857143,295.12857142857143,3517.9,321.22232142857143,331.12857142857143,3623.3,389.22232142857143,394.12857142857143,3723.9,431.22232142857143,439.12857142857143,3828.9,473.22232142857143,487.12857142857143,3929]","[2554.2,2554.2,1000,0,1554.2,""smooth"",""down"",""down"",""good_move"",4115.9,1560.5,2438.1,2555.5,-877.7,""error"",""-"",""-"",""no_move"",8903.8,4787.1,2782.4,5122.8,998.7,""smooth"",""down"",""down"",""good_move"",18168.3,9264,1993.8,15742,432.5,""smooth"",""down"",""down"",""good_move"",21237.7,3068.9,2226.6,18169,842.1,""smooth"",""right"",""right"",""good_move"",24658,3418.9,2621,21239.1,797.9,""smooth"",""right"",""right"",""good_move""]","",""
"42667","","","","instructions","21","1094435","0.0-8.0-2.0","190","1","2025-07-09 09:15:09","7701e855f2ef39aa3fd6c71abdc6918a","41.13.114.44","Mozilla/5.0 (Windows NT 10.0; Win64; x64) AppleWebKit/537.36 (KHTML, like Gecko) Chrome/138.0.0.0 Safari/537.36","WebKit","Chrome","138.0.0.0","Windows","10.0","https://app.prolific.com/","en-US,en;q=0.9","67b9e921b4b5ee4019522dbb","686d226cabeef709c732f8e1","686e311356119378462f47da","67b9e921b4b5ee4019522dbb","","[{""page_index"":0,""viewing_time"":42666}]","","","","","","","","","","","","","","","","","","","","","","","","","","","","","","","","","","","","","","","","","","",""
"","","","","ctl-task-cpt","22","1159868","0.0-8.0-3.0","190","1","2025-07-09 09:15:09","7701e855f2ef39aa3fd6c71abdc6918a","41.13.114.44","Mozilla/5.0 (Windows NT 10.0; Win64; x64) AppleWebKit/537.36 (KHTML, like Gecko) Chrome/138.0.0.0 Safari/537.36","WebKit","Chrome","138.0.0.0","Windows","10.0","https://app.prolific.com/","en-US,en;q=0.9","67b9e921b4b5ee4019522dbb","686d226cabeef709c732f8e1","686e311356119378462f47da","67b9e921b4b5ee4019522dbb","","","","","","","","","","","","","","","","","win-only","0","g1:NW,g2:SE","0.35","0","3","1098002.4","10172.4","14178.3","62412","2","4","8","6","1","-2","-2","0","0","0","3171.9","4000","-1835","[""left"",""up""]","{""num_key_presses"":10,""num_perfect"":4,""num_errors"":0,""num_randdir"":6,""num_randdir_good_moves"":1,""num_whilered"":0,""num_whileblue"":0,""num_blue"":4,""num_good_moves"":4}","[291.22232142857143,294.12857142857143,0.8,291.22232142857143,294.12857142857143,107.5,291.22232142857143,294.12857142857143,212,291.22232142857143,294.12857142857143,318.9,291.22232142857143,294.12857142857143,419.3,291.22232142857143,294.12857142857143,524.6,291.22232142857143,294.12857142857143,630,291.22232142857143,294.12857142857143,738.2,291.22232142857143,294.12857142857143,845.5,291.22232142857143,294.12857142857143,948.6,291.22232142857143,294.12857142857143,1054.6,291.22232142857143,294.12857142857143,1160.4,291.22232142857143,294.12857142857143,1260.9,291.22232142857143,294.12857142857143,1370.8,291.22232142857143,294.12857142857143,1492.5,291.22232142857143,294.12857142857143,1608,291.22232142857143,294.12857142857143,1708.5,291.22232142857143,294.12857142857143,1809.1,291.22232142857143,294.12857142857143,1914.8,291.22232142857143,294.12857142857143,2015,291.22232142857143,294.12857142857143,2115.8,291.22232142857143,294.12857142857143,2218.1,243.22232142857143,216.12857142857143,2323.1,131.22232142857143,69.12857142857143,2426.2,102.22232142857143,37.128571428571426,2527.9,87.22232142857143,14.128571428571426,2638.6,73.22232142857143,10.128571428571426,2738.9,70.22232142857143,16.128571428571426,2838.9,64.22232142857143,30.128571428571426,2940,64.22232142857143,30.128571428571426,3045.1,64.22232142857143,30.128571428571426,3150.2,64.22232142857143,30.128571428571426,3254.8,64.22232142857143,30.128571428571426,3354.9,64.22232142857143,30.128571428571426,3455,64.22232142857143,30.128571428571426,3558.3,64.22232142857143,30.128571428571426,3666.1,64.22232142857143,30.128571428571426,3772.6,64.22232142857143,30.128571428571426,3874.3,64.22232142857143,30.128571428571426,3979.8]","[1529.3,1529.3,1000,0.1,529.3,""oops"",""left"",""right"",""bad_move"",12001.5,10470.6,3223.1,8218.9,559.6,""smooth"",""up"",""up"",""good_move"",15518.2,3515.8,2800.2,12002.4,715.6,""oops"",""up"",""right"",""bad_move"",18220.8,2701.7,2030.7,15519.2,671,""smooth"",""up"",""up"",""good_move"",21987.4,3765.4,2973.2,18222,792.2,""oops"",""left"",""right"",""bad_move"",25657.3,3669,3173.6,21988.4,495.4,""smooth"",""left"",""left"",""good_move"",28975.9,3317.3,2753.4,25658.6,563.9,""oops"",""left"",""right"",""bad_move"",39259.6,10282.7,1862.3,36689.1,708.2,""oops"",""left"",""left"",""good_move"",42175.1,2914.8,2205.5,39260.3,709.3,""oops"",""left"",""right"",""bad_move"",45126.3,2950.1,2428.1,42176.2,522,""smooth"",""down"",""down"",""bad_move""]","",""
"78753","","","","instructions","23","1238622","0.0-8.0-4.0","190","1","2025-07-09 09:15:09","7701e855f2ef39aa3fd6c71abdc6918a","41.13.114.44","Mozilla/5.0 (Windows NT 10.0; Win64; x64) AppleWebKit/537.36 (KHTML, like Gecko) Chrome/138.0.0.0 Safari/537.36","WebKit","Chrome","138.0.0.0","Windows","10.0","https://app.prolific.com/","en-US,en;q=0.9","67b9e921b4b5ee4019522dbb","686d226cabeef709c732f8e1","686e311356119378462f47da","67b9e921b4b5ee4019522dbb","","[{""page_index"":0,""viewing_time"":21573},{""page_index"":1,""viewing_time"":57180}]","","","","","","","","","","","","","","","","","","","","","","","","","","","","","","","","","","","","","","","","","","",""
"31655","","","{""green_ball"":[""Ball always moves in the direction I press""]}","survey-multi-select","24","1270282","0.0-8.0-5.0-0.0","190","1","2025-07-09 09:15:09","7701e855f2ef39aa3fd6c71abdc6918a","41.13.114.44","Mozilla/5.0 (Windows NT 10.0; Win64; x64) AppleWebKit/537.36 (KHTML, like Gecko) Chrome/138.0.0.0 Safari/537.36","WebKit","Chrome","138.0.0.0","Windows","10.0","https://app.prolific.com/","en-US,en;q=0.9","67b9e921b4b5ee4019522dbb","686d226cabeef709c732f8e1","686e311356119378462f47da","67b9e921b4b5ee4019522dbb","","","[0]","","","","quiz","","","","","","","","","","","","","","","","","","","","","","","","","","","","","","","","","","","","","false",""
"11335","","<p align='center'><b>INCORRECT.</b> Usually the green ball moves in the indicated direction, but sometimes it shakes and moves randomly. </p>","0","html-button-response","25","1281620","0.0-8.0-5.0-1.0","190","1","2025-07-09 09:15:09","7701e855f2ef39aa3fd6c71abdc6918a","41.13.114.44","Mozilla/5.0 (Windows NT 10.0; Win64; x64) AppleWebKit/537.36 (KHTML, like Gecko) Chrome/138.0.0.0 Safari/537.36","WebKit","Chrome","138.0.0.0","Windows","10.0","https://app.prolific.com/","en-US,en;q=0.9","67b9e921b4b5ee4019522dbb","686d226cabeef709c732f8e1","686e311356119378462f47da","67b9e921b4b5ee4019522dbb","","","","","","","","","","","","","","","","","","","","","","","","","","","","","","","","","","","","","","","","","","","","",""
"18457","","","{""green_ball"":[""Ball sometimes shakes and moves in a random direction""]}","survey-multi-select","26","1300082","0.0-8.0-5.1-0.1","190","1","2025-07-09 09:15:09","7701e855f2ef39aa3fd6c71abdc6918a","41.13.114.44","Mozilla/5.0 (Windows NT 10.0; Win64; x64) AppleWebKit/537.36 (KHTML, like Gecko) Chrome/138.0.0.0 Safari/537.36","WebKit","Chrome","138.0.0.0","Windows","10.0","https://app.prolific.com/","en-US,en;q=0.9","67b9e921b4b5ee4019522dbb","686d226cabeef709c732f8e1","686e311356119378462f47da","67b9e921b4b5ee4019522dbb","","","[0]","","","","quiz","","","","","","","","","","","","","","","","","","","","","","","","","","","","","","","","","","","","","true",""
"4730","","<p align='center'><b>CORRECT!</b> Indeed, the green ball may sometimes shake and move in a random direction.</p>","0","html-button-response","27","1304816","0.0-8.0-5.1-1.1","190","1","2025-07-09 09:15:09","7701e855f2ef39aa3fd6c71abdc6918a","41.13.114.44","Mozilla/5.0 (Windows NT 10.0; Win64; x64) AppleWebKit/537.36 (KHTML, like Gecko) Chrome/138.0.0.0 Safari/537.36","WebKit","Chrome","138.0.0.0","Windows","10.0","https://app.prolific.com/","en-US,en;q=0.9","67b9e921b4b5ee4019522dbb","686d226cabeef709c732f8e1","686e311356119378462f47da","67b9e921b4b5ee4019522dbb","","","","","","","","","","","","","","","","","","","","","","","","","","","","","","","","","","","","","","","","","","","","",""
"14058","","","{""yellow_ball"":[""Ball doesn‘t move and I get -1 penalty point""]}","survey-multi-select","28","1318878","0.0-8.0-6.0-0.0","190","1","2025-07-09 09:15:09","7701e855f2ef39aa3fd6c71abdc6918a","41.13.114.44","Mozilla/5.0 (Windows NT 10.0; Win64; x64) AppleWebKit/537.36 (KHTML, like Gecko) Chrome/138.0.0.0 Safari/537.36","WebKit","Chrome","138.0.0.0","Windows","10.0","https://app.prolific.com/","en-US,en;q=0.9","67b9e921b4b5ee4019522dbb","686d226cabeef709c732f8e1","686e311356119378462f47da","67b9e921b4b5ee4019522dbb","","","[0]","","","","quiz","","","","","","","","","","","","","","","","","","","","","","","","","","","","","","","","","","","","","true",""
"3173","","<p align='center'><b>CORRECT!</b> Indeed, the yellow ball never moves and you receive a penalty.</p>","0","html-button-response","29","1322054","0.0-8.0-6.0-1.0","190","1","2025-07-09 09:15:09","7701e855f2ef39aa3fd6c71abdc6918a","41.13.114.44","Mozilla/5.0 (Windows NT 10.0; Win64; x64) AppleWebKit/537.36 (KHTML, like Gecko) Chrome/138.0.0.0 Safari/537.36","WebKit","Chrome","138.0.0.0","Windows","10.0","https://app.prolific.com/","en-US,en;q=0.9","67b9e921b4b5ee4019522dbb","686d226cabeef709c732f8e1","686e311356119378462f47da","67b9e921b4b5ee4019522dbb","","","","","","","","","","","","","","","","","","","","","","","","","","","","","","","","","","","","","","","","","","","","",""
"12589","","","{""blue_ball"":[""Ball always shakes and moves in a random direction""]}","survey-multi-select","30","1334647","0.0-8.0-7.0-0.0","190","1","2025-07-09 09:15:09","7701e855f2ef39aa3fd6c71abdc6918a","41.13.114.44","Mozilla/5.0 (Windows NT 10.0; Win64; x64) AppleWebKit/537.36 (KHTML, like Gecko) Chrome/138.0.0.0 Safari/537.36","WebKit","Chrome","138.0.0.0","Windows","10.0","https://app.prolific.com/","en-US,en;q=0.9","67b9e921b4b5ee4019522dbb","686d226cabeef709c732f8e1","686e311356119378462f47da","67b9e921b4b5ee4019522dbb","","","[0]","","","","quiz","","","","","","","","","","","","","","","","","","","","","","","","","","","","","","","","","","","","","true",""
"7216","","<p align='center'><b>CORRECT!</b> Indeed, the blue ball always shakes and moves in a random direction. Also there is a penalty of -1 point.</p>","0","html-button-response","31","1341866","0.0-8.0-7.0-1.0","190","1","2025-07-09 09:15:09","7701e855f2ef39aa3fd6c71abdc6918a","41.13.114.44","Mozilla/5.0 (Windows NT 10.0; Win64; x64) AppleWebKit/537.36 (KHTML, like Gecko) Chrome/138.0.0.0 Safari/537.36","WebKit","Chrome","138.0.0.0","Windows","10.0","https://app.prolific.com/","en-US,en;q=0.9","67b9e921b4b5ee4019522dbb","686d226cabeef709c732f8e1","686e311356119378462f47da","67b9e921b4b5ee4019522dbb","","","","","","","","","","","","","","","","","","","","","","","","","","","","","","","","","","","","","","","","","","","","",""
"12784","","","{""bonus"":[""When I reach all possible points""]}","survey-multi-select","32","1354654","0.0-8.0-8.0-0.0","190","1","2025-07-09 09:15:09","7701e855f2ef39aa3fd6c71abdc6918a","41.13.114.44","Mozilla/5.0 (Windows NT 10.0; Win64; x64) AppleWebKit/537.36 (KHTML, like Gecko) Chrome/138.0.0.0 Safari/537.36","WebKit","Chrome","138.0.0.0","Windows","10.0","https://app.prolific.com/","en-US,en;q=0.9","67b9e921b4b5ee4019522dbb","686d226cabeef709c732f8e1","686e311356119378462f47da","67b9e921b4b5ee4019522dbb","","","[0]","","","","quiz","","","","","","","","","","","","","","","","","","","","","","","","","","","","","","","","","","","","","false",""
"5204","","<p align='center'><b>INCORRECT.</b> You receive 2 pounds extra when you reach 50% of points </p>","0","html-button-response","33","1359861","0.0-8.0-8.0-1.0","190","1","2025-07-09 09:15:09","7701e855f2ef39aa3fd6c71abdc6918a","41.13.114.44","Mozilla/5.0 (Windows NT 10.0; Win64; x64) AppleWebKit/537.36 (KHTML, like Gecko) Chrome/138.0.0.0 Safari/537.36","WebKit","Chrome","138.0.0.0","Windows","10.0","https://app.prolific.com/","en-US,en;q=0.9","67b9e921b4b5ee4019522dbb","686d226cabeef709c732f8e1","686e311356119378462f47da","67b9e921b4b5ee4019522dbb","","","","","","","","","","","","","","","","","","","","","","","","","","","","","","","","","","","","","","","","","","","","",""
"3626","","","{""bonus"":[""When I reach 50% of points""]}","survey-multi-select","34","1363491","0.0-8.0-8.1-0.1","190","1","2025-07-09 09:15:09","7701e855f2ef39aa3fd6c71abdc6918a","41.13.114.44","Mozilla/5.0 (Windows NT 10.0; Win64; x64) AppleWebKit/537.36 (KHTML, like Gecko) Chrome/138.0.0.0 Safari/537.36","WebKit","Chrome","138.0.0.0","Windows","10.0","https://app.prolific.com/","en-US,en;q=0.9","67b9e921b4b5ee4019522dbb","686d226cabeef709c732f8e1","686e311356119378462f47da","67b9e921b4b5ee4019522dbb","","","[0]","","","","quiz","","","","","","","","","","","","","","","","","","","","","","","","","","","","","","","","","","","","","true",""
"3028","","<p align='center'><b>CORRECT!</b> Indeed, you receive 2 pounds extra when you reach 50% of points.</p>","0","html-button-response","35","1366522","0.0-8.0-8.1-1.1","190","1","2025-07-09 09:15:09","7701e855f2ef39aa3fd6c71abdc6918a","41.13.114.44","Mozilla/5.0 (Windows NT 10.0; Win64; x64) AppleWebKit/537.36 (KHTML, like Gecko) Chrome/138.0.0.0 Safari/537.36","WebKit","Chrome","138.0.0.0","Windows","10.0","https://app.prolific.com/","en-US,en;q=0.9","67b9e921b4b5ee4019522dbb","686d226cabeef709c732f8e1","686e311356119378462f47da","67b9e921b4b5ee4019522dbb","","","","","","","","","","","","","","","","","","","","","","","","","","","","","","","","","","","","","","","","","","","","",""
"40505","","","","instructions","36","1407029","0.0-8.0-9.0","190","1","2025-07-09 09:15:09","7701e855f2ef39aa3fd6c71abdc6918a","41.13.114.44","Mozilla/5.0 (Windows NT 10.0; Win64; x64) AppleWebKit/537.36 (KHTML, like Gecko) Chrome/138.0.0.0 Safari/537.36","WebKit","Chrome","138.0.0.0","Windows","10.0","https://app.prolific.com/","en-US,en;q=0.9","67b9e921b4b5ee4019522dbb","686d226cabeef709c732f8e1","686e311356119378462f47da","67b9e921b4b5ee4019522dbb","","[{""page_index"":0,""viewing_time"":40504}]","","","","","","","","","","","","","","","","","","","","","","","","","","","","","","","","","","","","","","","","","","",""
"32942","","<p>Before you start with this game please answer the following three questions yourself. </p>
  <p>Through this game, we measure several aspects of your cognitive performance, such as reaction times, multi-tasking capabilities </p>
  <p>and the ability to assess the situation you are in.</p>
  <p></p>
  <p><b>How good do you usually are in such tasks?</b></p>","55","html-slider-response","37","1439974","0.0-9.0-0.0","190","1","2025-07-09 09:15:09","7701e855f2ef39aa3fd6c71abdc6918a","41.13.114.44","Mozilla/5.0 (Windows NT 10.0; Win64; x64) AppleWebKit/537.36 (KHTML, like Gecko) Chrome/138.0.0.0 Safari/537.36","WebKit","Chrome","138.0.0.0","Windows","10.0","https://app.prolific.com/","en-US,en;q=0.9","67b9e921b4b5ee4019522dbb","686d226cabeef709c732f8e1","686e311356119378462f47da","67b9e921b4b5ee4019522dbb","2025-07-09T09:39:12.681Z","","","","","","PreSkillQ","","","","","","","","","","","","","","","","","","","","","","","","","","","","","","","","","","","","","","50"
"11871","","<div style=""width:500px;"">
  <p>How well do you think you will perform in this task compared to other participants?</p>
  </div>","55","html-slider-response","38","1451848","0.0-9.0-1.0","190","1","2025-07-09 09:15:09","7701e855f2ef39aa3fd6c71abdc6918a","41.13.114.44","Mozilla/5.0 (Windows NT 10.0; Win64; x64) AppleWebKit/537.36 (KHTML, like Gecko) Chrome/138.0.0.0 Safari/537.36","WebKit","Chrome","138.0.0.0","Windows","10.0","https://app.prolific.com/","en-US,en;q=0.9","67b9e921b4b5ee4019522dbb","686d226cabeef709c732f8e1","686e311356119378462f47da","67b9e921b4b5ee4019522dbb","2025-07-09T09:39:24.555Z","","","","","","PrePerfQ","","","","","","","","","","","","","","","","","","","","","","","","","","","","","","","","","","","","","","50"
"10098","","<div style=""width:500px;"">
  <p>What best describes how you currently feel?</p>
  </div>","98","html-slider-response","39","1461949","0.0-9.0-2.0","190","1","2025-07-09 09:15:09","7701e855f2ef39aa3fd6c71abdc6918a","41.13.114.44","Mozilla/5.0 (Windows NT 10.0; Win64; x64) AppleWebKit/537.36 (KHTML, like Gecko) Chrome/138.0.0.0 Safari/537.36","WebKit","Chrome","138.0.0.0","Windows","10.0","https://app.prolific.com/","en-US,en;q=0.9","67b9e921b4b5ee4019522dbb","686d226cabeef709c732f8e1","686e311356119378462f47da","67b9e921b4b5ee4019522dbb","2025-07-09T09:39:34.656Z","","","","","","PreMotivationQ","","","","","","","","","","","","","","","","","","","","","","","","","","","","","","","","","","","","","","50"
"","","","","ctl-task-cpt","40","1489353","0.0-10.0-0.0","190","1","2025-07-09 09:15:09","7701e855f2ef39aa3fd6c71abdc6918a","41.13.114.44","Mozilla/5.0 (Windows NT 10.0; Win64; x64) AppleWebKit/537.36 (KHTML, like Gecko) Chrome/138.0.0.0 Safari/537.36","WebKit","Chrome","138.0.0.0","Windows","10.0","https://app.prolific.com/","en-US,en;q=0.9","67b9e921b4b5ee4019522dbb","686d226cabeef709c732f8e1","686e311356119378462f47da","67b9e921b4b5ee4019522dbb","2025-07-09T09:40:02.060Z","","","","","","","","","","","","","","","","win-only","3","g1:SW,g2:NE","1","1","0","1465516.2","5650.1","10670.6","24381.4","1","4","4","6","1","1","1","1","0","0.007575757575757576","1543.3","3000","1740","[""down"",""left""]","{""num_key_presses"":4,""num_perfect"":4,""num_errors"":0,""num_randdir"":0,""num_randdir_good_moves"":0,""num_whilered"":0,""num_whileblue"":0,""num_blue"":1,""num_good_moves"":4}","[287.22232142857143,293.12857142857143,2.2,287.22232142857143,293.12857142857143,114,287.22232142857143,293.12857142857143,220.7,287.22232142857143,293.12857142857143,321.8,287.22232142857143,293.12857142857143,422.7,287.22232142857143,293.12857142857143,527,287.22232142857143,293.12857142857143,667.2,287.22232142857143,293.12857142857143,769.4,205.22232142857143,360.12857142857143,898,89.22232142857143,453.12857142857143,1011.5,64.22232142857143,484.12857142857143,1113.6,44.222321428571426,501.12857142857143,1216.2,37.222321428571426,518.1285714285714,1395.1,32.222321428571426,524.1285714285714,1498.5,32.222321428571426,524.1285714285714,1608.9,32.222321428571426,524.1285714285714,1710.9,32.222321428571426,524.1285714285714,1821.5,32.222321428571426,524.1285714285714,1925.8,32.222321428571426,524.1285714285714,2033.8,32.222321428571426,524.1285714285714,2143.9,32.222321428571426,524.1285714285714,2247,32.222321428571426,524.1285714285714,2372.7,32.222321428571426,524.1285714285714,2475.6,32.222321428571426,524.1285714285714,2577.1,32.222321428571426,524.1285714285714,2692.5,32.222321428571426,524.1285714285714,2799.5,32.222321428571426,524.1285714285714,2902.1,32.222321428571426,524.1285714285714,3005.6,32.222321428571426,524.1285714285714,3111.7,32.222321428571426,524.1285714285714,3212.3,32.222321428571426,524.1285714285714,3333.2,32.222321428571426,524.1285714285714,3436.7,32.222321428571426,524.1285714285714,3546.3,32.222321428571426,524.1285714285714,3663.8,32.222321428571426,524.1285714285714,3765.7,32.222321428571426,524.1285714285714,3874.9,32.222321428571426,524.1285714285714,3976,32.222321428571426,524.1285714285714,4077.5,32.222321428571426,524.1285714285714,4196.5,32.222321428571426,524.1285714285714,4309.7,32.222321428571426,524.1285714285714,4411.9,32.222321428571426,524.1285714285714,4518.4,32.222321428571426,524.1285714285714,4627.2,32.222321428571426,524.1285714285714,4759.6,32.222321428571426,524.1285714285714,4877.1,32.222321428571426,524.1285714285714,4977.3]","[1606.3,1606.3,1000,0,606.3,""smooth"",""down"",""down"",""good_move"",4243.8,2636.4,2037,1607.4,599.4,""smooth"",""left"",""left"",""good_move"",10807,6561.8,2636.5,7576.3,594.2,""smooth"",""down"",""down"",""good_move"",13547.8,2739.7,2186.3,10808.2,553.3,""smooth"",""left"",""left"",""good_move""]","",""
"19586","","<div style=""width:500px;"">
  <p>What determined the result of this run?</p>
  </div>","100","html-slider-response","41","1508941","0.0-10.0-1.0","190","1","2025-07-09 09:15:09","7701e855f2ef39aa3fd6c71abdc6918a","41.13.114.44","Mozilla/5.0 (Windows NT 10.0; Win64; x64) AppleWebKit/537.36 (KHTML, like Gecko) Chrome/138.0.0.0 Safari/537.36","WebKit","Chrome","138.0.0.0","Windows","10.0","https://app.prolific.com/","en-US,en;q=0.9","67b9e921b4b5ee4019522dbb","686d226cabeef709c732f8e1","686e311356119378462f47da","67b9e921b4b5ee4019522dbb","2025-07-09T09:40:21.648Z","","","","","","AttribQ","","","","","","","","","","","","","","","","","","","","","","","","","","","","","","","","","","","","","","50"
"16098","","<div style=""width:500px;"">
  <p>How much control did you have over the ball?</p>
  </div>","100","html-slider-response","42","1525044","0.0-10.0-2.0","190","1","2025-07-09 09:15:09","7701e855f2ef39aa3fd6c71abdc6918a","41.13.114.44","Mozilla/5.0 (Windows NT 10.0; Win64; x64) AppleWebKit/537.36 (KHTML, like Gecko) Chrome/138.0.0.0 Safari/537.36","WebKit","Chrome","138.0.0.0","Windows","10.0","https://app.prolific.com/","en-US,en;q=0.9","67b9e921b4b5ee4019522dbb","686d226cabeef709c732f8e1","686e311356119378462f47da","67b9e921b4b5ee4019522dbb","2025-07-09T09:40:37.751Z","","","","","","ControlQ","","","","","","","","","","","","","","","","","","","","","","","","","","","","","","","","","","","","","","50"
"13479","","<div style=""width:500px;"">
  <p>How would you describe your current emotional state?</p>
  </div>","0","html-slider-response","43","1538525","0.0-10.0-3.0","190","1","2025-07-09 09:15:09","7701e855f2ef39aa3fd6c71abdc6918a","41.13.114.44","Mozilla/5.0 (Windows NT 10.0; Win64; x64) AppleWebKit/537.36 (KHTML, like Gecko) Chrome/138.0.0.0 Safari/537.36","WebKit","Chrome","138.0.0.0","Windows","10.0","https://app.prolific.com/","en-US,en;q=0.9","67b9e921b4b5ee4019522dbb","686d226cabeef709c732f8e1","686e311356119378462f47da","67b9e921b4b5ee4019522dbb","2025-07-09T09:40:51.233Z","","","","","","StressQ","","","","","","","","","","","","","","","","","","","","","","","","","","","","","","","","","","","","","","50"
"14282","","<div style=""width:500px;"">
  <p>What best describes how you currently feel?</p>
  </div>","100","html-slider-response","44","1552811","0.0-10.0-4.0","190","1","2025-07-09 09:15:09","7701e855f2ef39aa3fd6c71abdc6918a","41.13.114.44","Mozilla/5.0 (Windows NT 10.0; Win64; x64) AppleWebKit/537.36 (KHTML, like Gecko) Chrome/138.0.0.0 Safari/537.36","WebKit","Chrome","138.0.0.0","Windows","10.0","https://app.prolific.com/","en-US,en;q=0.9","67b9e921b4b5ee4019522dbb","686d226cabeef709c732f8e1","686e311356119378462f47da","67b9e921b4b5ee4019522dbb","2025-07-09T09:41:05.518Z","","","","","","MotivationQ","","","","","","","","","","","","","","","","","","","","","","","","","","","","","","","","","","","","","","50"
"","","","","ctl-task-cpt","45","1606843","0.0-10.0-0.1","190","1","2025-07-09 09:15:09","7701e855f2ef39aa3fd6c71abdc6918a","41.13.114.44","Mozilla/5.0 (Windows NT 10.0; Win64; x64) AppleWebKit/537.36 (KHTML, like Gecko) Chrome/138.0.0.0 Safari/537.36","WebKit","Chrome","138.0.0.0","Windows","10.0","https://app.prolific.com/","en-US,en;q=0.9","67b9e921b4b5ee4019522dbb","686d226cabeef709c732f8e1","686e311356119378462f47da","67b9e921b4b5ee4019522dbb","2025-07-09T09:41:59.550Z","","","","","","","","","","","","","","","","win-only","3","g1:SW,g2:NE","0.9","2","0","1556380","26846","31851.6","50990.1","1","4","8","6","1","1","1","2","1","0.015151515151515152","1448.4","3000","2220","[""down"",""left""]","{""num_key_presses"":4,""num_perfect"":4,""num_errors"":0,""num_randdir"":0,""num_randdir_good_moves"":0,""num_whilered"":0,""num_whileblue"":0,""num_blue"":2,""num_good_moves"":4}","[294.22232142857143,295.12857142857143,1.7,294.22232142857143,295.12857142857143,111.4,294.22232142857143,295.12857142857143,213.4,294.22232142857143,295.12857142857143,323.3,294.22232142857143,295.12857142857143,451.1,294.22232142857143,295.12857142857143,551,286.22232142857143,295.12857142857143,683.7,172.22232142857143,374.12857142857143,787,70.22232142857143,473.12857142857143,899.9,31.222321428571426,501.12857142857143,1000.7,14.222321428571426,527.1285714285714,1100.8,20.222321428571426,532.1285714285714,1223.8,26.222321428571426,532.1285714285714,1347.9,26.222321428571426,532.1285714285714,1452.8,26.222321428571426,532.1285714285714,1568.4,26.222321428571426,532.1285714285714,1702.7,26.222321428571426,532.1285714285714,1866.9,26.222321428571426,532.1285714285714,2008.2,26.222321428571426,532.1285714285714,2109.9,26.222321428571426,532.1285714285714,2211.6,26.222321428571426,532.1285714285714,2327.6,26.222321428571426,532.1285714285714,2427.9,26.222321428571426,532.1285714285714,2528,26.222321428571426,532.1285714285714,2658.1,26.222321428571426,532.1285714285714,2797.3,26.222321428571426,532.1285714285714,2925.5,26.222321428571426,532.1285714285714,3056.2,26.222321428571426,532.1285714285714,3179.8,26.222321428571426,532.1285714285714,3296.9,26.222321428571426,532.1285714285714,3401.1,26.222321428571426,532.1285714285714,3501.2,26.222321428571426,532.1285714285714,3607.5,26.222321428571426,532.1285714285714,3736.2,26.222321428571426,532.1285714285714,3875.2,26.222321428571426,532.1285714285714,3984.5,26.222321428571426,532.1285714285714,4116.5,26.222321428571426,532.1285714285714,4216.5,26.222321428571426,532.1285714285714,4338.9,26.222321428571426,532.1285714285714,4476.4,26.222321428571426,532.1285714285714,4608.5,26.222321428571426,532.1285714285714,4737.5,26.222321428571426,532.1285714285714,4868.7,26.222321428571426,532.1285714285714,4998.9]","[1497.8,1497.8,1000,0,497.8,""smooth"",""down"",""down"",""good_move"",8763.4,7263.9,2763.2,5385.5,614.7,""smooth"",""down"",""down"",""good_move"",15448.1,6684,3124.6,11830.8,492.7,""smooth"",""left"",""left"",""good_move"",18944.1,3495.1,2829.8,15449.1,665.2,""smooth"",""left"",""left"",""good_move""]","",""
"7333","","<div style=""width:500px;"">
  <p>What determined the result of this run?</p>
  </div>","100","html-slider-response","46","1614178","0.0-10.0-1.1","190","1","2025-07-09 09:15:09","7701e855f2ef39aa3fd6c71abdc6918a","41.13.114.44","Mozilla/5.0 (Windows NT 10.0; Win64; x64) AppleWebKit/537.36 (KHTML, like Gecko) Chrome/138.0.0.0 Safari/537.36","WebKit","Chrome","138.0.0.0","Windows","10.0","https://app.prolific.com/","en-US,en;q=0.9","67b9e921b4b5ee4019522dbb","686d226cabeef709c732f8e1","686e311356119378462f47da","67b9e921b4b5ee4019522dbb","2025-07-09T09:42:06.886Z","","","","","","AttribQ","","","","","","","","","","","","","","","","","","","","","","","","","","","","","","","","","","","","","","50"
"10927","","<div style=""width:500px;"">
  <p>How much control did you have over the ball?</p>
  </div>","100","html-slider-response","47","1625107","0.0-10.0-2.1","190","1","2025-07-09 09:15:09","7701e855f2ef39aa3fd6c71abdc6918a","41.13.114.44","Mozilla/5.0 (Windows NT 10.0; Win64; x64) AppleWebKit/537.36 (KHTML, like Gecko) Chrome/138.0.0.0 Safari/537.36","WebKit","Chrome","138.0.0.0","Windows","10.0","https://app.prolific.com/","en-US,en;q=0.9","67b9e921b4b5ee4019522dbb","686d226cabeef709c732f8e1","686e311356119378462f47da","67b9e921b4b5ee4019522dbb","2025-07-09T09:42:17.815Z","","","","","","ControlQ","","","","","","","","","","","","","","","","","","","","","","","","","","","","","","","","","","","","","","50"
"10256","","<div style=""width:500px;"">
  <p>How would you describe your current emotional state?</p>
  </div>","0","html-slider-response","48","1635366","0.0-10.0-3.1","190","1","2025-07-09 09:15:09","7701e855f2ef39aa3fd6c71abdc6918a","41.13.114.44","Mozilla/5.0 (Windows NT 10.0; Win64; x64) AppleWebKit/537.36 (KHTML, like Gecko) Chrome/138.0.0.0 Safari/537.36","WebKit","Chrome","138.0.0.0","Windows","10.0","https://app.prolific.com/","en-US,en;q=0.9","67b9e921b4b5ee4019522dbb","686d226cabeef709c732f8e1","686e311356119378462f47da","67b9e921b4b5ee4019522dbb","2025-07-09T09:42:28.073Z","","","","","","StressQ","","","","","","","","","","","","","","","","","","","","","","","","","","","","","","","","","","","","","","50"
"11268","","<div style=""width:500px;"">
  <p>What best describes how you currently feel?</p>
  </div>","100","html-slider-response","49","1646637","0.0-10.0-4.1","190","1","2025-07-09 09:15:09","7701e855f2ef39aa3fd6c71abdc6918a","41.13.114.44","Mozilla/5.0 (Windows NT 10.0; Win64; x64) AppleWebKit/537.36 (KHTML, like Gecko) Chrome/138.0.0.0 Safari/537.36","WebKit","Chrome","138.0.0.0","Windows","10.0","https://app.prolific.com/","en-US,en;q=0.9","67b9e921b4b5ee4019522dbb","686d226cabeef709c732f8e1","686e311356119378462f47da","67b9e921b4b5ee4019522dbb","2025-07-09T09:42:39.344Z","","","","","","MotivationQ","","","","","","","","","","","","","","","","","","","","","","","","","","","","","","","","","","","","","","50"
"","","","","ctl-task-cpt","50","1696178","0.0-10.0-0.2","190","1","2025-07-09 09:15:09","7701e855f2ef39aa3fd6c71abdc6918a","41.13.114.44","Mozilla/5.0 (Windows NT 10.0; Win64; x64) AppleWebKit/537.36 (KHTML, like Gecko) Chrome/138.0.0.0 Safari/537.36","WebKit","Chrome","138.0.0.0","Windows","10.0","https://app.prolific.com/","en-US,en;q=0.9","67b9e921b4b5ee4019522dbb","686d226cabeef709c732f8e1","686e311356119378462f47da","67b9e921b4b5ee4019522dbb","2025-07-09T09:43:28.886Z","","","","","","","","","","","","","","","","win-only","0","g1:NW,g2:SE","0.8","3","0","1650205.9","22884","27904.2","46460.7","1","4","8","6","1","1","1","3","2","0.022727272727272728","1641.3","3000","1980","[""left"",""up""]","{""num_key_presses"":4,""num_perfect"":4,""num_errors"":0,""num_randdir"":0,""num_randdir_good_moves"":0,""num_whilered"":0,""num_whileblue"":0,""num_blue"":2,""num_good_moves"":4}","[293.22232142857143,299.12857142857143,0.9,293.22232142857143,299.12857142857143,141.5,293.22232142857143,299.12857142857143,249.1,293.22232142857143,299.12857142857143,379.3,293.22232142857143,299.12857142857143,504.2,293.22232142857143,299.12857142857143,608.1,293.22232142857143,299.12857142857143,734.5,255.22232142857143,248.12857142857143,849.7,145.22232142857143,93.12857142857143,976.1,121.22232142857143,76.12857142857143,1076.5,73.22232142857143,62.128571428571426,1203.9,48.222321428571426,60.128571428571426,1304.3,49.222321428571426,61.128571428571426,1407.9,49.222321428571426,61.128571428571426,1540.3,49.222321428571426,61.128571428571426,1650.5,49.222321428571426,61.128571428571426,1752.6,49.222321428571426,61.128571428571426,1855.2,49.222321428571426,61.128571428571426,1958.2,49.222321428571426,61.128571428571426,2064.3,49.222321428571426,61.128571428571426,2216.6,49.222321428571426,61.128571428571426,2317,49.222321428571426,61.128571428571426,2457.9,49.222321428571426,61.128571428571426,2585.9,49.222321428571426,61.128571428571426,2688.7,49.222321428571426,69.12857142857143,2818.6,68.22232142857143,140.12857142857143,2999.6,134.22232142857143,226.12857142857143,3105.5,185.22232142857143,247.12857142857143,3246.2,189.22232142857143,248.12857142857143,3375.7,189.22232142857143,248.12857142857143,3505.9,189.22232142857143,248.12857142857143,3606.5,104.22232142857143,247.12857142857143,3777,104.22232142857143,247.12857142857143,3879.6,104.22232142857143,247.12857142857143,3980.2,104.22232142857143,247.12857142857143,4084.2,104.22232142857143,247.12857142857143,4191.9,104.22232142857143,247.12857142857143,4327.6,104.22232142857143,247.12857142857143,4461,104.22232142857143,247.12857142857143,4562.3,104.22232142857143,247.12857142857143,4668.1,104.22232142857143,247.12857142857143,4773,104.22232142857143,247.12857142857143,4893.8]","[4928.2,4928.2,2429.7,2002.3,496.2,""smooth"",""left"",""left"",""good_move"",11494.1,6558.2,2985.3,7993.6,515.2,""smooth"",""up"",""up"",""good_move"",15125,3629.8,2667.6,11495.2,962.2,""smooth"",""left"",""left"",""good_move"",18316.4,3190.6,2556.1,15126,634.4,""smooth"",""up"",""up"",""good_move""]","",""
"7826","","<div style=""width:500px;"">
  <p>What determined the result of this run?</p>
  </div>","100","html-slider-response","51","1704007","0.0-10.0-1.2","190","1","2025-07-09 09:15:09","7701e855f2ef39aa3fd6c71abdc6918a","41.13.114.44","Mozilla/5.0 (Windows NT 10.0; Win64; x64) AppleWebKit/537.36 (KHTML, like Gecko) Chrome/138.0.0.0 Safari/537.36","WebKit","Chrome","138.0.0.0","Windows","10.0","https://app.prolific.com/","en-US,en;q=0.9","67b9e921b4b5ee4019522dbb","686d226cabeef709c732f8e1","686e311356119378462f47da","67b9e921b4b5ee4019522dbb","2025-07-09T09:43:36.715Z","","","","","","AttribQ","","","","","","","","","","","","","","","","","","","","","","","","","","","","","","","","","","","","","","50"
"9212","","<div style=""width:500px;"">
  <p>How much control did you have over the ball?</p>
  </div>","100","html-slider-response","52","1713222","0.0-10.0-2.2","190","1","2025-07-09 09:15:09","7701e855f2ef39aa3fd6c71abdc6918a","41.13.114.44","Mozilla/5.0 (Windows NT 10.0; Win64; x64) AppleWebKit/537.36 (KHTML, like Gecko) Chrome/138.0.0.0 Safari/537.36","WebKit","Chrome","138.0.0.0","Windows","10.0","https://app.prolific.com/","en-US,en;q=0.9","67b9e921b4b5ee4019522dbb","686d226cabeef709c732f8e1","686e311356119378462f47da","67b9e921b4b5ee4019522dbb","2025-07-09T09:43:45.929Z","","","","","","ControlQ","","","","","","","","","","","","","","","","","","","","","","","","","","","","","","","","","","","","","","50"
"10145","","<div style=""width:500px;"">
  <p>How would you describe your current emotional state?</p>
  </div>","0","html-slider-response","53","1723371","0.0-10.0-3.2","190","1","2025-07-09 09:15:09","7701e855f2ef39aa3fd6c71abdc6918a","41.13.114.44","Mozilla/5.0 (Windows NT 10.0; Win64; x64) AppleWebKit/537.36 (KHTML, like Gecko) Chrome/138.0.0.0 Safari/537.36","WebKit","Chrome","138.0.0.0","Windows","10.0","https://app.prolific.com/","en-US,en;q=0.9","67b9e921b4b5ee4019522dbb","686d226cabeef709c732f8e1","686e311356119378462f47da","67b9e921b4b5ee4019522dbb","2025-07-09T09:43:56.078Z","","","","","","StressQ","","","","","","","","","","","","","","","","","","","","","","","","","","","","","","","","","","","","","","50"
"8608","","<div style=""width:500px;"">
  <p>What best describes how you currently feel?</p>
  </div>","100","html-slider-response","54","1731983","0.0-10.0-4.2","190","1","2025-07-09 09:15:09","7701e855f2ef39aa3fd6c71abdc6918a","41.13.114.44","Mozilla/5.0 (Windows NT 10.0; Win64; x64) AppleWebKit/537.36 (KHTML, like Gecko) Chrome/138.0.0.0 Safari/537.36","WebKit","Chrome","138.0.0.0","Windows","10.0","https://app.prolific.com/","en-US,en;q=0.9","67b9e921b4b5ee4019522dbb","686d226cabeef709c732f8e1","686e311356119378462f47da","67b9e921b4b5ee4019522dbb","2025-07-09T09:44:04.690Z","","","","","","MotivationQ","","","","","","","","","","","","","","","","","","","","","","","","","","","","","","","","","","","","","","50"
"","","","","ctl-task-cpt","55","1774053","0.0-10.0-0.3","190","1","2025-07-09 09:15:09","7701e855f2ef39aa3fd6c71abdc6918a","41.13.114.44","Mozilla/5.0 (Windows NT 10.0; Win64; x64) AppleWebKit/537.36 (KHTML, like Gecko) Chrome/138.0.0.0 Safari/537.36","WebKit","Chrome","138.0.0.0","Windows","10.0","https://app.prolific.com/","en-US,en;q=0.9","67b9e921b4b5ee4019522dbb","686d226cabeef709c732f8e1","686e311356119378462f47da","67b9e921b4b5ee4019522dbb","2025-07-09T09:44:46.760Z","","","","","","","","","","","","","","","","win-only","3","g1:SW,g2:NE","0.7","4","0","1735552.1","22935.6","27978.6","39049.1","1","4","4","6","1","1","1","4","3","0.030303030303030304","1502.4","3000","2350","[""down"",""left""]","{""num_key_presses"":4,""num_perfect"":3,""num_errors"":0,""num_randdir"":1,""num_randdir_good_moves"":1,""num_whilered"":0,""num_whileblue"":0,""num_blue"":0,""num_good_moves"":4}","[294.22232142857143,298.12857142857143,1,294.22232142857143,298.12857142857143,132.2,294.22232142857143,298.12857142857143,263.6,294.22232142857143,298.12857142857143,365.5,294.22232142857143,298.12857142857143,466.4,294.22232142857143,298.12857142857143,597.3,294.22232142857143,298.12857142857143,701,263.22232142857143,319.12857142857143,808.5,125.22232142857143,435.12857142857143,931.6,60.222321428571426,483.12857142857143,1035.9,49.222321428571426,504.12857142857143,1153.8,50.222321428571426,508.12857142857143,1255.9,50.222321428571426,508.12857142857143,1357.1,50.222321428571426,508.12857142857143,1458.7,50.222321428571426,508.12857142857143,1584,50.222321428571426,508.12857142857143,1692.6,50.222321428571426,508.12857142857143,1795.1,50.222321428571426,508.12857142857143,1899.2,50.222321428571426,508.12857142857143,2005.8,50.222321428571426,508.12857142857143,2124.2,50.222321428571426,508.12857142857143,2226.3,50.222321428571426,508.12857142857143,2326.6,50.222321428571426,508.12857142857143,2432.2,50.222321428571426,508.12857142857143,2535.9,50.222321428571426,508.12857142857143,2644.7,50.222321428571426,508.12857142857143,2746.9,50.222321428571426,508.12857142857143,2848.4,50.222321428571426,508.12857142857143,2959.7,50.222321428571426,508.12857142857143,3111.2,50.222321428571426,508.12857142857143,3222.4,50.222321428571426,508.12857142857143,3363.5,50.222321428571426,508.12857142857143,3495.9,50.222321428571426,508.12857142857143,3596.6,50.222321428571426,508.12857142857143,3728.4,50.222321428571426,508.12857142857143,3831,50.222321428571426,508.12857142857143,3935.5,50.222321428571426,508.12857142857143,4044.8,50.222321428571426,508.12857142857143,4179.8,50.222321428571426,508.12857142857143,4286.6,50.222321428571426,508.12857142857143,4394.4,50.222321428571426,508.12857142857143,4502.5,50.222321428571426,508.12857142857143,4615.2,50.222321428571426,508.12857142857143,4744.2,50.222321428571426,508.12857142857143,4864.3,50.222321428571426,508.12857142857143,4972.1]","[1526.4,1526.4,1000,0,526.4,""smooth"",""down"",""down"",""good_move"",4326.1,2798.1,2136.4,1528,661.7,""smooth"",""left"",""left"",""good_move"",7900.3,3572.3,3126.3,4328,446,""smooth"",""left"",""left"",""good_move"",10763.6,2862.1,2435.9,7901.6,426.1,""oops"",""down"",""down"",""good_move""]","",""
"12563","","<div style=""width:500px;"">
  <p>What determined the result of this run?</p>
  </div>","99","html-slider-response","56","1786620","0.0-10.0-1.3","190","1","2025-07-09 09:15:09","7701e855f2ef39aa3fd6c71abdc6918a","41.13.114.44","Mozilla/5.0 (Windows NT 10.0; Win64; x64) AppleWebKit/537.36 (KHTML, like Gecko) Chrome/138.0.0.0 Safari/537.36","WebKit","Chrome","138.0.0.0","Windows","10.0","https://app.prolific.com/","en-US,en;q=0.9","67b9e921b4b5ee4019522dbb","686d226cabeef709c732f8e1","686e311356119378462f47da","67b9e921b4b5ee4019522dbb","2025-07-09T09:44:59.328Z","","","","","","AttribQ","","","","","","","","","","","","","","","","","","","","","","","","","","","","","","","","","","","","","","50"
"8023","","<div style=""width:500px;"">
  <p>How much control did you have over the ball?</p>
  </div>","100","html-slider-response","57","1794649","0.0-10.0-2.3","190","1","2025-07-09 09:15:09","7701e855f2ef39aa3fd6c71abdc6918a","41.13.114.44","Mozilla/5.0 (Windows NT 10.0; Win64; x64) AppleWebKit/537.36 (KHTML, like Gecko) Chrome/138.0.0.0 Safari/537.36","WebKit","Chrome","138.0.0.0","Windows","10.0","https://app.prolific.com/","en-US,en;q=0.9","67b9e921b4b5ee4019522dbb","686d226cabeef709c732f8e1","686e311356119378462f47da","67b9e921b4b5ee4019522dbb","2025-07-09T09:45:07.356Z","","","","","","ControlQ","","","","","","","","","","","","","","","","","","","","","","","","","","","","","","","","","","","","","","50"
"8412","","<div style=""width:500px;"">
  <p>How would you describe your current emotional state?</p>
  </div>","0","html-slider-response","58","1803065","0.0-10.0-3.3","190","1","2025-07-09 09:15:09","7701e855f2ef39aa3fd6c71abdc6918a","41.13.114.44","Mozilla/5.0 (Windows NT 10.0; Win64; x64) AppleWebKit/537.36 (KHTML, like Gecko) Chrome/138.0.0.0 Safari/537.36","WebKit","Chrome","138.0.0.0","Windows","10.0","https://app.prolific.com/","en-US,en;q=0.9","67b9e921b4b5ee4019522dbb","686d226cabeef709c732f8e1","686e311356119378462f47da","67b9e921b4b5ee4019522dbb","2025-07-09T09:45:15.772Z","","","","","","StressQ","","","","","","","","","","","","","","","","","","","","","","","","","","","","","","","","","","","","","","50"
"10951","","<div style=""width:500px;"">
  <p>What best describes how you currently feel?</p>
  </div>","100","html-slider-response","59","1814019","0.0-10.0-4.3","190","1","2025-07-09 09:15:09","7701e855f2ef39aa3fd6c71abdc6918a","41.13.114.44","Mozilla/5.0 (Windows NT 10.0; Win64; x64) AppleWebKit/537.36 (KHTML, like Gecko) Chrome/138.0.0.0 Safari/537.36","WebKit","Chrome","138.0.0.0","Windows","10.0","https://app.prolific.com/","en-US,en;q=0.9","67b9e921b4b5ee4019522dbb","686d226cabeef709c732f8e1","686e311356119378462f47da","67b9e921b4b5ee4019522dbb","2025-07-09T09:45:26.727Z","","","","","","MotivationQ","","","","","","","","","","","","","","","","","","","","","","","","","","","","","","","","","","","","","","50"
"","","","","ctl-task-cpt","60","1906733","0.0-10.0-0.4","190","1","2025-07-09 09:15:09","7701e855f2ef39aa3fd6c71abdc6918a","41.13.114.44","Mozilla/5.0 (Windows NT 10.0; Win64; x64) AppleWebKit/537.36 (KHTML, like Gecko) Chrome/138.0.0.0 Safari/537.36","WebKit","Chrome","138.0.0.0","Windows","10.0","https://app.prolific.com/","en-US,en;q=0.9","67b9e921b4b5ee4019522dbb","686d226cabeef709c732f8e1","686e311356119378462f47da","67b9e921b4b5ee4019522dbb","2025-07-09T09:46:59.440Z","","","","","","","","","","","","","","","","win-only","3","g1:SW,g2:NE","0.6","5","0","1817588.6","21803","26809.8","89650.7","1","4","4","6","1","1","1","5","4","0.03787878787878788","1380.7","3000","1025","[""down"",""left""]","{""num_key_presses"":10,""num_perfect"":6,""num_errors"":0,""num_randdir"":4,""num_randdir_good_moves"":1,""num_whilered"":0,""num_whileblue"":0,""num_blue"":8,""num_good_moves"":7}","[293.22232142857143,293.12857142857143,1.3,293.22232142857143,293.12857142857143,129.1,293.22232142857143,293.12857142857143,231.1,293.22232142857143,293.12857142857143,333.9,293.22232142857143,293.12857142857143,443.9,293.22232142857143,293.12857142857143,544.8,293.22232142857143,293.12857142857143,645.2,251.22232142857143,326.12857142857143,749.7,94.22232142857143,472.12857142857143,850.1,27.222321428571426,544.1285714285714,1022.7,27.222321428571426,544.1285714285714,1124.3,27.222321428571426,544.1285714285714,1241.1,27.222321428571426,544.1285714285714,1384.1,27.222321428571426,544.1285714285714,1488.1,27.222321428571426,544.1285714285714,1635.8,27.222321428571426,544.1285714285714,1738.9,27.222321428571426,544.1285714285714,1842.7,27.222321428571426,544.1285714285714,1943.1,27.222321428571426,544.1285714285714,2045.2,27.222321428571426,544.1285714285714,2227.5,27.222321428571426,544.1285714285714,2377.4,27.222321428571426,544.1285714285714,2480.2,27.222321428571426,544.1285714285714,2598.5,27.222321428571426,544.1285714285714,2711.1,27.222321428571426,544.1285714285714,2842.6,27.222321428571426,544.1285714285714,2945.5,27.222321428571426,544.1285714285714,3063.2,27.222321428571426,544.1285714285714,3190.6,27.222321428571426,544.1285714285714,3322.8,27.222321428571426,544.1285714285714,3474.5,27.222321428571426,544.1285714285714,3579.1,27.222321428571426,544.1285714285714,3738.9,27.222321428571426,544.1285714285714,3869.5,27.222321428571426,544.1285714285714,4000.4,27.222321428571426,544.1285714285714,4105.8,27.222321428571426,544.1285714285714,4244.7,27.222321428571426,544.1285714285714,4395.2,27.222321428571426,544.1285714285714,4540.3,27.222321428571426,544.1285714285714,4705.7,27.222321428571426,544.1285714285714,4848.8,27.222321428571426,544.1285714285714,4991.3]","[16580.7,16580.7,2660.2,13339.1,581.4,""oops"",""left"",""up"",""bad_move"",21232.6,4650.7,3749.5,16581.9,901.2,""oops"",""down"",""up"",""bad_move"",24761.5,3526.5,2586.5,21235,940,""smooth"",""left"",""left"",""good_move"",28132.2,3369.4,2710.3,24762.8,659.1,""smooth"",""down"",""down"",""good_move"",45770.2,17636.8,2880,42249.1,641.2,""oops"",""left"",""right"",""bad_move"",48806.2,3035,2170.5,45771.2,864.5,""smooth"",""left"",""left"",""good_move"",52515.3,3708,2982.8,48807.4,725.1,""smooth"",""left"",""left"",""good_move"",55671.9,3155.7,2008.5,52516.4,1147.1,""smooth"",""down"",""down"",""good_move"",59366.8,3693.6,3056.6,55673.3,636.9,""smooth"",""down"",""down"",""good_move"",62522.8,3149.8,2480.5,59373,669.3,""oops"",""down"",""down"",""good_move""]","",""
"11574","","<div style=""width:500px;"">
  <p>What determined the result of this run?</p>
  </div>","66","html-slider-response","61","1918309","0.0-10.0-1.4","190","1","2025-07-09 09:15:09","7701e855f2ef39aa3fd6c71abdc6918a","41.13.114.44","Mozilla/5.0 (Windows NT 10.0; Win64; x64) AppleWebKit/537.36 (KHTML, like Gecko) Chrome/138.0.0.0 Safari/537.36","WebKit","Chrome","138.0.0.0","Windows","10.0","https://app.prolific.com/","en-US,en;q=0.9","67b9e921b4b5ee4019522dbb","686d226cabeef709c732f8e1","686e311356119378462f47da","67b9e921b4b5ee4019522dbb","2025-07-09T09:47:11.017Z","","","","","","AttribQ","","","","","","","","","","","","","","","","","","","","","","","","","","","","","","","","","","","","","","50"
"12888","","<div style=""width:500px;"">
  <p>How much control did you have over the ball?</p>
  </div>","59","html-slider-response","62","1931201","0.0-10.0-2.4","190","1","2025-07-09 09:15:09","7701e855f2ef39aa3fd6c71abdc6918a","41.13.114.44","Mozilla/5.0 (Windows NT 10.0; Win64; x64) AppleWebKit/537.36 (KHTML, like Gecko) Chrome/138.0.0.0 Safari/537.36","WebKit","Chrome","138.0.0.0","Windows","10.0","https://app.prolific.com/","en-US,en;q=0.9","67b9e921b4b5ee4019522dbb","686d226cabeef709c732f8e1","686e311356119378462f47da","67b9e921b4b5ee4019522dbb","2025-07-09T09:47:23.908Z","","","","","","ControlQ","","","","","","","","","","","","","","","","","","","","","","","","","","","","","","","","","","","","","","50"
"8403","","<div style=""width:500px;"">
  <p>How would you describe your current emotional state?</p>
  </div>","32","html-slider-response","63","1939607","0.0-10.0-3.4","190","1","2025-07-09 09:15:09","7701e855f2ef39aa3fd6c71abdc6918a","41.13.114.44","Mozilla/5.0 (Windows NT 10.0; Win64; x64) AppleWebKit/537.36 (KHTML, like Gecko) Chrome/138.0.0.0 Safari/537.36","WebKit","Chrome","138.0.0.0","Windows","10.0","https://app.prolific.com/","en-US,en;q=0.9","67b9e921b4b5ee4019522dbb","686d226cabeef709c732f8e1","686e311356119378462f47da","67b9e921b4b5ee4019522dbb","2025-07-09T09:47:32.314Z","","","","","","StressQ","","","","","","","","","","","","","","","","","","","","","","","","","","","","","","","","","","","","","","50"
"22142","","<div style=""width:500px;"">
  <p>What best describes how you currently feel?</p>
  </div>","76","html-slider-response","64","1961753","0.0-10.0-4.4","190","1","2025-07-09 09:15:09","7701e855f2ef39aa3fd6c71abdc6918a","41.13.114.44","Mozilla/5.0 (Windows NT 10.0; Win64; x64) AppleWebKit/537.36 (KHTML, like Gecko) Chrome/138.0.0.0 Safari/537.36","WebKit","Chrome","138.0.0.0","Windows","10.0","https://app.prolific.com/","en-US,en;q=0.9","67b9e921b4b5ee4019522dbb","686d226cabeef709c732f8e1","686e311356119378462f47da","67b9e921b4b5ee4019522dbb","2025-07-09T09:47:54.460Z","","","","","","MotivationQ","","","","","","","","","","","","","","","","","","","","","","","","","","","","","","","","","","","","","","50"
"","","","","ctl-task-cpt","65","2028540","0.0-10.0-0.5","190","1","2025-07-09 09:15:09","7701e855f2ef39aa3fd6c71abdc6918a","41.13.114.44","Mozilla/5.0 (Windows NT 10.0; Win64; x64) AppleWebKit/537.36 (KHTML, like Gecko) Chrome/138.0.0.0 Safari/537.36","WebKit","Chrome","138.0.0.0","Windows","10.0","https://app.prolific.com/","en-US,en;q=0.9","67b9e921b4b5ee4019522dbb","686d226cabeef709c732f8e1","686e311356119378462f47da","67b9e921b4b5ee4019522dbb","2025-07-09T09:49:01.247Z","","","","","","","","","","","","","","","","win-only","0","g1:NW,g2:SE","0.5","6","0","1965322.8","20367.7","25386.2","63712.6","1","4","8","6","1","1","1","6","5","0.045454545454545456","2347.9","3000","1415","[""left"",""up""]","{""num_key_presses"":10,""num_perfect"":5,""num_errors"":0,""num_randdir"":5,""num_randdir_good_moves"":2,""num_whilered"":0,""num_whileblue"":0,""num_blue"":1,""num_good_moves"":7}","[296.22232142857143,296.12857142857143,2.1,296.22232142857143,296.12857142857143,225.5,296.22232142857143,296.12857142857143,386.8,296.22232142857143,296.12857142857143,489.9,296.22232142857143,296.12857142857143,646.1,296.22232142857143,296.12857142857143,772.8,296.22232142857143,296.12857142857143,877.1,296.22232142857143,296.12857142857143,1047.5,296.22232142857143,296.12857142857143,1148.7,298.22232142857143,298.12857142857143,1310.1,213.22232142857143,195.12857142857143,1453.2,161.22232142857143,158.12857142857143,1612.5,161.22232142857143,158.12857142857143,1746.4,144.22232142857143,125.12857142857143,1851.6,69.22232142857143,65.12857142857143,2084.7,69.22232142857143,64.12857142857143,2266.3,69.22232142857143,64.12857142857143,2366.9,69.22232142857143,64.12857142857143,2510.1,69.22232142857143,64.12857142857143,2645.7,69.22232142857143,64.12857142857143,2751.1,69.22232142857143,64.12857142857143,2872,69.22232142857143,64.12857142857143,2992.3,69.22232142857143,64.12857142857143,3098.6,69.22232142857143,64.12857142857143,3229,69.22232142857143,64.12857142857143,3331.6,69.22232142857143,64.12857142857143,3434.7,69.22232142857143,64.12857142857143,3571.1,69.22232142857143,64.12857142857143,3712.9,69.22232142857143,64.12857142857143,3816.4,69.22232142857143,64.12857142857143,3918.6,69.22232142857143,64.12857142857143,4027.4,69.22232142857143,64.12857142857143,4130.4,69.22232142857143,64.12857142857143,4241.5,69.22232142857143,64.12857142857143,4423.9,69.22232142857143,64.12857142857143,4545,69.22232142857143,64.12857142857143,4697.4,69.22232142857143,64.12857142857143,4853.1]","[2337.5,2337.5,1000,0,1337.5,""oops"",""up"",""up"",""good_move"",5858.3,3518.5,2354,2339.8,1164.5,""oops"",""left"",""down"",""bad_move"",8643,2783.5,2110.8,5859.5,672.7,""oops"",""left"",""down"",""bad_move"",15902.4,7258.4,3093,12255.6,553.8,""oops"",""up"",""up"",""good_move"",19879.1,3976,1884.4,15903.1,2091.6,""smooth"",""up"",""up"",""good_move"",23931.2,4050.2,3171.7,19881.1,878.5,""oops"",""up"",""right"",""bad_move"",27703.9,3771.1,3156.5,23932.8,614.6,""smooth"",""up"",""up"",""good_move"",30808.7,3103.8,2373.9,27704.9,729.9,""smooth"",""left"",""left"",""good_move"",34774.3,3964.2,2464.9,30810.1,1499.3,""smooth"",""left"",""left"",""good_move"",37914.7,3139.5,2414.7,34775.3,724.7,""smooth"",""left"",""left"",""good_move""]","",""
"9006","","<div style=""width:500px;"">
  <p>What determined the result of this run?</p>
  </div>","66","html-slider-response","66","2037549","0.0-10.0-1.5","190","1","2025-07-09 09:15:09","7701e855f2ef39aa3fd6c71abdc6918a","41.13.114.44","Mozilla/5.0 (Windows NT 10.0; Win64; x64) AppleWebKit/537.36 (KHTML, like Gecko) Chrome/138.0.0.0 Safari/537.36","WebKit","Chrome","138.0.0.0","Windows","10.0","https://app.prolific.com/","en-US,en;q=0.9","67b9e921b4b5ee4019522dbb","686d226cabeef709c732f8e1","686e311356119378462f47da","67b9e921b4b5ee4019522dbb","2025-07-09T09:49:10.257Z","","","","","","AttribQ","","","","","","","","","","","","","","","","","","","","","","","","","","","","","","","","","","","","","","50"
"10193","","<div style=""width:500px;"">
  <p>How much control did you have over the ball?</p>
  </div>","62","html-slider-response","67","2047746","0.0-10.0-2.5","190","1","2025-07-09 09:15:09","7701e855f2ef39aa3fd6c71abdc6918a","41.13.114.44","Mozilla/5.0 (Windows NT 10.0; Win64; x64) AppleWebKit/537.36 (KHTML, like Gecko) Chrome/138.0.0.0 Safari/537.36","WebKit","Chrome","138.0.0.0","Windows","10.0","https://app.prolific.com/","en-US,en;q=0.9","67b9e921b4b5ee4019522dbb","686d226cabeef709c732f8e1","686e311356119378462f47da","67b9e921b4b5ee4019522dbb","2025-07-09T09:49:20.453Z","","","","","","ControlQ","","","","","","","","","","","","","","","","","","","","","","","","","","","","","","","","","","","","","","50"
"11473","","<div style=""width:500px;"">
  <p>How would you describe your current emotional state?</p>
  </div>","2","html-slider-response","68","2059222","0.0-10.0-3.5","190","1","2025-07-09 09:15:09","7701e855f2ef39aa3fd6c71abdc6918a","41.13.114.44","Mozilla/5.0 (Windows NT 10.0; Win64; x64) AppleWebKit/537.36 (KHTML, like Gecko) Chrome/138.0.0.0 Safari/537.36","WebKit","Chrome","138.0.0.0","Windows","10.0","https://app.prolific.com/","en-US,en;q=0.9","67b9e921b4b5ee4019522dbb","686d226cabeef709c732f8e1","686e311356119378462f47da","67b9e921b4b5ee4019522dbb","2025-07-09T09:49:31.929Z","","","","","","StressQ","","","","","","","","","","","","","","","","","","","","","","","","","","","","","","","","","","","","","","50"
"9841","","<div style=""width:500px;"">
  <p>What best describes how you currently feel?</p>
  </div>","90","html-slider-response","69","2069067","0.0-10.0-4.5","190","1","2025-07-09 09:15:09","7701e855f2ef39aa3fd6c71abdc6918a","41.13.114.44","Mozilla/5.0 (Windows NT 10.0; Win64; x64) AppleWebKit/537.36 (KHTML, like Gecko) Chrome/138.0.0.0 Safari/537.36","WebKit","Chrome","138.0.0.0","Windows","10.0","https://app.prolific.com/","en-US,en;q=0.9","67b9e921b4b5ee4019522dbb","686d226cabeef709c732f8e1","686e311356119378462f47da","67b9e921b4b5ee4019522dbb","2025-07-09T09:49:41.774Z","","","","","","MotivationQ","","","","","","","","","","","","","","","","","","","","","","","","","","","","","","","","","","","","","","50"
"","","","","ctl-task-cpt","70","2169807","0.0-10.0-0.6","190","1","2025-07-09 09:15:09","7701e855f2ef39aa3fd6c71abdc6918a","41.13.114.44","Mozilla/5.0 (Windows NT 10.0; Win64; x64) AppleWebKit/537.36 (KHTML, like Gecko) Chrome/138.0.0.0 Safari/537.36","WebKit","Chrome","138.0.0.0","Windows","10.0","https://app.prolific.com/","en-US,en;q=0.9","67b9e921b4b5ee4019522dbb","686d226cabeef709c732f8e1","686e311356119378462f47da","67b9e921b4b5ee4019522dbb","2025-07-09T09:51:22.515Z","","","","","","","","","","","","","","","","win-only","0","g1:NW,g2:SE","0.4","7","0","2072636.6","19425.4","24434.6","97694.2","1","4","4","6","1","1","1","7","6","0.05303030303030303","1552.6","3000","1230","[""left"",""up""]","{""num_key_presses"":16,""num_perfect"":6,""num_errors"":0,""num_randdir"":10,""num_randdir_good_moves"":4,""num_whilered"":0,""num_whileblue"":0,""num_blue"":1,""num_good_moves"":10}","[297.22232142857143,296.12857142857143,1,297.22232142857143,296.12857142857143,187.9,297.22232142857143,296.12857142857143,315.4,297.22232142857143,296.12857142857143,444.7,297.22232142857143,296.12857142857143,620.3,285.22232142857143,280.12857142857143,769.2,193.22232142857143,167.12857142857143,872.4,86.22232142857143,83.12857142857143,1094.3,71.22232142857143,78.12857142857143,1196.4,65.22232142857143,75.12857142857143,1385.8,65.22232142857143,75.12857142857143,1515.5,65.22232142857143,75.12857142857143,1751.3,65.22232142857143,75.12857142857143,1972.1,65.22232142857143,75.12857142857143,2275.2,65.22232142857143,75.12857142857143,2391.3,65.22232142857143,75.12857142857143,2508.3,65.22232142857143,75.12857142857143,2613,65.22232142857143,75.12857142857143,2866.5,65.22232142857143,75.12857142857143,2969.3,65.22232142857143,75.12857142857143,3130.7,65.22232142857143,75.12857142857143,3232.3,65.22232142857143,75.12857142857143,3336.9,65.22232142857143,75.12857142857143,3516.6,65.22232142857143,75.12857142857143,3725.3,65.22232142857143,75.12857142857143,3827.4,65.22232142857143,75.12857142857143,4039.4,65.22232142857143,75.12857142857143,4140.6,65.22232142857143,75.12857142857143,4362.1,65.22232142857143,75.12857142857143,4466.6,65.22232142857143,75.12857142857143,4654,65.22232142857143,75.12857142857143,4940.8]","[1750.5,1750.5,1000,0,750.5,""smooth"",""up"",""up"",""good_move"",6040.7,4288.6,2807,1752.2,1481.5,""oops"",""left"",""down"",""bad_move"",9189.1,3146.9,2527.4,6042.2,619.5,""smooth"",""left"",""left"",""good_move"",13717.1,4526.8,2251,9190.3,2275.8,""oops"",""left"",""right"",""bad_move"",17295,3576.7,2346.6,13718.3,1230.1,""oops"",""up"",""right"",""bad_move"",21029.7,3733.8,3071.3,17296,662.5,""oops"",""up"",""right"",""bad_move"",24883,3852.3,2954,21030.8,898.3,""smooth"",""left"",""left"",""good_move"",29522.2,4638.2,2054.3,24884,2583.9,""oops"",""left"",""up"",""good_move"",33444.5,3921.1,2783.2,29523.4,1137.9,""smooth"",""left"",""left"",""good_move"",38184.4,4738.5,2905.6,33446,1832.8,""oops"",""left"",""right"",""bad_move"",44497.2,6311.9,2879.9,41095.5,521.9,""oops"",""left"",""right"",""bad_move"",48508.4,4006.6,3105.6,44501.8,901,""oops"",""up"",""left"",""good_move"",54284.2,5774.8,2879.8,48509.5,2895,""oops"",""up"",""up"",""good_move"",60236.6,5951.6,2520.2,54285,3431.4,""oops"",""left"",""left"",""good_move"",66502.1,6264.7,1897.8,60237.4,4366.9,""smooth"",""left"",""left"",""good_move"",72680,6177.2,1889.1,66504.8,4286.1,""smooth"",""left"",""left"",""good_move""]","",""
"9679","","<div style=""width:500px;"">
  <p>What determined the result of this run?</p>
  </div>","95","html-slider-response","71","2179492","0.0-10.0-1.6","190","1","2025-07-09 09:15:09","7701e855f2ef39aa3fd6c71abdc6918a","41.13.114.44","Mozilla/5.0 (Windows NT 10.0; Win64; x64) AppleWebKit/537.36 (KHTML, like Gecko) Chrome/138.0.0.0 Safari/537.36","WebKit","Chrome","138.0.0.0","Windows","10.0","https://app.prolific.com/","en-US,en;q=0.9","67b9e921b4b5ee4019522dbb","686d226cabeef709c732f8e1","686e311356119378462f47da","67b9e921b4b5ee4019522dbb","2025-07-09T09:51:32.199Z","","","","","","AttribQ","","","","","","","","","","","","","","","","","","","","","","","","","","","","","","","","","","","","","","50"
"7387","","<div style=""width:500px;"">
  <p>How much control did you have over the ball?</p>
  </div>","73","html-slider-response","72","2186885","0.0-10.0-2.6","190","1","2025-07-09 09:15:09","7701e855f2ef39aa3fd6c71abdc6918a","41.13.114.44","Mozilla/5.0 (Windows NT 10.0; Win64; x64) AppleWebKit/537.36 (KHTML, like Gecko) Chrome/138.0.0.0 Safari/537.36","WebKit","Chrome","138.0.0.0","Windows","10.0","https://app.prolific.com/","en-US,en;q=0.9","67b9e921b4b5ee4019522dbb","686d226cabeef709c732f8e1","686e311356119378462f47da","67b9e921b4b5ee4019522dbb","2025-07-09T09:51:39.593Z","","","","","","ControlQ","","","","","","","","","","","","","","","","","","","","","","","","","","","","","","","","","","","","","","50"
"6315","","<div style=""width:500px;"">
  <p>How would you describe your current emotional state?</p>
  </div>","0","html-slider-response","73","2193209","0.0-10.0-3.6","190","1","2025-07-09 09:15:09","7701e855f2ef39aa3fd6c71abdc6918a","41.13.114.44","Mozilla/5.0 (Windows NT 10.0; Win64; x64) AppleWebKit/537.36 (KHTML, like Gecko) Chrome/138.0.0.0 Safari/537.36","WebKit","Chrome","138.0.0.0","Windows","10.0","https://app.prolific.com/","en-US,en;q=0.9","67b9e921b4b5ee4019522dbb","686d226cabeef709c732f8e1","686e311356119378462f47da","67b9e921b4b5ee4019522dbb","2025-07-09T09:51:45.916Z","","","","","","StressQ","","","","","","","","","","","","","","","","","","","","","","","","","","","","","","","","","","","","","","50"
"5646","","<div style=""width:500px;"">
  <p>What best describes how you currently feel?</p>
  </div>","100","html-slider-response","74","2198864","0.0-10.0-4.6","190","1","2025-07-09 09:15:09","7701e855f2ef39aa3fd6c71abdc6918a","41.13.114.44","Mozilla/5.0 (Windows NT 10.0; Win64; x64) AppleWebKit/537.36 (KHTML, like Gecko) Chrome/138.0.0.0 Safari/537.36","WebKit","Chrome","138.0.0.0","Windows","10.0","https://app.prolific.com/","en-US,en;q=0.9","67b9e921b4b5ee4019522dbb","686d226cabeef709c732f8e1","686e311356119378462f47da","67b9e921b4b5ee4019522dbb","2025-07-09T09:51:51.571Z","","","","","","MotivationQ","","","","","","","","","","","","","","","","","","","","","","","","","","","","","","","","","","","","","","50"
"","","","","ctl-task-cpt","75","2303392","0.0-10.0-0.7","190","1","2025-07-09 09:15:09","7701e855f2ef39aa3fd6c71abdc6918a","41.13.114.44","Mozilla/5.0 (Windows NT 10.0; Win64; x64) AppleWebKit/537.36 (KHTML, like Gecko) Chrome/138.0.0.0 Safari/537.36","WebKit","Chrome","138.0.0.0","Windows","10.0","https://app.prolific.com/","en-US,en;q=0.9","67b9e921b4b5ee4019522dbb","686d226cabeef709c732f8e1","686e311356119378462f47da","67b9e921b4b5ee4019522dbb","2025-07-09T09:53:36.099Z","","","","","","","","","","","","","","","","win-only","2","g1:SE,g2:NW","0.3","8","0","2202436.4","11708.2","16765.7","101421.5","1","4","8","6","1","1","1","8","7","0.06060606060606061","1481.1","3000","1140","[""down"",""right""]","{""num_key_presses"":16,""num_perfect"":6,""num_errors"":0,""num_randdir"":10,""num_randdir_good_moves"":5,""num_whilered"":0,""num_whileblue"":0,""num_blue"":5,""num_good_moves"":10}","[298.22232142857143,294.12857142857143,1,298.22232142857143,294.12857142857143,133.3,298.22232142857143,294.12857142857143,254.3,298.22232142857143,294.12857142857143,371.4,298.22232142857143,294.12857142857143,490.9,298.22232142857143,294.12857142857143,615.3,360.22232142857143,388.12857142857143,749.5,485.22232142857143,463.12857142857143,892.8,515.2223214285714,485.12857142857143,1026.8,540.2223214285714,517.1285714285714,1168.3,542.2223214285714,523.1285714285714,1295.2,542.2223214285714,523.1285714285714,1414.9,542.2223214285714,523.1285714285714,1545.7,542.2223214285714,523.1285714285714,1665,542.2223214285714,523.1285714285714,1786.2,542.2223214285714,523.1285714285714,1906.2,542.2223214285714,523.1285714285714,2022.1,542.2223214285714,523.1285714285714,2146.8,542.2223214285714,523.1285714285714,2263,542.2223214285714,523.1285714285714,2383.5,542.2223214285714,523.1285714285714,2499.6,542.2223214285714,523.1285714285714,2618.1,542.2223214285714,523.1285714285714,2734.4,542.2223214285714,523.1285714285714,2853.8,542.2223214285714,523.1285714285714,2970,542.2223214285714,523.1285714285714,3093.1,542.2223214285714,523.1285714285714,3213.4,542.2223214285714,523.1285714285714,3333.2,542.2223214285714,523.1285714285714,3452,542.2223214285714,523.1285714285714,3573.5,542.2223214285714,523.1285714285714,3692.5,542.2223214285714,523.1285714285714,3811.8,542.2223214285714,523.1285714285714,3929.3,542.2223214285714,523.1285714285714,4048.9,542.2223214285714,523.1285714285714,4206.5,542.2223214285714,523.1285714285714,4335.9,542.2223214285714,523.1285714285714,4457.2,542.2223214285714,523.1285714285714,4576.8,542.2223214285714,523.1285714285714,4698,542.2223214285714,523.1285714285714,4815.4,542.2223214285714,523.1285714285714,4937.2]","[5070.7,5070.7,2418,2059.2,593.5,""smooth"",""down"",""down"",""good_move"",10556,5484.1,1893.2,5071.9,3590.9,""oops"",""down"",""down"",""good_move"",13865.3,3307.9,2365.9,10557.4,942,""oops"",""right"",""left"",""bad_move"",18983.3,5114.7,2353.5,13868.6,2761.2,""oops"",""right"",""left"",""bad_move"",26881.5,7896.8,2552.1,23479,850.4,""smooth"",""up"",""up"",""bad_move"",31353.9,4471.3,2257.1,26882.7,2214.2,""oops"",""right"",""left"",""bad_move"",37104.2,5749,2986.7,31355.3,2762.2,""smooth"",""right"",""right"",""good_move"",40632,3526.7,2384.8,37105.3,1141.9,""oops"",""right"",""up"",""bad_move"",47221.4,6584.5,3118.6,40636.9,3465.9,""oops"",""down"",""left"",""bad_move"",57546.1,10310.9,2546.7,54383.7,615.7,""oops"",""down"",""right"",""good_move"",60597.1,3050.2,2079.9,57546.9,970.3,""smooth"",""down"",""down"",""good_move"",67608.1,7009.7,2837.3,64248.9,522,""smooth"",""right"",""right"",""good_move"",73041.6,5432.6,1593.3,70882,566.3,""smooth"",""right"",""right"",""good_move"",77439.1,4396.6,3660.1,73042.5,736.5,""oops"",""right"",""down"",""good_move"",81041.7,3601.3,2336.1,77440.4,1265.2,""oops"",""right"",""right"",""good_move"",84063.5,3020.5,1969.6,81043.3,1050.7,""oops"",""right"",""right"",""good_move""]","",""
"9891","","<div style=""width:500px;"">
  <p>What determined the result of this run?</p>
  </div>","96","html-slider-response","76","2313286","0.0-10.0-1.7","190","1","2025-07-09 09:15:09","7701e855f2ef39aa3fd6c71abdc6918a","41.13.114.44","Mozilla/5.0 (Windows NT 10.0; Win64; x64) AppleWebKit/537.36 (KHTML, like Gecko) Chrome/138.0.0.0 Safari/537.36","WebKit","Chrome","138.0.0.0","Windows","10.0","https://app.prolific.com/","en-US,en;q=0.9","67b9e921b4b5ee4019522dbb","686d226cabeef709c732f8e1","686e311356119378462f47da","67b9e921b4b5ee4019522dbb","2025-07-09T09:53:45.993Z","","","","","","AttribQ","","","","","","","","","","","","","","","","","","","","","","","","","","","","","","","","","","","","","","50"
"10456","","<div style=""width:500px;"">
  <p>How much control did you have over the ball?</p>
  </div>","57","html-slider-response","77","2323747","0.0-10.0-2.7","190","1","2025-07-09 09:15:09","7701e855f2ef39aa3fd6c71abdc6918a","41.13.114.44","Mozilla/5.0 (Windows NT 10.0; Win64; x64) AppleWebKit/537.36 (KHTML, like Gecko) Chrome/138.0.0.0 Safari/537.36","WebKit","Chrome","138.0.0.0","Windows","10.0","https://app.prolific.com/","en-US,en;q=0.9","67b9e921b4b5ee4019522dbb","686d226cabeef709c732f8e1","686e311356119378462f47da","67b9e921b4b5ee4019522dbb","2025-07-09T09:53:56.454Z","","","","","","ControlQ","","","","","","","","","","","","","","","","","","","","","","","","","","","","","","","","","","","","","","50"
"10198","","<div style=""width:500px;"">
  <p>How would you describe your current emotional state?</p>
  </div>","0","html-slider-response","78","2333951","0.0-10.0-3.7","190","1","2025-07-09 09:15:09","7701e855f2ef39aa3fd6c71abdc6918a","41.13.114.44","Mozilla/5.0 (Windows NT 10.0; Win64; x64) AppleWebKit/537.36 (KHTML, like Gecko) Chrome/138.0.0.0 Safari/537.36","WebKit","Chrome","138.0.0.0","Windows","10.0","https://app.prolific.com/","en-US,en;q=0.9","67b9e921b4b5ee4019522dbb","686d226cabeef709c732f8e1","686e311356119378462f47da","67b9e921b4b5ee4019522dbb","2025-07-09T09:54:06.658Z","","","","","","StressQ","","","","","","","","","","","","","","","","","","","","","","","","","","","","","","","","","","","","","","50"
"9868","","<div style=""width:500px;"">
  <p>What best describes how you currently feel?</p>
  </div>","92","html-slider-response","79","2343824","0.0-10.0-4.7","190","1","2025-07-09 09:15:09","7701e855f2ef39aa3fd6c71abdc6918a","41.13.114.44","Mozilla/5.0 (Windows NT 10.0; Win64; x64) AppleWebKit/537.36 (KHTML, like Gecko) Chrome/138.0.0.0 Safari/537.36","WebKit","Chrome","138.0.0.0","Windows","10.0","https://app.prolific.com/","en-US,en;q=0.9","67b9e921b4b5ee4019522dbb","686d226cabeef709c732f8e1","686e311356119378462f47da","67b9e921b4b5ee4019522dbb","2025-07-09T09:54:16.531Z","","","","","","MotivationQ","","","","","","","","","","","","","","","","","","","","","","","","","","","","","","","","","","","","","","50"
"","","","","ctl-task-cpt","80","2424163","0.0-10.0-0.8","190","1","2025-07-09 09:15:09","7701e855f2ef39aa3fd6c71abdc6918a","41.13.114.44","Mozilla/5.0 (Windows NT 10.0; Win64; x64) AppleWebKit/537.36 (KHTML, like Gecko) Chrome/138.0.0.0 Safari/537.36","WebKit","Chrome","138.0.0.0","Windows","10.0","https://app.prolific.com/","en-US,en;q=0.9","67b9e921b4b5ee4019522dbb","686d226cabeef709c732f8e1","686e311356119378462f47da","67b9e921b4b5ee4019522dbb","2025-07-09T09:55:36.870Z","","","","","","","","","","","","","","","","win-only","0","g1:NW,g2:SE","0.2","9","0","2347394.2","15534.8","20536.8","77294.8","1","4","4","6","1","1","1","9","8","0.06818181818181818","1935.4","3000","1795","[""left"",""up""]","{""num_key_presses"":10,""num_perfect"":2,""num_errors"":0,""num_randdir"":8,""num_randdir_good_moves"":5,""num_whilered"":0,""num_whileblue"":0,""num_blue"":2,""num_good_moves"":7}","[294.22232142857143,295.12857142857143,0.9,294.22232142857143,295.12857142857143,283.4,294.22232142857143,295.12857142857143,393,294.22232142857143,295.12857142857143,500,294.22232142857143,295.12857142857143,617,294.22232142857143,295.12857142857143,863.4,294.22232142857143,295.12857142857143,971.3,294.22232142857143,295.12857142857143,1177,203.22232142857143,208.12857142857143,1300.9,69.22232142857143,72.12857142857143,1423.9,42.222321428571426,50.128571428571426,1527.5,29.222321428571426,40.128571428571426,1647.9,28.222321428571426,40.128571428571426,1963.2,28.222321428571426,40.128571428571426,2065.7,28.222321428571426,40.128571428571426,2183.3,28.222321428571426,40.128571428571426,2501.3,28.222321428571426,40.128571428571426,2604.3,28.222321428571426,40.128571428571426,2912.8,28.222321428571426,40.128571428571426,3020.2,28.222321428571426,40.128571428571426,3339.6,28.222321428571426,40.128571428571426,3455.5,28.222321428571426,40.128571428571426,3775.4,28.222321428571426,40.128571428571426,3892.9,28.222321428571426,40.128571428571426,3999.4,28.222321428571426,40.128571428571426,4324.1,28.222321428571426,40.128571428571426,4430.4,28.222321428571426,40.128571428571426,4543.1,28.222321428571426,40.128571428571426,4658.1,28.222321428571426,40.128571428571426,4875.5,28.222321428571426,40.128571428571426,4981.7]","[1699.3,1699.3,1000,0,699.3,""oops"",""left"",""up"",""good_move"",7734.3,6033.6,2756.7,1700.7,3276.9,""oops"",""left"",""left"",""good_move"",18535.3,10800,2549.5,15335.3,650.5,""oops"",""left"",""left"",""good_move"",23974.2,5438.1,2248.3,18536.1,3189.8,""oops"",""up"",""down"",""bad_move"",29596.2,5620.9,1479.6,27456.5,660.1,""oops"",""up"",""up"",""good_move"",36604.4,7007.1,2117.7,29597.3,4889.4,""oops"",""right"",""right"",""bad_move"",40559.8,3954.2,1914.1,36605.6,2040.1,""oops"",""up"",""left"",""good_move"",47721.4,7160.5,2495.6,40561,4664.8,""oops"",""up"",""down"",""bad_move"",50455.5,2733.3,1537,47722.2,1196.4,""smooth"",""up"",""up"",""good_move"",56330.6,5873.6,2518.7,50457,3354.9,""smooth"",""up"",""up"",""good_move""]","",""
"5968","","<div style=""width:500px;"">
  <p>What determined the result of this run?</p>
  </div>","95","html-slider-response","81","2430137","0.0-10.0-1.8","190","1","2025-07-09 09:15:09","7701e855f2ef39aa3fd6c71abdc6918a","41.13.114.44","Mozilla/5.0 (Windows NT 10.0; Win64; x64) AppleWebKit/537.36 (KHTML, like Gecko) Chrome/138.0.0.0 Safari/537.36","WebKit","Chrome","138.0.0.0","Windows","10.0","https://app.prolific.com/","en-US,en;q=0.9","67b9e921b4b5ee4019522dbb","686d226cabeef709c732f8e1","686e311356119378462f47da","67b9e921b4b5ee4019522dbb","2025-07-09T09:55:42.844Z","","","","","","AttribQ","","","","","","","","","","","","","","","","","","","","","","","","","","","","","","","","","","","","","","50"
"4346","","<div style=""width:500px;"">
  <p>How much control did you have over the ball?</p>
  </div>","58","html-slider-response","82","2434488","0.0-10.0-2.8","190","1","2025-07-09 09:15:09","7701e855f2ef39aa3fd6c71abdc6918a","41.13.114.44","Mozilla/5.0 (Windows NT 10.0; Win64; x64) AppleWebKit/537.36 (KHTML, like Gecko) Chrome/138.0.0.0 Safari/537.36","WebKit","Chrome","138.0.0.0","Windows","10.0","https://app.prolific.com/","en-US,en;q=0.9","67b9e921b4b5ee4019522dbb","686d226cabeef709c732f8e1","686e311356119378462f47da","67b9e921b4b5ee4019522dbb","2025-07-09T09:55:47.196Z","","","","","","ControlQ","","","","","","","","","","","","","","","","","","","","","","","","","","","","","","","","","","","","","","50"
"7358","","<div style=""width:500px;"">
  <p>How would you describe your current emotional state?</p>
  </div>","0","html-slider-response","83","2441851","0.0-10.0-3.8","190","1","2025-07-09 09:15:09","7701e855f2ef39aa3fd6c71abdc6918a","41.13.114.44","Mozilla/5.0 (Windows NT 10.0; Win64; x64) AppleWebKit/537.36 (KHTML, like Gecko) Chrome/138.0.0.0 Safari/537.36","WebKit","Chrome","138.0.0.0","Windows","10.0","https://app.prolific.com/","en-US,en;q=0.9","67b9e921b4b5ee4019522dbb","686d226cabeef709c732f8e1","686e311356119378462f47da","67b9e921b4b5ee4019522dbb","2025-07-09T09:55:54.559Z","","","","","","StressQ","","","","","","","","","","","","","","","","","","","","","","","","","","","","","","","","","","","","","","50"
"5298","","<div style=""width:500px;"">
  <p>What best describes how you currently feel?</p>
  </div>","98","html-slider-response","84","2447155","0.0-10.0-4.8","190","1","2025-07-09 09:15:09","7701e855f2ef39aa3fd6c71abdc6918a","41.13.114.44","Mozilla/5.0 (Windows NT 10.0; Win64; x64) AppleWebKit/537.36 (KHTML, like Gecko) Chrome/138.0.0.0 Safari/537.36","WebKit","Chrome","138.0.0.0","Windows","10.0","https://app.prolific.com/","en-US,en;q=0.9","67b9e921b4b5ee4019522dbb","686d226cabeef709c732f8e1","686e311356119378462f47da","67b9e921b4b5ee4019522dbb","2025-07-09T09:55:59.862Z","","","","","","MotivationQ","","","","","","","","","","","","","","","","","","","","","","","","","","","","","","","","","","","","","","50"
"","","","","ctl-task-cpt","85","2491249","0.0-10.0-0.9","190","1","2025-07-09 09:15:09","7701e855f2ef39aa3fd6c71abdc6918a","41.13.114.44","Mozilla/5.0 (Windows NT 10.0; Win64; x64) AppleWebKit/537.36 (KHTML, like Gecko) Chrome/138.0.0.0 Safari/537.36","WebKit","Chrome","138.0.0.0","Windows","10.0","https://app.prolific.com/","en-US,en;q=0.9","67b9e921b4b5ee4019522dbb","686d226cabeef709c732f8e1","686e311356119378462f47da","67b9e921b4b5ee4019522dbb","2025-07-09T09:56:43.956Z","","","","","","","","","","","","","","","","win-only","3","g1:SW,g2:NE","0.4","10","0","2450725.7","2993","8021.7","40767.3","1","4","8","6","1","1","1","10","9","0.07575757575757576","1691.7","3000","2295","[""down"",""left""]","{""num_key_presses"":6,""num_perfect"":2,""num_errors"":0,""num_randdir"":4,""num_randdir_good_moves"":3,""num_whilered"":0,""num_whileblue"":0,""num_blue"":1,""num_good_moves"":5}","[299.22232142857143,294.12857142857143,1.2,299.22232142857143,294.12857142857143,122.5,299.22232142857143,294.12857142857143,251.1,299.22232142857143,294.12857142857143,354.8,299.22232142857143,294.12857142857143,530.2,299.22232142857143,294.12857142857143,672.5,299.22232142857143,294.12857142857143,813.9,244.22232142857143,324.12857142857143,963.1,103.22232142857143,448.12857142857143,1072.5,75.22232142857143,484.12857142857143,1174.3,73.22232142857143,492.12857142857143,1277.7,73.22232142857143,500.12857142857143,1383.4,67.22232142857143,512.1285714285714,1528.2,67.22232142857143,512.1285714285714,1667.9,67.22232142857143,512.1285714285714,1771.1,67.22232142857143,512.1285714285714,1912.8,67.22232142857143,512.1285714285714,2048.9,67.22232142857143,512.1285714285714,2184.6,67.22232142857143,512.1285714285714,2323.1,67.22232142857143,512.1285714285714,2455.9,67.22232142857143,512.1285714285714,2593.4,67.22232142857143,512.1285714285714,2726.9,67.22232142857143,512.1285714285714,2861.6,67.22232142857143,512.1285714285714,2992.9,67.22232142857143,512.1285714285714,3127.9,67.22232142857143,512.1285714285714,3266.2,67.22232142857143,512.1285714285714,3401.8,67.22232142857143,512.1285714285714,3537.9,67.22232142857143,512.1285714285714,3670,67.22232142857143,512.1285714285714,3809.3,67.22232142857143,512.1285714285714,3943.7,67.22232142857143,512.1285714285714,4079.6,67.22232142857143,512.1285714285714,4226,67.22232142857143,512.1285714285714,4328.9,67.22232142857143,512.1285714285714,4464.4,67.22232142857143,512.1285714285714,4598.8,67.22232142857143,512.1285714285714,4737.5,67.22232142857143,512.1285714285714,4876.3]","[5106.1,5106.1,2327.8,2057.2,721.1,""oops"",""down"",""up"",""bad_move"",14166.3,9058.7,1665.1,5107.6,7393.6,""oops"",""left"",""down"",""good_move"",17388.5,3220.9,2268.6,14167.6,952.3,""smooth"",""left"",""left"",""good_move"",23532.2,6142.5,2236.9,17389.7,3905.6,""oops"",""down"",""left"",""good_move"",28959.3,5426.4,2897.8,23532.9,2528.6,""smooth"",""down"",""down"",""good_move"",32285.3,3325,2518.5,28960.3,806.5,""oops"",""down"",""down"",""good_move""]","",""
"4866","","<div style=""width:500px;"">
  <p>What determined the result of this run?</p>
  </div>","99","html-slider-response","86","2496119","0.0-10.0-1.9","190","1","2025-07-09 09:15:09","7701e855f2ef39aa3fd6c71abdc6918a","41.13.114.44","Mozilla/5.0 (Windows NT 10.0; Win64; x64) AppleWebKit/537.36 (KHTML, like Gecko) Chrome/138.0.0.0 Safari/537.36","WebKit","Chrome","138.0.0.0","Windows","10.0","https://app.prolific.com/","en-US,en;q=0.9","67b9e921b4b5ee4019522dbb","686d226cabeef709c732f8e1","686e311356119378462f47da","67b9e921b4b5ee4019522dbb","2025-07-09T09:56:48.826Z","","","","","","AttribQ","","","","","","","","","","","","","","","","","","","","","","","","","","","","","","","","","","","","","","50"
"10723","","<div style=""width:500px;"">
  <p>How much control did you have over the ball?</p>
  </div>","88","html-slider-response","87","2506846","0.0-10.0-2.9","190","1","2025-07-09 09:15:09","7701e855f2ef39aa3fd6c71abdc6918a","41.13.114.44","Mozilla/5.0 (Windows NT 10.0; Win64; x64) AppleWebKit/537.36 (KHTML, like Gecko) Chrome/138.0.0.0 Safari/537.36","WebKit","Chrome","138.0.0.0","Windows","10.0","https://app.prolific.com/","en-US,en;q=0.9","67b9e921b4b5ee4019522dbb","686d226cabeef709c732f8e1","686e311356119378462f47da","67b9e921b4b5ee4019522dbb","2025-07-09T09:56:59.553Z","","","","","","ControlQ","","","","","","","","","","","","","","","","","","","","","","","","","","","","","","","","","","","","","","50"
"11302","","<div style=""width:500px;"">
  <p>How would you describe your current emotional state?</p>
  </div>","0","html-slider-response","88","2518153","0.0-10.0-3.9","190","1","2025-07-09 09:15:09","7701e855f2ef39aa3fd6c71abdc6918a","41.13.114.44","Mozilla/5.0 (Windows NT 10.0; Win64; x64) AppleWebKit/537.36 (KHTML, like Gecko) Chrome/138.0.0.0 Safari/537.36","WebKit","Chrome","138.0.0.0","Windows","10.0","https://app.prolific.com/","en-US,en;q=0.9","67b9e921b4b5ee4019522dbb","686d226cabeef709c732f8e1","686e311356119378462f47da","67b9e921b4b5ee4019522dbb","2025-07-09T09:57:10.860Z","","","","","","StressQ","","","","","","","","","","","","","","","","","","","","","","","","","","","","","","","","","","","","","","50"
"9866","","<div style=""width:500px;"">
  <p>What best describes how you currently feel?</p>
