"rt","response_timestamp","stimulus","response","trial_type","trial_index","time_elapsed","internal_node_id","run_id","condition","recorded_at","source_code_version","ip","user_agent","device","browser","browser_version","platform","platform_version","referer","accept_language","PROLIFIC_PID","STUDY_ID","SESSION_ID","prolific_id","realtime","view_history","question_order","consent","success","question_id","eventType","responses","item_order","radio_event_ids","radio_event_times","key_event_times","mouse_event_times","straightlining","zigzagging","honeypot","which_type","canvas_config","goals_layout","control_level","trial_number","tutorial_trial_number","trial_start_time","phase1_start_time","phase2_start_time","phase3_start_time","goal_1_value","goal_1_distance","goal_2_value","goal_2_distance","goal_selected","outcome","outcome_total","participant_final_score","participant_initial_score","participant_final_score_prop","goal_choice_rt","allocated_time","allocated_time_remaining","goal_direction","counts","mouse_movements","key_presses","correct","slider_start","sub_question"
"8884","1752052302190","<p style='font-size:40px;line-height:1.25'><strong>Welcome to the experiment!</strong></p><p style='font-size:1.1em;line-height:1.25'>Thank you for your interest in our experiment! Before you begin, it is important that we obtain your informed consent to participate in the study.</p><p style='font-size:1.1em;line-height:1.25'>On the next screen will be an <strong>information sheet</strong> for you to read. To participate in the study we need you to read this information sheet and the following consent form carefully. If you agree with all the statements, please click the <strong>I agree</strong> button.</p><p style='font-size:1.1em;line-height:1.25'>Press <strong>Next</strong> to read the information sheet.</p>","0","custom-html-button-response","0","8889","0.0-0.0","164","1","2025-07-09 09:11:26","7701e855f2ef39aa3fd6c71abdc6918a","154.152.194.96","Mozilla/5.0 (Windows NT 10.0; Win64; x64) AppleWebKit/537.36 (KHTML, like Gecko) Chrome/137.0.0.0 Safari/537.36","WebKit","Chrome","137.0.0.0","Windows","10.0","https://app.prolific.com/","en-US,en;q=0.9","664c9a37d570871d534dd3c2","686d226cabeef709c732f8e1","686e311e5a02ab40e526ca69","664c9a37d570871d534dd3c2","2025-07-09T09:11:42.194Z","","","","","","","","","","","","","","","","","","","","","","","","","","","","","","","","","","","","","","","","","","","","",""
"12280","","","","instructions","1","21173","0.0-1.0","164","1","2025-07-09 09:11:26","7701e855f2ef39aa3fd6c71abdc6918a","154.152.194.96","Mozilla/5.0 (Windows NT 10.0; Win64; x64) AppleWebKit/537.36 (KHTML, like Gecko) Chrome/137.0.0.0 Safari/537.36","WebKit","Chrome","137.0.0.0","Windows","10.0","https://app.prolific.com/","en-US,en;q=0.9","664c9a37d570871d534dd3c2","686d226cabeef709c732f8e1","686e311e5a02ab40e526ca69","664c9a37d570871d534dd3c2","","[{""page_index"":0,""viewing_time"":9057},{""page_index"":1,""viewing_time"":3221}]","","","","","","","","","","","","","","","","","","","","","","","","","","","","","","","","","","","","","","","","","","","",""
"11377","","","{""Q0"":"""",""Q1"":"""",""Q2"":"""",""Q3"":"""",""Q4"":"""",""Q5"":"""",""Q6"":""I agree""}","survey-multi-choice","2","32562","0.0-2.0","164","1","2025-07-09 09:11:26","7701e855f2ef39aa3fd6c71abdc6918a","154.152.194.96","Mozilla/5.0 (Windows NT 10.0; Win64; x64) AppleWebKit/537.36 (KHTML, like Gecko) Chrome/137.0.0.0 Safari/537.36","WebKit","Chrome","137.0.0.0","Windows","10.0","https://app.prolific.com/","en-US,en;q=0.9","664c9a37d570871d534dd3c2","686d226cabeef709c732f8e1","686e311e5a02ab40e526ca69","664c9a37d570871d534dd3c2","","","[0,1,2,3,4,5,6]","true","","","","","","","","","","","","","","","","","","","","","","","","","","","","","","","","","","","","","","","","","",""
"29483","","","","fullscreen","3","63063","0.0-4.0","164","1","2025-07-09 09:11:26","7701e855f2ef39aa3fd6c71abdc6918a","154.152.194.96","Mozilla/5.0 (Windows NT 10.0; Win64; x64) AppleWebKit/537.36 (KHTML, like Gecko) Chrome/137.0.0.0 Safari/537.36","WebKit","Chrome","137.0.0.0","Windows","10.0","https://app.prolific.com/","en-US,en;q=0.9","664c9a37d570871d534dd3c2","686d226cabeef709c732f8e1","686e311e5a02ab40e526ca69","664c9a37d570871d534dd3c2","","","","","true","","","","","","","","","","","","","","","","","","","","","","","","","","","","","","","","","","","","","","","","",""
"7439","1752052363810"," <p style='font-size:1.1em;line-height:1.25'>Thank you for completing the consent form and closing all other tabs.</p><p style='font-size:1.1em;line-height:1.25'>We will now invite you to fill in some demographic information and questionnaires, before starting the game.<br>This will take about 5 minutes.<br></p><p style='font-size:1.1em;line-height:1.25'>Press the <strong>Next</strong> button to continue.</p>","0","custom-html-button-response","4","70508","0.0-5.0","164","1","2025-07-09 09:11:26","7701e855f2ef39aa3fd6c71abdc6918a","154.152.194.96","Mozilla/5.0 (Windows NT 10.0; Win64; x64) AppleWebKit/537.36 (KHTML, like Gecko) Chrome/137.0.0.0 Safari/537.36","WebKit","Chrome","137.0.0.0","Windows","10.0","https://app.prolific.com/","en-US,en;q=0.9","664c9a37d570871d534dd3c2","686d226cabeef709c732f8e1","686e311e5a02ab40e526ca69","664c9a37d570871d534dd3c2","2025-07-09T09:12:43.812Z","","","","","","","","","","","","","","","","","","","","","","","","","","","","","","","","","","","","","","","","","","","","",""
"8743","","","{""age"":""25""}","survey-text","5","79268","0.0-6.0-0.0","164","1","2025-07-09 09:11:26","7701e855f2ef39aa3fd6c71abdc6918a","154.152.194.96","Mozilla/5.0 (Windows NT 10.0; Win64; x64) AppleWebKit/537.36 (KHTML, like Gecko) Chrome/137.0.0.0 Safari/537.36","WebKit","Chrome","137.0.0.0","Windows","10.0","https://app.prolific.com/","en-US,en;q=0.9","664c9a37d570871d534dd3c2","686d226cabeef709c732f8e1","686e311e5a02ab40e526ca69","664c9a37d570871d534dd3c2","","","","","","0","demographics","","","","","","","","","","","","","","","","","","","","","","","","","","","","","","","","","","","","","","",""
"6730","","","{""gender_identity"":""female/woman""}","survey-multi-choice","6","86011","0.0-6.0-1.0","164","1","2025-07-09 09:11:26","7701e855f2ef39aa3fd6c71abdc6918a","154.152.194.96","Mozilla/5.0 (Windows NT 10.0; Win64; x64) AppleWebKit/537.36 (KHTML, like Gecko) Chrome/137.0.0.0 Safari/537.36","WebKit","Chrome","137.0.0.0","Windows","10.0","https://app.prolific.com/","en-US,en;q=0.9","664c9a37d570871d534dd3c2","686d226cabeef709c732f8e1","686e311e5a02ab40e526ca69","664c9a37d570871d534dd3c2","","","[0]","","","1","demographics","","","","","","","","","","","","","","","","","","","","","","","","","","","","","","","","","","","","","","",""
"4465","","","{""assigned_sex"":""female""}","survey-multi-choice","7","90482","0.0-6.0-2.0","164","1","2025-07-09 09:11:26","7701e855f2ef39aa3fd6c71abdc6918a","154.152.194.96","Mozilla/5.0 (Windows NT 10.0; Win64; x64) AppleWebKit/537.36 (KHTML, like Gecko) Chrome/137.0.0.0 Safari/537.36","WebKit","Chrome","137.0.0.0","Windows","10.0","https://app.prolific.com/","en-US,en;q=0.9","664c9a37d570871d534dd3c2","686d226cabeef709c732f8e1","686e311e5a02ab40e526ca69","664c9a37d570871d534dd3c2","","","[0]","","","2","demographics","","","","","","","","","","","","","","","","","","","","","","","","","","","","","","","","","","","","","","",""
"5462","","","{""menstrual_cycle"":""Yes""}","survey-multi-choice","8","95950","0.0-6.0-3.0","164","1","2025-07-09 09:11:26","7701e855f2ef39aa3fd6c71abdc6918a","154.152.194.96","Mozilla/5.0 (Windows NT 10.0; Win64; x64) AppleWebKit/537.36 (KHTML, like Gecko) Chrome/137.0.0.0 Safari/537.36","WebKit","Chrome","137.0.0.0","Windows","10.0","https://app.prolific.com/","en-US,en;q=0.9","664c9a37d570871d534dd3c2","686d226cabeef709c732f8e1","686e311e5a02ab40e526ca69","664c9a37d570871d534dd3c2","","","[0]","","","4","demographics","","","","","","","","","","","","","","","","","","","","","","","","","","","","","","","","","","","","","","",""
"8531","","","{""education"":""Bachelor's Degree (e.g., BA)""}","survey-multi-choice","9","104489","0.0-6.0-4.0","164","1","2025-07-09 09:11:26","7701e855f2ef39aa3fd6c71abdc6918a","154.152.194.96","Mozilla/5.0 (Windows NT 10.0; Win64; x64) AppleWebKit/537.36 (KHTML, like Gecko) Chrome/137.0.0.0 Safari/537.36","WebKit","Chrome","137.0.0.0","Windows","10.0","https://app.prolific.com/","en-US,en;q=0.9","664c9a37d570871d534dd3c2","686d226cabeef709c732f8e1","686e311e5a02ab40e526ca69","664c9a37d570871d534dd3c2","","","[0]","","","5","demographics","","","","","","","","","","","","","","","","","","","","","","","","","","","","","","","","","","","","","","",""
"9233","","","{""education"":""Higher National Diploma""}","survey-multi-choice","10","113728","0.0-6.0-5.0","164","1","2025-07-09 09:11:26","7701e855f2ef39aa3fd6c71abdc6918a","154.152.194.96","Mozilla/5.0 (Windows NT 10.0; Win64; x64) AppleWebKit/537.36 (KHTML, like Gecko) Chrome/137.0.0.0 Safari/537.36","WebKit","Chrome","137.0.0.0","Windows","10.0","https://app.prolific.com/","en-US,en;q=0.9","664c9a37d570871d534dd3c2","686d226cabeef709c732f8e1","686e311e5a02ab40e526ca69","664c9a37d570871d534dd3c2","2025-07-09T09:13:27.032Z","","[0]","","","6","demographics","","","","","","","","","","","","","","","","","","","","","","","","","","","","","","","","","","","","","","",""
"20742","","","{""mental_health_condition"":""no"",""mental_health_treatment"":""No"",""psychiatric_medication"":""No""}","survey-text","11","134484","0.0-7.0-0.0","164","1","2025-07-09 09:11:26","7701e855f2ef39aa3fd6c71abdc6918a","154.152.194.96","Mozilla/5.0 (Windows NT 10.0; Win64; x64) AppleWebKit/537.36 (KHTML, like Gecko) Chrome/137.0.0.0 Safari/537.36","WebKit","Chrome","137.0.0.0","Windows","10.0","https://app.prolific.com/","en-US,en;q=0.9","664c9a37d570871d534dd3c2","686d226cabeef709c732f8e1","686e311e5a02ab40e526ca69","664c9a37d570871d534dd3c2","2025-07-09T09:13:47.789Z","","","","","1","mental_health","","","","","","","","","","","","","","","","","","","","","","","","","","","","","","","","","","","","","","",""
"15112","","","{""depression_history"":[""Yes""]}","survey-multi-select","12","149611","0.0-7.0-1.0","164","1","2025-07-09 09:11:26","7701e855f2ef39aa3fd6c71abdc6918a","154.152.194.96","Mozilla/5.0 (Windows NT 10.0; Win64; x64) AppleWebKit/537.36 (KHTML, like Gecko) Chrome/137.0.0.0 Safari/537.36","WebKit","Chrome","137.0.0.0","Windows","10.0","https://app.prolific.com/","en-US,en;q=0.9","664c9a37d570871d534dd3c2","686d226cabeef709c732f8e1","686e311e5a02ab40e526ca69","664c9a37d570871d534dd3c2","","","[0]","","","","mental_health","","","","","","","","","","","","","","","","","","","","","","","","","","","","","","","","","","","","","","",""
"13405","","","{""depression_episodes"":""3-5"",""depression_recent"":""Within the past year""}","survey-multi-choice","13","163024","0.0-7.0-2.0-0.0","164","1","2025-07-09 09:11:26","7701e855f2ef39aa3fd6c71abdc6918a","154.152.194.96","Mozilla/5.0 (Windows NT 10.0; Win64; x64) AppleWebKit/537.36 (KHTML, like Gecko) Chrome/137.0.0.0 Safari/537.36","WebKit","Chrome","137.0.0.0","Windows","10.0","https://app.prolific.com/","en-US,en;q=0.9","664c9a37d570871d534dd3c2","686d226cabeef709c732f8e1","686e311e5a02ab40e526ca69","664c9a37d570871d534dd3c2","2025-07-09T09:14:16.328Z","","[0,1]","","","3","mental_health","","","","","","","","","","","","","","","","","","","","","","","","","","","","","","","","","","","","","","",""
"107642.90000009537","","","","survey-template","14","270682","0.0-7.0-3.0","164","1","2025-07-09 09:11:26","7701e855f2ef39aa3fd6c71abdc6918a","154.152.194.96","Mozilla/5.0 (Windows NT 10.0; Win64; x64) AppleWebKit/537.36 (KHTML, like Gecko) Chrome/137.0.0.0 Safari/537.36","WebKit","Chrome","137.0.0.0","Windows","10.0","https://app.prolific.com/","en-US,en;q=0.9","664c9a37d570871d534dd3c2","686d226cabeef709c732f8e1","686e311e5a02ab40e526ca69","664c9a37d570871d534dd3c2","2025-07-09T09:16:03.986Z","","","","","","ius","{""Q01"":""4"",""Q02"":""4"",""Q03"":""3"",""Q04"":""4"",""Q05"":""3"",""Q06"":""4"",""Q07"":""0"",""Q08"":""0"",""Q09"":""4"",""Q10"":""3"",""Q11"":""4"",""Q12"":""3"",""Q13"":""4""}","[0,1,2,3,4,5,6,7,8,9,10,11,12]","[""Q01"",""Q02"",""Q03"",""Q04"",""Q05"",""Q06"",""Q07"",""Q08"",""Q09"",""Q10"",""Q11"",""Q12"",""Q13""]","[13861.600000143051,18215.400000095367,23311.800000190735,26587.60000014305,37282.40000009537,48503,53847.60000014305,56616.10000014305,71215.90000009537,82168.70000004768,88508.30000019073,97531.40000009537,104753.5]","[]","[11187.700000047684,12763.800000190735,13861.600000143051,18215.400000095367,22025.700000047684,23311.800000190735,26587.60000014305,30605.900000095367,35961.10000014305,37282.40000009537,39432.700000047684,48503,53847.60000014305,56616.10000014305,59548.5,69662.80000019073,71215.90000009537,74247,82168.70000004768,86178.60000014305,87446.70000004768,88508.30000019073,89490.20000004768,96113.40000009537,97531.40000009537,102358.20000004768,103507.30000019073,104753.5,107639.60000014305]","0.5384615384615384","0.8333333333333334","0","","","","","","","","","","","","","","","","","","","","","","","","","","","","","",""
"5567","1752052569555","<p style='font-size:1.1em;line-height:1.25'>In the following, we will ask you a few questions relating to your experiences over the past month.<br></p><p style='font-size:1.1em;line-height:1.25'>Press the <strong>Next</strong> button to continue.</p>","0","custom-html-button-response","15","276252","0.0-7.0-4.0","164","1","2025-07-09 09:11:26","7701e855f2ef39aa3fd6c71abdc6918a","154.152.194.96","Mozilla/5.0 (Windows NT 10.0; Win64; x64) AppleWebKit/537.36 (KHTML, like Gecko) Chrome/137.0.0.0 Safari/537.36","WebKit","Chrome","137.0.0.0","Windows","10.0","https://app.prolific.com/","en-US,en;q=0.9","664c9a37d570871d534dd3c2","686d226cabeef709c732f8e1","686e311e5a02ab40e526ca69","664c9a37d570871d534dd3c2","2025-07-09T09:16:09.556Z","","","","","","","","","","","","","","","","","","","","","","","","","","","","","","","","","","","","","","","","","","","","",""
"79112.79999995232","","","","survey-template","16","355374","0.0-7.0-5.0","164","1","2025-07-09 09:11:26","7701e855f2ef39aa3fd6c71abdc6918a","154.152.194.96","Mozilla/5.0 (Windows NT 10.0; Win64; x64) AppleWebKit/537.36 (KHTML, like Gecko) Chrome/137.0.0.0 Safari/537.36","WebKit","Chrome","137.0.0.0","Windows","10.0","https://app.prolific.com/","en-US,en;q=0.9","664c9a37d570871d534dd3c2","686d226cabeef709c732f8e1","686e311e5a02ab40e526ca69","664c9a37d570871d534dd3c2","2025-07-09T09:17:28.678Z","","","","","","pss","{""Q01"":""3"",""Q02"":""2"",""Q03"":""4"",""Q04"":""1"",""Q05"":""4"",""Q06"":""4"",""Q07"":""0"",""Q08"":""2"",""Q09"":""4"",""Q10"":""4""}","[0,1,2,3,4,5,6,7,8,9]","[""Q01"",""Q02"",""Q03"",""Q04"",""Q05"",""Q06"",""Q07"",""Q08"",""Q09"",""Q10""]","[16241.099999904633,23919.799999952316,29096.099999904633,30265.39999985695,37034.700000047684,45135.299999952316,51811,62626,76320.29999995232,77627.20000004768]","[]","[0.5,14768.299999952316,16241.099999904633,23919.799999952316,28165.200000047684,29096.099999904633,30265.39999985695,37034.700000047684,43856.89999985695,45135.299999952316,51811,52863,62626,68964.70000004768,75068.5,76320.29999995232,77627.20000004768,79107.70000004768]","0.5","0.3333333333333333","0","","","","","","","","","","","","","","","","","","","","","","","","","","","","","",""
"350800","1752052999483","<p style='font-size:1.1em;line-height:1.25'>Thank you for your answers! Now we will ask you a few more questions relating to your feelings in the last 24 hours.<br></p><p style='font-size:1.1em;line-height:1.25'>Press the <strong>Next</strong> button to continue.</p>","0","custom-html-button-response","17","706180","0.0-7.0-6.0","164","1","2025-07-09 09:11:26","7701e855f2ef39aa3fd6c71abdc6918a","154.152.194.96","Mozilla/5.0 (Windows NT 10.0; Win64; x64) AppleWebKit/537.36 (KHTML, like Gecko) Chrome/137.0.0.0 Safari/537.36","WebKit","Chrome","137.0.0.0","Windows","10.0","https://app.prolific.com/","en-US,en;q=0.9","664c9a37d570871d534dd3c2","686d226cabeef709c732f8e1","686e311e5a02ab40e526ca69","664c9a37d570871d534dd3c2","2025-07-09T09:23:19.484Z","","","","","","","","","","","","","","","","","","","","","","","","","","","","","","","","","","","","","","","","","","","","",""
"207218.80000019073","","","","survey-template","18","913410","0.0-7.0-7.0","164","1","2025-07-09 09:11:26","7701e855f2ef39aa3fd6c71abdc6918a","154.152.194.96","Mozilla/5.0 (Windows NT 10.0; Win64; x64) AppleWebKit/537.36 (KHTML, like Gecko) Chrome/137.0.0.0 Safari/537.36","WebKit","Chrome","137.0.0.0","Windows","10.0","https://app.prolific.com/","en-US,en;q=0.9","664c9a37d570871d534dd3c2","686d226cabeef709c732f8e1","686e311e5a02ab40e526ca69","664c9a37d570871d534dd3c2","2025-07-09T09:26:46.715Z","","","","","","drsp","{""Q01"":""0"",""Q02"":""3"",""Q03"":""5"",""Q04"":""5"",""Q05"":""1"",""Q06"":""4"",""Q07"":""5"",""Q08"":""4"",""Q09"":""5"",""Q10"":""5"",""Q11"":""4"",""Q12"":""0"",""Q13"":""4"",""Q14"":""0"",""Q15"":""5"",""Q16"":""5"",""Q17"":""4"",""Q18"":""5"",""Q19"":""5"",""Q20"":""5"",""Q21"":""4""}","[0,1,2,3,4,5,6,7,8,9,10,11,12,13,14,15,16,17,18,19,20]","[""Q01"",""Q02"",""Q03"",""Q04"",""Q05"",""Q06"",""Q07"",""Q08"",""Q09"",""Q10"",""Q11"",""Q12"",""Q13"",""Q14"",""Q15"",""Q16"",""Q17"",""Q18"",""Q19"",""Q20"",""Q21""]","[20883.10000014305,25667.400000095367,37493.90000009537,41785.800000190735,95498.80000019073,108315.60000014305,114043.10000014305,133953,146023.40000009537,149037.10000014305,152542.30000019073,157464.20000004768,162025.10000014305,167748.90000009537,170332.90000009537,173382.30000019073,176395,186565.10000014305,194319.70000004768,199290.90000009537,205824]","[]","[0.3000001907348633,20883.10000014305,23179.300000190735,25667.400000095367,37493.90000009537,41785.800000190735,89238.80000019073,95498.80000019073,108315.60000014305,112464.30000019073,114043.10000014305,133953,135551.20000004768,146023.40000009537,149037.10000014305,152542.30000019073,157464.20000004768,162025.10000014305,167748.90000009537,170332.90000009537,173382.30000019073,176395,177725.40000009537,186565.10000014305,194319.70000004768,199290.90000009537,204809.5,205824,207208.30000019073]","0.47619047619047616","0.4","0","","","","","","","","","","","","","","","","","","","","","","","","","","","","","",""
"22014.89999985695","","","","survey-template","19","935434","0.0-7.0-8.0","164","1","2025-07-09 09:11:26","7701e855f2ef39aa3fd6c71abdc6918a","154.152.194.96","Mozilla/5.0 (Windows NT 10.0; Win64; x64) AppleWebKit/537.36 (KHTML, like Gecko) Chrome/137.0.0.0 Safari/537.36","WebKit","Chrome","137.0.0.0","Windows","10.0","https://app.prolific.com/","en-US,en;q=0.9","664c9a37d570871d534dd3c2","686d226cabeef709c732f8e1","686e311e5a02ab40e526ca69","664c9a37d570871d534dd3c2","2025-07-09T09:27:08.738Z","","","","","","stress","{""Q01"":""4"",""Q02"":""5"",""Q03"":""4""}","[0,1,2]","[""Q01"",""Q02"",""Q03""]","[7645.200000047684,13760.5,20735.39999985695]","[]","[7645.200000047684,13760.5,20735.39999985695,22013]","0.6666666666666666","0","0","","","","","","","","","","","","","","","","","","","","","","","","","","","","","",""
"162074","","","","instructions","20","1097513","0.0-8.0-0.0","164","1","2025-07-09 09:11:26","7701e855f2ef39aa3fd6c71abdc6918a","154.152.194.96","Mozilla/5.0 (Windows NT 10.0; Win64; x64) AppleWebKit/537.36 (KHTML, like Gecko) Chrome/137.0.0.0 Safari/537.36","WebKit","Chrome","137.0.0.0","Windows","10.0","https://app.prolific.com/","en-US,en;q=0.9","664c9a37d570871d534dd3c2","686d226cabeef709c732f8e1","686e311e5a02ab40e526ca69","664c9a37d570871d534dd3c2","","[{""page_index"":0,""viewing_time"":57278},{""page_index"":1,""viewing_time"":22913},{""page_index"":2,""viewing_time"":28996},{""page_index"":3,""viewing_time"":52885}]","","","","","","","","","","","","","","","","","","","","","","","","","","","","","","","","","","","","","","","","","","","",""
"","","","","ctl-task-cpt","21","1137679","0.0-8.0-1.0","164","1","2025-07-09 09:11:26","7701e855f2ef39aa3fd6c71abdc6918a","154.152.194.96","Mozilla/5.0 (Windows NT 10.0; Win64; x64) AppleWebKit/537.36 (KHTML, like Gecko) Chrome/137.0.0.0 Safari/537.36","WebKit","Chrome","137.0.0.0","Windows","10.0","https://app.prolific.com/","en-US,en;q=0.9","664c9a37d570871d534dd3c2","686d226cabeef709c732f8e1","686e311e5a02ab40e526ca69","664c9a37d570871d534dd3c2","","","","","","","","","","","","","","","","","win-only","2","g1:SE,g2:NW","1","0","1","1101448.7","10041.5","14046.5","36859.6","2","4","4","6","2","4","1","1","0","0.007575757575757576","4004.9","4000","1995","[""left"",""up""]","{""num_key_presses"":9,""num_perfect"":6,""num_errors"":3,""num_randdir"":0,""num_randdir_good_moves"":0,""num_whilered"":0,""num_whileblue"":0,""num_blue"":0,""num_good_moves"":6}","[297.22232142857143,291.12857142857143,1.1,297.22232142857143,291.12857142857143,103.2,297.22232142857143,291.12857142857143,208.2,297.22232142857143,291.12857142857143,314.4,297.22232142857143,291.12857142857143,416.3,297.22232142857143,291.12857142857143,517.3,297.22232142857143,291.12857142857143,618.2,297.22232142857143,291.12857142857143,718.7,297.22232142857143,291.12857142857143,820.2,297.22232142857143,291.12857142857143,921.7,297.22232142857143,291.12857142857143,1031,297.22232142857143,291.12857142857143,1138.8,297.22232142857143,291.12857142857143,1239.6,297.22232142857143,291.12857142857143,1339.9,297.22232142857143,291.12857142857143,1443,297.22232142857143,291.12857142857143,1545.6,297.22232142857143,291.12857142857143,1646.2,297.22232142857143,291.12857142857143,1754.4,297.22232142857143,291.12857142857143,1856.1,297.22232142857143,291.12857142857143,1968.9,297.22232142857143,291.12857142857143,2071.2,297.22232142857143,291.12857142857143,2174.4,297.22232142857143,291.12857142857143,2280.2,297.22232142857143,291.12857142857143,2380.9,297.22232142857143,291.12857142857143,2488.4,297.22232142857143,291.12857142857143,2598.2,297.22232142857143,291.12857142857143,2700.8,297.22232142857143,291.12857142857143,2812.1,297.22232142857143,291.12857142857143,2920.2,297.22232142857143,291.12857142857143,3025.8,297.22232142857143,291.12857142857143,3132.5,297.22232142857143,291.12857142857143,3236.1,297.22232142857143,291.12857142857143,3349.4,297.22232142857143,291.12857142857143,3452.1,297.22232142857143,291.12857142857143,3554.4,297.22232142857143,291.12857142857143,3659.3,297.22232142857143,291.12857142857143,3764.7,297.22232142857143,291.12857142857143,3870.2,299.22232142857143,302.12857142857143,3974.2]","[1664.9,1664.9,1000,0,664.9,""smooth"",""left"",""left"",""good_move"",5550,3884.5,3082.4,1665.5,802.1,""smooth"",""left"",""left"",""good_move"",8635.6,3085,2621.8,5550.6,463.2,""smooth"",""up"",""up"",""good_move"",11948,3310.2,2707.7,8637.8,602.5,""smooth"",""up"",""up"",""good_move"",14348.5,2398,1910.2,11950.6,487.8,""smooth"",""up"",""up"",""good_move"",16104.5,1755.1,2125.1,14349.4,-370,""error"",""-"",""-"",""no_move"",17550.8,1445,2188.1,17116.9,-1754.2,""error"",""-"",""-"",""no_move"",22668.6,5117,3027,18561.7,1080,""smooth"",""left"",""left"",""good_move"",22754.2,84.8,2776.2,22669.4,-2691.4,""error"",""-"",""-"",""no_move""]","","",""
"25324","","","","instructions","22","1163006","0.0-8.0-2.0","164","1","2025-07-09 09:11:26","7701e855f2ef39aa3fd6c71abdc6918a","154.152.194.96","Mozilla/5.0 (Windows NT 10.0; Win64; x64) AppleWebKit/537.36 (KHTML, like Gecko) Chrome/137.0.0.0 Safari/537.36","WebKit","Chrome","137.0.0.0","Windows","10.0","https://app.prolific.com/","en-US,en;q=0.9","664c9a37d570871d534dd3c2","686d226cabeef709c732f8e1","686e311e5a02ab40e526ca69","664c9a37d570871d534dd3c2","","[{""page_index"":0,""viewing_time"":25323}]","","","","","","","","","","","","","","","","","","","","","","","","","","","","","","","","","","","","","","","","","","","",""
"","","","","ctl-task-cpt","23","1212241","0.0-8.0-3.0","164","1","2025-07-09 09:11:26","7701e855f2ef39aa3fd6c71abdc6918a","154.152.194.96","Mozilla/5.0 (Windows NT 10.0; Win64; x64) AppleWebKit/537.36 (KHTML, like Gecko) Chrome/137.0.0.0 Safari/537.36","WebKit","Chrome","137.0.0.0","Windows","10.0","https://app.prolific.com/","en-US,en;q=0.9","664c9a37d570871d534dd3c2","686d226cabeef709c732f8e1","686e311e5a02ab40e526ca69","664c9a37d570871d534dd3c2","","","","","","","","","","","","","","","","","win-only","2","g1:SE,g2:NW","0.35","0","3","1166649","3410.7","7415.5","46222.2","2","4","8","6","2","-8","-9","0","0","0","4004.8","4000","-1925","[""left"",""up""]","{""num_key_presses"":11,""num_perfect"":4,""num_errors"":1,""num_randdir"":6,""num_randdir_good_moves"":3,""num_whilered"":0,""num_whileblue"":0,""num_blue"":1,""num_good_moves"":7}","[298.22232142857143,293.12857142857143,0.5,298.22232142857143,293.12857142857143,280.3,298.22232142857143,293.12857142857143,383,298.22232142857143,293.12857142857143,483.4,298.22232142857143,293.12857142857143,583.4,298.22232142857143,293.12857142857143,695.7,298.22232142857143,293.12857142857143,798.5,298.22232142857143,293.12857142857143,902.2,298.22232142857143,293.12857142857143,1010.1,298.22232142857143,293.12857142857143,1115.5,298.22232142857143,293.12857142857143,1223.1,298.22232142857143,293.12857142857143,1329.4,298.22232142857143,293.12857142857143,1435.1,298.22232142857143,293.12857142857143,1536.8,298.22232142857143,293.12857142857143,1646.7,298.22232142857143,293.12857142857143,1757.1,298.22232142857143,293.12857142857143,1866.8,298.22232142857143,293.12857142857143,1972.6,298.22232142857143,293.12857142857143,2079.7,298.22232142857143,293.12857142857143,2188.1,298.22232142857143,293.12857142857143,2290.3,298.22232142857143,293.12857142857143,2396.3,298.22232142857143,293.12857142857143,2501.3,298.22232142857143,294.12857142857143,2605.9,298.22232142857143,298.12857142857143,2709.9,300.22232142857143,301.12857142857143,2820.5,303.22232142857143,303.12857142857143,2925,303.22232142857143,303.12857142857143,3026.3,303.22232142857143,303.12857142857143,3130.8,303.22232142857143,303.12857142857143,3231.4,303.22232142857143,303.12857142857143,3333.8,303.22232142857143,303.12857142857143,3443.1,303.22232142857143,303.12857142857143,3549.3,303.22232142857143,303.12857142857143,3650.6,303.22232142857143,303.12857142857143,3751.4,303.22232142857143,303.12857142857143,3860.9,303.22232142857143,303.12857142857143,3962]","[705.2,705.3,1000,0,-294.7,""error"",""-"",""-"",""no_move"",4858.1,4152.1,2679,1709,470.1,""oops"",""left"",""up"",""good_move"",8536.8,3677.3,2918.3,4859.6,759,""oops"",""up"",""down"",""bad_move"",11824.2,3285.9,2395.6,8538.3,890.3,""smooth"",""left"",""left"",""good_move"",15036.6,3209.9,2670.4,11826.7,539.5,""oops"",""up"",""left"",""good_move"",18209.7,3170.4,2583.6,15039.4,586.7,""oops"",""left"",""right"",""bad_move"",21724.5,3513.5,2734.3,18211.1,779.1,""smooth"",""left"",""left"",""good_move"",24817.6,3091.2,2614.3,21726.5,476.8,""smooth"",""up"",""up"",""good_move"",26770.8,1952.5,1447.3,24818.3,505.3,""smooth"",""up"",""up"",""good_move"",33458.1,6685.4,2673.1,30345.8,439.2,""oops"",""up"",""left"",""good_move"",35865.7,2406.4,1725.5,33459.3,680.9,""oops"",""up"",""down"",""bad_move""]","","",""
"72473","","","","instructions","24","1284716","0.0-8.0-4.0","164","1","2025-07-09 09:11:26","7701e855f2ef39aa3fd6c71abdc6918a","154.152.194.96","Mozilla/5.0 (Windows NT 10.0; Win64; x64) AppleWebKit/537.36 (KHTML, like Gecko) Chrome/137.0.0.0 Safari/537.36","WebKit","Chrome","137.0.0.0","Windows","10.0","https://app.prolific.com/","en-US,en;q=0.9","664c9a37d570871d534dd3c2","686d226cabeef709c732f8e1","686e311e5a02ab40e526ca69","664c9a37d570871d534dd3c2","","[{""page_index"":0,""viewing_time"":28387},{""page_index"":1,""viewing_time"":44085}]","","","","","","","","","","","","","","","","","","","","","","","","","","","","","","","","","","","","","","","","","","","",""
"21856","","","{""green_ball"":[""Ball always moves in the direction I press""]}","survey-multi-select","25","1307288","0.0-8.0-5.0-0.0","164","1","2025-07-09 09:11:26","7701e855f2ef39aa3fd6c71abdc6918a","154.152.194.96","Mozilla/5.0 (Windows NT 10.0; Win64; x64) AppleWebKit/537.36 (KHTML, like Gecko) Chrome/137.0.0.0 Safari/537.36","WebKit","Chrome","137.0.0.0","Windows","10.0","https://app.prolific.com/","en-US,en;q=0.9","664c9a37d570871d534dd3c2","686d226cabeef709c732f8e1","686e311e5a02ab40e526ca69","664c9a37d570871d534dd3c2","","","[0]","","","","quiz","","","","","","","","","","","","","","","","","","","","","","","","","","","","","","","","","","","","","false","",""
"6457","","<p align='center'><b>INCORRECT.</b> Usually the green ball moves in the indicated direction, but sometimes it shakes and moves randomly. </p>","0","html-button-response","26","1313855","0.0-8.0-5.0-1.0","164","1","2025-07-09 09:11:26","7701e855f2ef39aa3fd6c71abdc6918a","154.152.194.96","Mozilla/5.0 (Windows NT 10.0; Win64; x64) AppleWebKit/537.36 (KHTML, like Gecko) Chrome/137.0.0.0 Safari/537.36","WebKit","Chrome","137.0.0.0","Windows","10.0","https://app.prolific.com/","en-US,en;q=0.9","664c9a37d570871d534dd3c2","686d226cabeef709c732f8e1","686e311e5a02ab40e526ca69","664c9a37d570871d534dd3c2","","","","","","","","","","","","","","","","","","","","","","","","","","","","","","","","","","","","","","","","","","","","","",""
"12676","","","{""green_ball"":[""Ball sometimes shakes and moves in a random direction""]}","survey-multi-select","27","1326540","0.0-8.0-5.1-0.1","164","1","2025-07-09 09:11:26","7701e855f2ef39aa3fd6c71abdc6918a","154.152.194.96","Mozilla/5.0 (Windows NT 10.0; Win64; x64) AppleWebKit/537.36 (KHTML, like Gecko) Chrome/137.0.0.0 Safari/537.36","WebKit","Chrome","137.0.0.0","Windows","10.0","https://app.prolific.com/","en-US,en;q=0.9","664c9a37d570871d534dd3c2","686d226cabeef709c732f8e1","686e311e5a02ab40e526ca69","664c9a37d570871d534dd3c2","","","[0]","","","","quiz","","","","","","","","","","","","","","","","","","","","","","","","","","","","","","","","","","","","","true","",""
"4247","","<p align='center'><b>CORRECT!</b> Indeed, the green ball may sometimes shake and move in a random direction.</p>","0","html-button-response","28","1330796","0.0-8.0-5.1-1.1","164","1","2025-07-09 09:11:26","7701e855f2ef39aa3fd6c71abdc6918a","154.152.194.96","Mozilla/5.0 (Windows NT 10.0; Win64; x64) AppleWebKit/537.36 (KHTML, like Gecko) Chrome/137.0.0.0 Safari/537.36","WebKit","Chrome","137.0.0.0","Windows","10.0","https://app.prolific.com/","en-US,en;q=0.9","664c9a37d570871d534dd3c2","686d226cabeef709c732f8e1","686e311e5a02ab40e526ca69","664c9a37d570871d534dd3c2","","","","","","","","","","","","","","","","","","","","","","","","","","","","","","","","","","","","","","","","","","","","","",""
"9400","","","{""yellow_ball"":[""Ball doesn‘t move and I get -1 penalty point""]}","survey-multi-select","29","1340211","0.0-8.0-6.0-0.0","164","1","2025-07-09 09:11:26","7701e855f2ef39aa3fd6c71abdc6918a","154.152.194.96","Mozilla/5.0 (Windows NT 10.0; Win64; x64) AppleWebKit/537.36 (KHTML, like Gecko) Chrome/137.0.0.0 Safari/537.36","WebKit","Chrome","137.0.0.0","Windows","10.0","https://app.prolific.com/","en-US,en;q=0.9","664c9a37d570871d534dd3c2","686d226cabeef709c732f8e1","686e311e5a02ab40e526ca69","664c9a37d570871d534dd3c2","","","[0]","","","","quiz","","","","","","","","","","","","","","","","","","","","","","","","","","","","","","","","","","","","","true","",""
"2169","","<p align='center'><b>CORRECT!</b> Indeed, the yellow ball never moves and you receive a penalty.</p>","0","html-button-response","30","1342386","0.0-8.0-6.0-1.0","164","1","2025-07-09 09:11:26","7701e855f2ef39aa3fd6c71abdc6918a","154.152.194.96","Mozilla/5.0 (Windows NT 10.0; Win64; x64) AppleWebKit/537.36 (KHTML, like Gecko) Chrome/137.0.0.0 Safari/537.36","WebKit","Chrome","137.0.0.0","Windows","10.0","https://app.prolific.com/","en-US,en;q=0.9","664c9a37d570871d534dd3c2","686d226cabeef709c732f8e1","686e311e5a02ab40e526ca69","664c9a37d570871d534dd3c2","","","","","","","","","","","","","","","","","","","","","","","","","","","","","","","","","","","","","","","","","","","","","",""
"8150","","","{""blue_ball"":[""Ball doesn‘t move and I get -1 penalty point""]}","survey-multi-select","31","1350546","0.0-8.0-7.0-0.0","164","1","2025-07-09 09:11:26","7701e855f2ef39aa3fd6c71abdc6918a","154.152.194.96","Mozilla/5.0 (Windows NT 10.0; Win64; x64) AppleWebKit/537.36 (KHTML, like Gecko) Chrome/137.0.0.0 Safari/537.36","WebKit","Chrome","137.0.0.0","Windows","10.0","https://app.prolific.com/","en-US,en;q=0.9","664c9a37d570871d534dd3c2","686d226cabeef709c732f8e1","686e311e5a02ab40e526ca69","664c9a37d570871d534dd3c2","","","[0]","","","","quiz","","","","","","","","","","","","","","","","","","","","","","","","","","","","","","","","","","","","","false","",""
"2417","","<p align='center'><b>INCORRECT.</b> The blue ball always shakes and moves randomly.</p>","0","html-button-response","32","1352971","0.0-8.0-7.0-1.0","164","1","2025-07-09 09:11:26","7701e855f2ef39aa3fd6c71abdc6918a","154.152.194.96","Mozilla/5.0 (Windows NT 10.0; Win64; x64) AppleWebKit/537.36 (KHTML, like Gecko) Chrome/137.0.0.0 Safari/537.36","WebKit","Chrome","137.0.0.0","Windows","10.0","https://app.prolific.com/","en-US,en;q=0.9","664c9a37d570871d534dd3c2","686d226cabeef709c732f8e1","686e311e5a02ab40e526ca69","664c9a37d570871d534dd3c2","","","","","","","","","","","","","","","","","","","","","","","","","","","","","","","","","","","","","","","","","","","","","",""
"14889","","","{""blue_ball"":[""Ball sometimes shakes and moves in a random direction""]}","survey-multi-select","33","1367865","0.0-8.0-7.1-0.1","164","1","2025-07-09 09:11:26","7701e855f2ef39aa3fd6c71abdc6918a","154.152.194.96","Mozilla/5.0 (Windows NT 10.0; Win64; x64) AppleWebKit/537.36 (KHTML, like Gecko) Chrome/137.0.0.0 Safari/537.36","WebKit","Chrome","137.0.0.0","Windows","10.0","https://app.prolific.com/","en-US,en;q=0.9","664c9a37d570871d534dd3c2","686d226cabeef709c732f8e1","686e311e5a02ab40e526ca69","664c9a37d570871d534dd3c2","","","[0]","","","","quiz","","","","","","","","","","","","","","","","","","","","","","","","","","","","","","","","","","","","","false","",""
"2869","","<p align='center'><b>INCORRECT.</b> The blue ball always shakes and moves randomly.</p>","0","html-button-response","34","1370741","0.0-8.0-7.1-1.1","164","1","2025-07-09 09:11:26","7701e855f2ef39aa3fd6c71abdc6918a","154.152.194.96","Mozilla/5.0 (Windows NT 10.0; Win64; x64) AppleWebKit/537.36 (KHTML, like Gecko) Chrome/137.0.0.0 Safari/537.36","WebKit","Chrome","137.0.0.0","Windows","10.0","https://app.prolific.com/","en-US,en;q=0.9","664c9a37d570871d534dd3c2","686d226cabeef709c732f8e1","686e311e5a02ab40e526ca69","664c9a37d570871d534dd3c2","","","","","","","","","","","","","","","","","","","","","","","","","","","","","","","","","","","","","","","","","","","","","",""
"4839","","","{""blue_ball"":[""Ball always shakes and moves in a random direction""]}","survey-multi-select","35","1375590","0.0-8.0-7.2-0.2","164","1","2025-07-09 09:11:26","7701e855f2ef39aa3fd6c71abdc6918a","154.152.194.96","Mozilla/5.0 (Windows NT 10.0; Win64; x64) AppleWebKit/537.36 (KHTML, like Gecko) Chrome/137.0.0.0 Safari/537.36","WebKit","Chrome","137.0.0.0","Windows","10.0","https://app.prolific.com/","en-US,en;q=0.9","664c9a37d570871d534dd3c2","686d226cabeef709c732f8e1","686e311e5a02ab40e526ca69","664c9a37d570871d534dd3c2","","","[0]","","","","quiz","","","","","","","","","","","","","","","","","","","","","","","","","","","","","","","","","","","","","true","",""
"2252","","<p align='center'><b>CORRECT!</b> Indeed, the blue ball always shakes and moves in a random direction. Also there is a penalty of -1 point.</p>","0","html-button-response","36","1377850","0.0-8.0-7.2-1.2","164","1","2025-07-09 09:11:26","7701e855f2ef39aa3fd6c71abdc6918a","154.152.194.96","Mozilla/5.0 (Windows NT 10.0; Win64; x64) AppleWebKit/537.36 (KHTML, like Gecko) Chrome/137.0.0.0 Safari/537.36","WebKit","Chrome","137.0.0.0","Windows","10.0","https://app.prolific.com/","en-US,en;q=0.9","664c9a37d570871d534dd3c2","686d226cabeef709c732f8e1","686e311e5a02ab40e526ca69","664c9a37d570871d534dd3c2","","","","","","","","","","","","","","","","","","","","","","","","","","","","","","","","","","","","","","","","","","","","","",""
"5672","","","{""bonus"":[""When I reach 50% of points""]}","survey-multi-select","37","1383533","0.0-8.0-8.0-0.0","164","1","2025-07-09 09:11:26","7701e855f2ef39aa3fd6c71abdc6918a","154.152.194.96","Mozilla/5.0 (Windows NT 10.0; Win64; x64) AppleWebKit/537.36 (KHTML, like Gecko) Chrome/137.0.0.0 Safari/537.36","WebKit","Chrome","137.0.0.0","Windows","10.0","https://app.prolific.com/","en-US,en;q=0.9","664c9a37d570871d534dd3c2","686d226cabeef709c732f8e1","686e311e5a02ab40e526ca69","664c9a37d570871d534dd3c2","","","[0]","","","","quiz","","","","","","","","","","","","","","","","","","","","","","","","","","","","","","","","","","","","","true","",""
"2087","","<p align='center'><b>CORRECT!</b> Indeed, you receive 2 pounds extra when you reach 50% of points.</p>","0","html-button-response","38","1385624","0.0-8.0-8.0-1.0","164","1","2025-07-09 09:11:26","7701e855f2ef39aa3fd6c71abdc6918a","154.152.194.96","Mozilla/5.0 (Windows NT 10.0; Win64; x64) AppleWebKit/537.36 (KHTML, like Gecko) Chrome/137.0.0.0 Safari/537.36","WebKit","Chrome","137.0.0.0","Windows","10.0","https://app.prolific.com/","en-US,en;q=0.9","664c9a37d570871d534dd3c2","686d226cabeef709c732f8e1","686e311e5a02ab40e526ca69","664c9a37d570871d534dd3c2","","","","","","","","","","","","","","","","","","","","","","","","","","","","","","","","","","","","","","","","","","","","","",""
"4280","","","","instructions","39","1389911","0.0-8.0-9.0","164","1","2025-07-09 09:11:26","7701e855f2ef39aa3fd6c71abdc6918a","154.152.194.96","Mozilla/5.0 (Windows NT 10.0; Win64; x64) AppleWebKit/537.36 (KHTML, like Gecko) Chrome/137.0.0.0 Safari/537.36","WebKit","Chrome","137.0.0.0","Windows","10.0","https://app.prolific.com/","en-US,en;q=0.9","664c9a37d570871d534dd3c2","686d226cabeef709c732f8e1","686e311e5a02ab40e526ca69","664c9a37d570871d534dd3c2","","[{""page_index"":0,""viewing_time"":4279}]","","","","","","","","","","","","","","","","","","","","","","","","","","","","","","","","","","","","","","","","","","","",""
"25935","","<p>Before you start with this game please answer the following three questions yourself. </p>
  <p>Through this game, we measure several aspects of your cognitive performance, such as reaction times, multi-tasking capabilities </p>
  <p>and the ability to assess the situation you are in.</p>
  <p></p>
  <p><b>How good do you usually are in such tasks?</b></p>","99","html-slider-response","40","1415971","0.0-9.0-0.0","164","1","2025-07-09 09:11:26","7701e855f2ef39aa3fd6c71abdc6918a","154.152.194.96","Mozilla/5.0 (Windows NT 10.0; Win64; x64) AppleWebKit/537.36 (KHTML, like Gecko) Chrome/137.0.0.0 Safari/537.36","WebKit","Chrome","137.0.0.0","Windows","10.0","https://app.prolific.com/","en-US,en;q=0.9","664c9a37d570871d534dd3c2","686d226cabeef709c732f8e1","686e311e5a02ab40e526ca69","664c9a37d570871d534dd3c2","2025-07-09T09:35:09.275Z","","","","","","PreSkillQ","","","","","","","","","","","","","","","","","","","","","","","","","","","","","","","","","","","","","","50",""
"7123","","<div style=""width:500px;"">
  <p>How well do you think you will perform in this task compared to other participants?</p>
  </div>","100","html-slider-response","41","1423097","0.0-9.0-1.0","164","1","2025-07-09 09:11:26","7701e855f2ef39aa3fd6c71abdc6918a","154.152.194.96","Mozilla/5.0 (Windows NT 10.0; Win64; x64) AppleWebKit/537.36 (KHTML, like Gecko) Chrome/137.0.0.0 Safari/537.36","WebKit","Chrome","137.0.0.0","Windows","10.0","https://app.prolific.com/","en-US,en;q=0.9","664c9a37d570871d534dd3c2","686d226cabeef709c732f8e1","686e311e5a02ab40e526ca69","664c9a37d570871d534dd3c2","2025-07-09T09:35:16.401Z","","","","","","PrePerfQ","","","","","","","","","","","","","","","","","","","","","","","","","","","","","","","","","","","","","","50",""
"6931","","<div style=""width:500px;"">
  <p>What best describes how you currently feel?</p>
  </div>","100","html-slider-response","42","1430038","0.0-9.0-2.0","164","1","2025-07-09 09:11:26","7701e855f2ef39aa3fd6c71abdc6918a","154.152.194.96","Mozilla/5.0 (Windows NT 10.0; Win64; x64) AppleWebKit/537.36 (KHTML, like Gecko) Chrome/137.0.0.0 Safari/537.36","WebKit","Chrome","137.0.0.0","Windows","10.0","https://app.prolific.com/","en-US,en;q=0.9","664c9a37d570871d534dd3c2","686d226cabeef709c732f8e1","686e311e5a02ab40e526ca69","664c9a37d570871d534dd3c2","2025-07-09T09:35:23.343Z","","","","","","PreMotivationQ","","","","","","","","","","","","","","","","","","","","","","","","","","","","","","","","","","","","","","50",""
"","","","","ctl-task-cpt","43","1456810","0.0-10.0-0.0","164","1","2025-07-09 09:11:26","7701e855f2ef39aa3fd6c71abdc6918a","154.152.194.96","Mozilla/5.0 (Windows NT 10.0; Win64; x64) AppleWebKit/537.36 (KHTML, like Gecko) Chrome/137.0.0.0 Safari/537.36","WebKit","Chrome","137.0.0.0","Windows","10.0","https://app.prolific.com/","en-US,en;q=0.9","664c9a37d570871d534dd3c2","686d226cabeef709c732f8e1","686e311e5a02ab40e526ca69","664c9a37d570871d534dd3c2","2025-07-09T09:35:50.114Z","","","","","","","","","","","","","","","","win-only","1","g1:NE,g2:SW","1","1","0","1433695.5","3984.8","8990.4","23739.5","1","4","4","6","1","1","0","0","0","0","5005.5","3000","1050","[""up"",""right""]","{""num_key_presses"":5,""num_perfect"":4,""num_errors"":1,""num_randdir"":0,""num_randdir_good_moves"":0,""num_whilered"":0,""num_whileblue"":0,""num_blue"":0,""num_good_moves"":4}","[293.22232142857143,291.12857142857143,0.3,293.22232142857143,291.12857142857143,104.4,293.22232142857143,291.12857142857143,208,293.22232142857143,291.12857142857143,308.2,293.22232142857143,291.12857142857143,417,293.22232142857143,291.12857142857143,519.8,293.22232142857143,291.12857142857143,625.5,293.22232142857143,291.12857142857143,728.3,293.22232142857143,291.12857142857143,830.5,293.22232142857143,291.12857142857143,934.9,293.22232142857143,291.12857142857143,1037.1,244.22232142857143,314.12857142857143,1141.5,206.22232142857143,317.12857142857143,1242.6,147.22232142857143,296.12857142857143,1343.9,101.22232142857143,290.12857142857143,1448.7,94.22232142857143,286.12857142857143,1553.8,94.22232142857143,286.12857142857143,1657.1,94.22232142857143,286.12857142857143,1757.7,94.22232142857143,286.12857142857143,1861,94.22232142857143,286.12857142857143,1961.9,94.22232142857143,286.12857142857143,2065.4,94.22232142857143,286.12857142857143,2166.9,91.22232142857143,285.12857142857143,2268.6,80.22232142857143,275.12857142857143,2373.5,79.22232142857143,274.12857142857143,2476.4,79.22232142857143,274.12857142857143,2582.2,79.22232142857143,274.12857142857143,2685.3,79.22232142857143,274.12857142857143,2788.7,79.22232142857143,274.12857142857143,2893.5,79.22232142857143,274.12857142857143,2997.8,79.22232142857143,274.12857142857143,3098.9,79.22232142857143,274.12857142857143,3202.9,79.22232142857143,274.12857142857143,3307.4,79.22232142857143,274.12857142857143,3407.7,79.22232142857143,274.12857142857143,3519.5,79.22232142857143,274.12857142857143,3621.8,79.22232142857143,274.12857142857143,3728.2,79.22232142857143,274.12857142857143,3828.5,79.22232142857143,274.12857142857143,3933.9,79.22232142857143,274.12857142857143,4039.8,79.22232142857143,274.12857142857143,4144.6,79.22232142857143,274.12857142857143,4247.9,79.22232142857143,274.12857142857143,4350.9,79.22232142857143,274.12857142857143,4456.2,79.22232142857143,274.12857142857143,4562.2,79.22232142857143,274.12857142857143,4665.6,79.22232142857143,274.12857142857143,4769.3,79.22232142857143,274.12857142857143,4873.2,79.22232142857143,274.12857142857143,4976.6]","[753.3,753.4,1000,0,-246.6,""error"",""-"",""-"",""no_move"",5227.9,4474.2,1949.3,1756.8,1521.8,""smooth"",""right"",""right"",""good_move"",8491.9,3262.7,2671.8,5229.2,590.9,""smooth"",""right"",""right"",""good_move"",11537.3,3043.9,2586,8493.4,457.9,""smooth"",""up"",""up"",""good_move"",14599.4,3059.7,2621.3,11539.7,438.5,""smooth"",""up"",""up"",""good_move""]","","",""
"5630","","<div style=""width:500px;"">
  <p>What determined the result of this run?</p>
  </div>","99","html-slider-response","44","1462442","0.0-10.0-1.0","164","1","2025-07-09 09:11:26","7701e855f2ef39aa3fd6c71abdc6918a","154.152.194.96","Mozilla/5.0 (Windows NT 10.0; Win64; x64) AppleWebKit/537.36 (KHTML, like Gecko) Chrome/137.0.0.0 Safari/537.36","WebKit","Chrome","137.0.0.0","Windows","10.0","https://app.prolific.com/","en-US,en;q=0.9","664c9a37d570871d534dd3c2","686d226cabeef709c732f8e1","686e311e5a02ab40e526ca69","664c9a37d570871d534dd3c2","2025-07-09T09:35:55.747Z","","","","","","AttribQ","","","","","","","","","","","","","","","","","","","","","","","","","","","","","","","","","","","","","","50",""
"7717","","<div style=""width:500px;"">
  <p>How much control did you have over the ball?</p>
  </div>","100","html-slider-response","45","1470163","0.0-10.0-2.0","164","1","2025-07-09 09:11:26","7701e855f2ef39aa3fd6c71abdc6918a","154.152.194.96","Mozilla/5.0 (Windows NT 10.0; Win64; x64) AppleWebKit/537.36 (KHTML, like Gecko) Chrome/137.0.0.0 Safari/537.36","WebKit","Chrome","137.0.0.0","Windows","10.0","https://app.prolific.com/","en-US,en;q=0.9","664c9a37d570871d534dd3c2","686d226cabeef709c732f8e1","686e311e5a02ab40e526ca69","664c9a37d570871d534dd3c2","2025-07-09T09:36:03.468Z","","","","","","ControlQ","","","","","","","","","","","","","","","","","","","","","","","","","","","","","","","","","","","","","","50",""
"7907","","<div style=""width:500px;"">
  <p>How would you describe your current emotional state?</p>
  </div>","0","html-slider-response","46","1478080","0.0-10.0-3.0","164","1","2025-07-09 09:11:26","7701e855f2ef39aa3fd6c71abdc6918a","154.152.194.96","Mozilla/5.0 (Windows NT 10.0; Win64; x64) AppleWebKit/537.36 (KHTML, like Gecko) Chrome/137.0.0.0 Safari/537.36","WebKit","Chrome","137.0.0.0","Windows","10.0","https://app.prolific.com/","en-US,en;q=0.9","664c9a37d570871d534dd3c2","686d226cabeef709c732f8e1","686e311e5a02ab40e526ca69","664c9a37d570871d534dd3c2","2025-07-09T09:36:11.384Z","","","","","","StressQ","","","","","","","","","","","","","","","","","","","","","","","","","","","","","","","","","","","","","","50",""
"6262","","<div style=""width:500px;"">
  <p>What best describes how you currently feel?</p>
  </div>","100","html-slider-response","47","1484346","0.0-10.0-4.0","164","1","2025-07-09 09:11:26","7701e855f2ef39aa3fd6c71abdc6918a","154.152.194.96","Mozilla/5.0 (Windows NT 10.0; Win64; x64) AppleWebKit/537.36 (KHTML, like Gecko) Chrome/137.0.0.0 Safari/537.36","WebKit","Chrome","137.0.0.0","Windows","10.0","https://app.prolific.com/","en-US,en;q=0.9","664c9a37d570871d534dd3c2","686d226cabeef709c732f8e1","686e311e5a02ab40e526ca69","664c9a37d570871d534dd3c2","2025-07-09T09:36:17.650Z","","","","","","MotivationQ","","","","","","","","","","","","","","","","","","","","","","","","","","","","","","","","","","","","","","50",""
"","","","","ctl-task-cpt","48","1516098","0.0-10.0-0.1","164","1","2025-07-09 09:11:26","7701e855f2ef39aa3fd6c71abdc6918a","154.152.194.96","Mozilla/5.0 (Windows NT 10.0; Win64; x64) AppleWebKit/537.36 (KHTML, like Gecko) Chrome/137.0.0.0 Safari/537.36","WebKit","Chrome","137.0.0.0","Windows","10.0","https://app.prolific.com/","en-US,en;q=0.9","664c9a37d570871d534dd3c2","686d226cabeef709c732f8e1","686e311e5a02ab40e526ca69","664c9a37d570871d534dd3c2","2025-07-09T09:36:49.403Z","","","","","","","","","","","","","","","","win-only","3","g1:SW,g2:NE","0.9","2","0","1487986.1","2804.5","7809.6","28733.4","1","4","8","6","2","8","8","8","0","0.06060606060606061","5005","3000","1070","[""up"",""right""]","{""num_key_presses"":6,""num_perfect"":5,""num_errors"":0,""num_randdir"":1,""num_randdir_good_moves"":1,""num_whilered"":0,""num_whileblue"":0,""num_blue"":1,""num_good_moves"":6}","[301.22232142857143,293.12857142857143,0.5,301.22232142857143,293.12857142857143,101.9,301.22232142857143,293.12857142857143,206.4,301.22232142857143,293.12857142857143,310.5,301.22232142857143,293.12857142857143,414.8,301.22232142857143,293.12857142857143,519.8,307.22232142857143,314.12857142857143,625.1,329.22232142857143,315.12857142857143,726.4,353.22232142857143,346.12857142857143,828.8,355.22232142857143,401.12857142857143,933.2,359.22232142857143,417.12857142857143,1037.3,390.22232142857143,431.12857142857143,1145,438.22232142857143,426.12857142857143,1253.1,453.22232142857143,425.12857142857143,1361.3,453.22232142857143,425.12857142857143,1462.8,453.22232142857143,425.12857142857143,1566.4,453.22232142857143,425.12857142857143,1680.5,453.22232142857143,425.12857142857143,1782.5,453.22232142857143,425.12857142857143,1882.7,453.22232142857143,425.12857142857143,1985.7,453.22232142857143,425.12857142857143,2087.4,453.22232142857143,425.12857142857143,2193.9,453.22232142857143,425.12857142857143,2298.6,453.22232142857143,425.12857142857143,2399.9,453.22232142857143,425.12857142857143,2505.3,453.22232142857143,425.12857142857143,2609.6,453.22232142857143,425.12857142857143,2710.3,453.22232142857143,425.12857142857143,2816.2,453.22232142857143,425.12857142857143,2920.9,453.22232142857143,425.12857142857143,3022.3,453.22232142857143,425.12857142857143,3129.7,453.22232142857143,425.12857142857143,3236.8,453.22232142857143,425.12857142857143,3337.5,453.22232142857143,425.12857142857143,3442.3,453.22232142857143,425.12857142857143,3544.5,453.22232142857143,425.12857142857143,3647.4,453.22232142857143,425.12857142857143,3750.8,453.22232142857143,425.12857142857143,3852.9,453.22232142857143,425.12857142857143,3960.6,453.22232142857143,425.12857142857143,4061.6,453.22232142857143,425.12857142857143,4162.1,453.22232142857143,425.12857142857143,4263.7,453.22232142857143,425.12857142857143,4365.1,453.22232142857143,425.12857142857143,4465.4,453.22232142857143,425.12857142857143,4566.3,453.22232142857143,425.12857142857143,4675.9,453.22232142857143,425.12857142857143,4779.9,453.22232142857143,425.12857142857143,4881.6,453.22232142857143,425.12857142857143,4983.3]","[1635.3,1635.3,1000,0,635.3,""smooth"",""right"",""right"",""good_move"",5067.8,3430,2932.7,1637.8,497.3,""smooth"",""right"",""right"",""good_move"",10733.7,5665.1,2009.6,8273,451.1,""smooth"",""right"",""right"",""good_move"",14227.9,3493.6,3099,10734.3,394.6,""oops"",""up"",""up"",""good_move"",17819.6,3590.7,3063.5,14228.9,527.2,""smooth"",""up"",""up"",""good_move"",20777.1,2956.7,2510,17820.4,446.7,""smooth"",""up"",""up"",""good_move""]","","",""
"6955","","<div style=""width:500px;"">
  <p>What determined the result of this run?</p>
  </div>","100","html-slider-response","49","1523057","0.0-10.0-1.1","164","1","2025-07-09 09:11:26","7701e855f2ef39aa3fd6c71abdc6918a","154.152.194.96","Mozilla/5.0 (Windows NT 10.0; Win64; x64) AppleWebKit/537.36 (KHTML, like Gecko) Chrome/137.0.0.0 Safari/537.36","WebKit","Chrome","137.0.0.0","Windows","10.0","https://app.prolific.com/","en-US,en;q=0.9","664c9a37d570871d534dd3c2","686d226cabeef709c732f8e1","686e311e5a02ab40e526ca69","664c9a37d570871d534dd3c2","2025-07-09T09:36:56.362Z","","","","","","AttribQ","","","","","","","","","","","","","","","","","","","","","","","","","","","","","","","","","","","","","","50",""
"4219","","<div style=""width:500px;"">
  <p>How much control did you have over the ball?</p>
  </div>","99","html-slider-response","50","1527283","0.0-10.0-2.1","164","1","2025-07-09 09:11:26","7701e855f2ef39aa3fd6c71abdc6918a","154.152.194.96","Mozilla/5.0 (Windows NT 10.0; Win64; x64) AppleWebKit/537.36 (KHTML, like Gecko) Chrome/137.0.0.0 Safari/537.36","WebKit","Chrome","137.0.0.0","Windows","10.0","https://app.prolific.com/","en-US,en;q=0.9","664c9a37d570871d534dd3c2","686d226cabeef709c732f8e1","686e311e5a02ab40e526ca69","664c9a37d570871d534dd3c2","2025-07-09T09:37:00.587Z","","","","","","ControlQ","","","","","","","","","","","","","","","","","","","","","","","","","","","","","","","","","","","","","","50",""
"5898","","<div style=""width:500px;"">
  <p>How would you describe your current emotional state?</p>
  </div>","0","html-slider-response","51","1533185","0.0-10.0-3.1","164","1","2025-07-09 09:11:26","7701e855f2ef39aa3fd6c71abdc6918a","154.152.194.96","Mozilla/5.0 (Windows NT 10.0; Win64; x64) AppleWebKit/537.36 (KHTML, like Gecko) Chrome/137.0.0.0 Safari/537.36","WebKit","Chrome","137.0.0.0","Windows","10.0","https://app.prolific.com/","en-US,en;q=0.9","664c9a37d570871d534dd3c2","686d226cabeef709c732f8e1","686e311e5a02ab40e526ca69","664c9a37d570871d534dd3c2","2025-07-09T09:37:06.490Z","","","","","","StressQ","","","","","","","","","","","","","","","","","","","","","","","","","","","","","","","","","","","","","","50",""
"4816","","<div style=""width:500px;"">
  <p>What best describes how you currently feel?</p>
  </div>","98","html-slider-response","52","1538014","0.0-10.0-4.1","164","1","2025-07-09 09:11:26","7701e855f2ef39aa3fd6c71abdc6918a","154.152.194.96","Mozilla/5.0 (Windows NT 10.0; Win64; x64) AppleWebKit/537.36 (KHTML, like Gecko) Chrome/137.0.0.0 Safari/537.36","WebKit","Chrome","137.0.0.0","Windows","10.0","https://app.prolific.com/","en-US,en;q=0.9","664c9a37d570871d534dd3c2","686d226cabeef709c732f8e1","686e311e5a02ab40e526ca69","664c9a37d570871d534dd3c2","2025-07-09T09:37:11.318Z","","","","","","MotivationQ","","","","","","","","","","","","","","","","","","","","","","","","","","","","","","","","","","","","","","50",""
"","","","","ctl-task-cpt","53","1583845","0.0-10.0-0.2","164","1","2025-07-09 09:11:26","7701e855f2ef39aa3fd6c71abdc6918a","154.152.194.96","Mozilla/5.0 (Windows NT 10.0; Win64; x64) AppleWebKit/537.36 (KHTML, like Gecko) Chrome/137.0.0.0 Safari/537.36","WebKit","Chrome","137.0.0.0","Windows","10.0","https://app.prolific.com/","en-US,en;q=0.9","664c9a37d570871d534dd3c2","686d226cabeef709c732f8e1","686e311e5a02ab40e526ca69","664c9a37d570871d534dd3c2","2025-07-09T09:37:57.149Z","","","","","","","","","","","","","","","","win-only","1","g1:NE,g2:SW","0.8","3","0","1541661.2","7234.7","12245.3","42801.8","1","4","4","6","2","4","3","11","8","0.08333333333333333","4575.5","3000","535","[""down"",""left""]","{""num_key_presses"":9,""num_perfect"":6,""num_errors"":1,""num_randdir"":2,""num_randdir_good_moves"":1,""num_whilered"":0,""num_whileblue"":0,""num_blue"":2,""num_good_moves"":7}","[302.22232142857143,295.12857142857143,0.9,302.22232142857143,295.12857142857143,103.2,302.22232142857143,295.12857142857143,213.9,302.22232142857143,295.12857142857143,318.8,302.22232142857143,295.12857142857143,422.7,378.22232142857143,328.12857142857143,530.4,479.22232142857143,380.12857142857143,631.5,515.2223214285714,425.12857142857143,735.6,529.2223214285714,466.12857142857143,839.4,547.2223214285714,501.12857142857143,948.1,553.2223214285714,517.1285714285714,1060.7,553.2223214285714,519.1285714285714,1161.4,553.2223214285714,519.1285714285714,1270.7,553.2223214285714,519.1285714285714,1375.6,553.2223214285714,519.1285714285714,1477.5,553.2223214285714,519.1285714285714,1577.8,553.2223214285714,519.1285714285714,1679,553.2223214285714,519.1285714285714,1782.5,553.2223214285714,519.1285714285714,1883.5,553.2223214285714,519.1285714285714,1989.4,553.2223214285714,519.1285714285714,2094.2,553.2223214285714,519.1285714285714,2200.5,553.2223214285714,519.1285714285714,2305,553.2223214285714,519.1285714285714,2409.3,553.2223214285714,519.1285714285714,2517.4,553.2223214285714,519.1285714285714,2621,553.2223214285714,519.1285714285714,2729.1,553.2223214285714,519.1285714285714,2830.7,553.2223214285714,519.1285714285714,2935,553.2223214285714,519.1285714285714,3038.5,553.2223214285714,519.1285714285714,3142.7,553.2223214285714,519.1285714285714,3249.6,345.22232142857143,491.12857142857143,3355.1,256.22232142857143,505.12857142857143,3458.8,256.22232142857143,505.12857142857143,3561.7,256.22232142857143,505.12857142857143,3665.7,182.22232142857143,481.12857142857143,3772.3,106.22232142857143,485.12857142857143,3874.8,75.22232142857143,506.12857142857143,3978.8,63.222321428571426,517.1285714285714,4084.1,62.222321428571426,535.1285714285714,4189.1,73.22232142857143,544.1285714285714,4293.6,75.22232142857143,545.1285714285714,4394.1,75.22232142857143,545.1285714285714,4501.1,75.22232142857143,545.1285714285714,4860.7,75.22232142857143,545.1285714285714,4965]","[1570.3,1570.3,1000,0,570.4,""oops"",""left"",""right"",""bad_move"",4216.5,2645.4,2128.5,1571.1,516.9,""smooth"",""down"",""down"",""good_move"",7146.5,2929.2,2441.7,4217.3,487.5,""smooth"",""down"",""down"",""good_move"",9890.7,2743.6,2274.4,7147.1,469.2,""smooth"",""down"",""down"",""good_move"",12823.1,2932,2574.9,9891.1,357.1,""smooth"",""left"",""left"",""good_move"",19350,6526.1,2160.6,16750.4,439,""smooth"",""left"",""left"",""good_move"",22609.7,3259.3,2787.3,19350.4,472,""smooth"",""left"",""left"",""good_move"",26253.7,3643,2325.5,25781.1,-1852.9,""error"",""-"",""-"",""no_move"",30412.7,4157.7,2604.5,27258.8,549.4,""oops"",""left"",""left"",""good_move""]","","",""
"5093","","<div style=""width:500px;"">
  <p>What determined the result of this run?</p>
  </div>","100","html-slider-response","54","1588941","0.0-10.0-1.2","164","1","2025-07-09 09:11:26","7701e855f2ef39aa3fd6c71abdc6918a","154.152.194.96","Mozilla/5.0 (Windows NT 10.0; Win64; x64) AppleWebKit/537.36 (KHTML, like Gecko) Chrome/137.0.0.0 Safari/537.36","WebKit","Chrome","137.0.0.0","Windows","10.0","https://app.prolific.com/","en-US,en;q=0.9","664c9a37d570871d534dd3c2","686d226cabeef709c732f8e1","686e311e5a02ab40e526ca69","664c9a37d570871d534dd3c2","2025-07-09T09:38:02.245Z","","","","","","AttribQ","","","","","","","","","","","","","","","","","","","","","","","","","","","","","","","","","","","","","","50",""
"3938","","<div style=""width:500px;"">
  <p>How much control did you have over the ball?</p>
  </div>","100","html-slider-response","55","1592882","0.0-10.0-2.2","164","1","2025-07-09 09:11:26","7701e855f2ef39aa3fd6c71abdc6918a","154.152.194.96","Mozilla/5.0 (Windows NT 10.0; Win64; x64) AppleWebKit/537.36 (KHTML, like Gecko) Chrome/137.0.0.0 Safari/537.36","WebKit","Chrome","137.0.0.0","Windows","10.0","https://app.prolific.com/","en-US,en;q=0.9","664c9a37d570871d534dd3c2","686d226cabeef709c732f8e1","686e311e5a02ab40e526ca69","664c9a37d570871d534dd3c2","2025-07-09T09:38:06.186Z","","","","","","ControlQ","","","","","","","","","","","","","","","","","","","","","","","","","","","","","","","","","","","","","","50",""
"5141","","<div style=""width:500px;"">
  <p>How would you describe your current emotional state?</p>
  </div>","1","html-slider-response","56","1598026","0.0-10.0-3.2","164","1","2025-07-09 09:11:26","7701e855f2ef39aa3fd6c71abdc6918a","154.152.194.96","Mozilla/5.0 (Windows NT 10.0; Win64; x64) AppleWebKit/537.36 (KHTML, like Gecko) Chrome/137.0.0.0 Safari/537.36","WebKit","Chrome","137.0.0.0","Windows","10.0","https://app.prolific.com/","en-US,en;q=0.9","664c9a37d570871d534dd3c2","686d226cabeef709c732f8e1","686e311e5a02ab40e526ca69","664c9a37d570871d534dd3c2","2025-07-09T09:38:11.330Z","","","","","","StressQ","","","","","","","","","","","","","","","","","","","","","","","","","","","","","","","","","","","","","","50",""
"5438","","<div style=""width:500px;"">
  <p>What best describes how you currently feel?</p>
  </div>","100","html-slider-response","57","1603466","0.0-10.0-4.2","164","1","2025-07-09 09:11:26","7701e855f2ef39aa3fd6c71abdc6918a","154.152.194.96","Mozilla/5.0 (Windows NT 10.0; Win64; x64) AppleWebKit/537.36 (KHTML, like Gecko) Chrome/137.0.0.0 Safari/537.36","WebKit","Chrome","137.0.0.0","Windows","10.0","https://app.prolific.com/","en-US,en;q=0.9","664c9a37d570871d534dd3c2","686d226cabeef709c732f8e1","686e311e5a02ab40e526ca69","664c9a37d570871d534dd3c2","2025-07-09T09:38:16.770Z","","","","","","MotivationQ","","","","","","","","","","","","","","","","","","","","","","","","","","","","","","","","","","","","","","50",""
"","","","","ctl-task-cpt","58","1643794","0.0-10.0-0.3","164","1","2025-07-09 09:11:26","7701e855f2ef39aa3fd6c71abdc6918a","154.152.194.96","Mozilla/5.0 (Windows NT 10.0; Win64; x64) AppleWebKit/537.36 (KHTML, like Gecko) Chrome/137.0.0.0 Safari/537.36","WebKit","Chrome","137.0.0.0","Windows","10.0","https://app.prolific.com/","en-US,en;q=0.9","664c9a37d570871d534dd3c2","686d226cabeef709c732f8e1","686e311e5a02ab40e526ca69","664c9a37d570871d534dd3c2","2025-07-09T09:38:57.098Z","","","","","","","","","","","","","","","","win-only","2","g1:SE,g2:NW","0.7","4","0","1607108.6","5391.3","10391.7","37297.1","1","4","8","6","2","8","8","19","11","0.14393939393939395","1639.2","3000","125","[""left"",""up""]","{""num_key_presses"":8,""num_perfect"":6,""num_errors"":0,""num_randdir"":2,""num_randdir_good_moves"":1,""num_whilered"":0,""num_whileblue"":0,""num_blue"":1,""num_good_moves"":7}","[290.22232142857143,297.12857142857143,0.6,290.22232142857143,297.12857142857143,110.7,290.22232142857143,297.12857142857143,226.5,290.22232142857143,297.12857142857143,330.5,290.22232142857143,297.12857142857143,431.2,290.22232142857143,297.12857142857143,537.5,290.22232142857143,297.12857142857143,641.8,290.22232142857143,297.12857142857143,742.8,290.22232142857143,297.12857142857143,856,225.22232142857143,250.12857142857143,960.5,168.22232142857143,181.12857142857143,1066.3,120.22232142857143,125.12857142857143,1169.3,75.22232142857143,73.12857142857143,1277.3,73.22232142857143,72.12857142857143,1377.7,73.22232142857143,72.12857142857143,1487.4,73.22232142857143,72.12857142857143,1597.7,73.22232142857143,72.12857142857143,1703.1,73.22232142857143,72.12857142857143,1803.6,73.22232142857143,72.12857142857143,1909.3,73.22232142857143,72.12857142857143,2011.2,73.22232142857143,72.12857142857143,2115.9,73.22232142857143,72.12857142857143,2219.1,73.22232142857143,72.12857142857143,2322.3,73.22232142857143,72.12857142857143,2431,73.22232142857143,72.12857142857143,2543.8,73.22232142857143,72.12857142857143,2644.3,73.22232142857143,72.12857142857143,2748,73.22232142857143,72.12857142857143,2849.7,73.22232142857143,72.12857142857143,2950.7,73.22232142857143,72.12857142857143,3053.5,73.22232142857143,72.12857142857143,3154.9,73.22232142857143,72.12857142857143,3263.8,73.22232142857143,72.12857142857143,3365.3,73.22232142857143,72.12857142857143,3473.3,73.22232142857143,72.12857142857143,3573.9,73.22232142857143,72.12857142857143,3674.3,73.22232142857143,72.12857142857143,3777.9,73.22232142857143,72.12857142857143,3881,73.22232142857143,72.12857142857143,3984.4,73.22232142857143,72.12857142857143,4089,73.22232142857143,72.12857142857143,4193.3,73.22232142857143,72.12857142857143,4295.7,73.22232142857143,72.12857142857143,4401.5,73.22232142857143,72.12857142857143,4501.7,73.22232142857143,72.12857142857143,4604.6,73.22232142857143,72.12857142857143,4705.3,73.22232142857143,72.12857142857143,4806.8,73.22232142857143,72.12857142857143,4909.9]","[1584.1,1584.1,1000,0,584.1,""oops"",""left"",""up"",""good_move"",3809.1,2224.2,1612.5,1584.9,611.7,""smooth"",""left"",""left"",""good_move"",7739.9,3929.6,3378.2,3810.3,551.4,""smooth"",""left"",""left"",""good_move"",10738.9,2998.4,2506.1,7740.6,492.3,""oops"",""left"",""right"",""bad_move"",17598.7,6858.2,2431.4,14743.9,423.4,""smooth"",""up"",""up"",""good_move"",20969.6,3370.1,2842.2,17599.5,527.9,""smooth"",""left"",""left"",""good_move"",23921.1,2950.6,2526.8,20970.5,423.8,""smooth"",""up"",""up"",""good_move"",26774.4,2853,2325.4,23921.5,527.6,""smooth"",""left"",""left"",""good_move""]","","",""
"5393","","<div style=""width:500px;"">
  <p>What determined the result of this run?</p>
  </div>","100","html-slider-response","59","1649188","0.0-10.0-1.3","164","1","2025-07-09 09:11:26","7701e855f2ef39aa3fd6c71abdc6918a","154.152.194.96","Mozilla/5.0 (Windows NT 10.0; Win64; x64) AppleWebKit/537.36 (KHTML, like Gecko) Chrome/137.0.0.0 Safari/537.36","WebKit","Chrome","137.0.0.0","Windows","10.0","https://app.prolific.com/","en-US,en;q=0.9","664c9a37d570871d534dd3c2","686d226cabeef709c732f8e1","686e311e5a02ab40e526ca69","664c9a37d570871d534dd3c2","2025-07-09T09:39:02.493Z","","","","","","AttribQ","","","","","","","","","","","","","","","","","","","","","","","","","","","","","","","","","","","","","","50",""
"3366","","<div style=""width:500px;"">
  <p>How much control did you have over the ball?</p>
  </div>","99","html-slider-response","60","1652558","0.0-10.0-2.3","164","1","2025-07-09 09:11:26","7701e855f2ef39aa3fd6c71abdc6918a","154.152.194.96","Mozilla/5.0 (Windows NT 10.0; Win64; x64) AppleWebKit/537.36 (KHTML, like Gecko) Chrome/137.0.0.0 Safari/537.36","WebKit","Chrome","137.0.0.0","Windows","10.0","https://app.prolific.com/","en-US,en;q=0.9","664c9a37d570871d534dd3c2","686d226cabeef709c732f8e1","686e311e5a02ab40e526ca69","664c9a37d570871d534dd3c2","2025-07-09T09:39:05.862Z","","","","","","ControlQ","","","","","","","","","","","","","","","","","","","","","","","","","","","","","","","","","","","","","","50",""
"6672","","<div style=""width:500px;"">
  <p>How would you describe your current emotional state?</p>
  </div>","0","html-slider-response","61","1659233","0.0-10.0-3.3","164","1","2025-07-09 09:11:26","7701e855f2ef39aa3fd6c71abdc6918a","154.152.194.96","Mozilla/5.0 (Windows NT 10.0; Win64; x64) AppleWebKit/537.36 (KHTML, like Gecko) Chrome/137.0.0.0 Safari/537.36","WebKit","Chrome","137.0.0.0","Windows","10.0","https://app.prolific.com/","en-US,en;q=0.9","664c9a37d570871d534dd3c2","686d226cabeef709c732f8e1","686e311e5a02ab40e526ca69","664c9a37d570871d534dd3c2","2025-07-09T09:39:12.537Z","","","","","","StressQ","","","","","","","","","","","","","","","","","","","","","","","","","","","","","","","","","","","","","","50",""
"6435","","<div style=""width:500px;"">
  <p>What best describes how you currently feel?</p>
  </div>","100","html-slider-response","62","1665670","0.0-10.0-4.3","164","1","2025-07-09 09:11:26","7701e855f2ef39aa3fd6c71abdc6918a","154.152.194.96","Mozilla/5.0 (Windows NT 10.0; Win64; x64) AppleWebKit/537.36 (KHTML, like Gecko) Chrome/137.0.0.0 Safari/537.36","WebKit","Chrome","137.0.0.0","Windows","10.0","https://app.prolific.com/","en-US,en;q=0.9","664c9a37d570871d534dd3c2","686d226cabeef709c732f8e1","686e311e5a02ab40e526ca69","664c9a37d570871d534dd3c2","2025-07-09T09:39:18.975Z","","","","","","MotivationQ","","","","","","","","","","","","","","","","","","","","","","","","","","","","","","","","","","","","","","50",""
"","","","","ctl-task-cpt","63","1708121","0.0-10.0-0.4","164","1","2025-07-09 09:11:26","7701e855f2ef39aa3fd6c71abdc6918a","154.152.194.96","Mozilla/5.0 (Windows NT 10.0; Win64; x64) AppleWebKit/537.36 (KHTML, like Gecko) Chrome/137.0.0.0 Safari/537.36","WebKit","Chrome","137.0.0.0","Windows","10.0","https://app.prolific.com/","en-US,en;q=0.9","664c9a37d570871d534dd3c2","686d226cabeef709c732f8e1","686e311e5a02ab40e526ca69","664c9a37d570871d534dd3c2","2025-07-09T09:40:01.425Z","","","","","","","","","","","","","","","","win-only","0","g1:NW,g2:SE","0.6","5","0","1669311.9","1801.8","6806.9","39426.6","1","4","4","6","2","4","4","23","19","0.17424242424242425","2419.2","3000","725","[""down"",""right""]","{""num_key_presses"":8,""num_perfect"":5,""num_errors"":0,""num_randdir"":3,""num_randdir_good_moves"":2,""num_whilered"":0,""num_whileblue"":0,""num_blue"":3,""num_good_moves"":7}","[298.22232142857143,294.12857142857143,0.9,298.22232142857143,294.12857142857143,102.8,298.22232142857143,294.12857142857143,204.6,298.22232142857143,294.12857142857143,309.6,298.22232142857143,294.12857142857143,415.5,298.22232142857143,294.12857142857143,518.1,298.22232142857143,294.12857142857143,632.3,298.22232142857143,294.12857142857143,736.3,298.22232142857143,294.12857142857143,848.3,298.22232142857143,294.12857142857143,949.1,286.22232142857143,302.12857142857143,1050.1,268.22232142857143,316.12857142857143,1152.8,262.22232142857143,323.12857142857143,1256.7,254.22232142857143,329.12857142857143,1361.7,254.22232142857143,329.12857142857143,1463.8,254.22232142857143,329.12857142857143,1566.9,254.22232142857143,329.12857142857143,1671.5,254.22232142857143,329.12857142857143,1775.3,254.22232142857143,329.12857142857143,1876,371.22232142857143,425.12857142857143,1977.2,517.2223214285714,542.1285714285714,2086.6,517.2223214285714,542.1285714285714,2192.4,517.2223214285714,542.1285714285714,2295.3,517.2223214285714,542.1285714285714,2403.5,517.2223214285714,542.1285714285714,2504.6,517.2223214285714,542.1285714285714,2606.9,517.2223214285714,542.1285714285714,2711.5,517.2223214285714,542.1285714285714,2817.2,517.2223214285714,542.1285714285714,2920.6,517.2223214285714,542.1285714285714,3022.7,517.2223214285714,542.1285714285714,3128,517.2223214285714,542.1285714285714,3230.4,517.2223214285714,542.1285714285714,3340.2,517.2223214285714,542.1285714285714,3440.5,517.2223214285714,542.1285714285714,3551.3,517.2223214285714,542.1285714285714,3657.9,517.2223214285714,542.1285714285714,3767.6,517.2223214285714,542.1285714285714,3871.8,517.2223214285714,542.1285714285714,3975.1,517.2223214285714,542.1285714285714,4075.3,517.2223214285714,542.1285714285714,4182.9,517.2223214285714,542.1285714285714,4287.2,517.2223214285714,542.1285714285714,4392.1,517.2223214285714,542.1285714285714,4496.2,517.2223214285714,542.1285714285714,4603.6,517.2223214285714,542.1285714285714,4712.5,517.2223214285714,542.1285714285714,4823.4,517.2223214285714,542.1285714285714,4931.6]","[4890.5,4890.5,2404.5,2021.1,464.9,""oops"",""down"",""down"",""good_move"",8148.4,3257.1,2762.5,4891.3,494.6,""oops"",""down"",""right"",""good_move"",10237.3,2087.8,1550.7,8149.5,537.1,""smooth"",""down"",""down"",""good_move"",12978.1,2739.1,2290.5,10239,448.6,""smooth"",""right"",""right"",""good_move"",16246.6,3268,2815.8,12978.6,452.2,""smooth"",""down"",""down"",""good_move"",22240.6,5993.6,2719.6,19083.6,437.5,""oops"",""right"",""left"",""bad_move"",25363.9,3122,2607.4,22241.9,514.6,""smooth"",""right"",""right"",""good_move"",32470.7,7106.4,2828.5,29215.2,427.1,""smooth"",""right"",""right"",""good_move""]","","",""
"8187","","<div style=""width:500px;"">
  <p>What determined the result of this run?</p>
  </div>","100","html-slider-response","64","1716313","0.0-10.0-1.4","164","1","2025-07-09 09:11:26","7701e855f2ef39aa3fd6c71abdc6918a","154.152.194.96","Mozilla/5.0 (Windows NT 10.0; Win64; x64) AppleWebKit/537.36 (KHTML, like Gecko) Chrome/137.0.0.0 Safari/537.36","WebKit","Chrome","137.0.0.0","Windows","10.0","https://app.prolific.com/","en-US,en;q=0.9","664c9a37d570871d534dd3c2","686d226cabeef709c732f8e1","686e311e5a02ab40e526ca69","664c9a37d570871d534dd3c2","2025-07-09T09:40:09.617Z","","","","","","AttribQ","","","","","","","","","","","","","","","","","","","","","","","","","","","","","","","","","","","","","","50",""
"3696","","<div style=""width:500px;"">
  <p>How much control did you have over the ball?</p>
  </div>","100","html-slider-response","65","1720018","0.0-10.0-2.4","164","1","2025-07-09 09:11:26","7701e855f2ef39aa3fd6c71abdc6918a","154.152.194.96","Mozilla/5.0 (Windows NT 10.0; Win64; x64) AppleWebKit/537.36 (KHTML, like Gecko) Chrome/137.0.0.0 Safari/537.36","WebKit","Chrome","137.0.0.0","Windows","10.0","https://app.prolific.com/","en-US,en;q=0.9","664c9a37d570871d534dd3c2","686d226cabeef709c732f8e1","686e311e5a02ab40e526ca69","664c9a37d570871d534dd3c2","2025-07-09T09:40:13.322Z","","","","","","ControlQ","","","","","","","","","","","","","","","","","","","","","","","","","","","","","","","","","","","","","","50",""
"7503","","<div style=""width:500px;"">
  <p>How would you describe your current emotional state?</p>
  </div>","0","html-slider-response","66","1727524","0.0-10.0-3.4","164","1","2025-07-09 09:11:26","7701e855f2ef39aa3fd6c71abdc6918a","154.152.194.96","Mozilla/5.0 (Windows NT 10.0; Win64; x64) AppleWebKit/537.36 (KHTML, like Gecko) Chrome/137.0.0.0 Safari/537.36","WebKit","Chrome","137.0.0.0","Windows","10.0","https://app.prolific.com/","en-US,en;q=0.9","664c9a37d570871d534dd3c2","686d226cabeef709c732f8e1","686e311e5a02ab40e526ca69","664c9a37d570871d534dd3c2","2025-07-09T09:40:20.829Z","","","","","","StressQ","","","","","","","","","","","","","","","","","","","","","","","","","","","","","","","","","","","","","","50",""
"5853","","<div style=""width:500px;"">
  <p>What best describes how you currently feel?</p>
  </div>","99","html-slider-response","67","1733384","0.0-10.0-4.4","164","1","2025-07-09 09:11:26","7701e855f2ef39aa3fd6c71abdc6918a","154.152.194.96","Mozilla/5.0 (Windows NT 10.0; Win64; x64) AppleWebKit/537.36 (KHTML, like Gecko) Chrome/137.0.0.0 Safari/537.36","WebKit","Chrome","137.0.0.0","Windows","10.0","https://app.prolific.com/","en-US,en;q=0.9","664c9a37d570871d534dd3c2","686d226cabeef709c732f8e1","686e311e5a02ab40e526ca69","664c9a37d570871d534dd3c2","2025-07-09T09:40:26.688Z","","","","","","MotivationQ","","","","","","","","","","","","","","","","","","","","","","","","","","","","","","","","","","","","","","50",""
"","","","","ctl-task-cpt","68","1780988","0.0-10.0-0.5","164","1","2025-07-09 09:11:26","7701e855f2ef39aa3fd6c71abdc6918a","154.152.194.96","Mozilla/5.0 (Windows NT 10.0; Win64; x64) AppleWebKit/537.36 (KHTML, like Gecko) Chrome/137.0.0.0 Safari/537.36","WebKit","Chrome","137.0.0.0","Windows","10.0","https://app.prolific.com/","en-US,en;q=0.9","664c9a37d570871d534dd3c2","686d226cabeef709c732f8e1","686e311e5a02ab40e526ca69","664c9a37d570871d534dd3c2","2025-07-09T09:41:14.292Z","","","","","","","","","","","","","","","","win-only","0","g1:NW,g2:SE","0.5","6","0","1737027.8","1998.2","7002.6","44581","1","4","8","6","2","-8","-8","15","23","0.11363636363636363","1938.6","3000","-1945","[""down"",""right""]","{""num_key_presses"":8,""num_perfect"":4,""num_errors"":0,""num_randdir"":4,""num_randdir_good_moves"":1,""num_whilered"":0,""num_whileblue"":0,""num_blue"":3,""num_good_moves"":5}","[303.22232142857143,294.12857142857143,0.8,303.22232142857143,294.12857142857143,104.5,303.22232142857143,294.12857142857143,208.1,303.22232142857143,294.12857142857143,312.6,303.22232142857143,294.12857142857143,417,303.22232142857143,294.12857142857143,524.1,303.22232142857143,294.12857142857143,627.8,303.22232142857143,294.12857142857143,733.7,326.22232142857143,338.12857142857143,849,398.22232142857143,418.12857142857143,951.9,440.22232142857143,475.12857142857143,1068.7,451.22232142857143,491.12857142857143,1172,465.22232142857143,512.1285714285714,1279.6,481.22232142857143,537.1285714285714,1391.3,486.22232142857143,535.1285714285714,1491.8,504.22232142857143,524.1285714285714,1593.7,512.2223214285714,520.1285714285714,1693.8,512.2223214285714,520.1285714285714,1800.9,512.2223214285714,520.1285714285714,1903.7,512.2223214285714,520.1285714285714,2009.3,512.2223214285714,520.1285714285714,2111.5,512.2223214285714,520.1285714285714,2214.4,512.2223214285714,520.1285714285714,2315.6,512.2223214285714,520.1285714285714,2424.4,512.2223214285714,520.1285714285714,2527.2,512.2223214285714,520.1285714285714,2627.4,512.2223214285714,520.1285714285714,2728.9,512.2223214285714,520.1285714285714,2830.7,512.2223214285714,520.1285714285714,2935.1,512.2223214285714,520.1285714285714,3040.8,512.2223214285714,520.1285714285714,3143.4,512.2223214285714,520.1285714285714,3250.6,512.2223214285714,520.1285714285714,3351.6,512.2223214285714,520.1285714285714,3458.2,512.2223214285714,520.1285714285714,3561.8,512.2223214285714,520.1285714285714,3667.1,512.2223214285714,520.1285714285714,3771.9,512.2223214285714,520.1285714285714,3876.3,512.2223214285714,520.1285714285714,3978.5,512.2223214285714,520.1285714285714,4084.2,512.2223214285714,520.1285714285714,4186.7,512.2223214285714,520.1285714285714,4291.5,512.2223214285714,520.1285714285714,4395.3,512.2223214285714,520.1285714285714,4495.8,512.2223214285714,520.1285714285714,4601.6,512.2223214285714,520.1285714285714,4702.8,512.2223214285714,520.1285714285714,4817.2,512.2223214285714,520.1285714285714,4918.8]","[4863.5,4863.5,2265.1,2006.8,591.6,""smooth"",""right"",""right"",""good_move"",8486.8,3622.5,3082.9,4864.3,539.6,""smooth"",""right"",""right"",""good_move"",11900.6,3412.6,2713.5,8488,699.2,""smooth"",""right"",""right"",""good_move"",18363.1,6460.6,2126.1,15740.4,496.6,""smooth"",""down"",""down"",""good_move"",25542.4,7178.1,2884.4,22203.2,454.9,""oops"",""down"",""up"",""bad_move"",29029.1,3485.7,2562.9,25543.4,922.8,""oops"",""down"",""up"",""bad_move"",31936.5,2907,2425.3,29029.5,481.7,""oops"",""down"",""up"",""bad_move"",34888.3,2950.6,2580.7,31937.7,369.9,""oops"",""up"",""down"",""good_move""]","","",""
"9972","","<div style=""width:500px;"">
  <p>What determined the result of this run?</p>
  </div>","1","html-slider-response","69","1790962","0.0-10.0-1.5","164","1","2025-07-09 09:11:26","7701e855f2ef39aa3fd6c71abdc6918a","154.152.194.96","Mozilla/5.0 (Windows NT 10.0; Win64; x64) AppleWebKit/537.36 (KHTML, like Gecko) Chrome/137.0.0.0 Safari/537.36","WebKit","Chrome","137.0.0.0","Windows","10.0","https://app.prolific.com/","en-US,en;q=0.9","664c9a37d570871d534dd3c2","686d226cabeef709c732f8e1","686e311e5a02ab40e526ca69","664c9a37d570871d534dd3c2","2025-07-09T09:41:24.266Z","","","","","","AttribQ","","","","","","","","","","","","","","","","","","","","","","","","","","","","","","","","","","","","","","50",""
"5425","","<div style=""width:500px;"">
  <p>How much control did you have over the ball?</p>
  </div>","0","html-slider-response","70","1796390","0.0-10.0-2.5","164","1","2025-07-09 09:11:26","7701e855f2ef39aa3fd6c71abdc6918a","154.152.194.96","Mozilla/5.0 (Windows NT 10.0; Win64; x64) AppleWebKit/537.36 (KHTML, like Gecko) Chrome/137.0.0.0 Safari/537.36","WebKit","Chrome","137.0.0.0","Windows","10.0","https://app.prolific.com/","en-US,en;q=0.9","664c9a37d570871d534dd3c2","686d226cabeef709c732f8e1","686e311e5a02ab40e526ca69","664c9a37d570871d534dd3c2","2025-07-09T09:41:29.694Z","","","","","","ControlQ","","","","","","","","","","","","","","","","","","","","","","","","","","","","","","","","","","","","","","50",""
"6494","","<div style=""width:500px;"">
  <p>How would you describe your current emotional state?</p>
  </div>","0","html-slider-response","71","1802888","0.0-10.0-3.5","164","1","2025-07-09 09:11:26","7701e855f2ef39aa3fd6c71abdc6918a","154.152.194.96","Mozilla/5.0 (Windows NT 10.0; Win64; x64) AppleWebKit/537.36 (KHTML, like Gecko) Chrome/137.0.0.0 Safari/537.36","WebKit","Chrome","137.0.0.0","Windows","10.0","https://app.prolific.com/","en-US,en;q=0.9","664c9a37d570871d534dd3c2","686d226cabeef709c732f8e1","686e311e5a02ab40e526ca69","664c9a37d570871d534dd3c2","2025-07-09T09:41:36.192Z","","","","","","StressQ","","","","","","","","","","","","","","","","","","","","","","","","","","","","","","","","","","","","","","50",""
"5451","","<div style=""width:500px;"">
  <p>What best describes how you currently feel?</p>
  </div>","99","html-slider-response","72","1808341","0.0-10.0-4.5","164","1","2025-07-09 09:11:26","7701e855f2ef39aa3fd6c71abdc6918a","154.152.194.96","Mozilla/5.0 (Windows NT 10.0; Win64; x64) AppleWebKit/537.36 (KHTML, like Gecko) Chrome/137.0.0.0 Safari/537.36","WebKit","Chrome","137.0.0.0","Windows","10.0","https://app.prolific.com/","en-US,en;q=0.9","664c9a37d570871d534dd3c2","686d226cabeef709c732f8e1","686e311e5a02ab40e526ca69","664c9a37d570871d534dd3c2","2025-07-09T09:41:41.646Z","","","","","","MotivationQ","","","","","","","","","","","","","","","","","","","","","","","","","","","","","","","","","","","","","","50",""
"","","","","ctl-task-cpt","73","1860546","0.0-10.0-0.6","164","1","2025-07-09 09:11:26","7701e855f2ef39aa3fd6c71abdc6918a","154.152.194.96","Mozilla/5.0 (Windows NT 10.0; Win64; x64) AppleWebKit/537.36 (KHTML, like Gecko) Chrome/137.0.0.0 Safari/537.36","WebKit","Chrome","137.0.0.0","Windows","10.0","https://app.prolific.com/","en-US,en;q=0.9","664c9a37d570871d534dd3c2","686d226cabeef709c732f8e1","686e311e5a02ab40e526ca69","664c9a37d570871d534dd3c2","2025-07-09T09:42:33.850Z","","","","","","","","","","","","","","","","win-only","1","g1:NE,g2:SW","0.4","7","0","1811982.3","2665","7666.4","49186.5","1","4","4","6","2","-4","-5","10","15","0.07575757575757576","2327.9","3000","-1745","[""down"",""left""]","{""num_key_presses"":11,""num_perfect"":4,""num_errors"":1,""num_randdir"":6,""num_randdir_good_moves"":4,""num_whilered"":0,""num_whileblue"":0,""num_blue"":2,""num_good_moves"":7}","[301.22232142857143,297.12857142857143,0.4,301.22232142857143,297.12857142857143,103.4,301.22232142857143,297.12857142857143,218.3,301.22232142857143,297.12857142857143,323.9,301.22232142857143,297.12857142857143,427.8,301.22232142857143,297.12857142857143,530.5,301.22232142857143,297.12857142857143,634.8,315.22232142857143,296.12857142857143,736.6,328.22232142857143,296.12857142857143,847.8,348.22232142857143,308.12857142857143,965,358.22232142857143,328.12857142857143,1072.3,367.22232142857143,343.12857142857143,1181.3,372.22232142857143,390.12857142857143,1284.2,344.22232142857143,445.12857142857143,1386.6,210.22232142857143,474.12857142857143,1502.1,149.22232142857143,504.12857142857143,1603.6,104.22232142857143,552.1285714285714,1706.1,83.22232142857143,579.1285714285714,1812.5,66.22232142857143,584.1285714285714,1914.1,55.222321428571426,555.1285714285714,2022.3,52.222321428571426,549.1285714285714,2125.1,53.222321428571426,545.1285714285714,2230,53.222321428571426,545.1285714285714,2344.1,53.222321428571426,545.1285714285714,2450.4,53.222321428571426,545.1285714285714,2552.6,53.222321428571426,545.1285714285714,2653.1,53.222321428571426,545.1285714285714,2759.4,53.222321428571426,545.1285714285714,2868.2,53.222321428571426,545.1285714285714,2972,53.222321428571426,545.1285714285714,3078.4,53.222321428571426,545.1285714285714,3180.6,53.222321428571426,545.1285714285714,3294.5,53.222321428571426,545.1285714285714,3410.4,53.222321428571426,545.1285714285714,3511.7,53.222321428571426,545.1285714285714,3623.7,53.222321428571426,545.1285714285714,3732.6,53.222321428571426,545.1285714285714,3834.1,53.222321428571426,545.1285714285714,3941,53.222321428571426,545.1285714285714,4042.1,53.222321428571426,545.1285714285714,4147.4,53.222321428571426,545.1285714285714,4253.4,53.222321428571426,545.1285714285714,4369.5,53.222321428571426,545.1285714285714,4474.6,53.222321428571426,545.1285714285714,4579.1,53.222321428571426,545.1285714285714,4683.8,53.222321428571426,545.1285714285714,4789.5,53.222321428571426,545.1285714285714,4893,53.222321428571426,545.1285714285714,4997.6]","[1570.4,1570.4,1000,0,570.4,""oops"",""down"",""down"",""good_move"",7457.7,5886,2714.8,4265.7,477.2,""smooth"",""down"",""down"",""good_move"",10731.9,3273.7,2805.1,7458.2,468.6,""oops"",""down"",""down"",""good_move"",13641.6,2906.7,2472.8,10734.9,433.9,""oops"",""left"",""left"",""good_move"",20117,6474.6,2437,17254.3,425.7,""oops"",""left"",""right"",""bad_move"",21669,1551.1,2802.9,20117.9,-1251.8,""error"",""-"",""-"",""no_move"",26846.9,5176.5,3332.3,22670.6,844,""oops"",""left"",""right"",""bad_move"",29761.3,2913.6,2428.2,26847.7,485.4,""smooth"",""right"",""right"",""bad_move"",32364.2,2602.5,2149.1,29761.7,453.4,""smooth"",""left"",""left"",""good_move"",34925.2,2560.4,2158.4,32364.9,402,""smooth"",""left"",""left"",""good_move"",38436.3,3508.8,3105.8,34927.5,403,""oops"",""left"",""left"",""good_move""]","","",""
"16304","","<div style=""width:500px;"">
  <p>What determined the result of this run?</p>
  </div>","2","html-slider-response","74","1876853","0.0-10.0-1.6","164","1","2025-07-09 09:11:26","7701e855f2ef39aa3fd6c71abdc6918a","154.152.194.96","Mozilla/5.0 (Windows NT 10.0; Win64; x64) AppleWebKit/537.36 (KHTML, like Gecko) Chrome/137.0.0.0 Safari/537.36","WebKit","Chrome","137.0.0.0","Windows","10.0","https://app.prolific.com/","en-US,en;q=0.9","664c9a37d570871d534dd3c2","686d226cabeef709c732f8e1","686e311e5a02ab40e526ca69","664c9a37d570871d534dd3c2","2025-07-09T09:42:50.157Z","","","","","","AttribQ","","","","","","","","","","","","","","","","","","","","","","","","","","","","","","","","","","","","","","50",""
"4391","","<div style=""width:500px;"">
  <p>How much control did you have over the ball?</p>
  </div>","2","html-slider-response","75","1881247","0.0-10.0-2.6","164","1","2025-07-09 09:11:26","7701e855f2ef39aa3fd6c71abdc6918a","154.152.194.96","Mozilla/5.0 (Windows NT 10.0; Win64; x64) AppleWebKit/537.36 (KHTML, like Gecko) Chrome/137.0.0.0 Safari/537.36","WebKit","Chrome","137.0.0.0","Windows","10.0","https://app.prolific.com/","en-US,en;q=0.9","664c9a37d570871d534dd3c2","686d226cabeef709c732f8e1","686e311e5a02ab40e526ca69","664c9a37d570871d534dd3c2","2025-07-09T09:42:54.551Z","","","","","","ControlQ","","","","","","","","","","","","","","","","","","","","","","","","","","","","","","","","","","","","","","50",""
"5983","","<div style=""width:500px;"">
  <p>How would you describe your current emotional state?</p>
  </div>","1","html-slider-response","76","1887234","0.0-10.0-3.6","164","1","2025-07-09 09:11:26","7701e855f2ef39aa3fd6c71abdc6918a","154.152.194.96","Mozilla/5.0 (Windows NT 10.0; Win64; x64) AppleWebKit/537.36 (KHTML, like Gecko) Chrome/137.0.0.0 Safari/537.36","WebKit","Chrome","137.0.0.0","Windows","10.0","https://app.prolific.com/","en-US,en;q=0.9","664c9a37d570871d534dd3c2","686d226cabeef709c732f8e1","686e311e5a02ab40e526ca69","664c9a37d570871d534dd3c2","2025-07-09T09:43:00.539Z","","","","","","StressQ","","","","","","","","","","","","","","","","","","","","","","","","","","","","","","","","","","","","","","50",""
"4871","","<div style=""width:500px;"">
  <p>What best describes how you currently feel?</p>
  </div>","100","html-slider-response","77","1892109","0.0-10.0-4.6","164","1","2025-07-09 09:11:26","7701e855f2ef39aa3fd6c71abdc6918a","154.152.194.96","Mozilla/5.0 (Windows NT 10.0; Win64; x64) AppleWebKit/537.36 (KHTML, like Gecko) Chrome/137.0.0.0 Safari/537.36","WebKit","Chrome","137.0.0.0","Windows","10.0","https://app.prolific.com/","en-US,en;q=0.9","664c9a37d570871d534dd3c2","686d226cabeef709c732f8e1","686e311e5a02ab40e526ca69","664c9a37d570871d534dd3c2","2025-07-09T09:43:05.413Z","","","","","","MotivationQ","","","","","","","","","","","","","","","","","","","","","","","","","","","","","","","","","","","","","","50",""
"","","","","ctl-task-cpt","78","1945348","0.0-10.0-0.7","164","1","2025-07-09 09:11:26","7701e855f2ef39aa3fd6c71abdc6918a","154.152.194.96","Mozilla/5.0 (Windows NT 10.0; Win64; x64) AppleWebKit/537.36 (KHTML, like Gecko) Chrome/137.0.0.0 Safari/537.36","WebKit","Chrome","137.0.0.0","Windows","10.0","https://app.prolific.com/","en-US,en;q=0.9","664c9a37d570871d534dd3c2","686d226cabeef709c732f8e1","686e311e5a02ab40e526ca69","664c9a37d570871d534dd3c2","2025-07-09T09:43:58.652Z","","","","","","","","","","","","","","","","win-only","2","g1:SE,g2:NW","0.3","8","0","1895751.7","1556.7","6560.2","50211.2","1","4","8","6","2","-8","-8","2","10","0.015151515151515152","1900.3","3000","-1670","[""left"",""up""]","{""num_key_presses"":11,""num_perfect"":3,""num_errors"":0,""num_randdir"":8,""num_randdir_good_moves"":3,""num_whilered"":0,""num_whileblue"":0,""num_blue"":3,""num_good_moves"":5}","[295.22232142857143,290.12857142857143,1.1,295.22232142857143,290.12857142857143,106.8,295.22232142857143,290.12857142857143,211,295.22232142857143,290.12857142857143,311.5,295.22232142857143,290.12857142857143,421.4,295.22232142857143,290.12857142857143,526.8,295.22232142857143,290.12857142857143,632.5,295.22232142857143,290.12857142857143,733.3,253.22232142857143,251.12857142857143,837.3,191.22232142857143,173.12857142857143,953,191.22232142857143,173.12857142857143,1054,191.22232142857143,173.12857142857143,1159.2,191.22232142857143,173.12857142857143,1260.1,123.22232142857143,120.12857142857143,1362.7,62.222321428571426,87.12857142857143,1475.3,36.222321428571426,67.12857142857143,1579,24.222321428571426,48.128571428571426,1692.7,24.222321428571426,48.128571428571426,1796.9,24.222321428571426,48.128571428571426,1904.9,24.222321428571426,48.128571428571426,2007.9,24.222321428571426,48.128571428571426,2113.6,24.222321428571426,48.128571428571426,2226.3,24.222321428571426,48.128571428571426,2329.8,24.222321428571426,48.128571428571426,2435.7,24.222321428571426,48.128571428571426,2556.6,24.222321428571426,48.128571428571426,2661.1,24.222321428571426,48.128571428571426,2763.5,24.222321428571426,48.128571428571426,2870.8,24.222321428571426,48.128571428571426,2978.7,24.222321428571426,48.128571428571426,3088.1,24.222321428571426,48.128571428571426,3191.4,24.222321428571426,48.128571428571426,3297.3,24.222321428571426,48.128571428571426,3412.8,24.222321428571426,48.128571428571426,3517.9,24.222321428571426,48.128571428571426,3619.4,24.222321428571426,48.128571428571426,3726.3,24.222321428571426,48.128571428571426,3826.8,24.222321428571426,48.128571428571426,3932.9,24.222321428571426,48.128571428571426,4033.4,24.222321428571426,48.128571428571426,4140,24.222321428571426,48.128571428571426,4246.7,24.222321428571426,48.128571428571426,4351,24.222321428571426,48.128571428571426,4455.4,24.222321428571426,48.128571428571426,4561.2,24.222321428571426,48.128571428571426,4662.4,24.222321428571426,48.128571428571426,4765.8,24.222321428571426,48.128571428571426,4872.4,24.222321428571426,48.128571428571426,4973]","[1561.5,1561.6,1000,0,561.6,""oops"",""up"",""up"",""good_move"",8144.9,6581.4,3378.3,4341.1,425.5,""smooth"",""up"",""up"",""good_move"",14568.2,6421.9,2675.1,11479.8,413.3,""oops"",""up"",""down"",""bad_move"",17856.7,3287.4,2652.7,14569.3,634.7,""oops"",""up"",""up"",""good_move"",20363.1,2505.7,2022.5,17857.5,483.1,""oops"",""up"",""up"",""good_move"",23638.8,3274.8,2835.5,20364.1,439.2,""smooth"",""left"",""left"",""good_move"",30322.9,6683.3,2542.6,27392.1,388.2,""oops"",""left"",""right"",""bad_move"",33520.6,3196.8,2772.3,30323.8,424.5,""oops"",""left"",""right"",""bad_move"",35983.9,2462.9,1982.4,33521,480.5,""oops"",""left"",""right"",""bad_move"",38860.2,2875.9,2475.3,35984.3,400.6,""smooth"",""right"",""down"",""bad_move"",41217.2,2356,1960.1,38861.2,395.9,""oops"",""left"",""down"",""bad_move""]","","",""
"5766","","<div style=""width:500px;"">
  <p>What determined the result of this run?</p>
  </div>","0","html-slider-response","79","1951116","0.0-10.0-1.7","164","1","2025-07-09 09:11:26","7701e855f2ef39aa3fd6c71abdc6918a","154.152.194.96","Mozilla/5.0 (Windows NT 10.0; Win64; x64) AppleWebKit/537.36 (KHTML, like Gecko) Chrome/137.0.0.0 Safari/537.36","WebKit","Chrome","137.0.0.0","Windows","10.0","https://app.prolific.com/","en-US,en;q=0.9","664c9a37d570871d534dd3c2","686d226cabeef709c732f8e1","686e311e5a02ab40e526ca69","664c9a37d570871d534dd3c2","2025-07-09T09:44:04.420Z","","","","","","AttribQ","","","","","","","","","","","","","","","","","","","","","","","","","","","","","","","","","","","","","","50",""
"4382","","<div style=""width:500px;"">
  <p>How much control did you have over the ball?</p>
  </div>","51","html-slider-response","80","1955501","0.0-10.0-2.7","164","1","2025-07-09 09:11:26","7701e855f2ef39aa3fd6c71abdc6918a","154.152.194.96","Mozilla/5.0 (Windows NT 10.0; Win64; x64) AppleWebKit/537.36 (KHTML, like Gecko) Chrome/137.0.0.0 Safari/537.36","WebKit","Chrome","137.0.0.0","Windows","10.0","https://app.prolific.com/","en-US,en;q=0.9","664c9a37d570871d534dd3c2","686d226cabeef709c732f8e1","686e311e5a02ab40e526ca69","664c9a37d570871d534dd3c2","2025-07-09T09:44:08.805Z","","","","","","ControlQ","","","","","","","","","","","","","","","","","","","","","","","","","","","","","","","","","","","","","","50",""
"4173","","<div style=""width:500px;"">
  <p>How would you describe your current emotional state?</p>
  </div>","1","html-slider-response","81","1959677","0.0-10.0-3.7","164","1","2025-07-09 09:11:26","7701e855f2ef39aa3fd6c71abdc6918a","154.152.194.96","Mozilla/5.0 (Windows NT 10.0; Win64; x64) AppleWebKit/537.36 (KHTML, like Gecko) Chrome/137.0.0.0 Safari/537.36","WebKit","Chrome","137.0.0.0","Windows","10.0","https://app.prolific.com/","en-US,en;q=0.9","664c9a37d570871d534dd3c2","686d226cabeef709c732f8e1","686e311e5a02ab40e526ca69","664c9a37d570871d534dd3c2","2025-07-09T09:44:12.981Z","","","","","","StressQ","","","","","","","","","","","","","","","","","","","","","","","","","","","","","","","","","","","","","","50",""
"5736","","<div style=""width:500px;"">
  <p>What best describes how you currently feel?</p>
  </div>","99","html-slider-response","82","1965417","0.0-10.0-4.7","164","1","2025-07-09 09:11:26","7701e855f2ef39aa3fd6c71abdc6918a","154.152.194.96","Mozilla/5.0 (Windows NT 10.0; Win64; x64) AppleWebKit/537.36 (KHTML, like Gecko) Chrome/137.0.0.0 Safari/537.36","WebKit","Chrome","137.0.0.0","Windows","10.0","https://app.prolific.com/","en-US,en;q=0.9","664c9a37d570871d534dd3c2","686d226cabeef709c732f8e1","686e311e5a02ab40e526ca69","664c9a37d570871d534dd3c2","2025-07-09T09:44:18.721Z","","","","","","MotivationQ","","","","","","","","","","","","","","","","","","","","","","","","","","","","","","","","","","","","","","50",""
"","","","","ctl-task-cpt","83","2008278","0.0-10.0-0.8","164","1","2025-07-09 09:11:26","7701e855f2ef39aa3fd6c71abdc6918a","154.152.194.96","Mozilla/5.0 (Windows NT 10.0; Win64; x64) AppleWebKit/537.36 (KHTML, like Gecko) Chrome/137.0.0.0 Safari/537.36","WebKit","Chrome","137.0.0.0","Windows","10.0","https://app.prolific.com/","en-US,en;q=0.9","664c9a37d570871d534dd3c2","686d226cabeef709c732f8e1","686e311e5a02ab40e526ca69","664c9a37d570871d534dd3c2","2025-07-09T09:45:01.582Z","","","","","","","","","","","","","","","","win-only","3","g1:SW,g2:NE","0.2","9","0","1969061.1","2695.3","7698.1","39834.4","1","4","8","6","2","-8","-8","0","2","0","2950.5","3000","-1705","[""up"",""right""]","{""num_key_presses"":8,""num_perfect"":1,""num_errors"":0,""num_randdir"":7,""num_randdir_good_moves"":4,""num_whilered"":0,""num_whileblue"":0,""num_blue"":2,""num_good_moves"":5}","[301.22232142857143,291.12857142857143,0.7,301.22232142857143,291.12857142857143,107.2,301.22232142857143,291.12857142857143,209.5,301.22232142857143,291.12857142857143,312.2,301.22232142857143,291.12857142857143,419.2,301.22232142857143,291.12857142857143,523.7,301.22232142857143,291.12857142857143,632.5,301.22232142857143,291.12857142857143,738.4,301.22232142857143,291.12857142857143,846.2,301.22232142857143,291.12857142857143,954.2,301.22232142857143,291.12857142857143,1055.1,301.22232142857143,291.12857142857143,1159.8,301.22232142857143,291.12857142857143,1268.3,301.22232142857143,291.12857142857143,1373.5,373.22232142857143,235.12857142857143,1474.7,432.22232142857143,187.12857142857143,1579.6,470.22232142857143,157.12857142857143,1686.4,485.22232142857143,148.12857142857143,1789.9,502.22232142857143,147.12857142857143,1892,502.22232142857143,147.12857142857143,2004.8,502.22232142857143,147.12857142857143,2106.6,502.22232142857143,147.12857142857143,2208.4,503.22232142857143,143.12857142857143,2325.7,514.2223214285714,111.12857142857143,2434.6,517.2223214285714,102.12857142857143,2541.2,522.2223214285714,77.12857142857143,2643.5,522.2223214285714,62.128571428571426,2744,522.2223214285714,62.128571428571426,2853.1,522.2223214285714,62.128571428571426,2972.5,522.2223214285714,62.128571428571426,3076.2,522.2223214285714,62.128571428571426,3184.2,522.2223214285714,62.128571428571426,3295.2,522.2223214285714,62.128571428571426,3402,522.2223214285714,62.128571428571426,3515.2,522.2223214285714,62.128571428571426,3623.6,522.2223214285714,62.128571428571426,3733,522.2223214285714,62.128571428571426,3839.9,522.2223214285714,62.128571428571426,3941,522.2223214285714,62.128571428571426,4046.1,522.2223214285714,62.128571428571426,4152.6,522.2223214285714,62.128571428571426,4260.9,522.2223214285714,62.128571428571426,4370.4,522.2223214285714,62.128571428571426,4473.2,522.2223214285714,62.128571428571426,4573.8,522.2223214285714,62.128571428571426,4679.9,522.2223214285714,62.128571428571426,4788.2,522.2223214285714,62.128571428571426,4892.1,522.2223214285714,62.128571428571426,4997.3]","[1574,1574,1000,0,574,""oops"",""up"",""up"",""good_move"",10758.4,9183.6,2471.9,7709.4,577.1,""oops"",""up"",""right"",""good_move"",13766.3,3006.6,2389,10759.7,617.6,""oops"",""up"",""right"",""good_move"",17232.1,3464.4,2952.4,13767.8,511.9,""oops"",""up"",""up"",""good_move"",20195.6,2962,2449.8,17233.6,512.2,""smooth"",""up"",""up"",""good_move"",23237.9,3042.1,2559.9,20195.8,482.2,""oops"",""right"",""left"",""bad_move"",26131.4,2892.6,2429.6,23238.8,463,""oops"",""right"",""left"",""bad_move"",29477.8,3346.2,2056.4,26131.6,1289.8,""oops"",""right"",""down"",""bad_move""]","","",""
"5370","","<div style=""width:500px;"">
  <p>What determined the result of this run?</p>
  </div>","0","html-slider-response","84","2013652","0.0-10.0-1.8","164","1","2025-07-09 09:11:26","7701e855f2ef39aa3fd6c71abdc6918a","154.152.194.96","Mozilla/5.0 (Windows NT 10.0; Win64; x64) AppleWebKit/537.36 (KHTML, like Gecko) Chrome/137.0.0.0 Safari/537.36","WebKit","Chrome","137.0.0.0","Windows","10.0","https://app.prolific.com/","en-US,en;q=0.9","664c9a37d570871d534dd3c2","686d226cabeef709c732f8e1","686e311e5a02ab40e526ca69","664c9a37d570871d534dd3c2","2025-07-09T09:45:06.956Z","","","","","","AttribQ","","","","","","","","","","","","","","","","","","","","","","","","","","","","","","","","","","","","","","50",""
"5239","","<div style=""width:500px;"">
  <p>How much control did you have over the ball?</p>
  </div>","0","html-slider-response","85","2018894","0.0-10.0-2.8","164","1","2025-07-09 09:11:26","7701e855f2ef39aa3fd6c71abdc6918a","154.152.194.96","Mozilla/5.0 (Windows NT 10.0; Win64; x64) AppleWebKit/537.36 (KHTML, like Gecko) Chrome/137.0.0.0 Safari/537.36","WebKit","Chrome","137.0.0.0","Windows","10.0","https://app.prolific.com/","en-US,en;q=0.9","664c9a37d570871d534dd3c2","686d226cabeef709c732f8e1","686e311e5a02ab40e526ca69","664c9a37d570871d534dd3c2","2025-07-09T09:45:12.198Z","","","","","","ControlQ","","","","","","","","","","","","","","","","","","","","","","","","","","","","","","","","","","","","","","50",""
"8064","","<div style=""width:500px;"">
  <p>How would you describe your current emotional state?</p>
  </div>","0","html-slider-response","86","2026961","0.0-10.0-3.8","164","1","2025-07-09 09:11:26","7701e855f2ef39aa3fd6c71abdc6918a","154.152.194.96","Mozilla/5.0 (Windows NT 10.0; Win64; x64) AppleWebKit/537.36 (KHTML, like Gecko) Chrome/137.0.0.0 Safari/537.36","WebKit","Chrome","137.0.0.0","Windows","10.0","https://app.prolific.com/","en-US,en;q=0.9","664c9a37d570871d534dd3c2","686d226cabeef709c732f8e1","686e311e5a02ab40e526ca69","664c9a37d570871d534dd3c2","2025-07-09T09:45:20.265Z","","","","","","StressQ","","","","","","","","","","","","","","","","","","","","","","","","","","","","","","","","","","","","","","50",""
"13191","","<div style=""width:500px;"">
  <p>What best describes how you currently feel?</p>
  </div>","100","html-slider-response","87","2040155","0.0-10.0-4.8","164","1","2025-07-09 09:11:26","7701e855f2ef39aa3fd6c71abdc6918a","154.152.194.96","Mozilla/5.0 (Windows NT 10.0; Win64; x64) AppleWebKit/537.36 (KHTML, like Gecko) Chrome/137.0.0.0 Safari/537.36","WebKit","Chrome","137.0.0.0","Windows","10.0","https://app.prolific.com/","en-US,en;q=0.9","664c9a37d570871d534dd3c2","686d226cabeef709c732f8e1","686e311e5a02ab40e526ca69","664c9a37d570871d534dd3c2","2025-07-09T09:45:33.459Z","","","","","","MotivationQ","","","","","","","","","","","","","","","","","","","","","","","","","","","","","","","","","","","","","","50",""
