"rt","response_timestamp","stimulus","response","trial_type","trial_index","time_elapsed","internal_node_id","run_id","condition","recorded_at","source_code_version","ip","user_agent","device","browser","browser_version","platform","platform_version","referer","accept_language","PROLIFIC_PID","STUDY_ID","SESSION_ID","prolific_id","realtime","view_history","question_order","consent","success","question_id","eventType","responses","item_order","radio_event_ids","radio_event_times","key_event_times","mouse_event_times","straightlining","zigzagging","honeypot","which_type","canvas_config","goals_layout","control_level","trial_number","tutorial_trial_number","trial_start_time","phase1_start_time","phase2_start_time","phase3_start_time","goal_1_value","goal_1_distance","goal_2_value","goal_2_distance","goal_selected","outcome","outcome_total","participant_final_score","participant_initial_score","participant_final_score_prop","goal_choice_rt","allocated_time","allocated_time_remaining","goal_direction","counts","mouse_movements","key_presses","correct","slider_start","sub_question"
"5952","1752053412078","<p style='font-size:40px;line-height:1.25'><strong>Welcome to the experiment!</strong></p><p style='font-size:1.1em;line-height:1.25'>Thank you for your interest in our experiment! Before you begin, it is important that we obtain your informed consent to participate in the study.</p><p style='font-size:1.1em;line-height:1.25'>On the next screen will be an <strong>information sheet</strong> for you to read. To participate in the study we need you to read this information sheet and the following consent form carefully. If you agree with all the statements, please click the <strong>I agree</strong> button.</p><p style='font-size:1.1em;line-height:1.25'>Press <strong>Next</strong> to read the information sheet.</p>","0","custom-html-button-response","0","5958","0.0-0.0","221","1","2025-07-09 09:30:03","7701e855f2ef39aa3fd6c71abdc6918a","105.245.99.161","Mozilla/5.0 (Windows NT 10.0; Win64; x64) AppleWebKit/537.36 (KHTML, like Gecko) Chrome/137.0.0.0 Safari/537.36","WebKit","Chrome","137.0.0.0","Windows","10.0","https://app.prolific.com/","en-US,en;q=0.9","67cac9c704712b2393e52905","686d226cabeef709c732f8e1","686e3214cac65ee9c8d4ce8d","67cac9c704712b2393e52905","2025-07-09T09:30:12.081Z","","","","","","","","","","","","","","","","","","","","","","","","","","","","","","","","","","","","","","","","","","","","",""
"69510","","","","instructions","1","75471","0.0-1.0","221","1","2025-07-09 09:30:03","7701e855f2ef39aa3fd6c71abdc6918a","105.245.99.161","Mozilla/5.0 (Windows NT 10.0; Win64; x64) AppleWebKit/537.36 (KHTML, like Gecko) Chrome/137.0.0.0 Safari/537.36","WebKit","Chrome","137.0.0.0","Windows","10.0","https://app.prolific.com/","en-US,en;q=0.9","67cac9c704712b2393e52905","686d226cabeef709c732f8e1","686e3214cac65ee9c8d4ce8d","67cac9c704712b2393e52905","","[{""page_index"":0,""viewing_time"":67029},{""page_index"":1,""viewing_time"":2480}]","","","","","","","","","","","","","","","","","","","","","","","","","","","","","","","","","","","","","","","","","","","",""
"7419","","","{""Q0"":"""",""Q1"":"""",""Q2"":"""",""Q3"":"""",""Q4"":"""",""Q5"":"""",""Q6"":""I agree""}","survey-multi-choice","2","82893","0.0-2.0","221","1","2025-07-09 09:30:03","7701e855f2ef39aa3fd6c71abdc6918a","105.245.99.161","Mozilla/5.0 (Windows NT 10.0; Win64; x64) AppleWebKit/537.36 (KHTML, like Gecko) Chrome/137.0.0.0 Safari/537.36","WebKit","Chrome","137.0.0.0","Windows","10.0","https://app.prolific.com/","en-US,en;q=0.9","67cac9c704712b2393e52905","686d226cabeef709c732f8e1","686e3214cac65ee9c8d4ce8d","67cac9c704712b2393e52905","","","[0,1,2,3,4,5,6]","true","","","","","","","","","","","","","","","","","","","","","","","","","","","","","","","","","","","","","","","","","",""
"2440","","","","fullscreen","3","86349","0.0-4.0","221","1","2025-07-09 09:30:03","7701e855f2ef39aa3fd6c71abdc6918a","105.245.99.161","Mozilla/5.0 (Windows NT 10.0; Win64; x64) AppleWebKit/537.36 (KHTML, like Gecko) Chrome/137.0.0.0 Safari/537.36","WebKit","Chrome","137.0.0.0","Windows","10.0","https://app.prolific.com/","en-US,en;q=0.9","67cac9c704712b2393e52905","686d226cabeef709c732f8e1","686e3214cac65ee9c8d4ce8d","67cac9c704712b2393e52905","","","","","true","","","","","","","","","","","","","","","","","","","","","","","","","","","","","","","","","","","","","","","","",""
"4245","1752053496718"," <p style='font-size:1.1em;line-height:1.25'>Thank you for completing the consent form and closing all other tabs.</p><p style='font-size:1.1em;line-height:1.25'>We will now invite you to fill in some demographic information and questionnaires, before starting the game.<br>This will take about 5 minutes.<br></p><p style='font-size:1.1em;line-height:1.25'>Press the <strong>Next</strong> button to continue.</p>","0","custom-html-button-response","4","90596","0.0-5.0","221","1","2025-07-09 09:30:03","7701e855f2ef39aa3fd6c71abdc6918a","105.245.99.161","Mozilla/5.0 (Windows NT 10.0; Win64; x64) AppleWebKit/537.36 (KHTML, like Gecko) Chrome/137.0.0.0 Safari/537.36","WebKit","Chrome","137.0.0.0","Windows","10.0","https://app.prolific.com/","en-US,en;q=0.9","67cac9c704712b2393e52905","686d226cabeef709c732f8e1","686e3214cac65ee9c8d4ce8d","67cac9c704712b2393e52905","2025-07-09T09:31:36.718Z","","","","","","","","","","","","","","","","","","","","","","","","","","","","","","","","","","","","","","","","","","","","",""
"10114","","","{""age"":""30""}","survey-text","5","100716","0.0-6.0-0.0","221","1","2025-07-09 09:30:03","7701e855f2ef39aa3fd6c71abdc6918a","105.245.99.161","Mozilla/5.0 (Windows NT 10.0; Win64; x64) AppleWebKit/537.36 (KHTML, like Gecko) Chrome/137.0.0.0 Safari/537.36","WebKit","Chrome","137.0.0.0","Windows","10.0","https://app.prolific.com/","en-US,en;q=0.9","67cac9c704712b2393e52905","686d226cabeef709c732f8e1","686e3214cac65ee9c8d4ce8d","67cac9c704712b2393e52905","","","","","","0","demographics","","","","","","","","","","","","","","","","","","","","","","","","","","","","","","","","","","","","","","",""
"3652","","","{""gender_identity"":""female/woman""}","survey-multi-choice","6","104370","0.0-6.0-1.0","221","1","2025-07-09 09:30:03","7701e855f2ef39aa3fd6c71abdc6918a","105.245.99.161","Mozilla/5.0 (Windows NT 10.0; Win64; x64) AppleWebKit/537.36 (KHTML, like Gecko) Chrome/137.0.0.0 Safari/537.36","WebKit","Chrome","137.0.0.0","Windows","10.0","https://app.prolific.com/","en-US,en;q=0.9","67cac9c704712b2393e52905","686d226cabeef709c732f8e1","686e3214cac65ee9c8d4ce8d","67cac9c704712b2393e52905","","","[0]","","","1","demographics","","","","","","","","","","","","","","","","","","","","","","","","","","","","","","","","","","","","","","",""
"2921","","","{""assigned_sex"":""female""}","survey-multi-choice","7","107293","0.0-6.0-2.0","221","1","2025-07-09 09:30:03","7701e855f2ef39aa3fd6c71abdc6918a","105.245.99.161","Mozilla/5.0 (Windows NT 10.0; Win64; x64) AppleWebKit/537.36 (KHTML, like Gecko) Chrome/137.0.0.0 Safari/537.36","WebKit","Chrome","137.0.0.0","Windows","10.0","https://app.prolific.com/","en-US,en;q=0.9","67cac9c704712b2393e52905","686d226cabeef709c732f8e1","686e3214cac65ee9c8d4ce8d","67cac9c704712b2393e52905","","","[0]","","","2","demographics","","","","","","","","","","","","","","","","","","","","","","","","","","","","","","","","","","","","","","",""
"3790","","","{""menstrual_cycle"":""No""}","survey-multi-choice","8","111085","0.0-6.0-3.0","221","1","2025-07-09 09:30:03","7701e855f2ef39aa3fd6c71abdc6918a","105.245.99.161","Mozilla/5.0 (Windows NT 10.0; Win64; x64) AppleWebKit/537.36 (KHTML, like Gecko) Chrome/137.0.0.0 Safari/537.36","WebKit","Chrome","137.0.0.0","Windows","10.0","https://app.prolific.com/","en-US,en;q=0.9","67cac9c704712b2393e52905","686d226cabeef709c732f8e1","686e3214cac65ee9c8d4ce8d","67cac9c704712b2393e52905","","","[0]","","","4","demographics","","","","","","","","","","","","","","","","","","","","","","","","","","","","","","","","","","","","","","",""
"11390","","","{""education"":""Bachelor's Degree (e.g., BA)""}","survey-multi-choice","9","122477","0.0-6.0-4.0","221","1","2025-07-09 09:30:03","7701e855f2ef39aa3fd6c71abdc6918a","105.245.99.161","Mozilla/5.0 (Windows NT 10.0; Win64; x64) AppleWebKit/537.36 (KHTML, like Gecko) Chrome/137.0.0.0 Safari/537.36","WebKit","Chrome","137.0.0.0","Windows","10.0","https://app.prolific.com/","en-US,en;q=0.9","67cac9c704712b2393e52905","686d226cabeef709c732f8e1","686e3214cac65ee9c8d4ce8d","67cac9c704712b2393e52905","","","[0]","","","5","demographics","","","","","","","","","","","","","","","","","","","","","","","","","","","","","","","","","","","","","","",""
"7012","","","{""education"":""Doctoral Degree (e.g., PhD)""}","survey-multi-choice","10","129491","0.0-6.0-5.0","221","1","2025-07-09 09:30:03","7701e855f2ef39aa3fd6c71abdc6918a","105.245.99.161","Mozilla/5.0 (Windows NT 10.0; Win64; x64) AppleWebKit/537.36 (KHTML, like Gecko) Chrome/137.0.0.0 Safari/537.36","WebKit","Chrome","137.0.0.0","Windows","10.0","https://app.prolific.com/","en-US,en;q=0.9","67cac9c704712b2393e52905","686d226cabeef709c732f8e1","686e3214cac65ee9c8d4ce8d","67cac9c704712b2393e52905","2025-07-09T09:32:15.613Z","","[0]","","","6","demographics","","","","","","","","","","","","","","","","","","","","","","","","","","","","","","","","","","","","","","",""
"10169","","","{""mental_health_condition"":""no"",""mental_health_treatment"":""no"",""psychiatric_medication"":""""}","survey-text","11","139663","0.0-7.0-0.0","221","1","2025-07-09 09:30:03","7701e855f2ef39aa3fd6c71abdc6918a","105.245.99.161","Mozilla/5.0 (Windows NT 10.0; Win64; x64) AppleWebKit/537.36 (KHTML, like Gecko) Chrome/137.0.0.0 Safari/537.36","WebKit","Chrome","137.0.0.0","Windows","10.0","https://app.prolific.com/","en-US,en;q=0.9","67cac9c704712b2393e52905","686d226cabeef709c732f8e1","686e3214cac65ee9c8d4ce8d","67cac9c704712b2393e52905","2025-07-09T09:32:25.785Z","","","","","1","mental_health","","","","","","","","","","","","","","","","","","","","","","","","","","","","","","","","","","","","","","",""
"5622","","","{""depression_history"":[""No""]}","survey-multi-select","12","145289","0.0-7.0-1.0","221","1","2025-07-09 09:30:03","7701e855f2ef39aa3fd6c71abdc6918a","105.245.99.161","Mozilla/5.0 (Windows NT 10.0; Win64; x64) AppleWebKit/537.36 (KHTML, like Gecko) Chrome/137.0.0.0 Safari/537.36","WebKit","Chrome","137.0.0.0","Windows","10.0","https://app.prolific.com/","en-US,en;q=0.9","67cac9c704712b2393e52905","686d226cabeef709c732f8e1","686e3214cac65ee9c8d4ce8d","67cac9c704712b2393e52905","","","[0]","","","","mental_health","","","","","","","","","","","","","","","","","","","","","","","","","","","","","","","","","","","","","","",""
"198731.6000000015","","","","survey-template","13","344026","0.0-7.0-3.0","221","1","2025-07-09 09:30:03","7701e855f2ef39aa3fd6c71abdc6918a","105.245.99.161","Mozilla/5.0 (Windows NT 10.0; Win64; x64) AppleWebKit/537.36 (KHTML, like Gecko) Chrome/137.0.0.0 Safari/537.36","WebKit","Chrome","137.0.0.0","Windows","10.0","https://app.prolific.com/","en-US,en;q=0.9","67cac9c704712b2393e52905","686d226cabeef709c732f8e1","686e3214cac65ee9c8d4ce8d","67cac9c704712b2393e52905","2025-07-09T09:35:50.148Z","","","","","","ius","{""Q01"":""2"",""Q02"":""3"",""Q03"":""3"",""Q04"":""2"",""Q05"":""1"",""Q06"":""2"",""Q07"":""1"",""Q08"":""0"",""Q09"":""3"",""Q10"":""2"",""Q11"":""1"",""Q12"":""3"",""Q13"":""2""}","[0,1,2,3,4,5,6,7,8,9,10,11,12]","[""Q01"",""Q02"",""Q03"",""Q04"",""Q06"",""Q05"",""Q07"",""Q08"",""Q09"",""Q10"",""Q11"",""Q12"",""Q13""]","[151457.69999999553,158898.1000000015,163275.69999999553,166614.29999999702,172522.1000000015,174442.5,176361.3999999985,179100.69999999553,188929.1000000015,190619.8999999985,193269.1000000015,195936.19999999553,197407.8999999985]","[]","[144269.6000000015,151457.69999999553,153550.3999999985,155819,158898.1000000015,160421.79999999702,161608.79999999702,163275.69999999553,164658.6000000015,165591.3999999985,166614.29999999702,172522.1000000015,174442.5,176361.3999999985,179100.69999999553,188929.1000000015,190619.8999999985,191668.5,193269.1000000015,194638.8999999985,195936.19999999553,197407.8999999985,198727.5]","0.38461538461538464","0.75","0","","","","","","","","","","","","","","","","","","","","","","","","","","","","","",""
"2634","1752053752784","<p style='font-size:1.1em;line-height:1.25'>In the following, we will ask you a few questions relating to your experiences over the past month.<br></p><p style='font-size:1.1em;line-height:1.25'>Press the <strong>Next</strong> button to continue.</p>","0","custom-html-button-response","14","346662","0.0-7.0-4.0","221","1","2025-07-09 09:30:03","7701e855f2ef39aa3fd6c71abdc6918a","105.245.99.161","Mozilla/5.0 (Windows NT 10.0; Win64; x64) AppleWebKit/537.36 (KHTML, like Gecko) Chrome/137.0.0.0 Safari/537.36","WebKit","Chrome","137.0.0.0","Windows","10.0","https://app.prolific.com/","en-US,en;q=0.9","67cac9c704712b2393e52905","686d226cabeef709c732f8e1","686e3214cac65ee9c8d4ce8d","67cac9c704712b2393e52905","2025-07-09T09:35:52.785Z","","","","","","","","","","","","","","","","","","","","","","","","","","","","","","","","","","","","","","","","","","","","",""
"40192.40000000596","","","","survey-template","15","386858","0.0-7.0-5.0","221","1","2025-07-09 09:30:03","7701e855f2ef39aa3fd6c71abdc6918a","105.245.99.161","Mozilla/5.0 (Windows NT 10.0; Win64; x64) AppleWebKit/537.36 (KHTML, like Gecko) Chrome/137.0.0.0 Safari/537.36","WebKit","Chrome","137.0.0.0","Windows","10.0","https://app.prolific.com/","en-US,en;q=0.9","67cac9c704712b2393e52905","686d226cabeef709c732f8e1","686e3214cac65ee9c8d4ce8d","67cac9c704712b2393e52905","2025-07-09T09:36:32.980Z","","","","","","pss","{""Q01"":""2"",""Q02"":""2"",""Q03"":""1"",""Q04"":""3"",""Q05"":""3"",""Q06"":""3"",""Q07"":""3"",""Q08"":""2"",""Q09"":""2"",""Q10"":""2""}","[0,1,2,3,4,5,6,7,8,9]","[""Q01"",""Q05"",""Q04"",""Q03"",""Q02"",""Q06"",""Q07"",""Q08"",""Q09"",""Q10""]","[9884.40000000596,15239.30000000447,17807.40000000596,20260.5,23226.90000000596,31328.10000000149,33040.60000000149,35830.30000000447,37542.10000000149,38972.70000000298]","[]","[0.10000000149011612,2488.60000000149,4222,7215.5,8351.10000000149,9884.40000000596,15239.30000000447,17807.40000000596,20260.5,21417,23226.90000000596,29862,31328.10000000149,33040.60000000149,34401.60000000149,35830.30000000447,37542.10000000149,38972.70000000298,40189.30000000447]","0.5","0.2222222222222222","0","","","","","","","","","","","","","","","","","","","","","","","","","","","","","",""
"2115","1752053795096","<p style='font-size:1.1em;line-height:1.25'>Thank you for your answers! Now we will ask you a few more questions relating to your feelings in the last 24 hours.<br></p><p style='font-size:1.1em;line-height:1.25'>Press the <strong>Next</strong> button to continue.</p>","0","custom-html-button-response","16","388974","0.0-7.0-6.0","221","1","2025-07-09 09:30:03","7701e855f2ef39aa3fd6c71abdc6918a","105.245.99.161","Mozilla/5.0 (Windows NT 10.0; Win64; x64) AppleWebKit/537.36 (KHTML, like Gecko) Chrome/137.0.0.0 Safari/537.36","WebKit","Chrome","137.0.0.0","Windows","10.0","https://app.prolific.com/","en-US,en;q=0.9","67cac9c704712b2393e52905","686d226cabeef709c732f8e1","686e3214cac65ee9c8d4ce8d","67cac9c704712b2393e52905","2025-07-09T09:36:35.096Z","","","","","","","","","","","","","","","","","","","","","","","","","","","","","","","","","","","","","","","","","","","","",""
"77957.80000000447","","","","survey-template","17","466938","0.0-7.0-7.0","221","1","2025-07-09 09:30:03","7701e855f2ef39aa3fd6c71abdc6918a","105.245.99.161","Mozilla/5.0 (Windows NT 10.0; Win64; x64) AppleWebKit/537.36 (KHTML, like Gecko) Chrome/137.0.0.0 Safari/537.36","WebKit","Chrome","137.0.0.0","Windows","10.0","https://app.prolific.com/","en-US,en;q=0.9","67cac9c704712b2393e52905","686d226cabeef709c732f8e1","686e3214cac65ee9c8d4ce8d","67cac9c704712b2393e52905","2025-07-09T09:37:53.060Z","","","","","","drsp","{""Q01"":""1"",""Q02"":""0"",""Q03"":""0"",""Q04"":""0"",""Q05"":""1"",""Q06"":""2"",""Q07"":""2"",""Q08"":""1"",""Q09"":""3"",""Q10"":""0"",""Q11"":""2"",""Q12"":""1"",""Q13"":""3"",""Q14"":""0"",""Q15"":""0"",""Q16"":""0"",""Q17"":""0"",""Q18"":""3"",""Q19"":""1"",""Q20"":""3"",""Q21"":""1""}","[0,1,2,3,4,5,6,7,8,9,10,11,12,13,14,15,16,17,18,19,20]","[""Q01"",""Q02"",""Q03"",""Q04"",""Q05"",""Q06"",""Q07"",""Q08"",""Q09"",""Q10"",""Q11"",""Q12"",""Q13"",""Q14"",""Q15"",""Q16"",""Q17"",""Q18"",""Q19"",""Q21"",""Q21"",""Q20""]","[3467.5,6576.60000000149,11343.5,14828,16258,20971.30000000447,27843.89999999851,31911.39999999851,34284.10000000149,36285.39999999851,38540,41278.30000000447,47885.89999999851,49773.30000000447,51355.5,53007.5,56698.80000000447,59188.80000000447,64143.89999999851,69739.89999999851,71830.10000000149,74518.60000000149]","[]","[0.10000000149011612,3467.5,5113.70000000298,6576.60000000149,7806.30000000447,9639.39999999851,11343.5,12568.30000000447,13692.30000000447,14828,16258,19137,19901.80000000447,20971.30000000447,27843.89999999851,30445.30000000447,31911.39999999851,34284.10000000149,36285.39999999851,38540,41278.30000000447,47885.89999999851,49773.30000000447,51355.5,53007.5,56698.80000000447,59188.80000000447,62207.80000000447,64143.89999999851,69739.89999999851,71830.10000000149,73430.39999999851,74518.60000000149,77952.39999999851]","0.38095238095238093","0.25","0","","","","","","","","","","","","","","","","","","","","","","","","","","","","","",""
"17601","","","","survey-template","18","484542","0.0-7.0-8.0","221","1","2025-07-09 09:30:03","7701e855f2ef39aa3fd6c71abdc6918a","105.245.99.161","Mozilla/5.0 (Windows NT 10.0; Win64; x64) AppleWebKit/537.36 (KHTML, like Gecko) Chrome/137.0.0.0 Safari/537.36","WebKit","Chrome","137.0.0.0","Windows","10.0","https://app.prolific.com/","en-US,en;q=0.9","67cac9c704712b2393e52905","686d226cabeef709c732f8e1","686e3214cac65ee9c8d4ce8d","67cac9c704712b2393e52905","2025-07-09T09:38:10.664Z","","","","","","stress","{""Q01"":""2"",""Q02"":""4"",""Q03"":""0""}","[0,1,2]","[""Q01"",""Q02"",""Q03""]","[4939.69999999553,6936.39999999851,13346.79999999702]","[]","[4939.69999999553,6936.39999999851,13346.79999999702,17599.59999999404]","0.3333333333333333","1","0","","","","","","","","","","","","","","","","","","","","","","","","","","","","","",""
"7808","","","","instructions","19","492351","0.0-8.0-0.0","221","1","2025-07-09 09:30:03","7701e855f2ef39aa3fd6c71abdc6918a","105.245.99.161","Mozilla/5.0 (Windows NT 10.0; Win64; x64) AppleWebKit/537.36 (KHTML, like Gecko) Chrome/137.0.0.0 Safari/537.36","WebKit","Chrome","137.0.0.0","Windows","10.0","https://app.prolific.com/","en-US,en;q=0.9","67cac9c704712b2393e52905","686d226cabeef709c732f8e1","686e3214cac65ee9c8d4ce8d","67cac9c704712b2393e52905","","[{""page_index"":0,""viewing_time"":3220},{""page_index"":1,""viewing_time"":2043},{""page_index"":2,""viewing_time"":1283},{""page_index"":3,""viewing_time"":1261}]","","","","","","","","","","","","","","","","","","","","","","","","","","","","","","","","","","","","","","","","","","","",""
"","","","","ctl-task-cpt","20","515446","0.0-8.0-1.0","221","1","2025-07-09 09:30:03","7701e855f2ef39aa3fd6c71abdc6918a","105.245.99.161","Mozilla/5.0 (Windows NT 10.0; Win64; x64) AppleWebKit/537.36 (KHTML, like Gecko) Chrome/137.0.0.0 Safari/537.36","WebKit","Chrome","137.0.0.0","Windows","10.0","https://app.prolific.com/","en-US,en;q=0.9","67cac9c704712b2393e52905","686d226cabeef709c732f8e1","686e3214cac65ee9c8d4ce8d","67cac9c704712b2393e52905","","","","","","","","","","","","","","","","","win-only","3","g1:SW,g2:NE","1","0","1","495141.7","2779.1","6782.8","20088","2","4","4","6","1","2","2","2","0","0.015151515151515152","4003.3","4000","2720","[""down"",""left""]","{""num_key_presses"":4,""num_perfect"":4,""num_errors"":0,""num_randdir"":0,""num_randdir_good_moves"":0,""num_whilered"":0,""num_whileblue"":0,""num_blue"":1,""num_good_moves"":4}","[232.56339285714284,236.95401785714284,0.6,232.56339285714284,236.95401785714284,103.5,232.56339285714284,236.95401785714284,211,232.56339285714284,236.95401785714284,355.4,232.56339285714284,236.95401785714284,456.5,232.56339285714284,236.95401785714284,557.7,232.56339285714284,236.95401785714284,662.8,232.56339285714284,236.95401785714284,762.8,232.56339285714284,236.95401785714284,873.4,232.56339285714284,236.95401785714284,981.8,232.56339285714284,236.95401785714284,1082.3,232.56339285714284,236.95401785714284,1184.5,232.56339285714284,236.95401785714284,1293.9,232.56339285714284,236.95401785714284,1393.9,232.56339285714284,236.95401785714284,1503.5,232.56339285714284,236.95401785714284,1603.7,232.56339285714284,236.95401785714284,1710.7,232.56339285714284,236.95401785714284,1812.7,232.56339285714284,236.95401785714284,1913.9,232.56339285714284,236.95401785714284,2015,232.56339285714284,236.95401785714284,2120.5,232.56339285714284,236.95401785714284,2222.6,232.56339285714284,236.95401785714284,2323.9,232.56339285714284,236.95401785714284,2434.3,232.56339285714284,236.95401785714284,2544,232.56339285714284,236.95401785714284,2648.9,232.56339285714284,236.95401785714284,2752.8,232.56339285714284,236.95401785714284,2854,232.56339285714284,236.95401785714284,2966.8,232.56339285714284,236.95401785714284,3073.4,232.56339285714284,236.95401785714284,3182.4,232.56339285714284,236.95401785714284,3283.4,232.56339285714284,236.95401785714284,3383.5,232.56339285714284,236.95401785714284,3497.3,232.56339285714284,236.95401785714284,3603.9,232.56339285714284,236.95401785714284,3709.9,232.56339285714284,236.95401785714284,3813.3,232.56339285714284,236.95401785714284,3914.1]","[1508.2,1508.2,1000,0,508.2,""smooth"",""left"",""left"",""good_move"",3685.1,2175.5,1668.7,1509.7,506.7,""smooth"",""down"",""down"",""good_move"",9677.9,5992.2,2107.9,7139.1,430.9,""smooth"",""down"",""down"",""good_move"",13157.2,3478.3,2994.2,9678.9,484.1,""smooth"",""left"",""left"",""good_move""]","","",""
"2683","","","","instructions","21","518131","0.0-8.0-2.0","221","1","2025-07-09 09:30:03","7701e855f2ef39aa3fd6c71abdc6918a","105.245.99.161","Mozilla/5.0 (Windows NT 10.0; Win64; x64) AppleWebKit/537.36 (KHTML, like Gecko) Chrome/137.0.0.0 Safari/537.36","WebKit","Chrome","137.0.0.0","Windows","10.0","https://app.prolific.com/","en-US,en;q=0.9","67cac9c704712b2393e52905","686d226cabeef709c732f8e1","686e3214cac65ee9c8d4ce8d","67cac9c704712b2393e52905","","[{""page_index"":0,""viewing_time"":2682}]","","","","","","","","","","","","","","","","","","","","","","","","","","","","","","","","","","","","","","","","","","","",""
"","","","","ctl-task-cpt","22","585206","0.0-8.0-3.0","221","1","2025-07-09 09:30:03","7701e855f2ef39aa3fd6c71abdc6918a","105.245.99.161","Mozilla/5.0 (Windows NT 10.0; Win64; x64) AppleWebKit/537.36 (KHTML, like Gecko) Chrome/137.0.0.0 Safari/537.36","WebKit","Chrome","137.0.0.0","Windows","10.0","https://app.prolific.com/","en-US,en;q=0.9","67cac9c704712b2393e52905","686d226cabeef709c732f8e1","686e3214cac65ee9c8d4ce8d","67cac9c704712b2393e52905","","","","","","","","","","","","","","","","","win-only","3","g1:SW,g2:NE","0.35","0","3","520918.2","1909.2","5916.2","64062.9","2","4","8","6","2","-8","-8","0","0","0","4006.9","4000","-1760","[""up"",""right""]","{""num_key_presses"":14,""num_perfect"":6,""num_errors"":0,""num_randdir"":8,""num_randdir_good_moves"":3,""num_whilered"":0,""num_whileblue"":0,""num_blue"":4,""num_good_moves"":9}","[235.56339285714284,234.95401785714284,1.8,235.56339285714284,234.95401785714284,102.4,235.56339285714284,234.95401785714284,206.1,235.56339285714284,234.95401785714284,312.3,235.56339285714284,234.95401785714284,412.6,235.56339285714284,234.95401785714284,513,235.56339285714284,234.95401785714284,613.1,235.56339285714284,234.95401785714284,716.9,235.56339285714284,234.95401785714284,817.1,235.56339285714284,234.95401785714284,917.2,235.56339285714284,234.95401785714284,1018.1,235.56339285714284,234.95401785714284,1135,235.56339285714284,234.95401785714284,1244.4,235.56339285714284,234.95401785714284,1344.9,235.56339285714284,234.95401785714284,1445.4,235.56339285714284,234.95401785714284,1546.7,235.56339285714284,234.95401785714284,1656.1,235.56339285714284,234.95401785714284,1762.6,235.56339285714284,234.95401785714284,1863.5,235.56339285714284,234.95401785714284,1967.4,235.56339285714284,234.95401785714284,2068.6,235.56339285714284,234.95401785714284,2172,235.56339285714284,234.95401785714284,2283.8,235.56339285714284,234.95401785714284,2393.4,235.56339285714284,234.95401785714284,2495.6,235.56339285714284,234.95401785714284,2597.7,235.56339285714284,234.95401785714284,2708.2,235.56339285714284,234.95401785714284,2814,235.56339285714284,234.95401785714284,2919.7,235.56339285714284,234.95401785714284,3041.8,235.56339285714284,234.95401785714284,3141.9,235.56339285714284,234.95401785714284,3242.1,235.56339285714284,234.95401785714284,3342.3,235.56339285714284,234.95401785714284,3448.3,235.56339285714284,234.95401785714284,3574.5,235.56339285714284,234.95401785714284,3677.1,235.56339285714284,234.95401785714284,3798.1,235.56339285714284,234.95401785714284,3901.6]","[1505.7,1505.7,1000,0,505.7,""smooth"",""right"",""right"",""good_move"",6875.7,5369.4,1972.2,4431.9,471.7,""smooth"",""right"",""right"",""good_move"",10198.3,3321.3,2840,6877,481.3,""oops"",""up"",""right"",""good_move"",17387.9,7187.5,3603.7,13383,401.2,""oops"",""up"",""left"",""bad_move"",21135.7,3745.8,3279.1,17389.9,466.8,""oops"",""up"",""left"",""bad_move"",30958.3,9822,2974.3,27456.1,527.9,""smooth"",""up"",""up"",""good_move"",33232.1,2272.4,1640.9,30959.7,631.5,""oops"",""up"",""up"",""good_move"",36949.5,3716,3266.4,33233.5,449.6,""oops"",""right"",""down"",""bad_move"",40137.5,3187.6,2539.2,36950,648.3,""oops"",""right"",""left"",""bad_move"",43111.5,2973,2539.8,40138.5,433.2,""smooth"",""right"",""right"",""good_move"",45678.6,2566.5,2032.7,43112.1,533.9,""oops"",""right"",""down"",""bad_move"",48536.6,2857.5,2391.2,45679.2,466.3,""smooth"",""right"",""right"",""good_move"",51728.5,3190.4,2737.6,48538.1,452.8,""oops"",""up"",""right"",""good_move"",54898.6,3169.6,2740.9,51729,428.7,""smooth"",""up"",""up"",""good_move""]","","",""
"143193","","","","instructions","23","728401","0.0-8.0-4.0","221","1","2025-07-09 09:30:03","7701e855f2ef39aa3fd6c71abdc6918a","105.245.99.161","Mozilla/5.0 (Windows NT 10.0; Win64; x64) AppleWebKit/537.36 (KHTML, like Gecko) Chrome/137.0.0.0 Safari/537.36","WebKit","Chrome","137.0.0.0","Windows","10.0","https://app.prolific.com/","en-US,en;q=0.9","67cac9c704712b2393e52905","686d226cabeef709c732f8e1","686e3214cac65ee9c8d4ce8d","67cac9c704712b2393e52905","","[{""page_index"":0,""viewing_time"":2691},{""page_index"":1,""viewing_time"":140501}]","","","","","","","","","","","","","","","","","","","","","","","","","","","","","","","","","","","","","","","","","","","",""
"3296","","","{""green_ball"":[""Ball sometimes shakes and moves in a random direction""]}","survey-multi-select","24","731700","0.0-8.0-5.0-0.0","221","1","2025-07-09 09:30:03","7701e855f2ef39aa3fd6c71abdc6918a","105.245.99.161","Mozilla/5.0 (Windows NT 10.0; Win64; x64) AppleWebKit/537.36 (KHTML, like Gecko) Chrome/137.0.0.0 Safari/537.36","WebKit","Chrome","137.0.0.0","Windows","10.0","https://app.prolific.com/","en-US,en;q=0.9","67cac9c704712b2393e52905","686d226cabeef709c732f8e1","686e3214cac65ee9c8d4ce8d","67cac9c704712b2393e52905","","","[0]","","","","quiz","","","","","","","","","","","","","","","","","","","","","","","","","","","","","","","","","","","","","true","",""
"1479","","<p align='center'><b>CORRECT!</b> Indeed, the green ball may sometimes shake and move in a random direction.</p>","0","html-button-response","25","733181","0.0-8.0-5.0-1.0","221","1","2025-07-09 09:30:03","7701e855f2ef39aa3fd6c71abdc6918a","105.245.99.161","Mozilla/5.0 (Windows NT 10.0; Win64; x64) AppleWebKit/537.36 (KHTML, like Gecko) Chrome/137.0.0.0 Safari/537.36","WebKit","Chrome","137.0.0.0","Windows","10.0","https://app.prolific.com/","en-US,en;q=0.9","67cac9c704712b2393e52905","686d226cabeef709c732f8e1","686e3214cac65ee9c8d4ce8d","67cac9c704712b2393e52905","","","","","","","","","","","","","","","","","","","","","","","","","","","","","","","","","","","","","","","","","","","","","",""
"2973","","","{""yellow_ball"":[""Ball doesn‘t move and I get -1 penalty point""]}","survey-multi-select","26","736158","0.0-8.0-6.0-0.0","221","1","2025-07-09 09:30:03","7701e855f2ef39aa3fd6c71abdc6918a","105.245.99.161","Mozilla/5.0 (Windows NT 10.0; Win64; x64) AppleWebKit/537.36 (KHTML, like Gecko) Chrome/137.0.0.0 Safari/537.36","WebKit","Chrome","137.0.0.0","Windows","10.0","https://app.prolific.com/","en-US,en;q=0.9","67cac9c704712b2393e52905","686d226cabeef709c732f8e1","686e3214cac65ee9c8d4ce8d","67cac9c704712b2393e52905","","","[0]","","","","quiz","","","","","","","","","","","","","","","","","","","","","","","","","","","","","","","","","","","","","true","",""
"2407","","<p align='center'><b>CORRECT!</b> Indeed, the yellow ball never moves and you receive a penalty.</p>","0","html-button-response","27","738566","0.0-8.0-6.0-1.0","221","1","2025-07-09 09:30:03","7701e855f2ef39aa3fd6c71abdc6918a","105.245.99.161","Mozilla/5.0 (Windows NT 10.0; Win64; x64) AppleWebKit/537.36 (KHTML, like Gecko) Chrome/137.0.0.0 Safari/537.36","WebKit","Chrome","137.0.0.0","Windows","10.0","https://app.prolific.com/","en-US,en;q=0.9","67cac9c704712b2393e52905","686d226cabeef709c732f8e1","686e3214cac65ee9c8d4ce8d","67cac9c704712b2393e52905","","","","","","","","","","","","","","","","","","","","","","","","","","","","","","","","","","","","","","","","","","","","","",""
"16400","","","{""blue_ball"":[""Ball always shakes and moves in a random direction""]}","survey-multi-select","28","754969","0.0-8.0-7.0-0.0","221","1","2025-07-09 09:30:03","7701e855f2ef39aa3fd6c71abdc6918a","105.245.99.161","Mozilla/5.0 (Windows NT 10.0; Win64; x64) AppleWebKit/537.36 (KHTML, like Gecko) Chrome/137.0.0.0 Safari/537.36","WebKit","Chrome","137.0.0.0","Windows","10.0","https://app.prolific.com/","en-US,en;q=0.9","67cac9c704712b2393e52905","686d226cabeef709c732f8e1","686e3214cac65ee9c8d4ce8d","67cac9c704712b2393e52905","","","[0]","","","","quiz","","","","","","","","","","","","","","","","","","","","","","","","","","","","","","","","","","","","","true","",""
"21891","","<p align='center'><b>CORRECT!</b> Indeed, the blue ball always shakes and moves in a random direction. Also there is a penalty of -1 point.</p>","0","html-button-response","29","776864","0.0-8.0-7.0-1.0","221","1","2025-07-09 09:30:03","7701e855f2ef39aa3fd6c71abdc6918a","105.245.99.161","Mozilla/5.0 (Windows NT 10.0; Win64; x64) AppleWebKit/537.36 (KHTML, like Gecko) Chrome/137.0.0.0 Safari/537.36","WebKit","Chrome","137.0.0.0","Windows","10.0","https://app.prolific.com/","en-US,en;q=0.9","67cac9c704712b2393e52905","686d226cabeef709c732f8e1","686e3214cac65ee9c8d4ce8d","67cac9c704712b2393e52905","","","","","","","","","","","","","","","","","","","","","","","","","","","","","","","","","","","","","","","","","","","","","",""
"2692","","","{""bonus"":[""When I reach 50% of points""]}","survey-multi-select","30","779560","0.0-8.0-8.0-0.0","221","1","2025-07-09 09:30:03","7701e855f2ef39aa3fd6c71abdc6918a","105.245.99.161","Mozilla/5.0 (Windows NT 10.0; Win64; x64) AppleWebKit/537.36 (KHTML, like Gecko) Chrome/137.0.0.0 Safari/537.36","WebKit","Chrome","137.0.0.0","Windows","10.0","https://app.prolific.com/","en-US,en;q=0.9","67cac9c704712b2393e52905","686d226cabeef709c732f8e1","686e3214cac65ee9c8d4ce8d","67cac9c704712b2393e52905","","","[0]","","","","quiz","","","","","","","","","","","","","","","","","","","","","","","","","","","","","","","","","","","","","true","",""
"27118","","<p align='center'><b>CORRECT!</b> Indeed, you receive 2 pounds extra when you reach 50% of points.</p>","0","html-button-response","31","806680","0.0-8.0-8.0-1.0","221","1","2025-07-09 09:30:03","7701e855f2ef39aa3fd6c71abdc6918a","105.245.99.161","Mozilla/5.0 (Windows NT 10.0; Win64; x64) AppleWebKit/537.36 (KHTML, like Gecko) Chrome/137.0.0.0 Safari/537.36","WebKit","Chrome","137.0.0.0","Windows","10.0","https://app.prolific.com/","en-US,en;q=0.9","67cac9c704712b2393e52905","686d226cabeef709c732f8e1","686e3214cac65ee9c8d4ce8d","67cac9c704712b2393e52905","","","","","","","","","","","","","","","","","","","","","","","","","","","","","","","","","","","","","","","","","","","","","",""
"32880","","","","instructions","32","839562","0.0-8.0-9.0","221","1","2025-07-09 09:30:03","7701e855f2ef39aa3fd6c71abdc6918a","105.245.99.161","Mozilla/5.0 (Windows NT 10.0; Win64; x64) AppleWebKit/537.36 (KHTML, like Gecko) Chrome/137.0.0.0 Safari/537.36","WebKit","Chrome","137.0.0.0","Windows","10.0","https://app.prolific.com/","en-US,en;q=0.9","67cac9c704712b2393e52905","686d226cabeef709c732f8e1","686e3214cac65ee9c8d4ce8d","67cac9c704712b2393e52905","","[{""page_index"":0,""viewing_time"":32880}]","","","","","","","","","","","","","","","","","","","","","","","","","","","","","","","","","","","","","","","","","","","",""
"3490","","<p>Before you start with this game please answer the following three questions yourself. </p>
  <p>Through this game, we measure several aspects of your cognitive performance, such as reaction times, multi-tasking capabilities </p>
  <p>and the ability to assess the situation you are in.</p>
  <p></p>
  <p><b>How good do you usually are in such tasks?</b></p>","87","html-slider-response","33","843054","0.0-9.0-0.0","221","1","2025-07-09 09:30:03","7701e855f2ef39aa3fd6c71abdc6918a","105.245.99.161","Mozilla/5.0 (Windows NT 10.0; Win64; x64) AppleWebKit/537.36 (KHTML, like Gecko) Chrome/137.0.0.0 Safari/537.36","WebKit","Chrome","137.0.0.0","Windows","10.0","https://app.prolific.com/","en-US,en;q=0.9","67cac9c704712b2393e52905","686d226cabeef709c732f8e1","686e3214cac65ee9c8d4ce8d","67cac9c704712b2393e52905","2025-07-09T09:44:09.176Z","","","","","","PreSkillQ","","","","","","","","","","","","","","","","","","","","","","","","","","","","","","","","","","","","","","50",""
"3206","","<div style=""width:500px;"">
  <p>How well do you think you will perform in this task compared to other participants?</p>
  </div>","99","html-slider-response","34","846263","0.0-9.0-1.0","221","1","2025-07-09 09:30:03","7701e855f2ef39aa3fd6c71abdc6918a","105.245.99.161","Mozilla/5.0 (Windows NT 10.0; Win64; x64) AppleWebKit/537.36 (KHTML, like Gecko) Chrome/137.0.0.0 Safari/537.36","WebKit","Chrome","137.0.0.0","Windows","10.0","https://app.prolific.com/","en-US,en;q=0.9","67cac9c704712b2393e52905","686d226cabeef709c732f8e1","686e3214cac65ee9c8d4ce8d","67cac9c704712b2393e52905","2025-07-09T09:44:12.386Z","","","","","","PrePerfQ","","","","","","","","","","","","","","","","","","","","","","","","","","","","","","","","","","","","","","50",""
"4169","","<div style=""width:500px;"">
  <p>What best describes how you currently feel?</p>
  </div>","96","html-slider-response","35","850435","0.0-9.0-2.0","221","1","2025-07-09 09:30:03","7701e855f2ef39aa3fd6c71abdc6918a","105.245.99.161","Mozilla/5.0 (Windows NT 10.0; Win64; x64) AppleWebKit/537.36 (KHTML, like Gecko) Chrome/137.0.0.0 Safari/537.36","WebKit","Chrome","137.0.0.0","Windows","10.0","https://app.prolific.com/","en-US,en;q=0.9","67cac9c704712b2393e52905","686d226cabeef709c732f8e1","686e3214cac65ee9c8d4ce8d","67cac9c704712b2393e52905","2025-07-09T09:44:16.557Z","","","","","","PreMotivationQ","","","","","","","","","","","","","","","","","","","","","","","","","","","","","","","","","","","","","","50",""
"","","","","ctl-task-cpt","36","917815","0.0-10.0-0.0","221","1","2025-07-09 09:30:03","7701e855f2ef39aa3fd6c71abdc6918a","105.245.99.161","Mozilla/5.0 (Windows NT 10.0; Win64; x64) AppleWebKit/537.36 (KHTML, like Gecko) Chrome/137.0.0.0 Safari/537.36","WebKit","Chrome","137.0.0.0","Windows","10.0","https://app.prolific.com/","en-US,en;q=0.9","67cac9c704712b2393e52905","686d226cabeef709c732f8e1","686e3214cac65ee9c8d4ce8d","67cac9c704712b2393e52905","2025-07-09T09:45:23.938Z","","","","","","","","","","","","","","","","win-only","3","g1:SW,g2:NE","1","1","0","853227.1","47820.9","52822.4","64367.1","1","4","4","6","1","1","1","1","0","0.007575757575757576","5001.5","3000","1640","[""down"",""left""]","{""num_key_presses"":4,""num_perfect"":4,""num_errors"":0,""num_randdir"":0,""num_randdir_good_moves"":0,""num_whilered"":0,""num_whileblue"":0,""num_blue"":0,""num_good_moves"":4}","[237.56339285714284,234.95401785714284,1.3,237.56339285714284,234.95401785714284,102.3,237.56339285714284,234.95401785714284,202.4,237.56339285714284,234.95401785714284,303.1,237.56339285714284,234.95401785714284,428.9,237.56339285714284,234.95401785714284,532.8,237.56339285714284,234.95401785714284,632.8,237.56339285714284,234.95401785714284,740.4,237.56339285714284,234.95401785714284,855.1,237.56339285714284,234.95401785714284,962.5,237.56339285714284,234.95401785714284,1069.1,237.56339285714284,234.95401785714284,1178.3,237.56339285714284,234.95401785714284,1283.4,237.56339285714284,234.95401785714284,1392,237.56339285714284,234.95401785714284,1517.5,237.56339285714284,234.95401785714284,1617.8,237.56339285714284,234.95401785714284,1718.3,237.56339285714284,234.95401785714284,1819.3,237.56339285714284,234.95401785714284,1920.1,237.56339285714284,234.95401785714284,2022.3,237.56339285714284,234.95401785714284,2132.8,237.56339285714284,234.95401785714284,2242.4,237.56339285714284,234.95401785714284,2343.9,237.56339285714284,234.95401785714284,2451.1,237.56339285714284,234.95401785714284,2561.6,237.56339285714284,234.95401785714284,2663,237.56339285714284,234.95401785714284,2769.3,237.56339285714284,234.95401785714284,2870,237.56339285714284,234.95401785714284,2970.2,237.56339285714284,234.95401785714284,3070.2,237.56339285714284,234.95401785714284,3170.3,237.56339285714284,234.95401785714284,3274.2,237.56339285714284,234.95401785714284,3389.7,237.56339285714284,234.95401785714284,3497.8,237.56339285714284,234.95401785714284,3608.3,237.56339285714284,234.95401785714284,3711.5,237.56339285714284,234.95401785714284,3812.5,237.56339285714284,234.95401785714284,3919.1,237.56339285714284,234.95401785714284,4022.8,237.56339285714284,234.95401785714284,4126.7,237.56339285714284,234.95401785714284,4230.4,237.56339285714284,234.95401785714284,4332.6,237.56339285714284,234.95401785714284,4443.2,237.56339285714284,234.95401785714284,4544.5,237.56339285714284,234.95401785714284,4652.1,237.56339285714284,234.95401785714284,4762.5,237.56339285714284,234.95401785714284,4872.2,237.56339285714284,234.95401785714284,4972.5]","[1892.2,1892.2,1000,0,892.2,""smooth"",""down"",""down"",""good_move"",4566.8,2673.4,2076.9,1893.7,596.2,""smooth"",""left"",""left"",""good_move"",8452,3883.2,3370.7,4568.8,512.5,""smooth"",""left"",""left"",""good_move"",11361.5,2909.2,2453.6,8452.5,455.5,""smooth"",""down"",""down"",""good_move""]","","",""
"7033","","<div style=""width:500px;"">
  <p>What determined the result of this run?</p>
  </div>","70","html-slider-response","37","924852","0.0-10.0-1.0","221","1","2025-07-09 09:30:03","7701e855f2ef39aa3fd6c71abdc6918a","105.245.99.161","Mozilla/5.0 (Windows NT 10.0; Win64; x64) AppleWebKit/537.36 (KHTML, like Gecko) Chrome/137.0.0.0 Safari/537.36","WebKit","Chrome","137.0.0.0","Windows","10.0","https://app.prolific.com/","en-US,en;q=0.9","67cac9c704712b2393e52905","686d226cabeef709c732f8e1","686e3214cac65ee9c8d4ce8d","67cac9c704712b2393e52905","2025-07-09T09:45:30.974Z","","","","","","AttribQ","","","","","","","","","","","","","","","","","","","","","","","","","","","","","","","","","","","","","","50",""
"3344","","<div style=""width:500px;"">
  <p>How much control did you have over the ball?</p>
  </div>","72","html-slider-response","38","928200","0.0-10.0-2.0","221","1","2025-07-09 09:30:03","7701e855f2ef39aa3fd6c71abdc6918a","105.245.99.161","Mozilla/5.0 (Windows NT 10.0; Win64; x64) AppleWebKit/537.36 (KHTML, like Gecko) Chrome/137.0.0.0 Safari/537.36","WebKit","Chrome","137.0.0.0","Windows","10.0","https://app.prolific.com/","en-US,en;q=0.9","67cac9c704712b2393e52905","686d226cabeef709c732f8e1","686e3214cac65ee9c8d4ce8d","67cac9c704712b2393e52905","2025-07-09T09:45:34.322Z","","","","","","ControlQ","","","","","","","","","","","","","","","","","","","","","","","","","","","","","","","","","","","","","","50",""
"4239","","<div style=""width:500px;"">
  <p>How would you describe your current emotional state?</p>
  </div>","20","html-slider-response","39","932441","0.0-10.0-3.0","221","1","2025-07-09 09:30:03","7701e855f2ef39aa3fd6c71abdc6918a","105.245.99.161","Mozilla/5.0 (Windows NT 10.0; Win64; x64) AppleWebKit/537.36 (KHTML, like Gecko) Chrome/137.0.0.0 Safari/537.36","WebKit","Chrome","137.0.0.0","Windows","10.0","https://app.prolific.com/","en-US,en;q=0.9","67cac9c704712b2393e52905","686d226cabeef709c732f8e1","686e3214cac65ee9c8d4ce8d","67cac9c704712b2393e52905","2025-07-09T09:45:38.563Z","","","","","","StressQ","","","","","","","","","","","","","","","","","","","","","","","","","","","","","","","","","","","","","","50",""
"6827","","<div style=""width:500px;"">
  <p>What best describes how you currently feel?</p>
  </div>","70","html-slider-response","40","939271","0.0-10.0-4.0","221","1","2025-07-09 09:30:03","7701e855f2ef39aa3fd6c71abdc6918a","105.245.99.161","Mozilla/5.0 (Windows NT 10.0; Win64; x64) AppleWebKit/537.36 (KHTML, like Gecko) Chrome/137.0.0.0 Safari/537.36","WebKit","Chrome","137.0.0.0","Windows","10.0","https://app.prolific.com/","en-US,en;q=0.9","67cac9c704712b2393e52905","686d226cabeef709c732f8e1","686e3214cac65ee9c8d4ce8d","67cac9c704712b2393e52905","2025-07-09T09:45:45.393Z","","","","","","MotivationQ","","","","","","","","","","","","","","","","","","","","","","","","","","","","","","","","","","","","","","50",""
"","","","","ctl-task-cpt","41","1487486","0.0-10.0-0.1","221","1","2025-07-09 09:30:03","7701e855f2ef39aa3fd6c71abdc6918a","105.245.99.161","Mozilla/5.0 (Windows NT 10.0; Win64; x64) AppleWebKit/537.36 (KHTML, like Gecko) Chrome/137.0.0.0 Safari/537.36","WebKit","Chrome","137.0.0.0","Windows","10.0","https://app.prolific.com/","en-US,en;q=0.9","67cac9c704712b2393e52905","686d226cabeef709c732f8e1","686e3214cac65ee9c8d4ce8d","67cac9c704712b2393e52905","2025-07-09T09:54:53.608Z","","","","","","","","","","","","","","","","win-only","0","g1:NW,g2:SE","0.9","2","0","942061.6","519002.2","524012.1","545191.2","1","4","8","6","2","8","8","9","1","0.06818181818181818","1965.9","3000","1565","[""down"",""right""]","{""num_key_presses"":6,""num_perfect"":5,""num_errors"":0,""num_randdir"":1,""num_randdir_good_moves"":1,""num_whilered"":0,""num_whileblue"":0,""num_blue"":1,""num_good_moves"":6}","[232.56339285714284,235.95401785714284,1,232.56339285714284,235.95401785714284,100.4,232.56339285714284,235.95401785714284,200.6,232.56339285714284,235.95401785714284,309.4,232.56339285714284,235.95401785714284,422.7,232.56339285714284,235.95401785714284,523.3,232.56339285714284,235.95401785714284,630.7,232.56339285714284,235.95401785714284,731.1,232.56339285714284,235.95401785714284,833.8,232.56339285714284,235.95401785714284,934.1,247.56339285714284,235.95401785714284,1040.1,377.56339285714284,320.95401785714284,1142.8,412.56339285714284,354.95401785714284,1245.7,414.56339285714284,371.95401785714284,1349.9,416.56339285714284,387.95401785714284,1449.9,417.56339285714284,402.95401785714284,1549.9,418.56339285714284,406.95401785714284,1650.2,418.56339285714284,406.95401785714284,1750.2,418.56339285714284,406.95401785714284,1850.3,419.56339285714284,407.95401785714284,1959.4,419.56339285714284,407.95401785714284,2059.5,419.56339285714284,407.95401785714284,2159.9,419.56339285714284,407.95401785714284,2267,419.56339285714284,407.95401785714284,2370,419.56339285714284,407.95401785714284,2480.3,419.56339285714284,407.95401785714284,2580.4,419.56339285714284,407.95401785714284,2686.7,419.56339285714284,407.95401785714284,2797.3,419.56339285714284,407.95401785714284,2899.6,419.56339285714284,407.95401785714284,2999.8,419.56339285714284,407.95401785714284,3108.8,419.56339285714284,407.95401785714284,3209.8,419.56339285714284,407.95401785714284,3314,419.56339285714284,407.95401785714284,3415.4,419.56339285714284,407.95401785714284,3518.7,419.56339285714284,407.95401785714284,3620.1,419.56339285714284,407.95401785714284,3730.2,419.56339285714284,407.95401785714284,3830.2,419.56339285714284,407.95401785714284,3930.2,419.56339285714284,407.95401785714284,4040.3,419.56339285714284,407.95401785714284,4150,419.56339285714284,407.95401785714284,4250.5,419.56339285714284,407.95401785714284,4357.9,419.56339285714284,407.95401785714284,4459.9,419.56339285714284,407.95401785714284,4566.4,419.56339285714284,407.95401785714284,4668.6,419.56339285714284,407.95401785714284,4769.1,419.56339285714284,407.95401785714284,4869.6,419.56339285714284,407.95401785714284,4970.7]","[1596,1596,1000,0,596,""smooth"",""right"",""right"",""good_move"",8235.6,6638.7,2746.6,5076.2,412.8,""smooth"",""down"",""down"",""good_move"",11398.6,3162.4,2732,8236.2,430.4,""oops"",""down"",""down"",""good_move"",14913.8,3515,3088.7,11398.8,426.4,""smooth"",""right"",""right"",""good_move"",17870.3,2955.9,2528.1,14914.5,427.7,""smooth"",""right"",""right"",""good_move"",20978.9,3108,2711.7,17871,396.2,""smooth"",""down"",""down"",""good_move""]","","",""
"173620","","<div style=""width:500px;"">
  <p>What determined the result of this run?</p>
  </div>","17","html-slider-response","42","1661109","0.0-10.0-1.1","221","1","2025-07-09 09:30:03","7701e855f2ef39aa3fd6c71abdc6918a","105.245.99.161","Mozilla/5.0 (Windows NT 10.0; Win64; x64) AppleWebKit/537.36 (KHTML, like Gecko) Chrome/137.0.0.0 Safari/537.36","WebKit","Chrome","137.0.0.0","Windows","10.0","https://app.prolific.com/","en-US,en;q=0.9","67cac9c704712b2393e52905","686d226cabeef709c732f8e1","686e3214cac65ee9c8d4ce8d","67cac9c704712b2393e52905","2025-07-09T09:57:47.231Z","","","","","","AttribQ","","","","","","","","","","","","","","","","","","","","","","","","","","","","","","","","","","","","","","50",""
"5138","","<div style=""width:500px;"">
  <p>How much control did you have over the ball?</p>
  </div>","17","html-slider-response","43","1666250","0.0-10.0-2.1","221","1","2025-07-09 09:30:03","7701e855f2ef39aa3fd6c71abdc6918a","105.245.99.161","Mozilla/5.0 (Windows NT 10.0; Win64; x64) AppleWebKit/537.36 (KHTML, like Gecko) Chrome/137.0.0.0 Safari/537.36","WebKit","Chrome","137.0.0.0","Windows","10.0","https://app.prolific.com/","en-US,en;q=0.9","67cac9c704712b2393e52905","686d226cabeef709c732f8e1","686e3214cac65ee9c8d4ce8d","67cac9c704712b2393e52905","2025-07-09T09:57:52.372Z","","","","","","ControlQ","","","","","","","","","","","","","","","","","","","","","","","","","","","","","","","","","","","","","","50",""
"3075","","<div style=""width:500px;"">
  <p>How would you describe your current emotional state?</p>
  </div>","79","html-slider-response","44","1669327","0.0-10.0-3.1","221","1","2025-07-09 09:30:03","7701e855f2ef39aa3fd6c71abdc6918a","105.245.99.161","Mozilla/5.0 (Windows NT 10.0; Win64; x64) AppleWebKit/537.36 (KHTML, like Gecko) Chrome/137.0.0.0 Safari/537.36","WebKit","Chrome","137.0.0.0","Windows","10.0","https://app.prolific.com/","en-US,en;q=0.9","67cac9c704712b2393e52905","686d226cabeef709c732f8e1","686e3214cac65ee9c8d4ce8d","67cac9c704712b2393e52905","2025-07-09T09:57:55.449Z","","","","","","StressQ","","","","","","","","","","","","","","","","","","","","","","","","","","","","","","","","","","","","","","50",""
"6848","","<div style=""width:500px;"">
  <p>What best describes how you currently feel?</p>
  </div>","25","html-slider-response","45","1676178","0.0-10.0-4.1","221","1","2025-07-09 09:30:03","7701e855f2ef39aa3fd6c71abdc6918a","105.245.99.161","Mozilla/5.0 (Windows NT 10.0; Win64; x64) AppleWebKit/537.36 (KHTML, like Gecko) Chrome/137.0.0.0 Safari/537.36","WebKit","Chrome","137.0.0.0","Windows","10.0","https://app.prolific.com/","en-US,en;q=0.9","67cac9c704712b2393e52905","686d226cabeef709c732f8e1","686e3214cac65ee9c8d4ce8d","67cac9c704712b2393e52905","2025-07-09T09:58:02.300Z","","","","","","MotivationQ","","","","","","","","","","","","","","","","","","","","","","","","","","","","","","","","","","","","","","50",""
"","","","","ctl-task-cpt","46","1757165","0.0-10.0-0.2","221","1","2025-07-09 09:30:03","7701e855f2ef39aa3fd6c71abdc6918a","105.245.99.161","Mozilla/5.0 (Windows NT 10.0; Win64; x64) AppleWebKit/537.36 (KHTML, like Gecko) Chrome/137.0.0.0 Safari/537.36","WebKit","Chrome","137.0.0.0","Windows","10.0","https://app.prolific.com/","en-US,en;q=0.9","67cac9c704712b2393e52905","686d226cabeef709c732f8e1","686e3214cac65ee9c8d4ce8d","67cac9c704712b2393e52905","2025-07-09T09:59:23.288Z","","","","","","","","","","","","","","","","win-only","1","g1:NE,g2:SW","0.8","3","0","1678968.8","41177.2","46181.6","77972.1","1","4","4","6","2","4","3","12","9","0.09090909090909091","3478.9","3000","1610","[""down"",""left""]","{""num_key_presses"":7,""num_perfect"":5,""num_errors"":1,""num_randdir"":1,""num_randdir_good_moves"":1,""num_whilered"":0,""num_whileblue"":0,""num_blue"":3,""num_good_moves"":6}","[239.56339285714284,236.95401785714284,1.4,235.56339285714284,236.95401785714284,109.3,235.56339285714284,236.95401785714284,221.9,235.56339285714284,236.95401785714284,324.6,235.56339285714284,236.95401785714284,470.7,235.56339285714284,236.95401785714284,601,235.56339285714284,236.95401785714284,729.5,235.56339285714284,236.95401785714284,838.1,235.56339285714284,236.95401785714284,944.4,235.56339285714284,236.95401785714284,1069.3,235.56339285714284,236.95401785714284,1175.3,235.56339285714284,236.95401785714284,1278.3,235.56339285714284,236.95401785714284,1415.9,235.56339285714284,236.95401785714284,1552.3,235.56339285714284,236.95401785714284,1690.8,235.56339285714284,236.95401785714284,1794.9,235.56339285714284,236.95401785714284,1909.7,115.56339285714284,261.95401785714284,2042.7,-33.43660714285715,370.95401785714284,2158,-75.43660714285716,404.95401785714284,2268.7,-97.43660714285716,438.95401785714284,2369.9,-54.43660714285715,468.95401785714284,2489.5,-6.436607142857149,475.95401785714284,2619.3,-5.436607142857149,475.95401785714284,2722.8,1.5633928571428513,471.95401785714284,2825.1,33.56339285714285,446.95401785714284,2953.5,35.56339285714285,445.95401785714284,3062.3,35.56339285714285,445.95401785714284,3180.6,35.56339285714285,445.95401785714284,3281.6,35.56339285714285,445.95401785714284,3384,35.56339285714285,445.95401785714284,3485.1,35.56339285714285,445.95401785714284,3599.7,35.56339285714285,445.95401785714284,3710.3,35.56339285714285,445.95401785714284,3826.1,35.56339285714285,445.95401785714284,3959.6,35.56339285714285,445.95401785714284,4062.3,35.56339285714285,445.95401785714284,4166.7,35.56339285714285,445.95401785714284,4290.9,35.56339285714285,445.95401785714284,4392.8,35.56339285714285,445.95401785714284,4494.2,35.56339285714285,445.95401785714284,4618.8,35.56339285714285,445.95401785714284,4721.9,35.56339285714285,445.95401785714284,4835.7,35.56339285714285,445.95401785714284,4953.3]","[10231.3,10231.3,3244.6,6463.2,523.5,""smooth"",""left"",""left"",""good_move"",13407.6,3174.7,2669.1,10233,505.5,""smooth"",""left"",""left"",""good_move"",15616.4,2208.2,3297.7,13408.3,-1089.5,""error"",""-"",""-"",""no_move"",23200.8,7583.5,3148.2,19600.2,452.4,""smooth"",""down"",""down"",""good_move"",26247.2,3045.8,2635.3,23201.4,410.5,""smooth"",""down"",""down"",""good_move"",29012.9,2764.3,2312.5,26248.7,451.9,""oops"",""down"",""down"",""good_move"",31635.2,2621.6,2176.5,29013.7,445.1,""smooth"",""left"",""left"",""good_move""]","","",""
"3544","","<div style=""width:500px;"">
  <p>What determined the result of this run?</p>
  </div>","12","html-slider-response","47","1760712","0.0-10.0-1.2","221","1","2025-07-09 09:30:03","7701e855f2ef39aa3fd6c71abdc6918a","105.245.99.161","Mozilla/5.0 (Windows NT 10.0; Win64; x64) AppleWebKit/537.36 (KHTML, like Gecko) Chrome/137.0.0.0 Safari/537.36","WebKit","Chrome","137.0.0.0","Windows","10.0","https://app.prolific.com/","en-US,en;q=0.9","67cac9c704712b2393e52905","686d226cabeef709c732f8e1","686e3214cac65ee9c8d4ce8d","67cac9c704712b2393e52905","2025-07-09T09:59:26.834Z","","","","","","AttribQ","","","","","","","","","","","","","","","","","","","","","","","","","","","","","","","","","","","","","","50",""
"3135","","<div style=""width:500px;"">
  <p>How much control did you have over the ball?</p>
  </div>","20","html-slider-response","48","1763849","0.0-10.0-2.2","221","1","2025-07-09 09:30:03","7701e855f2ef39aa3fd6c71abdc6918a","105.245.99.161","Mozilla/5.0 (Windows NT 10.0; Win64; x64) AppleWebKit/537.36 (KHTML, like Gecko) Chrome/137.0.0.0 Safari/537.36","WebKit","Chrome","137.0.0.0","Windows","10.0","https://app.prolific.com/","en-US,en;q=0.9","67cac9c704712b2393e52905","686d226cabeef709c732f8e1","686e3214cac65ee9c8d4ce8d","67cac9c704712b2393e52905","2025-07-09T09:59:29.971Z","","","","","","ControlQ","","","","","","","","","","","","","","","","","","","","","","","","","","","","","","","","","","","","","","50",""
"3662","","<div style=""width:500px;"">
  <p>How would you describe your current emotional state?</p>
  </div>","66","html-slider-response","49","1767515","0.0-10.0-3.2","221","1","2025-07-09 09:30:03","7701e855f2ef39aa3fd6c71abdc6918a","105.245.99.161","Mozilla/5.0 (Windows NT 10.0; Win64; x64) AppleWebKit/537.36 (KHTML, like Gecko) Chrome/137.0.0.0 Safari/537.36","WebKit","Chrome","137.0.0.0","Windows","10.0","https://app.prolific.com/","en-US,en;q=0.9","67cac9c704712b2393e52905","686d226cabeef709c732f8e1","686e3214cac65ee9c8d4ce8d","67cac9c704712b2393e52905","2025-07-09T09:59:33.637Z","","","","","","StressQ","","","","","","","","","","","","","","","","","","","","","","","","","","","","","","","","","","","","","","50",""
"3342","","<div style=""width:500px;"">
  <p>What best describes how you currently feel?</p>
  </div>","50","html-slider-response","50","1770860","0.0-10.0-4.2","221","1","2025-07-09 09:30:03","7701e855f2ef39aa3fd6c71abdc6918a","105.245.99.161","Mozilla/5.0 (Windows NT 10.0; Win64; x64) AppleWebKit/537.36 (KHTML, like Gecko) Chrome/137.0.0.0 Safari/537.36","WebKit","Chrome","137.0.0.0","Windows","10.0","https://app.prolific.com/","en-US,en;q=0.9","67cac9c704712b2393e52905","686d226cabeef709c732f8e1","686e3214cac65ee9c8d4ce8d","67cac9c704712b2393e52905","2025-07-09T09:59:36.982Z","","","","","","MotivationQ","","","","","","","","","","","","","","","","","","","","","","","","","","","","","","","","","","","","","","50",""
"","","","","ctl-task-cpt","51","1808122","0.0-10.0-0.3","221","1","2025-07-09 09:30:03","7701e855f2ef39aa3fd6c71abdc6918a","105.245.99.161","Mozilla/5.0 (Windows NT 10.0; Win64; x64) AppleWebKit/537.36 (KHTML, like Gecko) Chrome/137.0.0.0 Safari/537.36","WebKit","Chrome","137.0.0.0","Windows","10.0","https://app.prolific.com/","en-US,en;q=0.9","67cac9c704712b2393e52905","686d226cabeef709c732f8e1","686e3214cac65ee9c8d4ce8d","67cac9c704712b2393e52905","2025-07-09T10:00:14.245Z","","","","","","","","","","","","","","","","win-only","0","g1:NW,g2:SE","0.7","4","0","1773651.8","5401.6","10412","34190.7","1","4","8","6","2","8","8","20","12","0.15151515151515152","1743.7","3000","1545","[""down"",""right""]","{""num_key_presses"":8,""num_perfect"":6,""num_errors"":0,""num_randdir"":2,""num_randdir_good_moves"":1,""num_whilered"":0,""num_whileblue"":0,""num_blue"":0,""num_good_moves"":7}","[238.56339285714284,237.95401785714284,0.5,238.56339285714284,237.95401785714284,125.4,238.56339285714284,237.95401785714284,258.4,238.56339285714284,237.95401785714284,374.1,238.56339285714284,237.95401785714284,493.8,238.56339285714284,237.95401785714284,599.8,238.56339285714284,237.95401785714284,703.8,238.56339285714284,237.95401785714284,814.6,238.56339285714284,237.95401785714284,919.5,247.56339285714284,239.95401785714284,1019.6,413.56339285714284,357.95401785714284,1126.9,439.56339285714284,408.95401785714284,1239.2,447.56339285714284,424.95401785714284,1361.5,448.56339285714284,425.95401785714284,1463.7,448.56339285714284,425.95401785714284,1612.8,448.56339285714284,425.95401785714284,1736.8,448.56339285714284,425.95401785714284,1850.1,448.56339285714284,425.95401785714284,1976.7,448.56339285714284,425.95401785714284,2078.3,448.56339285714284,425.95401785714284,2196.3,448.56339285714284,425.95401785714284,2298.8,433.56339285714284,418.95401785714284,2432,329.56339285714284,302.95401785714284,2534.6,268.56339285714284,199.95401785714284,2681.2,260.56339285714284,187.95401785714284,2792.9,258.56339285714284,192.95401785714284,2899.1,258.56339285714284,192.95401785714284,3018.7,258.56339285714284,192.95401785714284,3130,258.56339285714284,192.95401785714284,3281.6,258.56339285714284,192.95401785714284,3382.4,258.56339285714284,192.95401785714284,3489.3,258.56339285714284,192.95401785714284,3589.6,258.56339285714284,192.95401785714284,3706.6,258.56339285714284,192.95401785714284,3807.4,258.56339285714284,192.95401785714284,3919.2,258.56339285714284,192.95401785714284,4050.7,258.56339285714284,192.95401785714284,4159.6,258.56339285714284,192.95401785714284,4301.3,258.56339285714284,192.95401785714284,4409.1,258.56339285714284,192.95401785714284,4511,258.56339285714284,192.95401785714284,4645.7,258.56339285714284,192.95401785714284,4748.8,258.56339285714284,192.95401785714284,4858.9,258.56339285714284,192.95401785714284,4984.5]","[1534.3,1534.2,1000,0.1,534.2,""smooth"",""right"",""right"",""good_move"",4632.8,3097.6,2598.8,1535.4,498.6,""oops"",""down"",""down"",""good_move"",7942.3,3308.5,2836.3,4633.8,472.2,""oops"",""right"",""left"",""bad_move"",10964.5,3021.4,2027.5,7943.1,993.9,""smooth"",""right"",""right"",""good_move"",14983.7,4018.7,3454.7,10965.1,564,""smooth"",""right"",""right"",""good_move"",17801.8,2817.2,2285.2,14984.6,532,""smooth"",""right"",""right"",""good_move"",20672.9,2870,2420.5,17802.9,449.5,""smooth"",""down"",""down"",""good_move"",23593.3,2919.9,2441.2,20673.4,478.7,""smooth"",""down"",""down"",""good_move""]","","",""
"3767","","<div style=""width:500px;"">
  <p>What determined the result of this run?</p>
  </div>","27","html-slider-response","52","1811893","0.0-10.0-1.3","221","1","2025-07-09 09:30:03","7701e855f2ef39aa3fd6c71abdc6918a","105.245.99.161","Mozilla/5.0 (Windows NT 10.0; Win64; x64) AppleWebKit/537.36 (KHTML, like Gecko) Chrome/137.0.0.0 Safari/537.36","WebKit","Chrome","137.0.0.0","Windows","10.0","https://app.prolific.com/","en-US,en;q=0.9","67cac9c704712b2393e52905","686d226cabeef709c732f8e1","686e3214cac65ee9c8d4ce8d","67cac9c704712b2393e52905","2025-07-09T10:00:18.016Z","","","","","","AttribQ","","","","","","","","","","","","","","","","","","","","","","","","","","","","","","","","","","","","","","50",""
"3734","","<div style=""width:500px;"">
  <p>How much control did you have over the ball?</p>
  </div>","59","html-slider-response","53","1815631","0.0-10.0-2.3","221","1","2025-07-09 09:30:03","7701e855f2ef39aa3fd6c71abdc6918a","105.245.99.161","Mozilla/5.0 (Windows NT 10.0; Win64; x64) AppleWebKit/537.36 (KHTML, like Gecko) Chrome/137.0.0.0 Safari/537.36","WebKit","Chrome","137.0.0.0","Windows","10.0","https://app.prolific.com/","en-US,en;q=0.9","67cac9c704712b2393e52905","686d226cabeef709c732f8e1","686e3214cac65ee9c8d4ce8d","67cac9c704712b2393e52905","2025-07-09T10:00:21.753Z","","","","","","ControlQ","","","","","","","","","","","","","","","","","","","","","","","","","","","","","","","","","","","","","","50",""
"3997","","<div style=""width:500px;"">
  <p>How would you describe your current emotional state?</p>
  </div>","31","html-slider-response","54","1819632","0.0-10.0-3.3","221","1","2025-07-09 09:30:03","7701e855f2ef39aa3fd6c71abdc6918a","105.245.99.161","Mozilla/5.0 (Windows NT 10.0; Win64; x64) AppleWebKit/537.36 (KHTML, like Gecko) Chrome/137.0.0.0 Safari/537.36","WebKit","Chrome","137.0.0.0","Windows","10.0","https://app.prolific.com/","en-US,en;q=0.9","67cac9c704712b2393e52905","686d226cabeef709c732f8e1","686e3214cac65ee9c8d4ce8d","67cac9c704712b2393e52905","2025-07-09T10:00:25.754Z","","","","","","StressQ","","","","","","","","","","","","","","","","","","","","","","","","","","","","","","","","","","","","","","50",""
"3198","","<div style=""width:500px;"">
  <p>What best describes how you currently feel?</p>
  </div>","57","html-slider-response","55","1822833","0.0-10.0-4.3","221","1","2025-07-09 09:30:03","7701e855f2ef39aa3fd6c71abdc6918a","105.245.99.161","Mozilla/5.0 (Windows NT 10.0; Win64; x64) AppleWebKit/537.36 (KHTML, like Gecko) Chrome/137.0.0.0 Safari/537.36","WebKit","Chrome","137.0.0.0","Windows","10.0","https://app.prolific.com/","en-US,en;q=0.9","67cac9c704712b2393e52905","686d226cabeef709c732f8e1","686e3214cac65ee9c8d4ce8d","67cac9c704712b2393e52905","2025-07-09T10:00:28.955Z","","","","","","MotivationQ","","","","","","","","","","","","","","","","","","","","","","","","","","","","","","","","","","","","","","50",""
"","","","","ctl-task-cpt","56","1888201","0.0-10.0-0.4","221","1","2025-07-09 09:30:03","7701e855f2ef39aa3fd6c71abdc6918a","105.245.99.161","Mozilla/5.0 (Windows NT 10.0; Win64; x64) AppleWebKit/537.36 (KHTML, like Gecko) Chrome/137.0.0.0 Safari/537.36","WebKit","Chrome","137.0.0.0","Windows","10.0","https://app.prolific.com/","en-US,en;q=0.9","67cac9c704712b2393e52905","686d226cabeef709c732f8e1","686e3214cac65ee9c8d4ce8d","67cac9c704712b2393e52905","2025-07-09T10:01:34.323Z","","","","","","","","","","","","","","","","win-only","2","g1:SE,g2:NW","0.6","5","0","1825625.1","32588.9","37605.4","62303.2","1","4","4","6","2","4","3","23","20","0.17424242424242425","2027.3","3000","2130","[""left"",""up""]","{""num_key_presses"":6,""num_perfect"":3,""num_errors"":1,""num_randdir"":2,""num_randdir_good_moves"":2,""num_whilered"":0,""num_whileblue"":1,""num_blue"":3,""num_good_moves"":6}","[238.56339285714284,239.95401785714284,0.6,238.56339285714284,239.95401785714284,126.8,238.56339285714284,239.95401785714284,265.5,238.56339285714284,239.95401785714284,384.6,238.56339285714284,239.95401785714284,505.2,238.56339285714284,239.95401785714284,652.4,238.56339285714284,239.95401785714284,789.1,238.56339285714284,239.95401785714284,889.3,238.56339285714284,239.95401785714284,994.2,238.56339285714284,239.95401785714284,1094.3,148.56339285714284,48.95401785714285,1209.2,108.56339285714284,-6.045982142857149,1311.6,87.56339285714284,-9.045982142857149,1432.4,69.56339285714284,3.9540178571428513,1540.2,56.56339285714285,20.95401785714285,1642.9,56.56339285714285,24.95401785714285,1783.7,56.56339285714285,24.95401785714285,1886.9,56.56339285714285,24.95401785714285,1989.6,56.56339285714285,24.95401785714285,2104.1,56.56339285714285,24.95401785714285,2262.4,56.56339285714285,24.95401785714285,2365.5,56.56339285714285,24.95401785714285,2481.9,56.56339285714285,24.95401785714285,2598.6,56.56339285714285,24.95401785714285,2727.6,56.56339285714285,24.95401785714285,2837.4,77.56339285714284,36.95401785714285,2957.8,188.56339285714284,141.95401785714284,3071.9,203.56339285714284,179.95401785714284,3200.8,177.56339285714284,188.95401785714284,3309,153.56339285714284,184.95401785714284,3418.8,153.56339285714284,184.95401785714284,3522.3,153.56339285714284,184.95401785714284,3630.4,153.56339285714284,184.95401785714284,3752.7,153.56339285714284,184.95401785714284,3884.7,153.56339285714284,184.95401785714284,3991.1,153.56339285714284,184.95401785714284,4124.7,153.56339285714284,184.95401785714284,4269.4,153.56339285714284,184.95401785714284,4388.1,153.56339285714284,184.95401785714284,4500.1,153.56339285714284,184.95401785714284,4606.4,153.56339285714284,184.95401785714284,4710.7,153.56339285714284,184.95401785714284,4839.2,153.56339285714284,184.95401785714284,4940.2]","[1672.6,1672.6,1000,0,672.6,""smooth"",""left"",""left"",""good_move"",4856.3,3182.6,1852.7,1673.8,1329.8,""smooth"",""up"",""up"",""good_move"",7874.4,3015.5,2522,4858.9,493.5,""while_blue"",""left"",""up"",""good_move"",15092.8,7217.7,2898,11663.1,531.7,""oops"",""left"",""left"",""good_move"",21103.4,6009.8,1934.7,18628.7,540,""smooth"",""left"",""left"",""good_move"",24330.7,3226.8,2545.9,21104,680.8,""oops"",""up"",""up"",""good_move""]","","",""
"3934","","<div style=""width:500px;"">
  <p>What determined the result of this run?</p>
  </div>","25","html-slider-response","57","1892138","0.0-10.0-1.4","221","1","2025-07-09 09:30:03","7701e855f2ef39aa3fd6c71abdc6918a","105.245.99.161","Mozilla/5.0 (Windows NT 10.0; Win64; x64) AppleWebKit/537.36 (KHTML, like Gecko) Chrome/137.0.0.0 Safari/537.36","WebKit","Chrome","137.0.0.0","Windows","10.0","https://app.prolific.com/","en-US,en;q=0.9","67cac9c704712b2393e52905","686d226cabeef709c732f8e1","686e3214cac65ee9c8d4ce8d","67cac9c704712b2393e52905","2025-07-09T10:01:38.260Z","","","","","","AttribQ","","","","","","","","","","","","","","","","","","","","","","","","","","","","","","","","","","","","","","50",""
"4533","","<div style=""width:500px;"">
  <p>How much control did you have over the ball?</p>
  </div>","36","html-slider-response","58","1896673","0.0-10.0-2.4","221","1","2025-07-09 09:30:03","7701e855f2ef39aa3fd6c71abdc6918a","105.245.99.161","Mozilla/5.0 (Windows NT 10.0; Win64; x64) AppleWebKit/537.36 (KHTML, like Gecko) Chrome/137.0.0.0 Safari/537.36","WebKit","Chrome","137.0.0.0","Windows","10.0","https://app.prolific.com/","en-US,en;q=0.9","67cac9c704712b2393e52905","686d226cabeef709c732f8e1","686e3214cac65ee9c8d4ce8d","67cac9c704712b2393e52905","2025-07-09T10:01:42.795Z","","","","","","ControlQ","","","","","","","","","","","","","","","","","","","","","","","","","","","","","","","","","","","","","","50",""
"4725","","<div style=""width:500px;"">
  <p>How would you describe your current emotional state?</p>
  </div>","33","html-slider-response","59","1901401","0.0-10.0-3.4","221","1","2025-07-09 09:30:03","7701e855f2ef39aa3fd6c71abdc6918a","105.245.99.161","Mozilla/5.0 (Windows NT 10.0; Win64; x64) AppleWebKit/537.36 (KHTML, like Gecko) Chrome/137.0.0.0 Safari/537.36","WebKit","Chrome","137.0.0.0","Windows","10.0","https://app.prolific.com/","en-US,en;q=0.9","67cac9c704712b2393e52905","686d226cabeef709c732f8e1","686e3214cac65ee9c8d4ce8d","67cac9c704712b2393e52905","2025-07-09T10:01:47.523Z","","","","","","StressQ","","","","","","","","","","","","","","","","","","","","","","","","","","","","","","","","","","","","","","50",""
"6977","","<div style=""width:500px;"">
  <p>What best describes how you currently feel?</p>
  </div>","73","html-slider-response","60","1908381","0.0-10.0-4.4","221","1","2025-07-09 09:30:03","7701e855f2ef39aa3fd6c71abdc6918a","105.245.99.161","Mozilla/5.0 (Windows NT 10.0; Win64; x64) AppleWebKit/537.36 (KHTML, like Gecko) Chrome/137.0.0.0 Safari/537.36","WebKit","Chrome","137.0.0.0","Windows","10.0","https://app.prolific.com/","en-US,en;q=0.9","67cac9c704712b2393e52905","686d226cabeef709c732f8e1","686e3214cac65ee9c8d4ce8d","67cac9c704712b2393e52905","2025-07-09T10:01:54.503Z","","","","","","MotivationQ","","","","","","","","","","","","","","","","","","","","","","","","","","","","","","","","","","","","","","50",""
"","","","","ctl-task-cpt","61","1967096","0.0-10.0-0.5","221","1","2025-07-09 09:30:03","7701e855f2ef39aa3fd6c71abdc6918a","105.245.99.161","Mozilla/5.0 (Windows NT 10.0; Win64; x64) AppleWebKit/537.36 (KHTML, like Gecko) Chrome/137.0.0.0 Safari/537.36","WebKit","Chrome","137.0.0.0","Windows","10.0","https://app.prolific.com/","en-US,en;q=0.9","67cac9c704712b2393e52905","686d226cabeef709c732f8e1","686e3214cac65ee9c8d4ce8d","67cac9c704712b2393e52905","2025-07-09T10:02:53.218Z","","","","","","","","","","","","","","","","win-only","3","g1:SW,g2:NE","0.5","6","0","1911171.3","13413.8","18427.3","55699","1","4","8","6","2","8","8","31","23","0.23484848484848486","1584.5","3000","810","[""up"",""right""]","{""num_key_presses"":10,""num_perfect"":5,""num_errors"":0,""num_randdir"":5,""num_randdir_good_moves"":3,""num_whilered"":0,""num_whileblue"":0,""num_blue"":2,""num_good_moves"":8}","[234.56339285714284,234.95401785714284,0.8,234.56339285714284,234.95401785714284,102.5,234.56339285714284,234.95401785714284,249,234.56339285714284,234.95401785714284,352.9,234.56339285714284,234.95401785714284,462.2,234.56339285714284,234.95401785714284,568.5,226.56339285714284,234.95401785714284,685,270.56339285714284,178.95401785714284,812.1,384.56339285714284,106.95401785714284,912.4,415.56339285714284,85.95401785714284,1064,435.56339285714284,25.95401785714285,1188.6,435.56339285714284,20.95401785714285,1291.5,435.56339285714284,20.95401785714285,1404.4,435.56339285714284,20.95401785714285,1533.2,435.56339285714284,20.95401785714285,1647.8,435.56339285714284,20.95401785714285,1748.3,435.56339285714284,20.95401785714285,1853.9,435.56339285714284,20.95401785714285,1980.6,435.56339285714284,20.95401785714285,2113.4,435.56339285714284,20.95401785714285,2235.5,435.56339285714284,20.95401785714285,2347.8,435.56339285714284,20.95401785714285,2449.6,435.56339285714284,20.95401785714285,2581.3,435.56339285714284,20.95401785714285,2704.1,435.56339285714284,20.95401785714285,2810.6,435.56339285714284,20.95401785714285,2913.8,435.56339285714284,20.95401785714285,3031.7,435.56339285714284,20.95401785714285,3158.2,435.56339285714284,20.95401785714285,3292.2,435.56339285714284,20.95401785714285,3442.1,435.56339285714284,20.95401785714285,3557.8,435.56339285714284,20.95401785714285,3659.4,435.56339285714284,20.95401785714285,3762.8,435.56339285714284,20.95401785714285,3896.2,435.56339285714284,20.95401785714285,4029.8,435.56339285714284,20.95401785714285,4135.1,435.56339285714284,20.95401785714285,4257.3,435.56339285714284,20.95401785714285,4363.8,435.56339285714284,20.95401785714285,4498.3,435.56339285714284,20.95401785714285,4629.3,435.56339285714284,20.95401785714285,4741.3,435.56339285714284,20.95401785714285,4873.3,435.56339285714284,20.95401785714285,4984.4]","[1532.7,1532.7,1000,0,532.7,""smooth"",""up"",""up"",""good_move"",4822.4,3288.2,2727,1534.3,561.1,""smooth"",""up"",""up"",""good_move"",7935.7,3112.8,2640.7,4823,472.1,""oops"",""right"",""left"",""bad_move"",10291.5,2354.8,1900.2,7936.7,454.6,""smooth"",""right"",""right"",""good_move"",13400.3,3108,2651.2,10292.3,456.8,""oops"",""right"",""up"",""good_move"",16791.2,3389.9,2930.5,13401.3,459.4,""oops"",""right"",""left"",""bad_move"",24305.6,7513.8,3174.9,20722.9,407.8,""smooth"",""right"",""right"",""good_move"",27991,3685,3168.1,24306,516.9,""smooth"",""right"",""right"",""good_move"",30670.5,2679,2131.8,27991.5,547.2,""oops"",""right"",""right"",""good_move"",37103.5,6432.4,2630,34031.2,442.3,""oops"",""right"",""right"",""good_move""]","","",""
"2717","","<div style=""width:500px;"">
  <p>What determined the result of this run?</p>
  </div>","22","html-slider-response","62","1969816","0.0-10.0-1.5","221","1","2025-07-09 09:30:03","7701e855f2ef39aa3fd6c71abdc6918a","105.245.99.161","Mozilla/5.0 (Windows NT 10.0; Win64; x64) AppleWebKit/537.36 (KHTML, like Gecko) Chrome/137.0.0.0 Safari/537.36","WebKit","Chrome","137.0.0.0","Windows","10.0","https://app.prolific.com/","en-US,en;q=0.9","67cac9c704712b2393e52905","686d226cabeef709c732f8e1","686e3214cac65ee9c8d4ce8d","67cac9c704712b2393e52905","2025-07-09T10:02:55.938Z","","","","","","AttribQ","","","","","","","","","","","","","","","","","","","","","","","","","","","","","","","","","","","","","","50",""
"3904","","<div style=""width:500px;"">
  <p>How much control did you have over the ball?</p>
  </div>","69","html-slider-response","63","1973723","0.0-10.0-2.5","221","1","2025-07-09 09:30:03","7701e855f2ef39aa3fd6c71abdc6918a","105.245.99.161","Mozilla/5.0 (Windows NT 10.0; Win64; x64) AppleWebKit/537.36 (KHTML, like Gecko) Chrome/137.0.0.0 Safari/537.36","WebKit","Chrome","137.0.0.0","Windows","10.0","https://app.prolific.com/","en-US,en;q=0.9","67cac9c704712b2393e52905","686d226cabeef709c732f8e1","686e3214cac65ee9c8d4ce8d","67cac9c704712b2393e52905","2025-07-09T10:02:59.845Z","","","","","","ControlQ","","","","","","","","","","","","","","","","","","","","","","","","","","","","","","","","","","","","","","50",""
"3050","","<div style=""width:500px;"">
  <p>How would you describe your current emotional state?</p>
  </div>","25","html-slider-response","64","1976778","0.0-10.0-3.5","221","1","2025-07-09 09:30:03","7701e855f2ef39aa3fd6c71abdc6918a","105.245.99.161","Mozilla/5.0 (Windows NT 10.0; Win64; x64) AppleWebKit/537.36 (KHTML, like Gecko) Chrome/137.0.0.0 Safari/537.36","WebKit","Chrome","137.0.0.0","Windows","10.0","https://app.prolific.com/","en-US,en;q=0.9","67cac9c704712b2393e52905","686d226cabeef709c732f8e1","686e3214cac65ee9c8d4ce8d","67cac9c704712b2393e52905","2025-07-09T10:03:02.900Z","","","","","","StressQ","","","","","","","","","","","","","","","","","","","","","","","","","","","","","","","","","","","","","","50",""
"3067","","<div style=""width:500px;"">
  <p>What best describes how you currently feel?</p>
  </div>","77","html-slider-response","65","1979847","0.0-10.0-4.5","221","1","2025-07-09 09:30:03","7701e855f2ef39aa3fd6c71abdc6918a","105.245.99.161","Mozilla/5.0 (Windows NT 10.0; Win64; x64) AppleWebKit/537.36 (KHTML, like Gecko) Chrome/137.0.0.0 Safari/537.36","WebKit","Chrome","137.0.0.0","Windows","10.0","https://app.prolific.com/","en-US,en;q=0.9","67cac9c704712b2393e52905","686d226cabeef709c732f8e1","686e3214cac65ee9c8d4ce8d","67cac9c704712b2393e52905","2025-07-09T10:03:05.969Z","","","","","","MotivationQ","","","","","","","","","","","","","","","","","","","","","","","","","","","","","","","","","","","","","","50",""
"","","","","ctl-task-cpt","66","2063669","0.0-10.0-0.6","221","1","2025-07-09 09:30:03","7701e855f2ef39aa3fd6c71abdc6918a","105.245.99.161","Mozilla/5.0 (Windows NT 10.0; Win64; x64) AppleWebKit/537.36 (KHTML, like Gecko) Chrome/137.0.0.0 Safari/537.36","WebKit","Chrome","137.0.0.0","Windows","10.0","https://app.prolific.com/","en-US,en;q=0.9","67cac9c704712b2393e52905","686d226cabeef709c732f8e1","686e3214cac65ee9c8d4ce8d","67cac9c704712b2393e52905","2025-07-09T10:04:29.791Z","","","","","","","","","","","","","","","","win-only","2","g1:SE,g2:NW","0.4","7","0","1982638.3","8148.6","13149","80736.6","1","4","4","6","2","4","4","35","31","0.26515151515151514","1729.1","3000","285","[""left"",""up""]","{""num_key_presses"":16,""num_perfect"":8,""num_errors"":0,""num_randdir"":8,""num_randdir_good_moves"":3,""num_whilered"":0,""num_whileblue"":0,""num_blue"":5,""num_good_moves"":11}","[235.56339285714284,238.95401785714284,1.4,235.56339285714284,238.95401785714284,105.4,235.56339285714284,238.95401785714284,216.1,235.56339285714284,238.95401785714284,316.4,235.56339285714284,238.95401785714284,418.8,235.56339285714284,238.95401785714284,542.3,235.56339285714284,238.95401785714284,654.4,235.56339285714284,238.95401785714284,754.6,235.56339285714284,238.95401785714284,862,148.56339285714284,106.95401785714284,983.7,108.56339285714284,68.95401785714284,1088.2,90.56339285714284,63.95401785714285,1211.8,76.56339285714284,63.95401785714285,1313.3,63.56339285714285,57.95401785714285,1420.1,63.56339285714285,57.95401785714285,1533.1,62.56339285714285,53.95401785714285,1638.8,62.56339285714285,55.95401785714285,1739.9,62.56339285714285,55.95401785714285,1846,62.56339285714285,55.95401785714285,1948.6,62.56339285714285,55.95401785714285,2060.1,62.56339285714285,55.95401785714285,2187.2,62.56339285714285,55.95401785714285,2297.6,62.56339285714285,55.95401785714285,2400.7,62.56339285714285,55.95401785714285,2503.2,62.56339285714285,55.95401785714285,2603.5,62.56339285714285,55.95401785714285,2703.7,62.56339285714285,55.95401785714285,2819.1,62.56339285714285,55.95401785714285,2927.6,62.56339285714285,55.95401785714285,3033.1,62.56339285714285,55.95401785714285,3149,62.56339285714285,55.95401785714285,3255.2,62.56339285714285,55.95401785714285,3359.3,62.56339285714285,55.95401785714285,3461.4,62.56339285714285,55.95401785714285,3565.1,62.56339285714285,55.95401785714285,3673.1,62.56339285714285,55.95401785714285,3780.9,62.56339285714285,55.95401785714285,3884.7,62.56339285714285,55.95401785714285,4003,62.56339285714285,55.95401785714285,4104.9,62.56339285714285,55.95401785714285,4205,62.56339285714285,55.95401785714285,4312.8,62.56339285714285,55.95401785714285,4416.4,62.56339285714285,55.95401785714285,4534,62.56339285714285,55.95401785714285,4635.5,62.56339285714285,55.95401785714285,4737.3,62.56339285714285,55.95401785714285,4850,62.56339285714285,55.95401785714285,4961.5]","[5224.4,5224.4,2359.9,2007.7,856.8,""smooth"",""left"",""left"",""good_move"",8085.5,2860.4,2343.8,5225.1,516.6,""oops"",""left"",""left"",""good_move"",14562,6475.8,3031.7,11045.4,485,""oops"",""up"",""down"",""bad_move"",21258.2,6695.5,2832.6,18044.8,380.8,""oops"",""up"",""down"",""bad_move"",27427.6,6169.1,2679,24318,430.7,""oops"",""up"",""up"",""good_move"",30016.7,2588.1,2065.2,27428.6,522.9,""smooth"",""up"",""up"",""good_move"",33512.9,3495.5,2384.1,30017.4,1111.4,""smooth"",""up"",""up"",""good_move"",37047.3,3533.4,2254.2,33513.9,1279.2,""smooth"",""up"",""up"",""good_move"",40416.3,3368.4,2394.9,37047.9,973.5,""oops"",""up"",""right"",""bad_move"",43648.6,3231.4,2762,40417.2,469.4,""oops"",""left"",""left"",""good_move"",47030.8,3381.5,2230.9,43649.3,1150.6,""smooth"",""left"",""left"",""good_move"",50435.3,3403.8,2373.6,47031.5,1030.2,""oops"",""up"",""down"",""bad_move"",53743.8,3307.1,2800.2,50436.7,506.9,""smooth"",""up"",""up"",""good_move"",57287.4,3543,3044.3,53744.4,498.7,""oops"",""up"",""right"",""bad_move"",60146.8,2858.7,2325.7,57288.1,533,""smooth"",""up"",""up"",""good_move"",67278.9,7131.5,2601.3,64229.7,447.9,""smooth"",""left"",""left"",""good_move""]","","",""
"5615","","<div style=""width:500px;"">
  <p>What determined the result of this run?</p>
  </div>","19","html-slider-response","67","2069287","0.0-10.0-1.6","221","1","2025-07-09 09:30:03","7701e855f2ef39aa3fd6c71abdc6918a","105.245.99.161","Mozilla/5.0 (Windows NT 10.0; Win64; x64) AppleWebKit/537.36 (KHTML, like Gecko) Chrome/137.0.0.0 Safari/537.36","WebKit","Chrome","137.0.0.0","Windows","10.0","https://app.prolific.com/","en-US,en;q=0.9","67cac9c704712b2393e52905","686d226cabeef709c732f8e1","686e3214cac65ee9c8d4ce8d","67cac9c704712b2393e52905","2025-07-09T10:04:35.409Z","","","","","","AttribQ","","","","","","","","","","","","","","","","","","","","","","","","","","","","","","","","","","","","","","50",""
"6289","","<div style=""width:500px;"">
  <p>How much control did you have over the ball?</p>
  </div>","14","html-slider-response","68","2075579","0.0-10.0-2.6","221","1","2025-07-09 09:30:03","7701e855f2ef39aa3fd6c71abdc6918a","105.245.99.161","Mozilla/5.0 (Windows NT 10.0; Win64; x64) AppleWebKit/537.36 (KHTML, like Gecko) Chrome/137.0.0.0 Safari/537.36","WebKit","Chrome","137.0.0.0","Windows","10.0","https://app.prolific.com/","en-US,en;q=0.9","67cac9c704712b2393e52905","686d226cabeef709c732f8e1","686e3214cac65ee9c8d4ce8d","67cac9c704712b2393e52905","2025-07-09T10:04:41.701Z","","","","","","ControlQ","","","","","","","","","","","","","","","","","","","","","","","","","","","","","","","","","","","","","","50",""
"4704","","<div style=""width:500px;"">
  <p>How would you describe your current emotional state?</p>
  </div>","42","html-slider-response","69","2080288","0.0-10.0-3.6","221","1","2025-07-09 09:30:03","7701e855f2ef39aa3fd6c71abdc6918a","105.245.99.161","Mozilla/5.0 (Windows NT 10.0; Win64; x64) AppleWebKit/537.36 (KHTML, like Gecko) Chrome/137.0.0.0 Safari/537.36","WebKit","Chrome","137.0.0.0","Windows","10.0","https://app.prolific.com/","en-US,en;q=0.9","67cac9c704712b2393e52905","686d226cabeef709c732f8e1","686e3214cac65ee9c8d4ce8d","67cac9c704712b2393e52905","2025-07-09T10:04:46.410Z","","","","","","StressQ","","","","","","","","","","","","","","","","","","","","","","","","","","","","","","","","","","","","","","50",""
"3531","","<div style=""width:500px;"">
  <p>What best describes how you currently feel?</p>
  </div>","72","html-slider-response","70","2083822","0.0-10.0-4.6","221","1","2025-07-09 09:30:03","7701e855f2ef39aa3fd6c71abdc6918a","105.245.99.161","Mozilla/5.0 (Windows NT 10.0; Win64; x64) AppleWebKit/537.36 (KHTML, like Gecko) Chrome/137.0.0.0 Safari/537.36","WebKit","Chrome","137.0.0.0","Windows","10.0","https://app.prolific.com/","en-US,en;q=0.9","67cac9c704712b2393e52905","686d226cabeef709c732f8e1","686e3214cac65ee9c8d4ce8d","67cac9c704712b2393e52905","2025-07-09T10:04:49.944Z","","","","","","MotivationQ","","","","","","","","","","","","","","","","","","","","","","","","","","","","","","","","","","","","","","50",""
"","","","","ctl-task-cpt","71","2257844","0.0-10.0-0.7","221","1","2025-07-09 09:30:03","7701e855f2ef39aa3fd6c71abdc6918a","105.245.99.161","Mozilla/5.0 (Windows NT 10.0; Win64; x64) AppleWebKit/537.36 (KHTML, like Gecko) Chrome/137.0.0.0 Safari/537.36","WebKit","Chrome","137.0.0.0","Windows","10.0","https://app.prolific.com/","en-US,en;q=0.9","67cac9c704712b2393e52905","686d226cabeef709c732f8e1","686e3214cac65ee9c8d4ce8d","67cac9c704712b2393e52905","2025-07-09T10:07:43.966Z","","","","","","","","","","","","","","","","win-only","0","g1:NW,g2:SE","0.3","8","0","2086613.5","11386","16390.8","170955.8","1","4","8","6","2","-8","-15","20","35","0.15151515151515152","1903.5","3000","-845","[""down"",""right""]","{""num_key_presses"":35,""num_perfect"":8,""num_errors"":7,""num_randdir"":20,""num_randdir_good_moves"":7,""num_whilered"":0,""num_whileblue"":5,""num_blue"":11,""num_good_moves"":18}","[240.56339285714284,234.95401785714284,1.4,240.56339285714284,234.95401785714284,106.9,240.56339285714284,234.95401785714284,210.7,240.56339285714284,234.95401785714284,317.5,240.56339285714284,234.95401785714284,450.6,240.56339285714284,234.95401785714284,552.8,240.56339285714284,234.95401785714284,655,240.56339285714284,234.95401785714284,766.9,240.56339285714284,234.95401785714284,870.5,296.56339285714284,288.95401785714284,982.1,478.56339285714284,431.95401785714284,1098.7,489.56339285714284,440.95401785714284,1213.6,492.56339285714284,442.95401785714284,1324.4,469.56339285714284,442.95401785714284,1433.5,456.56339285714284,442.95401785714284,1589.8,456.56339285714284,442.95401785714284,1700.3,456.56339285714284,442.95401785714284,1803.8,456.56339285714284,442.95401785714284,1921.1,456.56339285714284,442.95401785714284,2090.4,456.56339285714284,442.95401785714284,2200.3,456.56339285714284,442.95401785714284,2306.8,456.56339285714284,442.95401785714284,2415,456.56339285714284,442.95401785714284,2521,456.56339285714284,442.95401785714284,2625.7,456.56339285714284,442.95401785714284,2737.3,456.56339285714284,442.95401785714284,2839.1,456.56339285714284,442.95401785714284,2957.8,456.56339285714284,442.95401785714284,3103.4,456.56339285714284,442.95401785714284,3209.1,456.56339285714284,442.95401785714284,3316,456.56339285714284,442.95401785714284,3425,456.56339285714284,442.95401785714284,3535.9,456.56339285714284,442.95401785714284,3652,456.56339285714284,442.95401785714284,3805.6,456.56339285714284,442.95401785714284,3918.1,456.56339285714284,442.95401785714284,4027.2,456.56339285714284,442.95401785714284,4131.7,456.56339285714284,442.95401785714284,4246.2,456.56339285714284,442.95401785714284,4358.1,456.56339285714284,442.95401785714284,4470.7,456.56339285714284,442.95401785714284,4581.8,456.56339285714284,442.95401785714284,4693.4,456.56339285714284,442.95401785714284,4803.1,456.56339285714284,442.95401785714284,4911.9]","[1566.9,1566.9,1000,0,566.9,""oops"",""right"",""down"",""good_move"",4468.2,2899.5,2316.4,1568.7,583.1,""smooth"",""right"",""right"",""good_move"",10356.6,5887.6,2120.9,7697.6,538.1,""oops"",""right"",""up"",""bad_move"",14987.8,4630.4,4166.4,10357.5,464,""while_blue"",""right"",""up"",""bad_move"",20505.9,5517.5,3894.9,14988.5,1622.6,""oops"",""down"",""left"",""bad_move"",26023.5,5516.9,1832.6,20506.6,3684.3,""oops"",""right"",""right"",""good_move"",32683.3,6659.3,2433.7,29783.1,466.5,""while_blue"",""right"",""down"",""good_move"",36386.1,3702.2,2809.4,32683.9,892.8,""smooth"",""right"",""right"",""good_move"",39608.1,3221.6,2325.9,36386.5,895.7,""smooth"",""down"",""down"",""good_move"",42282.7,2674,2159.2,39608.8,514.8,""oops"",""right"",""up"",""bad_move"",48160.4,5876.7,2212,42283.7,3664.7,""oops"",""down"",""down"",""good_move"",54608,6447.2,2858.7,51283.1,466.2,""oops"",""down"",""left"",""bad_move"",60376.7,5768.2,3268.9,54608.5,2499.3,""oops"",""down"",""down"",""good_move"",63552.3,3174.9,2491.6,60377.5,683.3,""smooth"",""right"",""right"",""good_move"",66743.9,3191.3,2658.3,63552.7,533,""oops"",""right"",""up"",""bad_move"",73628,6883.3,2837.8,66744.7,4045.5,""oops"",""right"",""left"",""bad_move"",81867.4,8238.8,2824.2,73628.6,5414.6,""oops"",""right"",""down"",""good_move"",84816.2,2948.3,2367.4,81867.9,580.9,""smooth"",""right"",""right"",""good_move"",87891.7,3075,2563,84816.7,512,""smooth"",""right"",""right"",""good_move"",91245.9,3353.7,2865.2,87892.2,488.5,""oops"",""down"",""left"",""bad_move"",94441.5,3194.9,2652.9,91246.6,542,""while_blue"",""down"",""right"",""good_move"",97319.4,2877.6,2269.6,94442,607.9,""oops"",""down"",""up"",""bad_move"",100295.7,2975.6,2265.5,97320.1,710.1,""oops"",""down"",""left"",""bad_move"",106551.8,6255,2308.7,103748.7,494.4,""oops"",""down"",""left"",""bad_move"",110278.9,3725.8,3296.9,106553.2,428.9,""smooth"",""right"",""right"",""good_move"",113075.8,2795.9,2322.3,110279.9,473.6,""oops"",""right"",""left"",""bad_move"",117427.5,4350.8,3054.2,113076.8,1296.5,""oops"",""right"",""right"",""good_move"",120405.1,2976.9,2552,117428.2,424.9,""while_blue"",""down"",""down"",""good_move"",123663.7,3257.9,2668.8,120405.9,589.1,""oops"",""down"",""up"",""bad_move"",131662.7,7998.3,1714.7,129453.4,494.7,""oops"",""down"",""down"",""good_move"",135166.3,3503,2970.8,131663.4,532.2,""oops"",""down"",""left"",""bad_move"",142968.4,7801.3,2434.3,139908.7,625.4,""smooth"",""down"",""down"",""good_move"",146095,3126.2,2558.9,142968.8,567.3,""while_blue"",""right"",""left"",""bad_move"",148374.9,2278.8,2884.5,146096.1,-605.7,""error"",""-"",""-"",""no_move"",151459.1,3083.1,2164.3,149378.8,-83.9,""error"",""-"",""-"",""no_move""]","","",""
"5236","","<div style=""width:500px;"">
  <p>What determined the result of this run?</p>
  </div>","18","html-slider-response","72","2263082","0.0-10.0-1.7","221","1","2025-07-09 09:30:03","7701e855f2ef39aa3fd6c71abdc6918a","105.245.99.161","Mozilla/5.0 (Windows NT 10.0; Win64; x64) AppleWebKit/537.36 (KHTML, like Gecko) Chrome/137.0.0.0 Safari/537.36","WebKit","Chrome","137.0.0.0","Windows","10.0","https://app.prolific.com/","en-US,en;q=0.9","67cac9c704712b2393e52905","686d226cabeef709c732f8e1","686e3214cac65ee9c8d4ce8d","67cac9c704712b2393e52905","2025-07-09T10:07:49.204Z","","","","","","AttribQ","","","","","","","","","","","","","","","","","","","","","","","","","","","","","","","","","","","","","","50",""
"3979","","<div style=""width:500px;"">
  <p>How much control did you have over the ball?</p>
  </div>","0","html-slider-response","73","2267063","0.0-10.0-2.7","221","1","2025-07-09 09:30:03","7701e855f2ef39aa3fd6c71abdc6918a","105.245.99.161","Mozilla/5.0 (Windows NT 10.0; Win64; x64) AppleWebKit/537.36 (KHTML, like Gecko) Chrome/137.0.0.0 Safari/537.36","WebKit","Chrome","137.0.0.0","Windows","10.0","https://app.prolific.com/","en-US,en;q=0.9","67cac9c704712b2393e52905","686d226cabeef709c732f8e1","686e3214cac65ee9c8d4ce8d","67cac9c704712b2393e52905","2025-07-09T10:07:53.186Z","","","","","","ControlQ","","","","","","","","","","","","","","","","","","","","","","","","","","","","","","","","","","","","","","50",""
"3825","","<div style=""width:500px;"">
  <p>How would you describe your current emotional state?</p>
  </div>","100","html-slider-response","74","2270893","0.0-10.0-3.7","221","1","2025-07-09 09:30:03","7701e855f2ef39aa3fd6c71abdc6918a","105.245.99.161","Mozilla/5.0 (Windows NT 10.0; Win64; x64) AppleWebKit/537.36 (KHTML, like Gecko) Chrome/137.0.0.0 Safari/537.36","WebKit","Chrome","137.0.0.0","Windows","10.0","https://app.prolific.com/","en-US,en;q=0.9","67cac9c704712b2393e52905","686d226cabeef709c732f8e1","686e3214cac65ee9c8d4ce8d","67cac9c704712b2393e52905","2025-07-09T10:07:57.015Z","","","","","","StressQ","","","","","","","","","","","","","","","","","","","","","","","","","","","","","","","","","","","","","","50",""
"3385","","<div style=""width:500px;"">
  <p>What best describes how you currently feel?</p>
  </div>","0","html-slider-response","75","2274282","0.0-10.0-4.7","221","1","2025-07-09 09:30:03","7701e855f2ef39aa3fd6c71abdc6918a","105.245.99.161","Mozilla/5.0 (Windows NT 10.0; Win64; x64) AppleWebKit/537.36 (KHTML, like Gecko) Chrome/137.0.0.0 Safari/537.36","WebKit","Chrome","137.0.0.0","Windows","10.0","https://app.prolific.com/","en-US,en;q=0.9","67cac9c704712b2393e52905","686d226cabeef709c732f8e1","686e3214cac65ee9c8d4ce8d","67cac9c704712b2393e52905","2025-07-09T10:08:00.404Z","","","","","","MotivationQ","","","","","","","","","","","","","","","","","","","","","","","","","","","","","","","","","","","","","","50",""
"","","","","ctl-task-cpt","76","2366164","0.0-10.0-0.8","221","1","2025-07-09 09:30:03","7701e855f2ef39aa3fd6c71abdc6918a","105.245.99.161","Mozilla/5.0 (Windows NT 10.0; Win64; x64) AppleWebKit/537.36 (KHTML, like Gecko) Chrome/137.0.0.0 Safari/537.36","WebKit","Chrome","137.0.0.0","Windows","10.0","https://app.prolific.com/","en-US,en;q=0.9","67cac9c704712b2393e52905","686d226cabeef709c732f8e1","686e3214cac65ee9c8d4ce8d","67cac9c704712b2393e52905","2025-07-09T10:09:32.286Z","","","","","","","","","","","","","","","","win-only","0","g1:NW,g2:SE","0.2","9","0","2277073.3","9921.9","14928.7","88852.5","1","4","4","6","2","-4","-6","14","20","0.10606060606060606","1733.8","3000","-855","[""down"",""right""]","{""num_key_presses"":17,""num_perfect"":2,""num_errors"":2,""num_randdir"":13,""num_randdir_good_moves"":5,""num_whilered"":0,""num_whileblue"":1,""num_blue"":3,""num_good_moves"":7}","[237.56339285714284,230.95401785714284,0.8,237.56339285714284,230.95401785714284,102.5,237.56339285714284,230.95401785714284,204.4,237.56339285714284,230.95401785714284,363.4,237.56339285714284,230.95401785714284,533,237.56339285714284,230.95401785714284,690.7,237.56339285714284,230.95401785714284,797,240.56339285714284,233.95401785714284,906.3,391.56339285714284,335.95401785714284,1008.9,447.56339285714284,393.95401785714284,1113,451.56339285714284,407.95401785714284,1237.2,447.56339285714284,410.95401785714284,1411.8,447.56339285714284,410.95401785714284,1530.4,447.56339285714284,410.95401785714284,1665.9,447.56339285714284,410.95401785714284,1770.7,447.56339285714284,410.95401785714284,1893.1,447.56339285714284,410.95401785714284,2005.2,447.56339285714284,410.95401785714284,2132.5,447.56339285714284,410.95401785714284,2247.4,447.56339285714284,410.95401785714284,2381.7,447.56339285714284,410.95401785714284,2535.7,447.56339285714284,410.95401785714284,2682.4,447.56339285714284,410.95401785714284,2792.8,447.56339285714284,410.95401785714284,2907.5,447.56339285714284,410.95401785714284,3031.9,447.56339285714284,410.95401785714284,3138.9,447.56339285714284,410.95401785714284,3295.6,447.56339285714284,410.95401785714284,3402,447.56339285714284,410.95401785714284,3503.5,447.56339285714284,410.95401785714284,3607.8,447.56339285714284,410.95401785714284,3720,447.56339285714284,410.95401785714284,3825.8,447.56339285714284,410.95401785714284,3936.9,447.56339285714284,410.95401785714284,4045.1,447.56339285714284,410.95401785714284,4171.3,447.56339285714284,410.95401785714284,4274.1,447.56339285714284,410.95401785714284,4378.2,447.56339285714284,410.95401785714284,4504.1,447.56339285714284,410.95401785714284,4610.9,447.56339285714284,410.95401785714284,4717.6,447.56339285714284,410.95401785714284,4854.1,447.56339285714284,410.95401785714284,4997.6]","[4322.7,4322.7,1655.5,2069.9,597.3,""oops"",""right"",""down"",""good_move"",11421.4,7097.9,2820.8,7932,668.6,""oops"",""right"",""up"",""bad_move"",15544.8,4122.6,2066.7,11422.2,2055.9,""smooth"",""right"",""right"",""good_move"",18830,3283.5,2703.5,15546.6,580,""oops"",""right"",""left"",""bad_move"",22424.6,3593.6,1417.7,18831,2175.9,""smooth"",""right"",""right"",""good_move"",25768,3342.9,2555.7,22425.1,787.2,""oops"",""right"",""up"",""bad_move"",28776.4,3007.9,2069.8,25768.5,938.1,""oops"",""down"",""left"",""bad_move"",32370.5,3593.3,2345.9,28777.2,1247.4,""oops"",""down"",""left"",""bad_move"",35869,3497.2,1928.1,32371.8,1569.1,""oops"",""down"",""down"",""good_move"",39186.7,3316.8,2492.8,35869.9,824,""while_blue"",""down"",""up"",""bad_move"",43593.2,4405.9,2706.7,39187.4,1699.2,""oops"",""down"",""down"",""good_move"",46657.6,3063.8,2577,43593.9,486.7,""oops"",""down"",""up"",""bad_move"",49614,2955.5,2109.1,46658.5,846.4,""error"",""-"",""-"",""no_move"",53835.5,4220.8,2777.1,50630.4,428,""oops"",""right"",""left"",""bad_move"",59822.7,5986.7,2908.5,53836.1,3078.2,""oops"",""right"",""down"",""good_move"",62432.8,2609.8,1898.1,59823.1,711.7,""oops"",""right"",""up"",""bad_move"",70072.9,7639.5,2229.1,62433.4,5410.4,""oops"",""down"",""down"",""good_move""]","","",""
"7252","","<div style=""width:500px;"">
  <p>What determined the result of this run?</p>
  </div>","16","html-slider-response","77","2373419","0.0-10.0-1.8","221","1","2025-07-09 09:30:03","7701e855f2ef39aa3fd6c71abdc6918a","105.245.99.161","Mozilla/5.0 (Windows NT 10.0; Win64; x64) AppleWebKit/537.36 (KHTML, like Gecko) Chrome/137.0.0.0 Safari/537.36","WebKit","Chrome","137.0.0.0","Windows","10.0","https://app.prolific.com/","en-US,en;q=0.9","67cac9c704712b2393e52905","686d226cabeef709c732f8e1","686e3214cac65ee9c8d4ce8d","67cac9c704712b2393e52905","2025-07-09T10:09:39.542Z","","","","","","AttribQ","","","","","","","","","","","","","","","","","","","","","","","","","","","","","","","","","","","","","","50",""
"3284","","<div style=""width:500px;"">
  <p>How much control did you have over the ball?</p>
  </div>","6","html-slider-response","78","2376708","0.0-10.0-2.8","221","1","2025-07-09 09:30:03","7701e855f2ef39aa3fd6c71abdc6918a","105.245.99.161","Mozilla/5.0 (Windows NT 10.0; Win64; x64) AppleWebKit/537.36 (KHTML, like Gecko) Chrome/137.0.0.0 Safari/537.36","WebKit","Chrome","137.0.0.0","Windows","10.0","https://app.prolific.com/","en-US,en;q=0.9","67cac9c704712b2393e52905","686d226cabeef709c732f8e1","686e3214cac65ee9c8d4ce8d","67cac9c704712b2393e52905","2025-07-09T10:09:42.830Z","","","","","","ControlQ","","","","","","","","","","","","","","","","","","","","","","","","","","","","","","","","","","","","","","50",""
"4202","","<div style=""width:500px;"">
  <p>How would you describe your current emotional state?</p>
  </div>","88","html-slider-response","79","2380914","0.0-10.0-3.8","221","1","2025-07-09 09:30:03","7701e855f2ef39aa3fd6c71abdc6918a","105.245.99.161","Mozilla/5.0 (Windows NT 10.0; Win64; x64) AppleWebKit/537.36 (KHTML, like Gecko) Chrome/137.0.0.0 Safari/537.36","WebKit","Chrome","137.0.0.0","Windows","10.0","https://app.prolific.com/","en-US,en;q=0.9","67cac9c704712b2393e52905","686d226cabeef709c732f8e1","686e3214cac65ee9c8d4ce8d","67cac9c704712b2393e52905","2025-07-09T10:09:47.036Z","","","","","","StressQ","","","","","","","","","","","","","","","","","","","","","","","","","","","","","","","","","","","","","","50",""
"3705","","<div style=""width:500px;"">
  <p>What best describes how you currently feel?</p>
  </div>","12","html-slider-response","80","2384624","0.0-10.0-4.8","221","1","2025-07-09 09:30:03","7701e855f2ef39aa3fd6c71abdc6918a","105.245.99.161","Mozilla/5.0 (Windows NT 10.0; Win64; x64) AppleWebKit/537.36 (KHTML, like Gecko) Chrome/137.0.0.0 Safari/537.36","WebKit","Chrome","137.0.0.0","Windows","10.0","https://app.prolific.com/","en-US,en;q=0.9","67cac9c704712b2393e52905","686d226cabeef709c732f8e1","686e3214cac65ee9c8d4ce8d","67cac9c704712b2393e52905","2025-07-09T10:09:50.746Z","","","","","","MotivationQ","","","","","","","","","","","","","","","","","","","","","","","","","","","","","","","","","","","","","","50",""
