"rt","response_timestamp","stimulus","response","trial_type","trial_index","time_elapsed","internal_node_id","run_id","condition","recorded_at","source_code_version","ip","user_agent","device","browser","browser_version","platform","platform_version","referer","accept_language","PROLIFIC_PID","STUDY_ID","SESSION_ID","prolific_id","realtime","view_history","question_order","consent","success","question_id","eventType","responses","item_order","radio_event_ids","radio_event_times","key_event_times","mouse_event_times","straightlining","zigzagging","honeypot","which_type","canvas_config","goals_layout","control_level","trial_number","tutorial_trial_number","trial_start_time","phase1_start_time","phase2_start_time","phase3_start_time","goal_1_value","goal_1_distance","goal_2_value","goal_2_distance","goal_selected","outcome","outcome_total","participant_final_score","participant_initial_score","participant_final_score_prop","goal_choice_rt","allocated_time","allocated_time_remaining","goal_direction","counts","mouse_movements","key_presses","correct","slider_start"
"23559","1752052077354","<p style='font-size:40px;line-height:1.25'><strong>Welcome to the experiment!</strong></p><p style='font-size:1.1em;line-height:1.25'>Thank you for your interest in our experiment! Before you begin, it is important that we obtain your informed consent to participate in the study.</p><p style='font-size:1.1em;line-height:1.25'>On the next screen will be an <strong>information sheet</strong> for you to read. To participate in the study we need you to read this information sheet and the following consent form carefully. If you agree with all the statements, please click the <strong>I agree</strong> button.</p><p style='font-size:1.1em;line-height:1.25'>Press <strong>Next</strong> to read the information sheet.</p>","0","custom-html-button-response","0","23563","0.0-0.0","77","1","2025-07-09 09:07:30","7701e855f2ef39aa3fd6c71abdc6918a","197.185.168.27","Mozilla/5.0 (Windows NT 10.0; Win64; x64) AppleWebKit/537.36 (KHTML, like Gecko) Chrome/137.0.0.0 Safari/537.36","WebKit","Chrome","137.0.0.0","Windows","10.0","https://app.prolific.com/","en-US,en;q=0.9","6712a15554066d8a29d40094","686d226cabeef709c732f8e1","686e3145e8e8804701cb4ccd","6712a15554066d8a29d40094","2025-07-09T09:07:57.357Z","","","","","","","","","","","","","","","","","","","","","","","","","","","","","","","","","","","","","","","","","","","",""
"212498","","","","instructions","1","236064","0.0-1.0","77","1","2025-07-09 09:07:30","7701e855f2ef39aa3fd6c71abdc6918a","197.185.168.27","Mozilla/5.0 (Windows NT 10.0; Win64; x64) AppleWebKit/537.36 (KHTML, like Gecko) Chrome/137.0.0.0 Safari/537.36","WebKit","Chrome","137.0.0.0","Windows","10.0","https://app.prolific.com/","en-US,en;q=0.9","6712a15554066d8a29d40094","686d226cabeef709c732f8e1","686e3145e8e8804701cb4ccd","6712a15554066d8a29d40094","","[{""page_index"":0,""viewing_time"":205358},{""page_index"":1,""viewing_time"":7139}]","","","","","","","","","","","","","","","","","","","","","","","","","","","","","","","","","","","","","","","","","","",""
"5984","","","{""Q0"":"""",""Q1"":"""",""Q2"":"""",""Q3"":"""",""Q4"":"""",""Q5"":"""",""Q6"":""I agree""}","survey-multi-choice","2","242053","0.0-2.0","77","1","2025-07-09 09:07:30","7701e855f2ef39aa3fd6c71abdc6918a","197.185.168.27","Mozilla/5.0 (Windows NT 10.0; Win64; x64) AppleWebKit/537.36 (KHTML, like Gecko) Chrome/137.0.0.0 Safari/537.36","WebKit","Chrome","137.0.0.0","Windows","10.0","https://app.prolific.com/","en-US,en;q=0.9","6712a15554066d8a29d40094","686d226cabeef709c732f8e1","686e3145e8e8804701cb4ccd","6712a15554066d8a29d40094","","","[0,1,2,3,4,5,6]","true","","","","","","","","","","","","","","","","","","","","","","","","","","","","","","","","","","","","","","","","",""
"30374","","","","fullscreen","3","273474","0.0-4.0","77","1","2025-07-09 09:07:30","7701e855f2ef39aa3fd6c71abdc6918a","197.185.168.27","Mozilla/5.0 (Windows NT 10.0; Win64; x64) AppleWebKit/537.36 (KHTML, like Gecko) Chrome/137.0.0.0 Safari/537.36","WebKit","Chrome","137.0.0.0","Windows","10.0","https://app.prolific.com/","en-US,en;q=0.9","6712a15554066d8a29d40094","686d226cabeef709c732f8e1","686e3145e8e8804701cb4ccd","6712a15554066d8a29d40094","","","","","true","","","","","","","","","","","","","","","","","","","","","","","","","","","","","","","","","","","","","","","",""
"12073","1752052339341"," <p style='font-size:1.1em;line-height:1.25'>Thank you for completing the consent form and closing all other tabs.</p><p style='font-size:1.1em;line-height:1.25'>We will now invite you to fill in some demographic information and questionnaires, before starting the game.<br>This will take about 5 minutes.<br></p><p style='font-size:1.1em;line-height:1.25'>Press the <strong>Next</strong> button to continue.</p>","0","custom-html-button-response","4","285549","0.0-5.0","77","1","2025-07-09 09:07:30","7701e855f2ef39aa3fd6c71abdc6918a","197.185.168.27","Mozilla/5.0 (Windows NT 10.0; Win64; x64) AppleWebKit/537.36 (KHTML, like Gecko) Chrome/137.0.0.0 Safari/537.36","WebKit","Chrome","137.0.0.0","Windows","10.0","https://app.prolific.com/","en-US,en;q=0.9","6712a15554066d8a29d40094","686d226cabeef709c732f8e1","686e3145e8e8804701cb4ccd","6712a15554066d8a29d40094","2025-07-09T09:12:19.342Z","","","","","","","","","","","","","","","","","","","","","","","","","","","","","","","","","","","","","","","","","","","",""
"4285","","","{""age"":""21""}","survey-text","5","289874","0.0-6.0-0.0","77","1","2025-07-09 09:07:30","7701e855f2ef39aa3fd6c71abdc6918a","197.185.168.27","Mozilla/5.0 (Windows NT 10.0; Win64; x64) AppleWebKit/537.36 (KHTML, like Gecko) Chrome/137.0.0.0 Safari/537.36","WebKit","Chrome","137.0.0.0","Windows","10.0","https://app.prolific.com/","en-US,en;q=0.9","6712a15554066d8a29d40094","686d226cabeef709c732f8e1","686e3145e8e8804701cb4ccd","6712a15554066d8a29d40094","","","","","","0","demographics","","","","","","","","","","","","","","","","","","","","","","","","","","","","","","","","","","","","","",""
"3373","","","{""gender_identity"":""female/woman""}","survey-multi-choice","6","293248","0.0-6.0-1.0","77","1","2025-07-09 09:07:30","7701e855f2ef39aa3fd6c71abdc6918a","197.185.168.27","Mozilla/5.0 (Windows NT 10.0; Win64; x64) AppleWebKit/537.36 (KHTML, like Gecko) Chrome/137.0.0.0 Safari/537.36","WebKit","Chrome","137.0.0.0","Windows","10.0","https://app.prolific.com/","en-US,en;q=0.9","6712a15554066d8a29d40094","686d226cabeef709c732f8e1","686e3145e8e8804701cb4ccd","6712a15554066d8a29d40094","","","[0]","","","1","demographics","","","","","","","","","","","","","","","","","","","","","","","","","","","","","","","","","","","","","",""
"4558","","","{""assigned_sex"":""female""}","survey-multi-choice","7","297807","0.0-6.0-2.0","77","1","2025-07-09 09:07:30","7701e855f2ef39aa3fd6c71abdc6918a","197.185.168.27","Mozilla/5.0 (Windows NT 10.0; Win64; x64) AppleWebKit/537.36 (KHTML, like Gecko) Chrome/137.0.0.0 Safari/537.36","WebKit","Chrome","137.0.0.0","Windows","10.0","https://app.prolific.com/","en-US,en;q=0.9","6712a15554066d8a29d40094","686d226cabeef709c732f8e1","686e3145e8e8804701cb4ccd","6712a15554066d8a29d40094","","","[0]","","","2","demographics","","","","","","","","","","","","","","","","","","","","","","","","","","","","","","","","","","","","","",""
"9246","","","{""menstrual_cycle"":""Yes""}","survey-multi-choice","8","307055","0.0-6.0-3.0","77","1","2025-07-09 09:07:30","7701e855f2ef39aa3fd6c71abdc6918a","197.185.168.27","Mozilla/5.0 (Windows NT 10.0; Win64; x64) AppleWebKit/537.36 (KHTML, like Gecko) Chrome/137.0.0.0 Safari/537.36","WebKit","Chrome","137.0.0.0","Windows","10.0","https://app.prolific.com/","en-US,en;q=0.9","6712a15554066d8a29d40094","686d226cabeef709c732f8e1","686e3145e8e8804701cb4ccd","6712a15554066d8a29d40094","","","[0]","","","4","demographics","","","","","","","","","","","","","","","","","","","","","","","","","","","","","","","","","","","","","",""
"66289","","","{""education"":""Others""}","survey-multi-choice","9","373346","0.0-6.0-4.0","77","1","2025-07-09 09:07:30","7701e855f2ef39aa3fd6c71abdc6918a","197.185.168.27","Mozilla/5.0 (Windows NT 10.0; Win64; x64) AppleWebKit/537.36 (KHTML, like Gecko) Chrome/137.0.0.0 Safari/537.36","WebKit","Chrome","137.0.0.0","Windows","10.0","https://app.prolific.com/","en-US,en;q=0.9","6712a15554066d8a29d40094","686d226cabeef709c732f8e1","686e3145e8e8804701cb4ccd","6712a15554066d8a29d40094","","","[0]","","","5","demographics","","","","","","","","","","","","","","","","","","","","","","","","","","","","","","","","","","","","","",""
"6916","","","{""education"":""Others""}","survey-multi-choice","10","380264","0.0-6.0-5.0","77","1","2025-07-09 09:07:30","7701e855f2ef39aa3fd6c71abdc6918a","197.185.168.27","Mozilla/5.0 (Windows NT 10.0; Win64; x64) AppleWebKit/537.36 (KHTML, like Gecko) Chrome/137.0.0.0 Safari/537.36","WebKit","Chrome","137.0.0.0","Windows","10.0","https://app.prolific.com/","en-US,en;q=0.9","6712a15554066d8a29d40094","686d226cabeef709c732f8e1","686e3145e8e8804701cb4ccd","6712a15554066d8a29d40094","2025-07-09T09:13:54.057Z","","[0]","","","6","demographics","","","","","","","","","","","","","","","","","","","","","","","","","","","","","","","","","","","","","",""
"107032","","","{""mental_health_condition"":""Panic disorder"",""mental_health_treatment"":""no"",""psychiatric_medication"":""none""}","survey-text","11","487299","0.0-7.0-0.0","77","1","2025-07-09 09:07:30","7701e855f2ef39aa3fd6c71abdc6918a","197.185.168.27","Mozilla/5.0 (Windows NT 10.0; Win64; x64) AppleWebKit/537.36 (KHTML, like Gecko) Chrome/137.0.0.0 Safari/537.36","WebKit","Chrome","137.0.0.0","Windows","10.0","https://app.prolific.com/","en-US,en;q=0.9","6712a15554066d8a29d40094","686d226cabeef709c732f8e1","686e3145e8e8804701cb4ccd","6712a15554066d8a29d40094","2025-07-09T09:15:41.092Z","","","","","1","mental_health","","","","","","","","","","","","","","","","","","","","","","","","","","","","","","","","","","","","","",""
"14050","","","{""depression_history"":[""Yes""]}","survey-multi-select","12","501387","0.0-7.0-1.0","77","1","2025-07-09 09:07:30","7701e855f2ef39aa3fd6c71abdc6918a","197.185.168.27","Mozilla/5.0 (Windows NT 10.0; Win64; x64) AppleWebKit/537.36 (KHTML, like Gecko) Chrome/137.0.0.0 Safari/537.36","WebKit","Chrome","137.0.0.0","Windows","10.0","https://app.prolific.com/","en-US,en;q=0.9","6712a15554066d8a29d40094","686d226cabeef709c732f8e1","686e3145e8e8804701cb4ccd","6712a15554066d8a29d40094","","","[0]","","","","mental_health","","","","","","","","","","","","","","","","","","","","","","","","","","","","","","","","","","","","","",""
"34246","","","{""depression_episodes"":""3-5"",""depression_recent"":""Currently experiencing an episode""}","survey-multi-choice","13","535636","0.0-7.0-2.0-0.0","77","1","2025-07-09 09:07:30","7701e855f2ef39aa3fd6c71abdc6918a","197.185.168.27","Mozilla/5.0 (Windows NT 10.0; Win64; x64) AppleWebKit/537.36 (KHTML, like Gecko) Chrome/137.0.0.0 Safari/537.36","WebKit","Chrome","137.0.0.0","Windows","10.0","https://app.prolific.com/","en-US,en;q=0.9","6712a15554066d8a29d40094","686d226cabeef709c732f8e1","686e3145e8e8804701cb4ccd","6712a15554066d8a29d40094","2025-07-09T09:16:29.429Z","","[0,1]","","","3","mental_health","","","","","","","","","","","","","","","","","","","","","","","","","","","","","","","","","","","","","",""
"105182.5","","","","survey-template","14","640848","0.0-7.0-3.0","77","1","2025-07-09 09:07:30","7701e855f2ef39aa3fd6c71abdc6918a","197.185.168.27","Mozilla/5.0 (Windows NT 10.0; Win64; x64) AppleWebKit/537.36 (KHTML, like Gecko) Chrome/137.0.0.0 Safari/537.36","WebKit","Chrome","137.0.0.0","Windows","10.0","https://app.prolific.com/","en-US,en;q=0.9","6712a15554066d8a29d40094","686d226cabeef709c732f8e1","686e3145e8e8804701cb4ccd","6712a15554066d8a29d40094","2025-07-09T09:18:14.641Z","","","","","","ius","{""Q01"":""3"",""Q02"":""4"",""Q03"":""2"",""Q04"":""3"",""Q05"":""2"",""Q06"":""1"",""Q07"":""4"",""Q08"":""0"",""Q09"":""4"",""Q10"":""3"",""Q11"":""3"",""Q12"":""4"",""Q13"":""2""}","[0,1,2,3,4,5,6,7,8,9,10,11,12]","[""Q01"",""Q02"",""Q03"",""Q03"",""Q04"",""Q05"",""Q06"",""Q07"",""Q08"",""Q09"",""Q10"",""Q11"",""Q12"",""Q13""]","[13343.700000047684,27391.800000071526,33557.40000009537,37815.5,45573.40000009537,58356.10000002384,64877,72835.30000007153,78669.5,84667.20000004768,88379.40000009537,92789.60000002384,97955.70000004768,103127.40000009537]","[]","[13343.700000047684,27391.800000071526,33557.40000009537,37815.5,45573.40000009537,58356.10000002384,64877,72835.30000007153,78669.5,84667.20000004768,88379.40000009537,92789.60000002384,97955.70000004768,103127.40000009537,105177.40000009537]","0.3076923076923077","0.6666666666666666","0","","","","","","","","","","","","","","","","","","","","","","","","","","","","",""
"7095","1752052701738","<p style='font-size:1.1em;line-height:1.25'>In the following, we will ask you a few questions relating to your experiences over the past month.<br></p><p style='font-size:1.1em;line-height:1.25'>Press the <strong>Next</strong> button to continue.</p>","0","custom-html-button-response","15","647945","0.0-7.0-4.0","77","1","2025-07-09 09:07:30","7701e855f2ef39aa3fd6c71abdc6918a","197.185.168.27","Mozilla/5.0 (Windows NT 10.0; Win64; x64) AppleWebKit/537.36 (KHTML, like Gecko) Chrome/137.0.0.0 Safari/537.36","WebKit","Chrome","137.0.0.0","Windows","10.0","https://app.prolific.com/","en-US,en;q=0.9","6712a15554066d8a29d40094","686d226cabeef709c732f8e1","686e3145e8e8804701cb4ccd","6712a15554066d8a29d40094","2025-07-09T09:18:21.739Z","","","","","","","","","","","","","","","","","","","","","","","","","","","","","","","","","","","","","","","","","","","",""
"96669.39999997616","","","","survey-template","16","744618","0.0-7.0-5.0","77","1","2025-07-09 09:07:30","7701e855f2ef39aa3fd6c71abdc6918a","197.185.168.27","Mozilla/5.0 (Windows NT 10.0; Win64; x64) AppleWebKit/537.36 (KHTML, like Gecko) Chrome/137.0.0.0 Safari/537.36","WebKit","Chrome","137.0.0.0","Windows","10.0","https://app.prolific.com/","en-US,en;q=0.9","6712a15554066d8a29d40094","686d226cabeef709c732f8e1","686e3145e8e8804701cb4ccd","6712a15554066d8a29d40094","2025-07-09T09:19:58.411Z","","","","","","pss","{""Q01"":""4"",""Q02"":""4"",""Q03"":""4"",""Q04"":""1"",""Q05"":""1"",""Q06"":""2"",""Q07"":""3"",""Q08"":""2"",""Q09"":""3"",""Q10"":""3""}","[0,1,2,3,4,5,6,7,8,9]","[""Q01"",""Q02"",""Q03"",""Q04"",""Q05"",""Q06"",""Q06"",""Q07"",""Q08"",""Q09"",""Q10""]","[7496,15562.299999952316,20128.899999976158,28418.299999952316,36301.39999997616,49885.60000002384,52567.39999997616,65505,72851.5,81012.89999997616,88429.19999992847]","[]","[14.5,7496,15562.299999952316,20128.899999976158,28418.299999952316,36301.39999997616,49885.60000002384,52567.39999997616,65505,72851.5,81012.89999997616,88429.19999992847,91083.69999992847,96664.89999997616]","0.4","0.5555555555555556","0","","","","","","","","","","","","","","","","","","","","","","","","","","","","",""
"15522","1752052813935","<p style='font-size:1.1em;line-height:1.25'>Thank you for your answers! Now we will ask you a few more questions relating to your feelings in the last 24 hours.<br></p><p style='font-size:1.1em;line-height:1.25'>Press the <strong>Next</strong> button to continue.</p>","0","custom-html-button-response","17","760143","0.0-7.0-6.0","77","1","2025-07-09 09:07:30","7701e855f2ef39aa3fd6c71abdc6918a","197.185.168.27","Mozilla/5.0 (Windows NT 10.0; Win64; x64) AppleWebKit/537.36 (KHTML, like Gecko) Chrome/137.0.0.0 Safari/537.36","WebKit","Chrome","137.0.0.0","Windows","10.0","https://app.prolific.com/","en-US,en;q=0.9","6712a15554066d8a29d40094","686d226cabeef709c732f8e1","686e3145e8e8804701cb4ccd","6712a15554066d8a29d40094","2025-07-09T09:20:13.936Z","","","","","","","","","","","","","","","","","","","","","","","","","","","","","","","","","","","","","","","","","","","",""
"129896.59999990463","","","","survey-template","18","890044","0.0-7.0-7.0","77","1","2025-07-09 09:07:30","7701e855f2ef39aa3fd6c71abdc6918a","197.185.168.27","Mozilla/5.0 (Windows NT 10.0; Win64; x64) AppleWebKit/537.36 (KHTML, like Gecko) Chrome/137.0.0.0 Safari/537.36","WebKit","Chrome","137.0.0.0","Windows","10.0","https://app.prolific.com/","en-US,en;q=0.9","6712a15554066d8a29d40094","686d226cabeef709c732f8e1","686e3145e8e8804701cb4ccd","6712a15554066d8a29d40094","2025-07-09T09:22:23.837Z","","","","","","drsp","{""Q01"":""3"",""Q02"":""2"",""Q03"":""4"",""Q04"":""2"",""Q05"":""5"",""Q06"":""5"",""Q07"":""3"",""Q08"":""5"",""Q09"":""5"",""Q10"":""4"",""Q11"":""5"",""Q12"":""5"",""Q13"":""5"",""Q14"":""1"",""Q15"":""4"",""Q16"":""3"",""Q17"":""5"",""Q18"":""5"",""Q19"":""3"",""Q20"":""4"",""Q21"":""4""}","[0,1,2,3,4,5,6,7,8,9,10,11,12,13,14,15,16,17,18,19,20]","[""Q01"",""Q02"",""Q02"",""Q02"",""Q03"",""Q04"",""Q05"",""Q06"",""Q07"",""Q08"",""Q09"",""Q10"",""Q11"",""Q12"",""Q13"",""Q14"",""Q15"",""Q16"",""Q17"",""Q18"",""Q19"",""Q19"",""Q20"",""Q21""]","[7398.399999976158,11012.5,11986.399999976158,16864.299999952316,20373.099999904633,24542.599999904633,29984,35878.799999952316,39294.59999990463,44248.39999997616,49552.699999928474,53014.5,60375.299999952316,65510.199999928474,67146,75271.5,86578,89064,91460,100372.19999992847,108239.79999995232,114906.09999990463,121575.79999995232,127961.89999997616]","[]","[19.5,7398.399999976158,11012.5,11986.399999976158,16864.299999952316,20373.099999904633,24542.599999904633,29984,35878.799999952316,39294.59999990463,44248.39999997616,49552.699999928474,53014.5,59013,59952.09999990463,60375.299999952316,65510.199999928474,67146,74264.19999992847,75271.5,86578,89064,91460,100372.19999992847,108239.79999995232,114906.09999990463,121575.79999995232,126142,127961.89999997616,129889.89999997616]","0.42857142857142855","0.25","0","","","","","","","","","","","","","","","","","","","","","","","","","","","","",""
"24818.300000071526","","","","survey-template","19","914866","0.0-7.0-8.0","77","1","2025-07-09 09:07:30","7701e855f2ef39aa3fd6c71abdc6918a","197.185.168.27","Mozilla/5.0 (Windows NT 10.0; Win64; x64) AppleWebKit/537.36 (KHTML, like Gecko) Chrome/137.0.0.0 Safari/537.36","WebKit","Chrome","137.0.0.0","Windows","10.0","https://app.prolific.com/","en-US,en;q=0.9","6712a15554066d8a29d40094","686d226cabeef709c732f8e1","686e3145e8e8804701cb4ccd","6712a15554066d8a29d40094","2025-07-09T09:22:48.659Z","","","","","","stress","{""Q01"":""4"",""Q02"":""3"",""Q03"":""3""}","[0,1,2]","[""Q01"",""Q02"",""Q02"",""Q03""]","[7250.600000023842,14320.100000023842,16797,23807.100000023842]","[]","[7250.600000023842,14320.100000023842,16797,22962.700000047684,23807.100000023842,24816.5]","0.3333333333333333","0.5","0","","","","","","","","","","","","","","","","","","","","","","","","","","","","",""
"139548","","","","instructions","20","1054416","0.0-8.0-0.0","77","1","2025-07-09 09:07:30","7701e855f2ef39aa3fd6c71abdc6918a","197.185.168.27","Mozilla/5.0 (Windows NT 10.0; Win64; x64) AppleWebKit/537.36 (KHTML, like Gecko) Chrome/137.0.0.0 Safari/537.36","WebKit","Chrome","137.0.0.0","Windows","10.0","https://app.prolific.com/","en-US,en;q=0.9","6712a15554066d8a29d40094","686d226cabeef709c732f8e1","686e3145e8e8804701cb4ccd","6712a15554066d8a29d40094","","[{""page_index"":0,""viewing_time"":34112},{""page_index"":1,""viewing_time"":54799},{""page_index"":2,""viewing_time"":28995},{""page_index"":3,""viewing_time"":21642}]","","","","","","","","","","","","","","","","","","","","","","","","","","","","","","","","","","","","","","","","","","",""
"","","","","ctl-task-cpt","21","1100273","0.0-8.0-1.0","77","1","2025-07-09 09:07:30","7701e855f2ef39aa3fd6c71abdc6918a","197.185.168.27","Mozilla/5.0 (Windows NT 10.0; Win64; x64) AppleWebKit/537.36 (KHTML, like Gecko) Chrome/137.0.0.0 Safari/537.36","WebKit","Chrome","137.0.0.0","Windows","10.0","https://app.prolific.com/","en-US,en;q=0.9","6712a15554066d8a29d40094","686d226cabeef709c732f8e1","686e3145e8e8804701cb4ccd","6712a15554066d8a29d40094","","","","","","","","","","","","","","","","","win-only","2","g1:SE,g2:NW","1","0","1","1058375.3","9085.7","13088.1","42838.9","2","4","4","6","2","4","1","1","0","0.007575757575757576","1629.9","4000","1205","[""left"",""up""]","{""num_key_presses"":9,""num_perfect"":6,""num_errors"":3,""num_randdir"":0,""num_randdir_good_moves"":0,""num_whilered"":0,""num_whileblue"":2,""num_blue"":3,""num_good_moves"":7}","[290.22232142857143,298.12857142857143,0.5,290.22232142857143,298.12857142857143,102.6,290.22232142857143,298.12857142857143,213.5,290.22232142857143,298.12857142857143,320.9,290.22232142857143,298.12857142857143,428,290.22232142857143,298.12857142857143,529.2,290.22232142857143,298.12857142857143,630.4,343.22232142857143,333.12857142857143,739,406.22232142857143,360.12857142857143,840.7,361.22232142857143,363.12857142857143,947.3,81.22232142857143,183.12857142857143,1050,43.222321428571426,103.12857142857143,1152.3,46.222321428571426,95.12857142857143,1252.6,58.222321428571426,89.12857142857143,1354.9,60.222321428571426,78.12857142857143,1460.5,60.222321428571426,77.12857142857143,1563.3,60.222321428571426,77.12857142857143,1665.5,61.222321428571426,75.12857142857143,1771.2,61.222321428571426,75.12857142857143,1872.8,61.222321428571426,75.12857142857143,1977.7,61.222321428571426,75.12857142857143,2079.5,61.222321428571426,75.12857142857143,2182.3,61.222321428571426,75.12857142857143,2292.2,71.22232142857143,93.12857142857143,2396.8,82.22232142857143,109.12857142857143,2502.8,82.22232142857143,109.12857142857143,2604,82.22232142857143,109.12857142857143,2709.5,82.22232142857143,109.12857142857143,2812.8,82.22232142857143,109.12857142857143,2920.9,82.22232142857143,109.12857142857143,3025.5,82.22232142857143,109.12857142857143,3125.8,82.22232142857143,109.12857142857143,3228.9,82.22232142857143,109.12857142857143,3330.7,82.22232142857143,109.12857142857143,3431.2,82.22232142857143,109.12857142857143,3536.6,82.22232142857143,109.12857142857143,3642.7,82.22232142857143,109.12857142857143,3745.6,82.22232142857143,109.12857142857143,3846.2,82.22232142857143,109.12857142857143,3949.6]","[371.3,371.2,1000,0.1,-628.8,""error"",""-"",""-"",""no_move"",5001.2,4629.6,2952.8,1376.3,672.1,""smooth"",""up"",""up"",""good_move"",8022,3020,2298.8,5002,721.2,""smooth"",""up"",""up"",""good_move"",10811.8,2789.4,2187.3,8022.4,602.1,""while_blue"",""up"",""left"",""good_move"",13568.7,2756.3,2362.8,10812.4,393.5,""smooth"",""up"",""up"",""good_move"",20240.1,6671,2803.7,17080.1,356.3,""while_blue"",""left"",""right"",""bad_move"",22860.5,2619.9,1862,20240.6,757.9,""smooth"",""left"",""left"",""good_move"",26705.3,3844.2,3111.7,22861.1,732.5,""smooth"",""left"",""left"",""good_move"",29645,2939.3,2219.4,26705.8,719.9,""smooth"",""left"",""left"",""good_move""]","",""
"24863","","","","instructions","22","1125136","0.0-8.0-2.0","77","1","2025-07-09 09:07:30","7701e855f2ef39aa3fd6c71abdc6918a","197.185.168.27","Mozilla/5.0 (Windows NT 10.0; Win64; x64) AppleWebKit/537.36 (KHTML, like Gecko) Chrome/137.0.0.0 Safari/537.36","WebKit","Chrome","137.0.0.0","Windows","10.0","https://app.prolific.com/","en-US,en;q=0.9","6712a15554066d8a29d40094","686d226cabeef709c732f8e1","686e3145e8e8804701cb4ccd","6712a15554066d8a29d40094","","[{""page_index"":0,""viewing_time"":24862}]","","","","","","","","","","","","","","","","","","","","","","","","","","","","","","","","","","","","","","","","","","",""
"","","","","ctl-task-cpt","23","1167434","0.0-8.0-3.0","77","1","2025-07-09 09:07:30","7701e855f2ef39aa3fd6c71abdc6918a","197.185.168.27","Mozilla/5.0 (Windows NT 10.0; Win64; x64) AppleWebKit/537.36 (KHTML, like Gecko) Chrome/137.0.0.0 Safari/537.36","WebKit","Chrome","137.0.0.0","Windows","10.0","https://app.prolific.com/","en-US,en;q=0.9","6712a15554066d8a29d40094","686d226cabeef709c732f8e1","686e3145e8e8804701cb4ccd","6712a15554066d8a29d40094","","","","","","","","","","","","","","","","","win-only","2","g1:SE,g2:NW","0.35","0","3","1129090.6","1347","5348.5","39281.5","2","4","8","6","2","-8","-8","0","0","0","3242.6","4000","-2155","[""left"",""up""]","{""num_key_presses"":9,""num_perfect"":4,""num_errors"":0,""num_randdir"":5,""num_randdir_good_moves"":0,""num_whilered"":0,""num_whileblue"":0,""num_blue"":1,""num_good_moves"":4}","[299.22232142857143,296.12857142857143,0.2,299.22232142857143,296.12857142857143,102.7,299.22232142857143,296.12857142857143,207.7,299.22232142857143,296.12857142857143,316,297.22232142857143,297.12857142857143,418.5,296.22232142857143,298.12857142857143,519.2,296.22232142857143,298.12857142857143,626.3,296.22232142857143,300.12857142857143,728.9,297.22232142857143,308.12857142857143,831.2,328.22232142857143,341.12857142857143,935.6,360.22232142857143,357.12857142857143,1044.4,366.22232142857143,371.12857142857143,1152.3,377.22232142857143,388.12857142857143,1261.4,390.22232142857143,421.12857142857143,1361.9,235.22232142857143,374.12857142857143,1466.9,-39.777678571428574,75.12857142857143,1569.9,67.22232142857143,52.128571428571426,1670.3,70.22232142857143,58.128571428571426,1770.8,70.22232142857143,64.12857142857143,1872.4,65.22232142857143,64.12857142857143,1977.7,54.222321428571426,63.128571428571426,2084.1,53.222321428571426,62.128571428571426,2185.6,53.222321428571426,62.128571428571426,2287.7,53.222321428571426,62.128571428571426,2390.6,53.222321428571426,62.128571428571426,2496.3,53.222321428571426,62.128571428571426,2596.7,53.222321428571426,62.128571428571426,2700,53.222321428571426,62.128571428571426,2802.2,53.222321428571426,62.128571428571426,2908,53.222321428571426,62.128571428571426,3015.1,53.222321428571426,62.128571428571426,3119.7,53.222321428571426,62.128571428571426,3229.7,53.222321428571426,62.128571428571426,3335.4,53.222321428571426,62.128571428571426,3436.3,53.222321428571426,62.128571428571426,3547.9,53.222321428571426,62.128571428571426,3651.1,53.222321428571426,62.128571428571426,3755.8,53.222321428571426,62.128571428571426,3861.4,52.222321428571426,63.128571428571426,3963.4]","[1703.6,1703.6,1000,0,703.6,""oops"",""left"",""right"",""bad_move"",9635.1,7930.8,3195.9,5955.3,483.9,""smooth"",""up"",""up"",""good_move"",12875.1,3239.5,2158.4,9635.7,1081,""smooth"",""up"",""up"",""good_move"",16159.9,3284.2,2728.9,12875.7,555.3,""oops"",""up"",""down"",""bad_move"",18852.4,2691.9,2075.6,16160.5,616.3,""oops"",""left"",""down"",""bad_move"",21303.3,2450.5,1837.7,18852.9,612.7,""smooth"",""left"",""left"",""good_move"",24235.1,2929.8,2267.8,21305.4,661.9,""smooth"",""left"",""left"",""good_move"",27569.5,3333.8,2840.8,24235.7,493,""oops"",""left"",""down"",""bad_move"",31518.3,3948.5,3470.5,27569.8,478,""oops"",""left"",""down"",""bad_move""]","",""
"46416","","","","instructions","24","1213852","0.0-8.0-4.0","77","1","2025-07-09 09:07:30","7701e855f2ef39aa3fd6c71abdc6918a","197.185.168.27","Mozilla/5.0 (Windows NT 10.0; Win64; x64) AppleWebKit/537.36 (KHTML, like Gecko) Chrome/137.0.0.0 Safari/537.36","WebKit","Chrome","137.0.0.0","Windows","10.0","https://app.prolific.com/","en-US,en;q=0.9","6712a15554066d8a29d40094","686d226cabeef709c732f8e1","686e3145e8e8804701cb4ccd","6712a15554066d8a29d40094","","[{""page_index"":0,""viewing_time"":22601},{""page_index"":1,""viewing_time"":23815}]","","","","","","","","","","","","","","","","","","","","","","","","","","","","","","","","","","","","","","","","","","",""
"14150","","","{""green_ball"":[""Ball always moves in the direction I press""]}","survey-multi-select","25","1228005","0.0-8.0-5.0-0.0","77","1","2025-07-09 09:07:30","7701e855f2ef39aa3fd6c71abdc6918a","197.185.168.27","Mozilla/5.0 (Windows NT 10.0; Win64; x64) AppleWebKit/537.36 (KHTML, like Gecko) Chrome/137.0.0.0 Safari/537.36","WebKit","Chrome","137.0.0.0","Windows","10.0","https://app.prolific.com/","en-US,en;q=0.9","6712a15554066d8a29d40094","686d226cabeef709c732f8e1","686e3145e8e8804701cb4ccd","6712a15554066d8a29d40094","","","[0]","","","","quiz","","","","","","","","","","","","","","","","","","","","","","","","","","","","","","","","","","","","","false",""
"6552","","<p align='center'><b>INCORRECT.</b> Usually the green ball moves in the indicated direction, but sometimes it shakes and moves randomly. </p>","0","html-button-response","26","1234594","0.0-8.0-5.0-1.0","77","1","2025-07-09 09:07:30","7701e855f2ef39aa3fd6c71abdc6918a","197.185.168.27","Mozilla/5.0 (Windows NT 10.0; Win64; x64) AppleWebKit/537.36 (KHTML, like Gecko) Chrome/137.0.0.0 Safari/537.36","WebKit","Chrome","137.0.0.0","Windows","10.0","https://app.prolific.com/","en-US,en;q=0.9","6712a15554066d8a29d40094","686d226cabeef709c732f8e1","686e3145e8e8804701cb4ccd","6712a15554066d8a29d40094","","","","","","","","","","","","","","","","","","","","","","","","","","","","","","","","","","","","","","","","","","","","",""
"17628","","","{""green_ball"":[""Ball sometimes shakes and moves in a random direction""]}","survey-multi-select","27","1252226","0.0-8.0-5.1-0.1","77","1","2025-07-09 09:07:30","7701e855f2ef39aa3fd6c71abdc6918a","197.185.168.27","Mozilla/5.0 (Windows NT 10.0; Win64; x64) AppleWebKit/537.36 (KHTML, like Gecko) Chrome/137.0.0.0 Safari/537.36","WebKit","Chrome","137.0.0.0","Windows","10.0","https://app.prolific.com/","en-US,en;q=0.9","6712a15554066d8a29d40094","686d226cabeef709c732f8e1","686e3145e8e8804701cb4ccd","6712a15554066d8a29d40094","","","[0]","","","","quiz","","","","","","","","","","","","","","","","","","","","","","","","","","","","","","","","","","","","","true",""
"2217","","<p align='center'><b>CORRECT!</b> Indeed, the green ball may sometimes shake and move in a random direction.</p>","0","html-button-response","28","1254445","0.0-8.0-5.1-1.1","77","1","2025-07-09 09:07:30","7701e855f2ef39aa3fd6c71abdc6918a","197.185.168.27","Mozilla/5.0 (Windows NT 10.0; Win64; x64) AppleWebKit/537.36 (KHTML, like Gecko) Chrome/137.0.0.0 Safari/537.36","WebKit","Chrome","137.0.0.0","Windows","10.0","https://app.prolific.com/","en-US,en;q=0.9","6712a15554066d8a29d40094","686d226cabeef709c732f8e1","686e3145e8e8804701cb4ccd","6712a15554066d8a29d40094","","","","","","","","","","","","","","","","","","","","","","","","","","","","","","","","","","","","","","","","","","","","",""
"14126","","","{""yellow_ball"":[""Ball doesn‘t move and I get -1 penalty point""]}","survey-multi-select","29","1268574","0.0-8.0-6.0-0.0","77","1","2025-07-09 09:07:30","7701e855f2ef39aa3fd6c71abdc6918a","197.185.168.27","Mozilla/5.0 (Windows NT 10.0; Win64; x64) AppleWebKit/537.36 (KHTML, like Gecko) Chrome/137.0.0.0 Safari/537.36","WebKit","Chrome","137.0.0.0","Windows","10.0","https://app.prolific.com/","en-US,en;q=0.9","6712a15554066d8a29d40094","686d226cabeef709c732f8e1","686e3145e8e8804701cb4ccd","6712a15554066d8a29d40094","","","[0]","","","","quiz","","","","","","","","","","","","","","","","","","","","","","","","","","","","","","","","","","","","","true",""
"1765","","<p align='center'><b>CORRECT!</b> Indeed, the yellow ball never moves and you receive a penalty.</p>","0","html-button-response","30","1270341","0.0-8.0-6.0-1.0","77","1","2025-07-09 09:07:30","7701e855f2ef39aa3fd6c71abdc6918a","197.185.168.27","Mozilla/5.0 (Windows NT 10.0; Win64; x64) AppleWebKit/537.36 (KHTML, like Gecko) Chrome/137.0.0.0 Safari/537.36","WebKit","Chrome","137.0.0.0","Windows","10.0","https://app.prolific.com/","en-US,en;q=0.9","6712a15554066d8a29d40094","686d226cabeef709c732f8e1","686e3145e8e8804701cb4ccd","6712a15554066d8a29d40094","","","","","","","","","","","","","","","","","","","","","","","","","","","","","","","","","","","","","","","","","","","","",""
"8198","","","{""blue_ball"":[""Ball doesn‘t move and I get -1 penalty point""]}","survey-multi-select","31","1278541","0.0-8.0-7.0-0.0","77","1","2025-07-09 09:07:30","7701e855f2ef39aa3fd6c71abdc6918a","197.185.168.27","Mozilla/5.0 (Windows NT 10.0; Win64; x64) AppleWebKit/537.36 (KHTML, like Gecko) Chrome/137.0.0.0 Safari/537.36","WebKit","Chrome","137.0.0.0","Windows","10.0","https://app.prolific.com/","en-US,en;q=0.9","6712a15554066d8a29d40094","686d226cabeef709c732f8e1","686e3145e8e8804701cb4ccd","6712a15554066d8a29d40094","","","[0]","","","","quiz","","","","","","","","","","","","","","","","","","","","","","","","","","","","","","","","","","","","","false",""
"3673","","<p align='center'><b>INCORRECT.</b> The blue ball always shakes and moves randomly.</p>","0","html-button-response","32","1282217","0.0-8.0-7.0-1.0","77","1","2025-07-09 09:07:30","7701e855f2ef39aa3fd6c71abdc6918a","197.185.168.27","Mozilla/5.0 (Windows NT 10.0; Win64; x64) AppleWebKit/537.36 (KHTML, like Gecko) Chrome/137.0.0.0 Safari/537.36","WebKit","Chrome","137.0.0.0","Windows","10.0","https://app.prolific.com/","en-US,en;q=0.9","6712a15554066d8a29d40094","686d226cabeef709c732f8e1","686e3145e8e8804701cb4ccd","6712a15554066d8a29d40094","","","","","","","","","","","","","","","","","","","","","","","","","","","","","","","","","","","","","","","","","","","","",""
"12310","","","{""blue_ball"":[""Ball always shakes and moves in a random direction""]}","survey-multi-select","33","1294530","0.0-8.0-7.1-0.1","77","1","2025-07-09 09:07:30","7701e855f2ef39aa3fd6c71abdc6918a","197.185.168.27","Mozilla/5.0 (Windows NT 10.0; Win64; x64) AppleWebKit/537.36 (KHTML, like Gecko) Chrome/137.0.0.0 Safari/537.36","WebKit","Chrome","137.0.0.0","Windows","10.0","https://app.prolific.com/","en-US,en;q=0.9","6712a15554066d8a29d40094","686d226cabeef709c732f8e1","686e3145e8e8804701cb4ccd","6712a15554066d8a29d40094","","","[0]","","","","quiz","","","","","","","","","","","","","","","","","","","","","","","","","","","","","","","","","","","","","true",""
"3978","","<p align='center'><b>CORRECT!</b> Indeed, the blue ball always shakes and moves in a random direction. Also there is a penalty of -1 point.</p>","0","html-button-response","34","1298509","0.0-8.0-7.1-1.1","77","1","2025-07-09 09:07:30","7701e855f2ef39aa3fd6c71abdc6918a","197.185.168.27","Mozilla/5.0 (Windows NT 10.0; Win64; x64) AppleWebKit/537.36 (KHTML, like Gecko) Chrome/137.0.0.0 Safari/537.36","WebKit","Chrome","137.0.0.0","Windows","10.0","https://app.prolific.com/","en-US,en;q=0.9","6712a15554066d8a29d40094","686d226cabeef709c732f8e1","686e3145e8e8804701cb4ccd","6712a15554066d8a29d40094","","","","","","","","","","","","","","","","","","","","","","","","","","","","","","","","","","","","","","","","","","","","",""
"11746","","","{""bonus"":[""When I reach all possible points""]}","survey-multi-select","35","1310258","0.0-8.0-8.0-0.0","77","1","2025-07-09 09:07:30","7701e855f2ef39aa3fd6c71abdc6918a","197.185.168.27","Mozilla/5.0 (Windows NT 10.0; Win64; x64) AppleWebKit/537.36 (KHTML, like Gecko) Chrome/137.0.0.0 Safari/537.36","WebKit","Chrome","137.0.0.0","Windows","10.0","https://app.prolific.com/","en-US,en;q=0.9","6712a15554066d8a29d40094","686d226cabeef709c732f8e1","686e3145e8e8804701cb4ccd","6712a15554066d8a29d40094","","","[0]","","","","quiz","","","","","","","","","","","","","","","","","","","","","","","","","","","","","","","","","","","","","false",""
"3670","","<p align='center'><b>INCORRECT.</b> You receive 2 pounds extra when you reach 50% of points </p>","0","html-button-response","36","1313930","0.0-8.0-8.0-1.0","77","1","2025-07-09 09:07:30","7701e855f2ef39aa3fd6c71abdc6918a","197.185.168.27","Mozilla/5.0 (Windows NT 10.0; Win64; x64) AppleWebKit/537.36 (KHTML, like Gecko) Chrome/137.0.0.0 Safari/537.36","WebKit","Chrome","137.0.0.0","Windows","10.0","https://app.prolific.com/","en-US,en;q=0.9","6712a15554066d8a29d40094","686d226cabeef709c732f8e1","686e3145e8e8804701cb4ccd","6712a15554066d8a29d40094","","","","","","","","","","","","","","","","","","","","","","","","","","","","","","","","","","","","","","","","","","","","",""
"2727","","","{""bonus"":[""When I reach 50% of points""]}","survey-multi-select","37","1316659","0.0-8.0-8.1-0.1","77","1","2025-07-09 09:07:30","7701e855f2ef39aa3fd6c71abdc6918a","197.185.168.27","Mozilla/5.0 (Windows NT 10.0; Win64; x64) AppleWebKit/537.36 (KHTML, like Gecko) Chrome/137.0.0.0 Safari/537.36","WebKit","Chrome","137.0.0.0","Windows","10.0","https://app.prolific.com/","en-US,en;q=0.9","6712a15554066d8a29d40094","686d226cabeef709c732f8e1","686e3145e8e8804701cb4ccd","6712a15554066d8a29d40094","","","[0]","","","","quiz","","","","","","","","","","","","","","","","","","","","","","","","","","","","","","","","","","","","","true",""
"1361","","<p align='center'><b>CORRECT!</b> Indeed, you receive 2 pounds extra when you reach 50% of points.</p>","0","html-button-response","38","1318022","0.0-8.0-8.1-1.1","77","1","2025-07-09 09:07:30","7701e855f2ef39aa3fd6c71abdc6918a","197.185.168.27","Mozilla/5.0 (Windows NT 10.0; Win64; x64) AppleWebKit/537.36 (KHTML, like Gecko) Chrome/137.0.0.0 Safari/537.36","WebKit","Chrome","137.0.0.0","Windows","10.0","https://app.prolific.com/","en-US,en;q=0.9","6712a15554066d8a29d40094","686d226cabeef709c732f8e1","686e3145e8e8804701cb4ccd","6712a15554066d8a29d40094","","","","","","","","","","","","","","","","","","","","","","","","","","","","","","","","","","","","","","","","","","","","",""
"6065","","","","instructions","39","1324089","0.0-8.0-9.0","77","1","2025-07-09 09:07:30","7701e855f2ef39aa3fd6c71abdc6918a","197.185.168.27","Mozilla/5.0 (Windows NT 10.0; Win64; x64) AppleWebKit/537.36 (KHTML, like Gecko) Chrome/137.0.0.0 Safari/537.36","WebKit","Chrome","137.0.0.0","Windows","10.0","https://app.prolific.com/","en-US,en;q=0.9","6712a15554066d8a29d40094","686d226cabeef709c732f8e1","686e3145e8e8804701cb4ccd","6712a15554066d8a29d40094","","[{""page_index"":0,""viewing_time"":6064}]","","","","","","","","","","","","","","","","","","","","","","","","","","","","","","","","","","","","","","","","","","",""
"26860","","<p>Before you start with this game please answer the following three questions yourself. </p>
  <p>Through this game, we measure several aspects of your cognitive performance, such as reaction times, multi-tasking capabilities </p>
  <p>and the ability to assess the situation you are in.</p>
  <p></p>
  <p><b>How good do you usually are in such tasks?</b></p>","91","html-slider-response","40","1350985","0.0-9.0-0.0","77","1","2025-07-09 09:07:30","7701e855f2ef39aa3fd6c71abdc6918a","197.185.168.27","Mozilla/5.0 (Windows NT 10.0; Win64; x64) AppleWebKit/537.36 (KHTML, like Gecko) Chrome/137.0.0.0 Safari/537.36","WebKit","Chrome","137.0.0.0","Windows","10.0","https://app.prolific.com/","en-US,en;q=0.9","6712a15554066d8a29d40094","686d226cabeef709c732f8e1","686e3145e8e8804701cb4ccd","6712a15554066d8a29d40094","2025-07-09T09:30:04.778Z","","","","","","PreSkillQ","","","","","","","","","","","","","","","","","","","","","","","","","","","","","","","","","","","","","","50"
"9415","","<div style=""width:500px;"">
  <p>How well do you think you will perform in this task compared to other participants?</p>
  </div>","70","html-slider-response","41","1360402","0.0-9.0-1.0","77","1","2025-07-09 09:07:30","7701e855f2ef39aa3fd6c71abdc6918a","197.185.168.27","Mozilla/5.0 (Windows NT 10.0; Win64; x64) AppleWebKit/537.36 (KHTML, like Gecko) Chrome/137.0.0.0 Safari/537.36","WebKit","Chrome","137.0.0.0","Windows","10.0","https://app.prolific.com/","en-US,en;q=0.9","6712a15554066d8a29d40094","686d226cabeef709c732f8e1","686e3145e8e8804701cb4ccd","6712a15554066d8a29d40094","2025-07-09T09:30:14.195Z","","","","","","PrePerfQ","","","","","","","","","","","","","","","","","","","","","","","","","","","","","","","","","","","","","","50"
"5918","","<div style=""width:500px;"">
  <p>What best describes how you currently feel?</p>
  </div>","28","html-slider-response","42","1366323","0.0-9.0-2.0","77","1","2025-07-09 09:07:30","7701e855f2ef39aa3fd6c71abdc6918a","197.185.168.27","Mozilla/5.0 (Windows NT 10.0; Win64; x64) AppleWebKit/537.36 (KHTML, like Gecko) Chrome/137.0.0.0 Safari/537.36","WebKit","Chrome","137.0.0.0","Windows","10.0","https://app.prolific.com/","en-US,en;q=0.9","6712a15554066d8a29d40094","686d226cabeef709c732f8e1","686e3145e8e8804701cb4ccd","6712a15554066d8a29d40094","2025-07-09T09:30:20.116Z","","","","","","PreMotivationQ","","","","","","","","","","","","","","","","","","","","","","","","","","","","","","","","","","","","","","50"
"","","","","ctl-task-cpt","43","1396973","0.0-10.0-0.0","77","1","2025-07-09 09:07:30","7701e855f2ef39aa3fd6c71abdc6918a","197.185.168.27","Mozilla/5.0 (Windows NT 10.0; Win64; x64) AppleWebKit/537.36 (KHTML, like Gecko) Chrome/137.0.0.0 Safari/537.36","WebKit","Chrome","137.0.0.0","Windows","10.0","https://app.prolific.com/","en-US,en;q=0.9","6712a15554066d8a29d40094","686d226cabeef709c732f8e1","686e3145e8e8804701cb4ccd","6712a15554066d8a29d40094","2025-07-09T09:30:50.767Z","","","","","","","","","","","","","","","","win-only","1","g1:NE,g2:SW","1","1","0","1370279.2","2703","7712.6","27641.1","1","4","8","6","2","8","8","8","0","0.06060606060606061","1352.3","3000","730","[""down"",""left""]","{""num_key_presses"":6,""num_perfect"":6,""num_errors"":0,""num_randdir"":0,""num_randdir_good_moves"":0,""num_whilered"":0,""num_whileblue"":0,""num_blue"":1,""num_good_moves"":6}","[299.22232142857143,299.12857142857143,0.8,299.22232142857143,299.12857142857143,102.1,299.22232142857143,299.12857142857143,207,299.22232142857143,299.12857142857143,307.5,299.22232142857143,298.12857142857143,409.5,326.22232142857143,284.12857142857143,514.2,320.22232142857143,296.12857142857143,615.4,238.22232142857143,384.12857142857143,718.3,138.22232142857143,487.12857142857143,818.9,89.22232142857143,542.1285714285714,926.2,60.222321428571426,567.1285714285714,1028,42.222321428571426,573.1285714285714,1129,42.222321428571426,573.1285714285714,1231,42.222321428571426,573.1285714285714,1336.3,42.222321428571426,573.1285714285714,1442,42.222321428571426,573.1285714285714,1543.9,42.222321428571426,573.1285714285714,1645.1,43.222321428571426,573.1285714285714,1745.7,44.222321428571426,573.1285714285714,1852.3,44.222321428571426,573.1285714285714,1955.2,44.222321428571426,573.1285714285714,2059.7,44.222321428571426,573.1285714285714,2170,44.222321428571426,573.1285714285714,2272.4,44.222321428571426,573.1285714285714,2374.3,44.222321428571426,573.1285714285714,2477.9,44.222321428571426,573.1285714285714,2578,44.222321428571426,573.1285714285714,2678,44.222321428571426,573.1285714285714,2783.6,44.222321428571426,573.1285714285714,2893.4,44.222321428571426,573.1285714285714,2994.7,44.222321428571426,573.1285714285714,3100.7,44.222321428571426,573.1285714285714,3209,44.222321428571426,573.1285714285714,3309.5,44.222321428571426,573.1285714285714,3415,45.222321428571426,573.1285714285714,3517,45.222321428571426,573.1285714285714,3617.5,45.222321428571426,573.1285714285714,3719.1,45.222321428571426,568.1285714285714,3819.7,46.222321428571426,566.1285714285714,3925.9,48.222321428571426,564.1285714285714,4032.9,49.222321428571426,559.1285714285714,4138.2,49.222321428571426,558.1285714285714,4238.2,60.222321428571426,541.1285714285714,4341.6,91.22232142857143,521.1285714285714,4442.5,120.22232142857143,508.12857142857143,4543.5,123.22232142857143,505.12857142857143,4653.7,123.22232142857143,505.12857142857143,4758.8,123.22232142857143,505.12857142857143,4859.3,126.22232142857143,504.12857142857143,4964.2]","[1620.4,1620.4,1000,0,620.4,""smooth"",""down"",""down"",""good_move"",4256,2634.9,2103.1,1621.3,531.7,""smooth"",""down"",""down"",""good_move"",7750.1,3493.5,3109.4,4256.6,384.1,""smooth"",""down"",""down"",""good_move"",10997.6,3247,2624.7,7750.7,622.5,""smooth"",""left"",""left"",""good_move"",13894.6,2896.1,2351,10998.5,545.1,""smooth"",""left"",""left"",""good_move"",19821.3,5926.2,2134.5,17295.2,391.6,""smooth"",""left"",""left"",""good_move""]","",""
"7008","","<div style=""width:500px;"">
  <p>What determined the result of this run?</p>
  </div>","87","html-slider-response","44","1403984","0.0-10.0-1.0","77","1","2025-07-09 09:07:30","7701e855f2ef39aa3fd6c71abdc6918a","197.185.168.27","Mozilla/5.0 (Windows NT 10.0; Win64; x64) AppleWebKit/537.36 (KHTML, like Gecko) Chrome/137.0.0.0 Safari/537.36","WebKit","Chrome","137.0.0.0","Windows","10.0","https://app.prolific.com/","en-US,en;q=0.9","6712a15554066d8a29d40094","686d226cabeef709c732f8e1","686e3145e8e8804701cb4ccd","6712a15554066d8a29d40094","2025-07-09T09:30:57.778Z","","","","","","AttribQ","","","","","","","","","","","","","","","","","","","","","","","","","","","","","","","","","","","","","","50"
"5541","","<div style=""width:500px;"">
  <p>How much control did you have over the ball?</p>
  </div>","88","html-slider-response","45","1409527","0.0-10.0-2.0","77","1","2025-07-09 09:07:30","7701e855f2ef39aa3fd6c71abdc6918a","197.185.168.27","Mozilla/5.0 (Windows NT 10.0; Win64; x64) AppleWebKit/537.36 (KHTML, like Gecko) Chrome/137.0.0.0 Safari/537.36","WebKit","Chrome","137.0.0.0","Windows","10.0","https://app.prolific.com/","en-US,en;q=0.9","6712a15554066d8a29d40094","686d226cabeef709c732f8e1","686e3145e8e8804701cb4ccd","6712a15554066d8a29d40094","2025-07-09T09:31:03.320Z","","","","","","ControlQ","","","","","","","","","","","","","","","","","","","","","","","","","","","","","","","","","","","","","","50"
"10865","","<div style=""width:500px;"">
  <p>How would you describe your current emotional state?</p>
  </div>","22","html-slider-response","46","1420394","0.0-10.0-3.0","77","1","2025-07-09 09:07:30","7701e855f2ef39aa3fd6c71abdc6918a","197.185.168.27","Mozilla/5.0 (Windows NT 10.0; Win64; x64) AppleWebKit/537.36 (KHTML, like Gecko) Chrome/137.0.0.0 Safari/537.36","WebKit","Chrome","137.0.0.0","Windows","10.0","https://app.prolific.com/","en-US,en;q=0.9","6712a15554066d8a29d40094","686d226cabeef709c732f8e1","686e3145e8e8804701cb4ccd","6712a15554066d8a29d40094","2025-07-09T09:31:14.187Z","","","","","","StressQ","","","","","","","","","","","","","","","","","","","","","","","","","","","","","","","","","","","","","","50"
"6887","","<div style=""width:500px;"">
  <p>What best describes how you currently feel?</p>
  </div>","72","html-slider-response","47","1427284","0.0-10.0-4.0","77","1","2025-07-09 09:07:30","7701e855f2ef39aa3fd6c71abdc6918a","197.185.168.27","Mozilla/5.0 (Windows NT 10.0; Win64; x64) AppleWebKit/537.36 (KHTML, like Gecko) Chrome/137.0.0.0 Safari/537.36","WebKit","Chrome","137.0.0.0","Windows","10.0","https://app.prolific.com/","en-US,en;q=0.9","6712a15554066d8a29d40094","686d226cabeef709c732f8e1","686e3145e8e8804701cb4ccd","6712a15554066d8a29d40094","2025-07-09T09:31:21.077Z","","","","","","MotivationQ","","","","","","","","","","","","","","","","","","","","","","","","","","","","","","","","","","","","","","50"
"","","","","ctl-task-cpt","48","1463640","0.0-10.0-0.1","77","1","2025-07-09 09:07:30","7701e855f2ef39aa3fd6c71abdc6918a","197.185.168.27","Mozilla/5.0 (Windows NT 10.0; Win64; x64) AppleWebKit/537.36 (KHTML, like Gecko) Chrome/137.0.0.0 Safari/537.36","WebKit","Chrome","137.0.0.0","Windows","10.0","https://app.prolific.com/","en-US,en;q=0.9","6712a15554066d8a29d40094","686d226cabeef709c732f8e1","686e3145e8e8804701cb4ccd","6712a15554066d8a29d40094","2025-07-09T09:31:57.433Z","","","","","","","","","","","","","","","","win-only","0","g1:NW,g2:SE","0.9","2","0","1431239.8","2154.5","7158.4","33346.4","1","4","4","6","2","-4","-4","4","8","0.030303030303030304","1620.7","3000","-2115","[""down"",""right""]","{""num_key_presses"":5,""num_perfect"":5,""num_errors"":0,""num_randdir"":0,""num_randdir_good_moves"":0,""num_whilered"":0,""num_whileblue"":0,""num_blue"":2,""num_good_moves"":5}","[291.22232142857143,296.12857142857143,0.5,291.22232142857143,296.12857142857143,103.6,291.22232142857143,296.12857142857143,208.9,291.22232142857143,296.12857142857143,309.3,291.22232142857143,296.12857142857143,411.1,291.22232142857143,296.12857142857143,511.1,291.22232142857143,296.12857142857143,619.1,287.22232142857143,298.12857142857143,720.9,379.22232142857143,390.12857142857143,821.8,428.22232142857143,475.12857142857143,936,483.22232142857143,497.12857142857143,1045.4,486.22232142857143,499.12857142857143,1156.3,516.2223214285714,524.1285714285714,1261.3,530.2223214285714,535.1285714285714,1366,544.2223214285714,545.1285714285714,1467.4,544.2223214285714,545.1285714285714,1568.5,544.2223214285714,545.1285714285714,1678.6,544.2223214285714,545.1285714285714,1778.7,544.2223214285714,546.1285714285714,1881.5,544.2223214285714,546.1285714285714,1994.4,544.2223214285714,546.1285714285714,2097.9,544.2223214285714,546.1285714285714,2209,544.2223214285714,546.1285714285714,2312.3,544.2223214285714,546.1285714285714,2425.3,544.2223214285714,546.1285714285714,2529.1,544.2223214285714,546.1285714285714,2632.4,544.2223214285714,546.1285714285714,2734.2,544.2223214285714,548.1285714285714,2834.3,544.2223214285714,549.1285714285714,2938.3,542.2223214285714,549.1285714285714,3043.2,541.2223214285714,549.1285714285714,3144.4,541.2223214285714,549.1285714285714,3245.7,541.2223214285714,549.1285714285714,3352.2,540.2223214285714,551.1285714285714,3461.1,540.2223214285714,551.1285714285714,3568.3,540.2223214285714,551.1285714285714,3668.7,541.2223214285714,552.1285714285714,3774.9,542.2223214285714,554.1285714285714,3879.1,544.2223214285714,554.1285714285714,3982,545.2223214285714,554.1285714285714,4084.3,546.2223214285714,554.1285714285714,4184.4,546.2223214285714,554.1285714285714,4294.1,548.2223214285714,554.1285714285714,4398.7,548.2223214285714,554.1285714285714,4501,550.2223214285714,554.1285714285714,4601,550.2223214285714,554.1285714285714,4701.1,550.2223214285714,556.1285714285714,4802.7,550.2223214285714,556.1285714285714,4903.1]","[1711.5,1711.5,1000,0,711.5,""smooth"",""down"",""down"",""good_move"",5629.3,3916.8,3400.3,1712.7,516.3,""smooth"",""down"",""down"",""good_move"",8584.8,2955.1,2481.8,5629.8,473.3,""smooth"",""down"",""down"",""good_move"",11706.8,3121.6,2633.2,8585.2,488.4,""smooth"",""right"",""right"",""good_move"",22885.1,11177.6,3226.5,19182,476.6,""smooth"",""right"",""right"",""good_move""]","",""
"6431","","<div style=""width:500px;"">
  <p>What determined the result of this run?</p>
  </div>","64","html-slider-response","49","1470074","0.0-10.0-1.1","77","1","2025-07-09 09:07:30","7701e855f2ef39aa3fd6c71abdc6918a","197.185.168.27","Mozilla/5.0 (Windows NT 10.0; Win64; x64) AppleWebKit/537.36 (KHTML, like Gecko) Chrome/137.0.0.0 Safari/537.36","WebKit","Chrome","137.0.0.0","Windows","10.0","https://app.prolific.com/","en-US,en;q=0.9","6712a15554066d8a29d40094","686d226cabeef709c732f8e1","686e3145e8e8804701cb4ccd","6712a15554066d8a29d40094","2025-07-09T09:32:03.867Z","","","","","","AttribQ","","","","","","","","","","","","","","","","","","","","","","","","","","","","","","","","","","","","","","50"
"3505","","<div style=""width:500px;"">
  <p>How much control did you have over the ball?</p>
  </div>","92","html-slider-response","50","1473581","0.0-10.0-2.1","77","1","2025-07-09 09:07:30","7701e855f2ef39aa3fd6c71abdc6918a","197.185.168.27","Mozilla/5.0 (Windows NT 10.0; Win64; x64) AppleWebKit/537.36 (KHTML, like Gecko) Chrome/137.0.0.0 Safari/537.36","WebKit","Chrome","137.0.0.0","Windows","10.0","https://app.prolific.com/","en-US,en;q=0.9","6712a15554066d8a29d40094","686d226cabeef709c732f8e1","686e3145e8e8804701cb4ccd","6712a15554066d8a29d40094","2025-07-09T09:32:07.374Z","","","","","","ControlQ","","","","","","","","","","","","","","","","","","","","","","","","","","","","","","","","","","","","","","50"
"40599","","<div style=""width:500px;"">
  <p>How would you describe your current emotional state?</p>
  </div>","26","html-slider-response","51","1514181","0.0-10.0-3.1","77","1","2025-07-09 09:07:30","7701e855f2ef39aa3fd6c71abdc6918a","197.185.168.27","Mozilla/5.0 (Windows NT 10.0; Win64; x64) AppleWebKit/537.36 (KHTML, like Gecko) Chrome/137.0.0.0 Safari/537.36","WebKit","Chrome","137.0.0.0","Windows","10.0","https://app.prolific.com/","en-US,en;q=0.9","6712a15554066d8a29d40094","686d226cabeef709c732f8e1","686e3145e8e8804701cb4ccd","6712a15554066d8a29d40094","2025-07-09T09:32:47.975Z","","","","","","StressQ","","","","","","","","","","","","","","","","","","","","","","","","","","","","","","","","","","","","","","50"
"3900","","<div style=""width:500px;"">
  <p>What best describes how you currently feel?</p>
  </div>","78","html-slider-response","52","1518084","0.0-10.0-4.1","77","1","2025-07-09 09:07:30","7701e855f2ef39aa3fd6c71abdc6918a","197.185.168.27","Mozilla/5.0 (Windows NT 10.0; Win64; x64) AppleWebKit/537.36 (KHTML, like Gecko) Chrome/137.0.0.0 Safari/537.36","WebKit","Chrome","137.0.0.0","Windows","10.0","https://app.prolific.com/","en-US,en;q=0.9","6712a15554066d8a29d40094","686d226cabeef709c732f8e1","686e3145e8e8804701cb4ccd","6712a15554066d8a29d40094","2025-07-09T09:32:51.877Z","","","","","","MotivationQ","","","","","","","","","","","","","","","","","","","","","","","","","","","","","","","","","","","","","","50"
"","","","","ctl-task-cpt","53","1547543","0.0-10.0-0.2","77","1","2025-07-09 09:07:30","7701e855f2ef39aa3fd6c71abdc6918a","197.185.168.27","Mozilla/5.0 (Windows NT 10.0; Win64; x64) AppleWebKit/537.36 (KHTML, like Gecko) Chrome/137.0.0.0 Safari/537.36","WebKit","Chrome","137.0.0.0","Windows","10.0","https://app.prolific.com/","en-US,en;q=0.9","6712a15554066d8a29d40094","686d226cabeef709c732f8e1","686e3145e8e8804701cb4ccd","6712a15554066d8a29d40094","2025-07-09T09:33:21.337Z","","","","","","","","","","","","","","","","win-only","1","g1:NE,g2:SW","0.8","3","0","1522040","2519.9","7527.4","26451","1","4","8","6","2","8","8","12","4","0.09090909090909091","2325.8","3000","1205","[""down"",""left""]","{""num_key_presses"":6,""num_perfect"":5,""num_errors"":0,""num_randdir"":1,""num_randdir_good_moves"":1,""num_whilered"":0,""num_whileblue"":0,""num_blue"":1,""num_good_moves"":6}","[296.22232142857143,297.12857142857143,0.3,296.22232142857143,297.12857142857143,100.3,296.22232142857143,297.12857142857143,200.6,296.22232142857143,297.12857142857143,307.6,296.22232142857143,297.12857142857143,414.8,300.22232142857143,302.12857142857143,520.6,308.22232142857143,306.12857142857143,620.6,234.22232142857143,338.12857142857143,725.3,146.22232142857143,460.12857142857143,827.8,69.22232142857143,526.1285714285714,928.5,56.222321428571426,540.1285714285714,1028.7,43.222321428571426,543.1285714285714,1135.8,41.222321428571426,547.1285714285714,1241.2,41.222321428571426,547.1285714285714,1341.6,40.222321428571426,547.1285714285714,1452.3,39.222321428571426,548.1285714285714,1558.4,39.222321428571426,548.1285714285714,1665.3,39.222321428571426,548.1285714285714,1774.8,38.222321428571426,550.1285714285714,1884,38.222321428571426,552.1285714285714,1991.1,38.222321428571426,552.1285714285714,2098.5,38.222321428571426,552.1285714285714,2198.5,38.222321428571426,552.1285714285714,2299.8,38.222321428571426,552.1285714285714,2408.5,38.222321428571426,552.1285714285714,2510.4,37.222321428571426,553.1285714285714,2610.7,37.222321428571426,553.1285714285714,2714.2,42.222321428571426,551.1285714285714,2814.4,48.222321428571426,543.1285714285714,2923.6,51.222321428571426,534.1285714285714,3031.5,51.222321428571426,534.1285714285714,3135.6,51.222321428571426,534.1285714285714,3235.8,51.222321428571426,534.1285714285714,3338.8,51.222321428571426,534.1285714285714,3442.7,51.222321428571426,534.1285714285714,3546.8,51.222321428571426,534.1285714285714,3647,51.222321428571426,534.1285714285714,3749.3,51.222321428571426,534.1285714285714,3858.2,51.222321428571426,534.1285714285714,3958.6,51.222321428571426,534.1285714285714,4058.8,71.22232142857143,549.1285714285714,4160.4,102.22232142857143,572.1285714285714,4262.5,103.22232142857143,573.1285714285714,4363.5,103.22232142857143,573.1285714285714,4469.6,103.22232142857143,572.1285714285714,4574.3,103.22232142857143,571.1285714285714,4677,103.22232142857143,571.1285714285714,4779.2,103.22232142857143,571.1285714285714,4883.1,103.22232142857143,571.1285714285714,4991.2]","[1526.7,1526.7,1000,0,526.7,""oops"",""down"",""down"",""good_move"",4553.7,3026.8,2586.2,1527.1,440.5,""smooth"",""down"",""down"",""good_move"",6978.1,2422.4,2001.4,4555.7,421,""smooth"",""down"",""down"",""good_move"",12677.3,5698.8,2263.8,10053.2,360.3,""smooth"",""left"",""left"",""good_move"",15801.3,3123.6,2684.3,12677.7,439.3,""smooth"",""left"",""left"",""good_move"",18787.7,2986.1,2585.9,15801.6,400.2,""smooth"",""left"",""left"",""good_move""]","",""
"3098","","<div style=""width:500px;"">
  <p>What determined the result of this run?</p>
  </div>","88","html-slider-response","54","1550645","0.0-10.0-1.2","77","1","2025-07-09 09:07:30","7701e855f2ef39aa3fd6c71abdc6918a","197.185.168.27","Mozilla/5.0 (Windows NT 10.0; Win64; x64) AppleWebKit/537.36 (KHTML, like Gecko) Chrome/137.0.0.0 Safari/537.36","WebKit","Chrome","137.0.0.0","Windows","10.0","https://app.prolific.com/","en-US,en;q=0.9","6712a15554066d8a29d40094","686d226cabeef709c732f8e1","686e3145e8e8804701cb4ccd","6712a15554066d8a29d40094","2025-07-09T09:33:24.438Z","","","","","","AttribQ","","","","","","","","","","","","","","","","","","","","","","","","","","","","","","","","","","","","","","50"
"2047","","<div style=""width:500px;"">
  <p>How much control did you have over the ball?</p>
  </div>","91","html-slider-response","55","1552694","0.0-10.0-2.2","77","1","2025-07-09 09:07:30","7701e855f2ef39aa3fd6c71abdc6918a","197.185.168.27","Mozilla/5.0 (Windows NT 10.0; Win64; x64) AppleWebKit/537.36 (KHTML, like Gecko) Chrome/137.0.0.0 Safari/537.36","WebKit","Chrome","137.0.0.0","Windows","10.0","https://app.prolific.com/","en-US,en;q=0.9","6712a15554066d8a29d40094","686d226cabeef709c732f8e1","686e3145e8e8804701cb4ccd","6712a15554066d8a29d40094","2025-07-09T09:33:26.487Z","","","","","","ControlQ","","","","","","","","","","","","","","","","","","","","","","","","","","","","","","","","","","","","","","50"
"2418","","<div style=""width:500px;"">
  <p>How would you describe your current emotional state?</p>
  </div>","16","html-slider-response","56","1555114","0.0-10.0-3.2","77","1","2025-07-09 09:07:30","7701e855f2ef39aa3fd6c71abdc6918a","197.185.168.27","Mozilla/5.0 (Windows NT 10.0; Win64; x64) AppleWebKit/537.36 (KHTML, like Gecko) Chrome/137.0.0.0 Safari/537.36","WebKit","Chrome","137.0.0.0","Windows","10.0","https://app.prolific.com/","en-US,en;q=0.9","6712a15554066d8a29d40094","686d226cabeef709c732f8e1","686e3145e8e8804701cb4ccd","6712a15554066d8a29d40094","2025-07-09T09:33:28.907Z","","","","","","StressQ","","","","","","","","","","","","","","","","","","","","","","","","","","","","","","","","","","","","","","50"
"3681","","<div style=""width:500px;"">
  <p>What best describes how you currently feel?</p>
  </div>","83","html-slider-response","57","1558797","0.0-10.0-4.2","77","1","2025-07-09 09:07:30","7701e855f2ef39aa3fd6c71abdc6918a","197.185.168.27","Mozilla/5.0 (Windows NT 10.0; Win64; x64) AppleWebKit/537.36 (KHTML, like Gecko) Chrome/137.0.0.0 Safari/537.36","WebKit","Chrome","137.0.0.0","Windows","10.0","https://app.prolific.com/","en-US,en;q=0.9","6712a15554066d8a29d40094","686d226cabeef709c732f8e1","686e3145e8e8804701cb4ccd","6712a15554066d8a29d40094","2025-07-09T09:33:32.590Z","","","","","","MotivationQ","","","","","","","","","","","","","","","","","","","","","","","","","","","","","","","","","","","","","","50"
"","","","","ctl-task-cpt","58","1594849","0.0-10.0-0.3","77","1","2025-07-09 09:07:30","7701e855f2ef39aa3fd6c71abdc6918a","197.185.168.27","Mozilla/5.0 (Windows NT 10.0; Win64; x64) AppleWebKit/537.36 (KHTML, like Gecko) Chrome/137.0.0.0 Safari/537.36","WebKit","Chrome","137.0.0.0","Windows","10.0","https://app.prolific.com/","en-US,en;q=0.9","6712a15554066d8a29d40094","686d226cabeef709c732f8e1","686e3145e8e8804701cb4ccd","6712a15554066d8a29d40094","2025-07-09T09:34:08.642Z","","","","","","","","","","","","","","","","win-only","2","g1:SE,g2:NW","0.7","4","0","1562753.1","1382.7","6386.5","33034.4","1","4","4","6","2","4","4","16","12","0.12121212121212122","1704.5","3000","855","[""left"",""up""]","{""num_key_presses"":6,""num_perfect"":3,""num_errors"":0,""num_randdir"":3,""num_randdir_good_moves"":3,""num_whilered"":0,""num_whileblue"":0,""num_blue"":3,""num_good_moves"":6}","[300.22232142857143,300.12857142857143,33.6,300.22232142857143,300.12857142857143,105.6,300.22232142857143,300.12857142857143,210.3,307.22232142857143,320.12857142857143,319,307.22232142857143,320.12857142857143,421.9,311.22232142857143,325.12857142857143,525.4,315.22232142857143,359.12857142857143,630,295.22232142857143,431.12857142857143,733,287.22232142857143,449.12857142857143,834,287.22232142857143,450.12857142857143,938.4,336.22232142857143,457.12857142857143,1042.5,341.22232142857143,462.12857142857143,1144,353.22232142857143,475.12857142857143,1246.6,174.22232142857143,226.12857142857143,1349.2,108.22232142857143,109.12857142857143,1449.7,100.22232142857143,76.12857142857143,1554.8,70.22232142857143,61.128571428571426,1656.3,70.22232142857143,60.128571428571426,1761.9,70.22232142857143,60.128571428571426,1863.6,103.22232142857143,141.12857142857143,1973,160.22232142857143,256.12857142857143,2080.5,179.22232142857143,288.12857142857143,2182.7,176.22232142857143,296.12857142857143,2286.3,160.22232142857143,311.12857142857143,2390.3,158.22232142857143,320.12857142857143,2493.1,158.22232142857143,320.12857142857143,2603.2,158.22232142857143,320.12857142857143,2706.3,158.22232142857143,320.12857142857143,2808.6,158.22232142857143,320.12857142857143,2912.9,158.22232142857143,320.12857142857143,3020.4,158.22232142857143,320.12857142857143,3123.4,160.22232142857143,320.12857142857143,3224.5,203.22232142857143,309.12857142857143,3330.3,243.22232142857143,296.12857142857143,3433.6,250.22232142857143,294.12857142857143,3537.1,258.22232142857143,297.12857142857143,3639.8,266.22232142857143,305.12857142857143,3746,286.22232142857143,324.12857142857143,3853,288.22232142857143,330.12857142857143,3953.3,288.22232142857143,329.12857142857143,4054,287.22232142857143,329.12857142857143,4155.3,287.22232142857143,329.12857142857143,4262.3,287.22232142857143,329.12857142857143,4371.6,287.22232142857143,329.12857142857143,4472.5,287.22232142857143,329.12857142857143,4572.8,286.22232142857143,328.12857142857143,4674.5,285.22232142857143,327.12857142857143,4775.8,285.22232142857143,327.12857142857143,4885.5,285.22232142857143,327.12857142857143,4990.4]","[1580,1580,1000,0,580,""smooth"",""up"",""up"",""good_move"",4050.6,2469.3,2019.5,1581.5,449.6,""oops"",""up"",""left"",""good_move"",6758.9,2707.7,2113,4051.2,594.7,""smooth"",""up"",""up"",""good_move"",9912.3,3153,2732.2,6759.3,420.8,""oops"",""up"",""up"",""good_move"",12981.5,3068.9,2662.7,9912.6,406.2,""smooth"",""left"",""left"",""good_move"",26527.7,13545.8,2515.6,23624,388.1,""oops"",""left"",""left"",""good_move""]","",""
"2399","","<div style=""width:500px;"">
  <p>What determined the result of this run?</p>
  </div>","87","html-slider-response","59","1597250","0.0-10.0-1.3","77","1","2025-07-09 09:07:30","7701e855f2ef39aa3fd6c71abdc6918a","197.185.168.27","Mozilla/5.0 (Windows NT 10.0; Win64; x64) AppleWebKit/537.36 (KHTML, like Gecko) Chrome/137.0.0.0 Safari/537.36","WebKit","Chrome","137.0.0.0","Windows","10.0","https://app.prolific.com/","en-US,en;q=0.9","6712a15554066d8a29d40094","686d226cabeef709c732f8e1","686e3145e8e8804701cb4ccd","6712a15554066d8a29d40094","2025-07-09T09:34:11.043Z","","","","","","AttribQ","","","","","","","","","","","","","","","","","","","","","","","","","","","","","","","","","","","","","","50"
"2249","","<div style=""width:500px;"">
  <p>How much control did you have over the ball?</p>
  </div>","81","html-slider-response","60","1599501","0.0-10.0-2.3","77","1","2025-07-09 09:07:30","7701e855f2ef39aa3fd6c71abdc6918a","197.185.168.27","Mozilla/5.0 (Windows NT 10.0; Win64; x64) AppleWebKit/537.36 (KHTML, like Gecko) Chrome/137.0.0.0 Safari/537.36","WebKit","Chrome","137.0.0.0","Windows","10.0","https://app.prolific.com/","en-US,en;q=0.9","6712a15554066d8a29d40094","686d226cabeef709c732f8e1","686e3145e8e8804701cb4ccd","6712a15554066d8a29d40094","2025-07-09T09:34:13.294Z","","","","","","ControlQ","","","","","","","","","","","","","","","","","","","","","","","","","","","","","","","","","","","","","","50"
"5001","","<div style=""width:500px;"">
  <p>How would you describe your current emotional state?</p>
  </div>","11","html-slider-response","61","1604504","0.0-10.0-3.3","77","1","2025-07-09 09:07:30","7701e855f2ef39aa3fd6c71abdc6918a","197.185.168.27","Mozilla/5.0 (Windows NT 10.0; Win64; x64) AppleWebKit/537.36 (KHTML, like Gecko) Chrome/137.0.0.0 Safari/537.36","WebKit","Chrome","137.0.0.0","Windows","10.0","https://app.prolific.com/","en-US,en;q=0.9","6712a15554066d8a29d40094","686d226cabeef709c732f8e1","686e3145e8e8804701cb4ccd","6712a15554066d8a29d40094","2025-07-09T09:34:18.297Z","","","","","","StressQ","","","","","","","","","","","","","","","","","","","","","","","","","","","","","","","","","","","","","","50"
"3306","","<div style=""width:500px;"">
  <p>What best describes how you currently feel?</p>
  </div>","73","html-slider-response","62","1607812","0.0-10.0-4.3","77","1","2025-07-09 09:07:30","7701e855f2ef39aa3fd6c71abdc6918a","197.185.168.27","Mozilla/5.0 (Windows NT 10.0; Win64; x64) AppleWebKit/537.36 (KHTML, like Gecko) Chrome/137.0.0.0 Safari/537.36","WebKit","Chrome","137.0.0.0","Windows","10.0","https://app.prolific.com/","en-US,en;q=0.9","6712a15554066d8a29d40094","686d226cabeef709c732f8e1","686e3145e8e8804701cb4ccd","6712a15554066d8a29d40094","2025-07-09T09:34:21.605Z","","","","","","MotivationQ","","","","","","","","","","","","","","","","","","","","","","","","","","","","","","","","","","","","","","50"
"","","","","ctl-task-cpt","63","1648796","0.0-10.0-0.4","77","1","2025-07-09 09:07:30","7701e855f2ef39aa3fd6c71abdc6918a","197.185.168.27","Mozilla/5.0 (Windows NT 10.0; Win64; x64) AppleWebKit/537.36 (KHTML, like Gecko) Chrome/137.0.0.0 Safari/537.36","WebKit","Chrome","137.0.0.0","Windows","10.0","https://app.prolific.com/","en-US,en;q=0.9","6712a15554066d8a29d40094","686d226cabeef709c732f8e1","686e3145e8e8804701cb4ccd","6712a15554066d8a29d40094","2025-07-09T09:35:02.590Z","","","","","","","","","","","","","","","","win-only","3","g1:SW,g2:NE","0.6","5","0","1611767.8","1368","6370.7","37971.7","1","4","4","6","2","-4","-5","11","16","0.08333333333333333","1499.3","3000","-2035","[""up"",""right""]","{""num_key_presses"":8,""num_perfect"":3,""num_errors"":1,""num_randdir"":4,""num_randdir_good_moves"":0,""num_whilered"":0,""num_whileblue"":0,""num_blue"":3,""num_good_moves"":3}","[296.22232142857143,302.12857142857143,0.4,296.22232142857143,302.12857142857143,112.7,296.22232142857143,302.12857142857143,217.4,296.22232142857143,302.12857142857143,321.6,297.22232142857143,300.12857142857143,429.4,297.22232142857143,299.12857142857143,535.8,297.22232142857143,299.12857142857143,640.1,297.22232142857143,299.12857142857143,744.2,466.22232142857143,239.12857142857143,856.3,479.22232142857143,162.12857142857143,957.6,488.22232142857143,140.12857142857143,1068.6,510.22232142857143,116.12857142857143,1172.2,527.2223214285714,86.12857142857143,1274.2,535.2223214285714,67.12857142857143,1377.5,547.2223214285714,53.128571428571426,1477.5,550.2223214285714,46.128571428571426,1580.8,556.2223214285714,61.128571428571426,1685,559.2223214285714,86.12857142857143,1785.5,548.2223214285714,182.12857142857143,1888.6,582.2223214285714,372.12857142857143,1995.8,587.2223214285714,396.12857142857143,2099.9,579.2223214285714,397.12857142857143,2205.1,557.2223214285714,405.12857142857143,2307.5,552.2223214285714,410.12857142857143,2411.4,522.2223214285714,410.12857142857143,2520,456.22232142857143,402.12857142857143,2636.4,384.22232142857143,353.12857142857143,2737,355.22232142857143,318.12857142857143,2839.5,342.22232142857143,281.12857142857143,2952.6,333.22232142857143,251.12857142857143,3062,327.22232142857143,203.12857142857143,3162.9,325.22232142857143,184.12857142857143,3268.1,344.22232142857143,224.12857142857143,3370.7,356.22232142857143,244.12857142857143,3474.7,354.22232142857143,242.12857142857143,3583.1,356.22232142857143,243.12857142857143,3683.6,360.22232142857143,249.12857142857143,3783.8,361.22232142857143,251.12857142857143,3884.2,361.22232142857143,250.12857142857143,3990.9,360.22232142857143,250.12857142857143,4096.2,360.22232142857143,250.12857142857143,4197.5,360.22232142857143,250.12857142857143,4302.2,360.22232142857143,250.12857142857143,4404.9,360.22232142857143,249.12857142857143,4517.5,360.22232142857143,249.12857142857143,4621.8,360.22232142857143,249.12857142857143,4723.4,360.22232142857143,249.12857142857143,4834.1,360.22232142857143,249.12857142857143,4938.5]","[1569,1569,1000,0,569,""smooth"",""up"",""up"",""good_move"",4651.6,3082.1,2603.4,1569.7,478.6,""oops"",""up"",""down"",""bad_move"",7478.3,2826,2365.4,4652.3,460.7,""oops"",""up"",""down"",""bad_move"",10362.9,2884.1,3235.4,10197.7,-3070.2,""error"",""-"",""-"",""no_move"",14308.5,3945.2,2361.8,11364.9,581.9,""smooth"",""up"",""up"",""good_move"",17143,2833.8,2219.8,14309.2,614,""oops"",""up"",""down"",""bad_move"",23224.9,6080.7,2384.9,20302.5,537.5,""oops"",""up"",""left"",""bad_move"",28431,5205.6,1598.3,26350.9,481.8,""smooth"",""up"",""up"",""good_move""]","",""
"4519","","<div style=""width:500px;"">
  <p>What determined the result of this run?</p>
  </div>","68","html-slider-response","64","1653319","0.0-10.0-1.4","77","1","2025-07-09 09:07:30","7701e855f2ef39aa3fd6c71abdc6918a","197.185.168.27","Mozilla/5.0 (Windows NT 10.0; Win64; x64) AppleWebKit/537.36 (KHTML, like Gecko) Chrome/137.0.0.0 Safari/537.36","WebKit","Chrome","137.0.0.0","Windows","10.0","https://app.prolific.com/","en-US,en;q=0.9","6712a15554066d8a29d40094","686d226cabeef709c732f8e1","686e3145e8e8804701cb4ccd","6712a15554066d8a29d40094","2025-07-09T09:35:07.113Z","","","","","","AttribQ","","","","","","","","","","","","","","","","","","","","","","","","","","","","","","","","","","","","","","50"
"3016","","<div style=""width:500px;"">
  <p>How much control did you have over the ball?</p>
  </div>","19","html-slider-response","65","1656337","0.0-10.0-2.4","77","1","2025-07-09 09:07:30","7701e855f2ef39aa3fd6c71abdc6918a","197.185.168.27","Mozilla/5.0 (Windows NT 10.0; Win64; x64) AppleWebKit/537.36 (KHTML, like Gecko) Chrome/137.0.0.0 Safari/537.36","WebKit","Chrome","137.0.0.0","Windows","10.0","https://app.prolific.com/","en-US,en;q=0.9","6712a15554066d8a29d40094","686d226cabeef709c732f8e1","686e3145e8e8804701cb4ccd","6712a15554066d8a29d40094","2025-07-09T09:35:10.130Z","","","","","","ControlQ","","","","","","","","","","","","","","","","","","","","","","","","","","","","","","","","","","","","","","50"
"3870","","<div style=""width:500px;"">
  <p>How would you describe your current emotional state?</p>
  </div>","67","html-slider-response","66","1660208","0.0-10.0-3.4","77","1","2025-07-09 09:07:30","7701e855f2ef39aa3fd6c71abdc6918a","197.185.168.27","Mozilla/5.0 (Windows NT 10.0; Win64; x64) AppleWebKit/537.36 (KHTML, like Gecko) Chrome/137.0.0.0 Safari/537.36","WebKit","Chrome","137.0.0.0","Windows","10.0","https://app.prolific.com/","en-US,en;q=0.9","6712a15554066d8a29d40094","686d226cabeef709c732f8e1","686e3145e8e8804701cb4ccd","6712a15554066d8a29d40094","2025-07-09T09:35:14.001Z","","","","","","StressQ","","","","","","","","","","","","","","","","","","","","","","","","","","","","","","","","","","","","","","50"
"2848","","<div style=""width:500px;"">
  <p>What best describes how you currently feel?</p>
  </div>","80","html-slider-response","67","1663057","0.0-10.0-4.4","77","1","2025-07-09 09:07:30","7701e855f2ef39aa3fd6c71abdc6918a","197.185.168.27","Mozilla/5.0 (Windows NT 10.0; Win64; x64) AppleWebKit/537.36 (KHTML, like Gecko) Chrome/137.0.0.0 Safari/537.36","WebKit","Chrome","137.0.0.0","Windows","10.0","https://app.prolific.com/","en-US,en;q=0.9","6712a15554066d8a29d40094","686d226cabeef709c732f8e1","686e3145e8e8804701cb4ccd","6712a15554066d8a29d40094","2025-07-09T09:35:16.850Z","","","","","","MotivationQ","","","","","","","","","","","","","","","","","","","","","","","","","","","","","","","","","","","","","","50"
"","","","","ctl-task-cpt","68","1702974","0.0-10.0-0.5","77","1","2025-07-09 09:07:30","7701e855f2ef39aa3fd6c71abdc6918a","197.185.168.27","Mozilla/5.0 (Windows NT 10.0; Win64; x64) AppleWebKit/537.36 (KHTML, like Gecko) Chrome/137.0.0.0 Safari/537.36","WebKit","Chrome","137.0.0.0","Windows","10.0","https://app.prolific.com/","en-US,en;q=0.9","6712a15554066d8a29d40094","686d226cabeef709c732f8e1","686e3145e8e8804701cb4ccd","6712a15554066d8a29d40094","2025-07-09T09:35:56.767Z","","","","","","","","","","","","","","","","win-only","3","g1:SW,g2:NE","0.5","6","0","1667012.8","1299.4","6303.9","36896.9","1","4","8","6","2","-8","-10","1","11","0.007575757575757576","1417.5","3000","-2000","[""up"",""right""]","{""num_key_presses"":10,""num_perfect"":5,""num_errors"":2,""num_randdir"":3,""num_randdir_good_moves"":1,""num_whilered"":0,""num_whileblue"":0,""num_blue"":0,""num_good_moves"":6}","[290.22232142857143,293.12857142857143,0.4,290.22232142857143,293.12857142857143,102.3,289.22232142857143,294.12857142857143,208.1,288.22232142857143,295.12857142857143,313.8,288.22232142857143,295.12857142857143,415.6,288.22232142857143,295.12857142857143,516.5,288.22232142857143,296.12857142857143,621.2,328.22232142857143,261.12857142857143,724.1,456.22232142857143,177.12857142857143,832.4,539.2223214285714,108.12857142857143,938.8,541.2223214285714,88.12857142857143,1040.1,538.2223214285714,80.12857142857143,1149.2,537.2223214285714,73.12857142857143,1257.7,537.2223214285714,71.12857142857143,1365.7,537.2223214285714,71.12857142857143,1470.8,537.2223214285714,71.12857142857143,1571.7,537.2223214285714,71.12857142857143,1682.2,537.2223214285714,71.12857142857143,1789.3,538.2223214285714,71.12857142857143,1892.1,538.2223214285714,71.12857142857143,1992.5,538.2223214285714,71.12857142857143,2098.8,538.2223214285714,71.12857142857143,2199.2,538.2223214285714,71.12857142857143,2302.5,538.2223214285714,71.12857142857143,2404.9,538.2223214285714,71.12857142857143,2505.5,538.2223214285714,71.12857142857143,2605.8,538.2223214285714,71.12857142857143,2710.3,538.2223214285714,71.12857142857143,2811.5,538.2223214285714,71.12857142857143,2912.7,538.2223214285714,71.12857142857143,3014.5,538.2223214285714,71.12857142857143,3115.6,538.2223214285714,71.12857142857143,3217.1,538.2223214285714,71.12857142857143,3322,538.2223214285714,71.12857142857143,3427.7,538.2223214285714,71.12857142857143,3529.2,538.2223214285714,71.12857142857143,3632.3,538.2223214285714,71.12857142857143,3738.5,538.2223214285714,71.12857142857143,3839.4,538.2223214285714,71.12857142857143,3941.8,538.2223214285714,71.12857142857143,4049.2,538.2223214285714,71.12857142857143,4154.8,538.2223214285714,71.12857142857143,4256.9,538.2223214285714,71.12857142857143,4371.1,538.2223214285714,71.12857142857143,4473.4,538.2223214285714,71.12857142857143,4573.6,538.2223214285714,71.12857142857143,4681.7,538.2223214285714,71.12857142857143,4788.6,538.2223214285714,71.12857142857143,4890.7,538.2223214285714,71.12857142857143,4996.7]","[480.1,480.1,1000,0,-519.9,""error"",""-"",""-"",""no_move"",5157.6,4677.4,3029.5,1484.7,643.5,""smooth"",""right"",""right"",""good_move"",5231.4,73.4,2843.6,5158,-2770.2,""error"",""-"",""-"",""no_move"",9264.7,4033.1,2565.7,6233.2,465.9,""smooth"",""right"",""right"",""good_move"",11850.8,2585.9,2055.2,9265,530.7,""oops"",""right"",""left"",""bad_move"",15518.6,3667.3,3180.7,11851.3,486.6,""smooth"",""right"",""right"",""good_move"",18075.6,2556.8,1960,15518.8,596.8,""smooth"",""right"",""right"",""good_move"",21449.8,3374.1,2876.8,18075.8,497.3,""oops"",""up"",""left"",""bad_move"",24974.2,3523.9,3068,21450.5,455.9,""oops"",""up"",""right"",""good_move"",27231.2,2256.3,1558.8,24974.9,697.5,""smooth"",""up"",""up"",""good_move""]","",""
"5638","","<div style=""width:500px;"">
  <p>What determined the result of this run?</p>
  </div>","60","html-slider-response","69","1708614","0.0-10.0-1.5","77","1","2025-07-09 09:07:30","7701e855f2ef39aa3fd6c71abdc6918a","197.185.168.27","Mozilla/5.0 (Windows NT 10.0; Win64; x64) AppleWebKit/537.36 (KHTML, like Gecko) Chrome/137.0.0.0 Safari/537.36","WebKit","Chrome","137.0.0.0","Windows","10.0","https://app.prolific.com/","en-US,en;q=0.9","6712a15554066d8a29d40094","686d226cabeef709c732f8e1","686e3145e8e8804701cb4ccd","6712a15554066d8a29d40094","2025-07-09T09:36:02.407Z","","","","","","AttribQ","","","","","","","","","","","","","","","","","","","","","","","","","","","","","","","","","","","","","","50"
"3029","","<div style=""width:500px;"">
  <p>How much control did you have over the ball?</p>
  </div>","16","html-slider-response","70","1711644","0.0-10.0-2.5","77","1","2025-07-09 09:07:30","7701e855f2ef39aa3fd6c71abdc6918a","197.185.168.27","Mozilla/5.0 (Windows NT 10.0; Win64; x64) AppleWebKit/537.36 (KHTML, like Gecko) Chrome/137.0.0.0 Safari/537.36","WebKit","Chrome","137.0.0.0","Windows","10.0","https://app.prolific.com/","en-US,en;q=0.9","6712a15554066d8a29d40094","686d226cabeef709c732f8e1","686e3145e8e8804701cb4ccd","6712a15554066d8a29d40094","2025-07-09T09:36:05.438Z","","","","","","ControlQ","","","","","","","","","","","","","","","","","","","","","","","","","","","","","","","","","","","","","","50"
"5386","","<div style=""width:500px;"">
  <p>How would you describe your current emotional state?</p>
  </div>","59","html-slider-response","71","1717032","0.0-10.0-3.5","77","1","2025-07-09 09:07:30","7701e855f2ef39aa3fd6c71abdc6918a","197.185.168.27","Mozilla/5.0 (Windows NT 10.0; Win64; x64) AppleWebKit/537.36 (KHTML, like Gecko) Chrome/137.0.0.0 Safari/537.36","WebKit","Chrome","137.0.0.0","Windows","10.0","https://app.prolific.com/","en-US,en;q=0.9","6712a15554066d8a29d40094","686d226cabeef709c732f8e1","686e3145e8e8804701cb4ccd","6712a15554066d8a29d40094","2025-07-09T09:36:10.825Z","","","","","","StressQ","","","","","","","","","","","","","","","","","","","","","","","","","","","","","","","","","","","","","","50"
"7508","","<div style=""width:500px;"">
  <p>What best describes how you currently feel?</p>
  </div>","59","html-slider-response","72","1724544","0.0-10.0-4.5","77","1","2025-07-09 09:07:30","7701e855f2ef39aa3fd6c71abdc6918a","197.185.168.27","Mozilla/5.0 (Windows NT 10.0; Win64; x64) AppleWebKit/537.36 (KHTML, like Gecko) Chrome/137.0.0.0 Safari/537.36","WebKit","Chrome","137.0.0.0","Windows","10.0","https://app.prolific.com/","en-US,en;q=0.9","6712a15554066d8a29d40094","686d226cabeef709c732f8e1","686e3145e8e8804701cb4ccd","6712a15554066d8a29d40094","2025-07-09T09:36:18.338Z","","","","","","MotivationQ","","","","","","","","","","","","","","","","","","","","","","","","","","","","","","","","","","","","","","50"
"","","","","ctl-task-cpt","73","1772234","0.0-10.0-0.6","77","1","2025-07-09 09:07:30","7701e855f2ef39aa3fd6c71abdc6918a","197.185.168.27","Mozilla/5.0 (Windows NT 10.0; Win64; x64) AppleWebKit/537.36 (KHTML, like Gecko) Chrome/137.0.0.0 Safari/537.36","WebKit","Chrome","137.0.0.0","Windows","10.0","https://app.prolific.com/","en-US,en;q=0.9","6712a15554066d8a29d40094","686d226cabeef709c732f8e1","686e3145e8e8804701cb4ccd","6712a15554066d8a29d40094","2025-07-09T09:37:06.028Z","","","","","","","","","","","","","","","","win-only","0","g1:NW,g2:SE","0.4","7","0","1728508.7","1255","6256.7","44674.1","1","4","8","6","1","-1","-1","0","1","0","1682.3","3000","-2150","[""left"",""up""]","{""num_key_presses"":8,""num_perfect"":4,""num_errors"":0,""num_randdir"":4,""num_randdir_good_moves"":1,""num_whilered"":0,""num_whileblue"":0,""num_blue"":3,""num_good_moves"":5}","[301.22232142857143,297.12857142857143,0.4,301.22232142857143,297.12857142857143,101.2,301.22232142857143,297.12857142857143,201.2,301.22232142857143,297.12857142857143,302.3,301.22232142857143,297.12857142857143,409.5,301.22232142857143,297.12857142857143,510.5,301.22232142857143,297.12857142857143,610.5,249.22232142857143,250.12857142857143,713,232.22232142857143,248.12857142857143,816.9,177.22232142857143,221.12857142857143,919.3,172.22232142857143,210.12857142857143,1022.3,100.22232142857143,106.12857142857143,1127.8,60.222321428571426,67.12857142857143,1238.8,49.222321428571426,56.128571428571426,1344.5,49.222321428571426,51.128571428571426,1445.9,49.222321428571426,51.128571428571426,1551.2,49.222321428571426,51.128571428571426,1660.2,49.222321428571426,51.128571428571426,1768.7,50.222321428571426,51.128571428571426,1870,50.222321428571426,52.128571428571426,1974,50.222321428571426,52.128571428571426,2083.8,50.222321428571426,52.128571428571426,2193.6,50.222321428571426,52.128571428571426,2296.4,50.222321428571426,52.128571428571426,2400.3,50.222321428571426,58.128571428571426,2501,50.222321428571426,58.128571428571426,2603,50.222321428571426,59.128571428571426,2711.3,50.222321428571426,59.128571428571426,2816.7,50.222321428571426,59.128571428571426,2917.5,50.222321428571426,59.128571428571426,3017.8,50.222321428571426,59.128571428571426,3118.2,50.222321428571426,59.128571428571426,3229.1,50.222321428571426,59.128571428571426,3329.2,50.222321428571426,59.128571428571426,3437.6,50.222321428571426,59.128571428571426,3543.2,50.222321428571426,59.128571428571426,3643.5,50.222321428571426,59.128571428571426,3745.8,50.222321428571426,59.128571428571426,3847,50.222321428571426,59.128571428571426,3953.6,50.222321428571426,59.128571428571426,4061.8,50.222321428571426,59.128571428571426,4168.6,50.222321428571426,59.128571428571426,4274.8,50.222321428571426,59.128571428571426,4383.6,50.222321428571426,59.128571428571426,4492.5,50.222321428571426,59.128571428571426,4600.8,50.222321428571426,59.128571428571426,4700.9,50.222321428571426,59.128571428571426,4801.2,50.222321428571426,59.128571428571426,4903.8]","[5045.3,5045.3,2588.4,2017.3,439.6,""oops"",""up"",""up"",""good_move"",8016.2,2970.3,2431.1,5045.9,539.2,""oops"",""up"",""right"",""bad_move"",10954,2937.4,2391.5,8016.6,545.9,""oops"",""up"",""right"",""bad_move"",18099.8,7144.9,3242,14444.5,413.4,""smooth"",""up"",""up"",""good_move"",21894.5,3794.4,3378.7,18100.1,415.7,""smooth"",""left"",""left"",""good_move"",24918.2,3023.2,2547.6,21895,475.6,""smooth"",""left"",""left"",""good_move"",32293.5,7374.2,2829.4,28874.5,589.6,""smooth"",""left"",""left"",""good_move"",35330.9,3036.8,2579.5,32294.2,457.3,""oops"",""left"",""down"",""bad_move""]","",""
"5474","","<div style=""width:500px;"">
  <p>What determined the result of this run?</p>
  </div>","4","html-slider-response","74","1777713","0.0-10.0-1.6","77","1","2025-07-09 09:07:30","7701e855f2ef39aa3fd6c71abdc6918a","197.185.168.27","Mozilla/5.0 (Windows NT 10.0; Win64; x64) AppleWebKit/537.36 (KHTML, like Gecko) Chrome/137.0.0.0 Safari/537.36","WebKit","Chrome","137.0.0.0","Windows","10.0","https://app.prolific.com/","en-US,en;q=0.9","6712a15554066d8a29d40094","686d226cabeef709c732f8e1","686e3145e8e8804701cb4ccd","6712a15554066d8a29d40094","2025-07-09T09:37:11.506Z","","","","","","AttribQ","","","","","","","","","","","","","","","","","","","","","","","","","","","","","","","","","","","","","","50"
"3897","","<div style=""width:500px;"">
  <p>How much control did you have over the ball?</p>
  </div>","13","html-slider-response","75","1781615","0.0-10.0-2.6","77","1","2025-07-09 09:07:30","7701e855f2ef39aa3fd6c71abdc6918a","197.185.168.27","Mozilla/5.0 (Windows NT 10.0; Win64; x64) AppleWebKit/537.36 (KHTML, like Gecko) Chrome/137.0.0.0 Safari/537.36","WebKit","Chrome","137.0.0.0","Windows","10.0","https://app.prolific.com/","en-US,en;q=0.9","6712a15554066d8a29d40094","686d226cabeef709c732f8e1","686e3145e8e8804701cb4ccd","6712a15554066d8a29d40094","2025-07-09T09:37:15.409Z","","","","","","ControlQ","","","","","","","","","","","","","","","","","","","","","","","","","","","","","","","","","","","","","","50"
"5145","","<div style=""width:500px;"">
  <p>How would you describe your current emotional state?</p>
  </div>","67","html-slider-response","76","1786769","0.0-10.0-3.6","77","1","2025-07-09 09:07:30","7701e855f2ef39aa3fd6c71abdc6918a","197.185.168.27","Mozilla/5.0 (Windows NT 10.0; Win64; x64) AppleWebKit/537.36 (KHTML, like Gecko) Chrome/137.0.0.0 Safari/537.36","WebKit","Chrome","137.0.0.0","Windows","10.0","https://app.prolific.com/","en-US,en;q=0.9","6712a15554066d8a29d40094","686d226cabeef709c732f8e1","686e3145e8e8804701cb4ccd","6712a15554066d8a29d40094","2025-07-09T09:37:20.562Z","","","","","","StressQ","","","","","","","","","","","","","","","","","","","","","","","","","","","","","","","","","","","","","","50"
"4578","","<div style=""width:500px;"">
  <p>What best describes how you currently feel?</p>
  </div>","62","html-slider-response","77","1791349","0.0-10.0-4.6","77","1","2025-07-09 09:07:30","7701e855f2ef39aa3fd6c71abdc6918a","197.185.168.27","Mozilla/5.0 (Windows NT 10.0; Win64; x64) AppleWebKit/537.36 (KHTML, like Gecko) Chrome/137.0.0.0 Safari/537.36","WebKit","Chrome","137.0.0.0","Windows","10.0","https://app.prolific.com/","en-US,en;q=0.9","6712a15554066d8a29d40094","686d226cabeef709c732f8e1","686e3145e8e8804701cb4ccd","6712a15554066d8a29d40094","2025-07-09T09:37:25.142Z","","","","","","MotivationQ","","","","","","","","","","","","","","","","","","","","","","","","","","","","","","","","","","","","","","50"
"","","","","ctl-task-cpt","78","1827153","0.0-10.0-0.7","77","1","2025-07-09 09:07:30","7701e855f2ef39aa3fd6c71abdc6918a","197.185.168.27","Mozilla/5.0 (Windows NT 10.0; Win64; x64) AppleWebKit/537.36 (KHTML, like Gecko) Chrome/137.0.0.0 Safari/537.36","WebKit","Chrome","137.0.0.0","Windows","10.0","https://app.prolific.com/","en-US,en;q=0.9","6712a15554066d8a29d40094","686d226cabeef709c732f8e1","686e3145e8e8804701cb4ccd","6712a15554066d8a29d40094","2025-07-09T09:38:00.947Z","","","","","","","","","","","","","","","","win-only","0","g1:NW,g2:SE","0.3","8","0","1795304.2","1864.3","6868","32796","1","4","4","6","2","-4","-5","0","0","0","2791.3","3000","-2075","[""down"",""right""]","{""num_key_presses"":8,""num_perfect"":2,""num_errors"":1,""num_randdir"":5,""num_randdir_good_moves"":1,""num_whilered"":0,""num_whileblue"":1,""num_blue"":1,""num_good_moves"":3}","[289.22232142857143,297.12857142857143,0.3,289.22232142857143,297.12857142857143,106.4,289.22232142857143,297.12857142857143,208.5,289.22232142857143,297.12857142857143,314.1,289.22232142857143,297.12857142857143,418.5,289.22232142857143,297.12857142857143,519.4,293.22232142857143,315.12857142857143,629.9,337.22232142857143,409.12857142857143,745.1,346.22232142857143,439.12857142857143,845.1,329.22232142857143,438.12857142857143,945.1,187.22232142857143,285.12857142857143,1045.1,186.22232142857143,232.12857142857143,1153,170.22232142857143,152.12857142857143,1261,136.22232142857143,122.12857142857143,1363.8,104.22232142857143,106.12857142857143,1468.3,37.222321428571426,56.128571428571426,1571.9,37.222321428571426,56.128571428571426,1672.2,37.222321428571426,56.128571428571426,1776.6,47.222321428571426,64.12857142857143,1877.4,306.22232142857143,277.12857142857143,1984.3,423.22232142857143,468.12857142857143,2095.4,433.22232142857143,487.12857142857143,2197.7,440.22232142857143,504.12857142857143,2301.3,479.22232142857143,504.12857142857143,2409.7,571.2223214285714,540.1285714285714,2511.4,574.2223214285714,548.1285714285714,2618.6,552.2223214285714,552.1285714285714,2729.3,551.2223214285714,552.1285714285714,2833.5,551.2223214285714,552.1285714285714,2937.1,551.2223214285714,552.1285714285714,3038.1,551.2223214285714,552.1285714285714,3144.8,551.2223214285714,552.1285714285714,3251,551.2223214285714,552.1285714285714,3361,551.2223214285714,552.1285714285714,3463,551.2223214285714,552.1285714285714,3568.1,551.2223214285714,552.1285714285714,3678.5,551.2223214285714,552.1285714285714,3785.5,551.2223214285714,552.1285714285714,3893.4,551.2223214285714,552.1285714285714,3999,551.2223214285714,552.1285714285714,4110.6,551.2223214285714,552.1285714285714,4218,551.2223214285714,552.1285714285714,4329.5,551.2223214285714,552.1285714285714,4444.4,551.2223214285714,552.1285714285714,4559.2,551.2223214285714,552.1285714285714,4662.6,551.2223214285714,552.1285714285714,4770.6,551.2223214285714,552.1285714285714,4876.8,551.2223214285714,552.1285714285714,4978.2]","[1191.9,1191.9,1002.9,0,189,""while_blue"",""right"",""left"",""bad_move"",4924.4,3732.1,3034.9,1192.3,697.2,""oops"",""right"",""up"",""bad_move"",8730.7,3805.8,3189.2,4924.9,616.6,""oops"",""right"",""up"",""bad_move"",11478.3,2747.3,2126.8,8731,620.5,""oops"",""right"",""down"",""good_move"",14025,2546.4,1927.4,11478.6,619,""oops"",""right"",""up"",""bad_move"",17366.2,3340.9,2977.6,14025.3,363.3,""oops"",""down"",""left"",""bad_move"",19916,2549.5,1991,17366.6,558.5,""smooth"",""down"",""down"",""good_move"",23389,3472.4,2785.4,19916.6,687.1,""smooth"",""down"",""down"",""good_move""]","",""
"7679","","<div style=""width:500px;"">
  <p>What determined the result of this run?</p>
  </div>","3","html-slider-response","79","1834838","0.0-10.0-1.7","77","1","2025-07-09 09:07:30","7701e855f2ef39aa3fd6c71abdc6918a","197.185.168.27","Mozilla/5.0 (Windows NT 10.0; Win64; x64) AppleWebKit/537.36 (KHTML, like Gecko) Chrome/137.0.0.0 Safari/537.36","WebKit","Chrome","137.0.0.0","Windows","10.0","https://app.prolific.com/","en-US,en;q=0.9","6712a15554066d8a29d40094","686d226cabeef709c732f8e1","686e3145e8e8804701cb4ccd","6712a15554066d8a29d40094","2025-07-09T09:38:08.631Z","","","","","","AttribQ","","","","","","","","","","","","","","","","","","","","","","","","","","","","","","","","","","","","","","50"
"3682","","<div style=""width:500px;"">
  <p>How much control did you have over the ball?</p>
  </div>","2","html-slider-response","80","1838530","0.0-10.0-2.7","77","1","2025-07-09 09:07:30","7701e855f2ef39aa3fd6c71abdc6918a","197.185.168.27","Mozilla/5.0 (Windows NT 10.0; Win64; x64) AppleWebKit/537.36 (KHTML, like Gecko) Chrome/137.0.0.0 Safari/537.36","WebKit","Chrome","137.0.0.0","Windows","10.0","https://app.prolific.com/","en-US,en;q=0.9","6712a15554066d8a29d40094","686d226cabeef709c732f8e1","686e3145e8e8804701cb4ccd","6712a15554066d8a29d40094","2025-07-09T09:38:12.323Z","","","","","","ControlQ","","","","","","","","","","","","","","","","","","","","","","","","","","","","","","","","","","","","","","50"
"3746","","<div style=""width:500px;"">
  <p>How would you describe your current emotional state?</p>
  </div>","75","html-slider-response","81","1842278","0.0-10.0-3.7","77","1","2025-07-09 09:07:30","7701e855f2ef39aa3fd6c71abdc6918a","197.185.168.27","Mozilla/5.0 (Windows NT 10.0; Win64; x64) AppleWebKit/537.36 (KHTML, like Gecko) Chrome/137.0.0.0 Safari/537.36","WebKit","Chrome","137.0.0.0","Windows","10.0","https://app.prolific.com/","en-US,en;q=0.9","6712a15554066d8a29d40094","686d226cabeef709c732f8e1","686e3145e8e8804701cb4ccd","6712a15554066d8a29d40094","2025-07-09T09:38:16.071Z","","","","","","StressQ","","","","","","","","","","","","","","","","","","","","","","","","","","","","","","","","","","","","","","50"
"4171","","<div style=""width:500px;"">
  <p>What best describes how you currently feel?</p>
  </div>","61","html-slider-response","82","1846450","0.0-10.0-4.7","77","1","2025-07-09 09:07:30","7701e855f2ef39aa3fd6c71abdc6918a","197.185.168.27","Mozilla/5.0 (Windows NT 10.0; Win64; x64) AppleWebKit/537.36 (KHTML, like Gecko) Chrome/137.0.0.0 Safari/537.36","WebKit","Chrome","137.0.0.0","Windows","10.0","https://app.prolific.com/","en-US,en;q=0.9","6712a15554066d8a29d40094","686d226cabeef709c732f8e1","686e3145e8e8804701cb4ccd","6712a15554066d8a29d40094","2025-07-09T09:38:20.243Z","","","","","","MotivationQ","","","","","","","","","","","","","","","","","","","","","","","","","","","","","","","","","","","","","","50"
"","","","","ctl-task-cpt","83","1891240","0.0-10.0-0.8","77","1","2025-07-09 09:07:30","7701e855f2ef39aa3fd6c71abdc6918a","197.185.168.27","Mozilla/5.0 (Windows NT 10.0; Win64; x64) AppleWebKit/537.36 (KHTML, like Gecko) Chrome/137.0.0.0 Safari/537.36","WebKit","Chrome","137.0.0.0","Windows","10.0","https://app.prolific.com/","en-US,en;q=0.9","6712a15554066d8a29d40094","686d226cabeef709c732f8e1","686e3145e8e8804701cb4ccd","6712a15554066d8a29d40094","2025-07-09T09:39:05.033Z","","","","","","","","","","","","","","","","win-only","1","g1:NE,g2:SW","0.2","9","0","1850406.2","2010.3","7013.7","41771","1","4","4","6","1","-1","-2","0","0","0","1863.7","3000","-1940","[""up"",""right""]","{""num_key_presses"":10,""num_perfect"":2,""num_errors"":1,""num_randdir"":7,""num_randdir_good_moves"":2,""num_whilered"":0,""num_whileblue"":0,""num_blue"":1,""num_good_moves"":4}","[295.22232142857143,302.12857142857143,0.3,295.22232142857143,302.12857142857143,110.8,295.22232142857143,302.12857142857143,212.5,295.22232142857143,302.12857142857143,317.9,295.22232142857143,302.12857142857143,420,295.22232142857143,302.12857142857143,521.9,295.22232142857143,302.12857142857143,623.3,295.22232142857143,302.12857142857143,731.3,305.22232142857143,310.12857142857143,842.7,335.22232142857143,312.12857142857143,944.8,287.22232142857143,342.12857142857143,1053.5,399.22232142857143,392.12857142857143,1156.4,455.22232142857143,124.12857142857143,1260.7,491.22232142857143,73.12857142857143,1361.4,506.22232142857143,67.12857142857143,1476,543.2223214285714,75.12857142857143,1576.7,543.2223214285714,75.12857142857143,1678.5,543.2223214285714,75.12857142857143,1787.2,543.2223214285714,75.12857142857143,1892.2,543.2223214285714,75.12857142857143,1992.3,543.2223214285714,75.12857142857143,2097.7,543.2223214285714,75.12857142857143,2202.6,543.2223214285714,75.12857142857143,2304.5,543.2223214285714,75.12857142857143,2405.7,543.2223214285714,75.12857142857143,2513.8,543.2223214285714,75.12857142857143,2618.1,543.2223214285714,75.12857142857143,2721.2,543.2223214285714,75.12857142857143,2826,543.2223214285714,75.12857142857143,2931.2,543.2223214285714,75.12857142857143,3031.2,543.2223214285714,75.12857142857143,3131.7,543.2223214285714,75.12857142857143,3237.4,543.2223214285714,75.12857142857143,3343.4,543.2223214285714,75.12857142857143,3450.5,543.2223214285714,75.12857142857143,3552.5,543.2223214285714,75.12857142857143,3653.1,543.2223214285714,75.12857142857143,3755.4,543.2223214285714,75.12857142857143,3857.8,543.2223214285714,75.12857142857143,3960.1,543.2223214285714,75.12857142857143,4060.7,543.2223214285714,75.12857142857143,4162.4,543.2223214285714,75.12857142857143,4271.4,543.2223214285714,75.12857142857143,4373.9,543.2223214285714,75.12857142857143,4474.7,543.2223214285714,75.12857142857143,4574.8,543.2223214285714,75.12857142857143,4679.2,543.2223214285714,75.12857142857143,4788.5,543.2223214285714,75.12857142857143,4890.2]","[1508,1508,1000,0,508,""oops"",""up"",""down"",""bad_move"",4670,3161.7,2667.2,1508.4,494.5,""oops"",""up"",""up"",""good_move"",7421,2750.5,2323,4670.5,427.5,""oops"",""up"",""up"",""good_move"",10269.1,2847.5,2469.4,7421.7,378.1,""oops"",""up"",""left"",""bad_move"",13253,2983.4,2588.8,10269.7,394.6,""smooth"",""up"",""up"",""good_move"",16581.8,3328.3,2939.8,13253.6,388.5,""oops"",""right"",""left"",""bad_move"",23418.8,6836.3,2495.7,20587.3,335.8,""smooth"",""right"",""right"",""good_move"",26279.2,2860,2394.2,23419.2,465.8,""oops"",""right"",""left"",""bad_move"",29875.6,3595.8,3010,26279.8,585.8,""oops"",""right"",""left"",""bad_move"",30889.2,1013.3,2400,29876,-1386.8,""error"",""-"",""-"",""no_move""]","",""
"4659","","<div style=""width:500px;"">
  <p>What determined the result of this run?</p>
  </div>","3","html-slider-response","84","1895900","0.0-10.0-1.8","77","1","2025-07-09 09:07:30","7701e855f2ef39aa3fd6c71abdc6918a","197.185.168.27","Mozilla/5.0 (Windows NT 10.0; Win64; x64) AppleWebKit/537.36 (KHTML, like Gecko) Chrome/137.0.0.0 Safari/537.36","WebKit","Chrome","137.0.0.0","Windows","10.0","https://app.prolific.com/","en-US,en;q=0.9","6712a15554066d8a29d40094","686d226cabeef709c732f8e1","686e3145e8e8804701cb4ccd","6712a15554066d8a29d40094","2025-07-09T09:39:09.693Z","","","","","","AttribQ","","","","","","","","","","","","","","","","","","","","","","","","","","","","","","","","","","","","","","50"
"4699","","<div style=""width:500px;"">
  <p>How much control did you have over the ball?</p>
  </div>","0","html-slider-response","85","1900603","0.0-10.0-2.8","77","1","2025-07-09 09:07:30","7701e855f2ef39aa3fd6c71abdc6918a","197.185.168.27","Mozilla/5.0 (Windows NT 10.0; Win64; x64) AppleWebKit/537.36 (KHTML, like Gecko) Chrome/137.0.0.0 Safari/537.36","WebKit","Chrome","137.0.0.0","Windows","10.0","https://app.prolific.com/","en-US,en;q=0.9","6712a15554066d8a29d40094","686d226cabeef709c732f8e1","686e3145e8e8804701cb4ccd","6712a15554066d8a29d40094","2025-07-09T09:39:14.397Z","","","","","","ControlQ","","","","","","","","","","","","","","","","","","","","","","","","","","","","","","","","","","","","","","50"
"5103","","<div style=""width:500px;"">
  <p>How would you describe your current emotional state?</p>
  </div>","70","html-slider-response","86","1905716","0.0-10.0-3.8","77","1","2025-07-09 09:07:30","7701e855f2ef39aa3fd6c71abdc6918a","197.185.168.27","Mozilla/5.0 (Windows NT 10.0; Win64; x64) AppleWebKit/537.36 (KHTML, like Gecko) Chrome/137.0.0.0 Safari/537.36","WebKit","Chrome","137.0.0.0","Windows","10.0","https://app.prolific.com/","en-US,en;q=0.9","6712a15554066d8a29d40094","686d226cabeef709c732f8e1","686e3145e8e8804701cb4ccd","6712a15554066d8a29d40094","2025-07-09T09:39:19.510Z","","","","","","StressQ","","","","","","","","","","","","","","","","","","","","","","","","","","","","","","","","","","","","","","50"
"7335","","<div style=""width:500px;"">
  <p>What best describes how you currently feel?</p>
  </div>","48","html-slider-response","87","1913064","0.0-10.0-4.8","77","1","2025-07-09 09:07:30","7701e855f2ef39aa3fd6c71abdc6918a","197.185.168.27","Mozilla/5.0 (Windows NT 10.0; Win64; x64) AppleWebKit/537.36 (KHTML, like Gecko) Chrome/137.0.0.0 Safari/537.36","WebKit","Chrome","137.0.0.0","Windows","10.0","https://app.prolific.com/","en-US,en;q=0.9","6712a15554066d8a29d40094","686d226cabeef709c732f8e1","686e3145e8e8804701cb4ccd","6712a15554066d8a29d40094","2025-07-09T09:39:26.858Z","","","","","","MotivationQ","","","","","","","","","","","","","","","","","","","","","","","","","","","","","","","","","","","","","","50"
