"rt","response_timestamp","stimulus","response","trial_type","trial_index","time_elapsed","internal_node_id","run_id","condition","recorded_at","source_code_version","ip","user_agent","device","browser","browser_version","platform","platform_version","referer","accept_language","PROLIFIC_PID","STUDY_ID","SESSION_ID","prolific_id","realtime","view_history","question_order","consent","success","question_id","eventType","responses","item_order","radio_event_ids","radio_event_times","key_event_times","mouse_event_times","straightlining","zigzagging","honeypot","which_type","canvas_config","goals_layout","control_level","trial_number","tutorial_trial_number","trial_start_time","phase1_start_time","phase2_start_time","phase3_start_time","goal_1_value","goal_1_distance","goal_2_value","goal_2_distance","goal_selected","outcome","outcome_total","participant_final_score","participant_initial_score","participant_final_score_prop","goal_choice_rt","allocated_time","allocated_time_remaining","goal_direction","counts","mouse_movements","key_presses","correct","slider_start","sub_question"
"181091","1752052233881","<p style='font-size:40px;line-height:1.25'><strong>Welcome to the experiment!</strong></p><p style='font-size:1.1em;line-height:1.25'>Thank you for your interest in our experiment! Before you begin, it is important that we obtain your informed consent to participate in the study.</p><p style='font-size:1.1em;line-height:1.25'>On the next screen will be an <strong>information sheet</strong> for you to read. To participate in the study we need you to read this information sheet and the following consent form carefully. If you agree with all the statements, please click the <strong>I agree</strong> button.</p><p style='font-size:1.1em;line-height:1.25'>Press <strong>Next</strong> to read the information sheet.</p>","0","custom-html-button-response","0","181093","0.0-0.0","73","1","2025-07-09 09:07:27","7701e855f2ef39aa3fd6c71abdc6918a","113.20.53.151","Mozilla/5.0 (Windows NT 11.0; Win64; x64) AppleWebKit/537.36 (KHTML, like Gecko) Chrome/124.0.0.0 Safari/537.36","WebKit","Chrome","124.0.0.0","Windows","11.0","https://app.prolific.com/","en,en-US","67df2438f087a74ea30f779b","686d226cabeef709c732f8e1","686e3115042ef17299987012","67df2438f087a74ea30f779b","2025-07-09T09:10:33.882Z","","","","","","","","","","","","","","","","","","","","","","","","","","","","","","","","","","","","","","","","","","","","",""
"39317","","","","instructions","1","220412","0.0-1.0","73","1","2025-07-09 09:07:27","7701e855f2ef39aa3fd6c71abdc6918a","113.20.53.151","Mozilla/5.0 (Windows NT 11.0; Win64; x64) AppleWebKit/537.36 (KHTML, like Gecko) Chrome/124.0.0.0 Safari/537.36","WebKit","Chrome","124.0.0.0","Windows","11.0","https://app.prolific.com/","en,en-US","67df2438f087a74ea30f779b","686d226cabeef709c732f8e1","686e3115042ef17299987012","67df2438f087a74ea30f779b","","[{""page_index"":0,""viewing_time"":25422},{""page_index"":1,""viewing_time"":13896}]","","","","","","","","","","","","","","","","","","","","","","","","","","","","","","","","","","","","","","","","","","","",""
"5263","","","{""Q0"":"""",""Q1"":"""",""Q2"":"""",""Q3"":"""",""Q4"":"""",""Q5"":"""",""Q6"":""I agree""}","survey-multi-choice","2","225677","0.0-2.0","73","1","2025-07-09 09:07:27","7701e855f2ef39aa3fd6c71abdc6918a","113.20.53.151","Mozilla/5.0 (Windows NT 11.0; Win64; x64) AppleWebKit/537.36 (KHTML, like Gecko) Chrome/124.0.0.0 Safari/537.36","WebKit","Chrome","124.0.0.0","Windows","11.0","https://app.prolific.com/","en,en-US","67df2438f087a74ea30f779b","686d226cabeef709c732f8e1","686e3115042ef17299987012","67df2438f087a74ea30f779b","","","[0,1,2,3,4,5,6]","true","","","","","","","","","","","","","","","","","","","","","","","","","","","","","","","","","","","","","","","","","",""
"17076","","","","fullscreen","3","243763","0.0-4.0","73","1","2025-07-09 09:07:27","7701e855f2ef39aa3fd6c71abdc6918a","113.20.53.151","Mozilla/5.0 (Windows NT 11.0; Win64; x64) AppleWebKit/537.36 (KHTML, like Gecko) Chrome/124.0.0.0 Safari/537.36","WebKit","Chrome","124.0.0.0","Windows","11.0","https://app.prolific.com/","en,en-US","67df2438f087a74ea30f779b","686d226cabeef709c732f8e1","686e3115042ef17299987012","67df2438f087a74ea30f779b","","","","","true","","","","","","","","","","","","","","","","","","","","","","","","","","","","","","","","","","","","","","","","",""
"8934","1752052305489"," <p style='font-size:1.1em;line-height:1.25'>Thank you for completing the consent form and closing all other tabs.</p><p style='font-size:1.1em;line-height:1.25'>We will now invite you to fill in some demographic information and questionnaires, before starting the game.<br>This will take about 5 minutes.<br></p><p style='font-size:1.1em;line-height:1.25'>Press the <strong>Next</strong> button to continue.</p>","0","custom-html-button-response","4","252700","0.0-5.0","73","1","2025-07-09 09:07:27","7701e855f2ef39aa3fd6c71abdc6918a","113.20.53.151","Mozilla/5.0 (Windows NT 11.0; Win64; x64) AppleWebKit/537.36 (KHTML, like Gecko) Chrome/124.0.0.0 Safari/537.36","WebKit","Chrome","124.0.0.0","Windows","11.0","https://app.prolific.com/","en,en-US","67df2438f087a74ea30f779b","686d226cabeef709c732f8e1","686e3115042ef17299987012","67df2438f087a74ea30f779b","2025-07-09T09:11:45.489Z","","","","","","","","","","","","","","","","","","","","","","","","","","","","","","","","","","","","","","","","","","","","",""
"5229","","","{""age"":""33""}","survey-text","5","257932","0.0-6.0-0.0","73","1","2025-07-09 09:07:27","7701e855f2ef39aa3fd6c71abdc6918a","113.20.53.151","Mozilla/5.0 (Windows NT 11.0; Win64; x64) AppleWebKit/537.36 (KHTML, like Gecko) Chrome/124.0.0.0 Safari/537.36","WebKit","Chrome","124.0.0.0","Windows","11.0","https://app.prolific.com/","en,en-US","67df2438f087a74ea30f779b","686d226cabeef709c732f8e1","686e3115042ef17299987012","67df2438f087a74ea30f779b","","","","","","0","demographics","","","","","","","","","","","","","","","","","","","","","","","","","","","","","","","","","","","","","","",""
"6679","","","{""gender_identity"":""female/woman""}","survey-multi-choice","6","264612","0.0-6.0-1.0","73","1","2025-07-09 09:07:27","7701e855f2ef39aa3fd6c71abdc6918a","113.20.53.151","Mozilla/5.0 (Windows NT 11.0; Win64; x64) AppleWebKit/537.36 (KHTML, like Gecko) Chrome/124.0.0.0 Safari/537.36","WebKit","Chrome","124.0.0.0","Windows","11.0","https://app.prolific.com/","en,en-US","67df2438f087a74ea30f779b","686d226cabeef709c732f8e1","686e3115042ef17299987012","67df2438f087a74ea30f779b","","","[0]","","","1","demographics","","","","","","","","","","","","","","","","","","","","","","","","","","","","","","","","","","","","","","",""
"4381","","","{""assigned_sex"":""female""}","survey-multi-choice","7","268996","0.0-6.0-2.0","73","1","2025-07-09 09:07:27","7701e855f2ef39aa3fd6c71abdc6918a","113.20.53.151","Mozilla/5.0 (Windows NT 11.0; Win64; x64) AppleWebKit/537.36 (KHTML, like Gecko) Chrome/124.0.0.0 Safari/537.36","WebKit","Chrome","124.0.0.0","Windows","11.0","https://app.prolific.com/","en,en-US","67df2438f087a74ea30f779b","686d226cabeef709c732f8e1","686e3115042ef17299987012","67df2438f087a74ea30f779b","","","[0]","","","2","demographics","","","","","","","","","","","","","","","","","","","","","","","","","","","","","","","","","","","","","","",""
"4973","","","{""menstrual_cycle"":""Yes""}","survey-multi-choice","8","273972","0.0-6.0-3.0","73","1","2025-07-09 09:07:27","7701e855f2ef39aa3fd6c71abdc6918a","113.20.53.151","Mozilla/5.0 (Windows NT 11.0; Win64; x64) AppleWebKit/537.36 (KHTML, like Gecko) Chrome/124.0.0.0 Safari/537.36","WebKit","Chrome","124.0.0.0","Windows","11.0","https://app.prolific.com/","en,en-US","67df2438f087a74ea30f779b","686d226cabeef709c732f8e1","686e3115042ef17299987012","67df2438f087a74ea30f779b","","","[0]","","","4","demographics","","","","","","","","","","","","","","","","","","","","","","","","","","","","","","","","","","","","","","",""
"7293","","","{""education"":""Master's Degree (e.g., MSc)""}","survey-multi-choice","9","281268","0.0-6.0-4.0","73","1","2025-07-09 09:07:27","7701e855f2ef39aa3fd6c71abdc6918a","113.20.53.151","Mozilla/5.0 (Windows NT 11.0; Win64; x64) AppleWebKit/537.36 (KHTML, like Gecko) Chrome/124.0.0.0 Safari/537.36","WebKit","Chrome","124.0.0.0","Windows","11.0","https://app.prolific.com/","en,en-US","67df2438f087a74ea30f779b","686d226cabeef709c732f8e1","686e3115042ef17299987012","67df2438f087a74ea30f779b","","","[0]","","","5","demographics","","","","","","","","","","","","","","","","","","","","","","","","","","","","","","","","","","","","","","",""
"6477","","","{""education"":""Master's Degree (e.g., MSc)""}","survey-multi-choice","10","287748","0.0-6.0-5.0","73","1","2025-07-09 09:07:27","7701e855f2ef39aa3fd6c71abdc6918a","113.20.53.151","Mozilla/5.0 (Windows NT 11.0; Win64; x64) AppleWebKit/537.36 (KHTML, like Gecko) Chrome/124.0.0.0 Safari/537.36","WebKit","Chrome","124.0.0.0","Windows","11.0","https://app.prolific.com/","en,en-US","67df2438f087a74ea30f779b","686d226cabeef709c732f8e1","686e3115042ef17299987012","67df2438f087a74ea30f779b","2025-07-09T09:12:20.537Z","","[0]","","","6","demographics","","","","","","","","","","","","","","","","","","","","","","","","","","","","","","","","","","","","","","",""
"279644","","","{""mental_health_condition"":""YES,ANXIETY DISORDERS"",""mental_health_treatment"":""YES,PSYCHOTHERAPY"",""psychiatric_medication"":""LEXAPRO,10MG DAILY""}","survey-text","11","567396","0.0-7.0-0.0","73","1","2025-07-09 09:07:27","7701e855f2ef39aa3fd6c71abdc6918a","113.20.53.151","Mozilla/5.0 (Windows NT 11.0; Win64; x64) AppleWebKit/537.36 (KHTML, like Gecko) Chrome/124.0.0.0 Safari/537.36","WebKit","Chrome","124.0.0.0","Windows","11.0","https://app.prolific.com/","en,en-US","67df2438f087a74ea30f779b","686d226cabeef709c732f8e1","686e3115042ef17299987012","67df2438f087a74ea30f779b","2025-07-09T09:17:00.186Z","","","","","1","mental_health","","","","","","","","","","","","","","","","","","","","","","","","","","","","","","","","","","","","","","",""
"10350","","","{""depression_history"":[""Yes""]}","survey-multi-select","12","577749","0.0-7.0-1.0","73","1","2025-07-09 09:07:27","7701e855f2ef39aa3fd6c71abdc6918a","113.20.53.151","Mozilla/5.0 (Windows NT 11.0; Win64; x64) AppleWebKit/537.36 (KHTML, like Gecko) Chrome/124.0.0.0 Safari/537.36","WebKit","Chrome","124.0.0.0","Windows","11.0","https://app.prolific.com/","en,en-US","67df2438f087a74ea30f779b","686d226cabeef709c732f8e1","686e3115042ef17299987012","67df2438f087a74ea30f779b","","","[0]","","","","mental_health","","","","","","","","","","","","","","","","","","","","","","","","","","","","","","","","","","","","","","",""
"15349","","","{""depression_episodes"":""3-5"",""depression_recent"":""Currently experiencing an episode""}","survey-multi-choice","13","593100","0.0-7.0-2.0-0.0","73","1","2025-07-09 09:07:27","7701e855f2ef39aa3fd6c71abdc6918a","113.20.53.151","Mozilla/5.0 (Windows NT 11.0; Win64; x64) AppleWebKit/537.36 (KHTML, like Gecko) Chrome/124.0.0.0 Safari/537.36","WebKit","Chrome","124.0.0.0","Windows","11.0","https://app.prolific.com/","en,en-US","67df2438f087a74ea30f779b","686d226cabeef709c732f8e1","686e3115042ef17299987012","67df2438f087a74ea30f779b","2025-07-09T09:17:25.889Z","","[0,1]","","","3","mental_health","","","","","","","","","","","","","","","","","","","","","","","","","","","","","","","","","","","","","","",""
"72964.90000009537","","","","survey-template","14","666071","0.0-7.0-3.0","73","1","2025-07-09 09:07:27","7701e855f2ef39aa3fd6c71abdc6918a","113.20.53.151","Mozilla/5.0 (Windows NT 11.0; Win64; x64) AppleWebKit/537.36 (KHTML, like Gecko) Chrome/124.0.0.0 Safari/537.36","WebKit","Chrome","124.0.0.0","Windows","11.0","https://app.prolific.com/","en,en-US","67df2438f087a74ea30f779b","686d226cabeef709c732f8e1","686e3115042ef17299987012","67df2438f087a74ea30f779b","2025-07-09T09:18:38.860Z","","","","","","ius","{""Q01"":""4"",""Q02"":""4"",""Q03"":""4"",""Q04"":""3"",""Q05"":""2"",""Q06"":""3"",""Q07"":""4"",""Q08"":""0"",""Q09"":""4"",""Q10"":""1"",""Q11"":""1"",""Q12"":""2"",""Q13"":""4""}","[0,1,2,3,4,5,6,7,8,9,10,11,12]","[""Q01"",""Q02"",""Q03"",""Q04"",""Q05"",""Q06"",""Q07"",""Q08"",""Q09"",""Q10"",""Q11"",""Q12"",""Q13""]","[12851.300000071526,17051.300000071526,24587.300000071526,29907.300000071526,34275.300000071526,39219.200000047684,42707.200000047684,50451.200000047684,55667.300000071526,59179.10000002384,64499.300000071526,68867.20000004768,71755.20000004768]","[]","[11475.300000071526,12851.300000071526,17051.300000071526,23035.200000047684,23955.100000023842,24587.300000071526,29907.300000071526,34275.300000071526,39219.200000047684,42707.200000047684,50451.200000047684,54803.300000071526,55667.300000071526,59179.10000002384,64499.300000071526,68019.20000004768,68867.20000004768,71755.20000004768,72963.20000004768]","0.46153846153846156","0.5833333333333334","0","","","","","","","","","","","","","","","","","","","","","","","","","","","","","",""
"5778","1752052724641","<p style='font-size:1.1em;line-height:1.25'>In the following, we will ask you a few questions relating to your experiences over the past month.<br></p><p style='font-size:1.1em;line-height:1.25'>Press the <strong>Next</strong> button to continue.</p>","0","custom-html-button-response","15","671852","0.0-7.0-4.0","73","1","2025-07-09 09:07:27","7701e855f2ef39aa3fd6c71abdc6918a","113.20.53.151","Mozilla/5.0 (Windows NT 11.0; Win64; x64) AppleWebKit/537.36 (KHTML, like Gecko) Chrome/124.0.0.0 Safari/537.36","WebKit","Chrome","124.0.0.0","Windows","11.0","https://app.prolific.com/","en,en-US","67df2438f087a74ea30f779b","686d226cabeef709c732f8e1","686e3115042ef17299987012","67df2438f087a74ea30f779b","2025-07-09T09:18:44.641Z","","","","","","","","","","","","","","","","","","","","","","","","","","","","","","","","","","","","","","","","","","","","",""
"79760.5","","","","survey-template","16","751614","0.0-7.0-5.0","73","1","2025-07-09 09:07:27","7701e855f2ef39aa3fd6c71abdc6918a","113.20.53.151","Mozilla/5.0 (Windows NT 11.0; Win64; x64) AppleWebKit/537.36 (KHTML, like Gecko) Chrome/124.0.0.0 Safari/537.36","WebKit","Chrome","124.0.0.0","Windows","11.0","https://app.prolific.com/","en,en-US","67df2438f087a74ea30f779b","686d226cabeef709c732f8e1","686e3115042ef17299987012","67df2438f087a74ea30f779b","2025-07-09T09:20:04.403Z","","","","","","pss","{""Q01"":""2"",""Q02"":""3"",""Q03"":""4"",""Q04"":""2"",""Q05"":""2"",""Q06"":""3"",""Q07"":""2"",""Q08"":""2"",""Q09"":""2"",""Q10"":""2""}","[0,1,2,3,4,5,6,7,8,9]","[""Q01"",""Q02"",""Q03"",""Q04"",""Q05"",""Q05"",""Q06"",""Q07"",""Q08"",""Q09"",""Q09"",""Q10""]","[21367,27374.899999976158,31182.799999952316,40983,48518.699999928474,49855,54991,58951,63822.699999928474,70990.89999997616,71630.89999997616,78246.89999997616]","[]","[0,19246.899999976158,21367,27374.899999976158,31182.799999952316,40983,47830.699999928474,48518.699999928474,49855,54991,58951,62391,63318.60000002384,63822.699999928474,70990.89999997616,71630.89999997616,77367.5,78246.89999997616,79758.89999997616]","0.7","0.4444444444444444","0","","","","","","","","","","","","","","","","","","","","","","","","","","","","","",""
"5283","1752052809689","<p style='font-size:1.1em;line-height:1.25'>Thank you for your answers! Now we will ask you a few more questions relating to your feelings in the last 24 hours.<br></p><p style='font-size:1.1em;line-height:1.25'>Press the <strong>Next</strong> button to continue.</p>","0","custom-html-button-response","17","756901","0.0-7.0-6.0","73","1","2025-07-09 09:07:27","7701e855f2ef39aa3fd6c71abdc6918a","113.20.53.151","Mozilla/5.0 (Windows NT 11.0; Win64; x64) AppleWebKit/537.36 (KHTML, like Gecko) Chrome/124.0.0.0 Safari/537.36","WebKit","Chrome","124.0.0.0","Windows","11.0","https://app.prolific.com/","en,en-US","67df2438f087a74ea30f779b","686d226cabeef709c732f8e1","686e3115042ef17299987012","67df2438f087a74ea30f779b","2025-07-09T09:20:09.690Z","","","","","","","","","","","","","","","","","","","","","","","","","","","","","","","","","","","","","","","","","","","","",""
"83913.09999990463","","","","survey-template","18","840816","0.0-7.0-7.0","73","1","2025-07-09 09:07:27","7701e855f2ef39aa3fd6c71abdc6918a","113.20.53.151","Mozilla/5.0 (Windows NT 11.0; Win64; x64) AppleWebKit/537.36 (KHTML, like Gecko) Chrome/124.0.0.0 Safari/537.36","WebKit","Chrome","124.0.0.0","Windows","11.0","https://app.prolific.com/","en,en-US","67df2438f087a74ea30f779b","686d226cabeef709c732f8e1","686e3115042ef17299987012","67df2438f087a74ea30f779b","2025-07-09T09:21:33.605Z","","","","","","drsp","{""Q01"":""3"",""Q02"":""2"",""Q03"":""1"",""Q04"":""5"",""Q05"":""3"",""Q06"":""2"",""Q07"":""3"",""Q08"":""1"",""Q09"":""1"",""Q10"":""2"",""Q11"":""1"",""Q12"":""0"",""Q13"":""5"",""Q14"":""0"",""Q15"":""1"",""Q16"":""1"",""Q17"":""1"",""Q18"":""5"",""Q19"":""3"",""Q20"":""5"",""Q21"":""5""}","[0,1,2,3,4,5,6,7,8,9,10,11,12,13,14,15,16,17,18,19,20]","[""Q01"",""Q01"",""Q02"",""Q03"",""Q04"",""Q05"",""Q06"",""Q07"",""Q08"",""Q10"",""Q09"",""Q10"",""Q11"",""Q12"",""Q13"",""Q14"",""Q15"",""Q16"",""Q17"",""Q18"",""Q19"",""Q20"",""Q21"",""Q18""]","[7150.599999904633,8414.699999928474,9646.5,12406.5,15670.199999928474,19222.199999928474,21222.5,22526.5,24598.399999976158,27862.399999976158,29430.399999976158,30438.5,34198.5,35974.59999990463,38894.199999928474,41750.39999997616,47638.5,50406.09999990463,51966.199999928474,55918.39999997616,62102.299999952316,73214.39999997616,77350.29999995232,79503]","[]","[0,7150.599999904633,8414.699999928474,9646.5,12406.5,15670.199999928474,19222.199999928474,21222.5,22526.5,24598.399999976158,27862.399999976158,29430.399999976158,30438.5,32614.599999904633,34198.5,35974.59999990463,38894.199999928474,41750.39999997616,46478.59999990463,47638.5,50406.09999990463,51966.199999928474,55918.39999997616,61550.699999928474,62102.299999952316,72606.5,73214.39999997616,77350.29999995232,79503,83910]","0.3333333333333333","0.5","0","","","","","","","","","","","","","","","","","","","","","","","","","","","","","",""
"15258.300000071526","","","","survey-template","19","856077","0.0-7.0-8.0","73","1","2025-07-09 09:07:27","7701e855f2ef39aa3fd6c71abdc6918a","113.20.53.151","Mozilla/5.0 (Windows NT 11.0; Win64; x64) AppleWebKit/537.36 (KHTML, like Gecko) Chrome/124.0.0.0 Safari/537.36","WebKit","Chrome","124.0.0.0","Windows","11.0","https://app.prolific.com/","en,en-US","67df2438f087a74ea30f779b","686d226cabeef709c732f8e1","686e3115042ef17299987012","67df2438f087a74ea30f779b","2025-07-09T09:21:48.866Z","","","","","","stress","{""Q01"":""4"",""Q02"":""4"",""Q03"":""2""}","[0,1,2]","[""Q01"",""Q02"",""Q02"",""Q03""]","[3553.8000000715256,8249.600000023842,9865.700000047684,14433.399999976158]","[]","[3553.8000000715256,8249.600000023842,9361.800000071526,9865.700000047684,14433.399999976158,15257.600000023842]","0.3333333333333333","0.5","0","","","","","","","","","","","","","","","","","","","","","","","","","","","","","",""
"168221","","","","instructions","20","1024301","0.0-8.0-0.0","73","1","2025-07-09 09:07:27","7701e855f2ef39aa3fd6c71abdc6918a","113.20.53.151","Mozilla/5.0 (Windows NT 11.0; Win64; x64) AppleWebKit/537.36 (KHTML, like Gecko) Chrome/124.0.0.0 Safari/537.36","WebKit","Chrome","124.0.0.0","Windows","11.0","https://app.prolific.com/","en,en-US","67df2438f087a74ea30f779b","686d226cabeef709c732f8e1","686e3115042ef17299987012","67df2438f087a74ea30f779b","","[{""page_index"":0,""viewing_time"":31733},{""page_index"":1,""viewing_time"":60608},{""page_index"":2,""viewing_time"":34936},{""page_index"":3,""viewing_time"":40944}]","","","","","","","","","","","","","","","","","","","","","","","","","","","","","","","","","","","","","","","","","","","",""
"","","","","ctl-task-cpt","21","1070138","0.0-8.0-1.0","73","1","2025-07-09 09:07:27","7701e855f2ef39aa3fd6c71abdc6918a","113.20.53.151","Mozilla/5.0 (Windows NT 11.0; Win64; x64) AppleWebKit/537.36 (KHTML, like Gecko) Chrome/124.0.0.0 Safari/537.36","WebKit","Chrome","124.0.0.0","Windows","11.0","https://app.prolific.com/","en,en-US","67df2438f087a74ea30f779b","686d226cabeef709c732f8e1","686e3115042ef17299987012","67df2438f087a74ea30f779b","","","","","","","","","","","","","","","","","win-only","0","g1:NW,g2:SE","1","0","1","1030496.9","11961.9","15976.5","42823.9","2","4","4","6","2","4","2","2","0","0.015151515151515152","4014.5","4000","2395","[""down"",""right""]","{""num_key_presses"":10,""num_perfect"":6,""num_errors"":2,""num_randdir"":0,""num_randdir_good_moves"":0,""num_whilered"":2,""num_whileblue"":0,""num_blue"":2,""num_good_moves"":6}","[551.4285714285714,550.3348214285714,0.4,551.4285714285714,550.3348214285714,112.8,551.4285714285714,550.3348214285714,228.9,551.4285714285714,550.3348214285714,329.2,551.4285714285714,550.3348214285714,429.7,551.4285714285714,550.3348214285714,529.7,551.4285714285714,550.3348214285714,644.9,551.4285714285714,550.3348214285714,746.4,551.4285714285714,550.3348214285714,850.4,551.4285714285714,550.3348214285714,963,551.4285714285714,550.3348214285714,1078.9,551.4285714285714,550.3348214285714,1179.9,551.4285714285714,550.3348214285714,1280.1,551.4285714285714,550.3348214285714,1396.7,551.4285714285714,550.3348214285714,1496.9,551.4285714285714,550.3348214285714,1601.1,551.4285714285714,550.3348214285714,1713.1,551.4285714285714,550.3348214285714,1813.1,551.4285714285714,550.3348214285714,1913.4,551.4285714285714,550.3348214285714,2014.2,551.4285714285714,550.3348214285714,2129.2,551.4285714285714,550.3348214285714,2230.1,551.4285714285714,550.3348214285714,2330.1,551.4285714285714,550.3348214285714,2441.4,551.4285714285714,550.3348214285714,2547.1,551.4285714285714,550.3348214285714,2647.1,551.4285714285714,550.3348214285714,2748.9,551.4285714285714,550.3348214285714,2864,551.4285714285714,550.3348214285714,2980.5,551.4285714285714,550.3348214285714,3080.7,551.4285714285714,550.3348214285714,3190.9,551.4285714285714,550.3348214285714,3297.3,551.4285714285714,550.3348214285714,3397.4,551.4285714285714,550.3348214285714,3497.5,551.4285714285714,550.3348214285714,3612.9,551.4285714285714,550.3348214285714,3714.2,551.4285714285714,550.3348214285714,3829.9,551.4285714285714,550.3348214285714,3931]","[109.8,109.8,1000,0,-890.2,""error"",""-"",""-"",""no_move"",7853.9,7743.6,2373.1,4919.6,561.2,""smooth"",""down"",""down"",""good_move"",8093.6,239.4,3158.6,7854.3,-2919.2,""error"",""-"",""-"",""no_move"",8302.3,208.3,3158.6,7854.3,-2710.6,""while_red"",""-"",""-"",""no_move"",8557.3,463.3,3158.6,7854.3,-2455.5,""while_red"",""-"",""-"",""no_move"",12222,4128,2456.1,9096.4,669.5,""smooth"",""down"",""down"",""good_move"",15309.9,3087.7,2591.2,12222.3,496.4,""smooth"",""down"",""down"",""good_move"",21134.4,5824.3,2272.7,18421.8,440,""smooth"",""right"",""right"",""good_move"",24130,2994.7,2207.1,21135.3,787.7,""smooth"",""right"",""right"",""good_move"",26701.9,2571.6,2093.2,24130.3,478.4,""smooth"",""right"",""right"",""good_move""]","","",""
"23978","","","","instructions","22","1094116","0.0-8.0-2.0","73","1","2025-07-09 09:07:27","7701e855f2ef39aa3fd6c71abdc6918a","113.20.53.151","Mozilla/5.0 (Windows NT 11.0; Win64; x64) AppleWebKit/537.36 (KHTML, like Gecko) Chrome/124.0.0.0 Safari/537.36","WebKit","Chrome","124.0.0.0","Windows","11.0","https://app.prolific.com/","en,en-US","67df2438f087a74ea30f779b","686d226cabeef709c732f8e1","686e3115042ef17299987012","67df2438f087a74ea30f779b","","[{""page_index"":0,""viewing_time"":23977}]","","","","","","","","","","","","","","","","","","","","","","","","","","","","","","","","","","","","","","","","","","","",""
"","","","","ctl-task-cpt","23","1139363","0.0-8.0-3.0","73","1","2025-07-09 09:07:27","7701e855f2ef39aa3fd6c71abdc6918a","113.20.53.151","Mozilla/5.0 (Windows NT 11.0; Win64; x64) AppleWebKit/537.36 (KHTML, like Gecko) Chrome/124.0.0.0 Safari/537.36","WebKit","Chrome","124.0.0.0","Windows","11.0","https://app.prolific.com/","en,en-US","67df2438f087a74ea30f779b","686d226cabeef709c732f8e1","686e3115042ef17299987012","67df2438f087a74ea30f779b","","","","","","","","","","","","","","","","","win-only","0","g1:NW,g2:SE","0.35","0","3","1100311.7","3480.1","7482.1","42241","2","4","8","6","1","2","2","2","0","0.015151515151515152","4001.9","4000","2145","[""left"",""up""]","{""num_key_presses"":8,""num_perfect"":4,""num_errors"":0,""num_randdir"":4,""num_randdir_good_moves"":2,""num_whilered"":0,""num_whileblue"":0,""num_blue"":4,""num_good_moves"":6}","[558.4285714285714,558.3348214285714,0,558.4285714285714,558.3348214285714,102,558.4285714285714,558.3348214285714,202.9,558.4285714285714,558.3348214285714,311.3,558.4285714285714,558.3348214285714,417.5,558.4285714285714,558.3348214285714,517.5,558.4285714285714,558.3348214285714,633.7,558.4285714285714,558.3348214285714,735.6,558.4285714285714,558.3348214285714,836.3,558.4285714285714,558.3348214285714,951.3,558.4285714285714,558.3348214285714,1067.2,570.4285714285714,588.3348214285714,1167.4,574.4285714285714,615.3348214285714,1272.2,574.4285714285714,642.3348214285714,1384,574.4285714285714,642.3348214285714,1484.5,574.4285714285714,642.3348214285714,1585.9,574.4285714285714,642.3348214285714,1700.8,574.4285714285714,642.3348214285714,1801.4,574.4285714285714,642.3348214285714,1901.7,574.4285714285714,642.3348214285714,2006.4,574.4285714285714,642.3348214285714,2117.1,574.4285714285714,642.3348214285714,2218.2,574.4285714285714,642.3348214285714,2334.4,574.4285714285714,642.3348214285714,2434.9,574.4285714285714,642.3348214285714,2542.6,574.4285714285714,642.3348214285714,2652.1,574.4285714285714,642.3348214285714,2768.3,574.4285714285714,642.3348214285714,2868.4,574.4285714285714,642.3348214285714,2968.5,574.4285714285714,642.3348214285714,3083.4,574.4285714285714,642.3348214285714,3191,574.4285714285714,642.3348214285714,3301.2,574.4285714285714,642.3348214285714,3405.5,574.4285714285714,642.3348214285714,3505.8,574.4285714285714,642.3348214285714,3611.3,574.4285714285714,642.3348214285714,3718.1,574.4285714285714,642.3348214285714,3835.3,574.4285714285714,642.3348214285714,3935.3]","[1588.9,1588.9,1000,0,588.9,""oops"",""down"",""up"",""good_move"",7557.6,5968.4,1831.8,5379.1,346.7,""oops"",""up"",""up"",""good_move"",10790.4,3232.2,2830,7558.3,402.2,""oops"",""left"",""right"",""bad_move"",18390.5,7599.6,3276.1,14754.8,359.7,""smooth"",""left"",""left"",""good_move"",23556.8,5165.7,1549.7,21657,350.1,""smooth"",""left"",""left"",""good_move"",29654.2,6097.3,2388.8,26878.3,387.1,""oops"",""left"",""right"",""bad_move"",32485.5,2831,2124.6,29654.5,706.4,""smooth"",""left"",""left"",""good_move"",34597.7,2111.5,1669.5,32486.2,442,""smooth"",""left"",""left"",""good_move""]","","",""
"79529","","","","instructions","24","1218893","0.0-8.0-4.0","73","1","2025-07-09 09:07:27","7701e855f2ef39aa3fd6c71abdc6918a","113.20.53.151","Mozilla/5.0 (Windows NT 11.0; Win64; x64) AppleWebKit/537.36 (KHTML, like Gecko) Chrome/124.0.0.0 Safari/537.36","WebKit","Chrome","124.0.0.0","Windows","11.0","https://app.prolific.com/","en,en-US","67df2438f087a74ea30f779b","686d226cabeef709c732f8e1","686e3115042ef17299987012","67df2438f087a74ea30f779b","","[{""page_index"":0,""viewing_time"":22992},{""page_index"":1,""viewing_time"":56536}]","","","","","","","","","","","","","","","","","","","","","","","","","","","","","","","","","","","","","","","","","","","",""
"20982","","","{""green_ball"":[""Ball always moves in the direction I press""]}","survey-multi-select","25","1239877","0.0-8.0-5.0-0.0","73","1","2025-07-09 09:07:27","7701e855f2ef39aa3fd6c71abdc6918a","113.20.53.151","Mozilla/5.0 (Windows NT 11.0; Win64; x64) AppleWebKit/537.36 (KHTML, like Gecko) Chrome/124.0.0.0 Safari/537.36","WebKit","Chrome","124.0.0.0","Windows","11.0","https://app.prolific.com/","en,en-US","67df2438f087a74ea30f779b","686d226cabeef709c732f8e1","686e3115042ef17299987012","67df2438f087a74ea30f779b","","","[0]","","","","quiz","","","","","","","","","","","","","","","","","","","","","","","","","","","","","","","","","","","","","false","",""
"5813","","<p align='center'><b>INCORRECT.</b> Usually the green ball moves in the indicated direction, but sometimes it shakes and moves randomly. </p>","0","html-button-response","26","1245693","0.0-8.0-5.0-1.0","73","1","2025-07-09 09:07:27","7701e855f2ef39aa3fd6c71abdc6918a","113.20.53.151","Mozilla/5.0 (Windows NT 11.0; Win64; x64) AppleWebKit/537.36 (KHTML, like Gecko) Chrome/124.0.0.0 Safari/537.36","WebKit","Chrome","124.0.0.0","Windows","11.0","https://app.prolific.com/","en,en-US","67df2438f087a74ea30f779b","686d226cabeef709c732f8e1","686e3115042ef17299987012","67df2438f087a74ea30f779b","","","","","","","","","","","","","","","","","","","","","","","","","","","","","","","","","","","","","","","","","","","","","",""
"18063","","","{""green_ball"":[""Ball sometimes shakes and moves in a random direction""]}","survey-multi-select","27","1263757","0.0-8.0-5.1-0.1","73","1","2025-07-09 09:07:27","7701e855f2ef39aa3fd6c71abdc6918a","113.20.53.151","Mozilla/5.0 (Windows NT 11.0; Win64; x64) AppleWebKit/537.36 (KHTML, like Gecko) Chrome/124.0.0.0 Safari/537.36","WebKit","Chrome","124.0.0.0","Windows","11.0","https://app.prolific.com/","en,en-US","67df2438f087a74ea30f779b","686d226cabeef709c732f8e1","686e3115042ef17299987012","67df2438f087a74ea30f779b","","","[0]","","","","quiz","","","","","","","","","","","","","","","","","","","","","","","","","","","","","","","","","","","","","true","",""
"4357","","<p align='center'><b>CORRECT!</b> Indeed, the green ball may sometimes shake and move in a random direction.</p>","0","html-button-response","28","1268117","0.0-8.0-5.1-1.1","73","1","2025-07-09 09:07:27","7701e855f2ef39aa3fd6c71abdc6918a","113.20.53.151","Mozilla/5.0 (Windows NT 11.0; Win64; x64) AppleWebKit/537.36 (KHTML, like Gecko) Chrome/124.0.0.0 Safari/537.36","WebKit","Chrome","124.0.0.0","Windows","11.0","https://app.prolific.com/","en,en-US","67df2438f087a74ea30f779b","686d226cabeef709c732f8e1","686e3115042ef17299987012","67df2438f087a74ea30f779b","","","","","","","","","","","","","","","","","","","","","","","","","","","","","","","","","","","","","","","","","","","","","",""
"10735","","","{""yellow_ball"":[""Ball doesn‘t move and I get -1 penalty point""]}","survey-multi-select","29","1278853","0.0-8.0-6.0-0.0","73","1","2025-07-09 09:07:27","7701e855f2ef39aa3fd6c71abdc6918a","113.20.53.151","Mozilla/5.0 (Windows NT 11.0; Win64; x64) AppleWebKit/537.36 (KHTML, like Gecko) Chrome/124.0.0.0 Safari/537.36","WebKit","Chrome","124.0.0.0","Windows","11.0","https://app.prolific.com/","en,en-US","67df2438f087a74ea30f779b","686d226cabeef709c732f8e1","686e3115042ef17299987012","67df2438f087a74ea30f779b","","","[0]","","","","quiz","","","","","","","","","","","","","","","","","","","","","","","","","","","","","","","","","","","","","true","",""
"972","","<p align='center'><b>CORRECT!</b> Indeed, the yellow ball never moves and you receive a penalty.</p>","0","html-button-response","30","1279829","0.0-8.0-6.0-1.0","73","1","2025-07-09 09:07:27","7701e855f2ef39aa3fd6c71abdc6918a","113.20.53.151","Mozilla/5.0 (Windows NT 11.0; Win64; x64) AppleWebKit/537.36 (KHTML, like Gecko) Chrome/124.0.0.0 Safari/537.36","WebKit","Chrome","124.0.0.0","Windows","11.0","https://app.prolific.com/","en,en-US","67df2438f087a74ea30f779b","686d226cabeef709c732f8e1","686e3115042ef17299987012","67df2438f087a74ea30f779b","","","","","","","","","","","","","","","","","","","","","","","","","","","","","","","","","","","","","","","","","","","","","",""
"4703","","","{""blue_ball"":[""Ball doesn‘t move and I get -1 penalty point""]}","survey-multi-select","31","1284533","0.0-8.0-7.0-0.0","73","1","2025-07-09 09:07:27","7701e855f2ef39aa3fd6c71abdc6918a","113.20.53.151","Mozilla/5.0 (Windows NT 11.0; Win64; x64) AppleWebKit/537.36 (KHTML, like Gecko) Chrome/124.0.0.0 Safari/537.36","WebKit","Chrome","124.0.0.0","Windows","11.0","https://app.prolific.com/","en,en-US","67df2438f087a74ea30f779b","686d226cabeef709c732f8e1","686e3115042ef17299987012","67df2438f087a74ea30f779b","","","[0]","","","","quiz","","","","","","","","","","","","","","","","","","","","","","","","","","","","","","","","","","","","","false","",""
"6460","","<p align='center'><b>INCORRECT.</b> The blue ball always shakes and moves randomly.</p>","0","html-button-response","32","1290997","0.0-8.0-7.0-1.0","73","1","2025-07-09 09:07:27","7701e855f2ef39aa3fd6c71abdc6918a","113.20.53.151","Mozilla/5.0 (Windows NT 11.0; Win64; x64) AppleWebKit/537.36 (KHTML, like Gecko) Chrome/124.0.0.0 Safari/537.36","WebKit","Chrome","124.0.0.0","Windows","11.0","https://app.prolific.com/","en,en-US","67df2438f087a74ea30f779b","686d226cabeef709c732f8e1","686e3115042ef17299987012","67df2438f087a74ea30f779b","","","","","","","","","","","","","","","","","","","","","","","","","","","","","","","","","","","","","","","","","","","","","",""
"3383","","","{""blue_ball"":[""Ball always shakes and moves in a random direction""]}","survey-multi-select","33","1294381","0.0-8.0-7.1-0.1","73","1","2025-07-09 09:07:27","7701e855f2ef39aa3fd6c71abdc6918a","113.20.53.151","Mozilla/5.0 (Windows NT 11.0; Win64; x64) AppleWebKit/537.36 (KHTML, like Gecko) Chrome/124.0.0.0 Safari/537.36","WebKit","Chrome","124.0.0.0","Windows","11.0","https://app.prolific.com/","en,en-US","67df2438f087a74ea30f779b","686d226cabeef709c732f8e1","686e3115042ef17299987012","67df2438f087a74ea30f779b","","","[0]","","","","quiz","","","","","","","","","","","","","","","","","","","","","","","","","","","","","","","","","","","","","true","",""
"3453","","<p align='center'><b>CORRECT!</b> Indeed, the blue ball always shakes and moves in a random direction. Also there is a penalty of -1 point.</p>","0","html-button-response","34","1297837","0.0-8.0-7.1-1.1","73","1","2025-07-09 09:07:27","7701e855f2ef39aa3fd6c71abdc6918a","113.20.53.151","Mozilla/5.0 (Windows NT 11.0; Win64; x64) AppleWebKit/537.36 (KHTML, like Gecko) Chrome/124.0.0.0 Safari/537.36","WebKit","Chrome","124.0.0.0","Windows","11.0","https://app.prolific.com/","en,en-US","67df2438f087a74ea30f779b","686d226cabeef709c732f8e1","686e3115042ef17299987012","67df2438f087a74ea30f779b","","","","","","","","","","","","","","","","","","","","","","","","","","","","","","","","","","","","","","","","","","","","","",""
"8503","","","{""bonus"":[""When I reach 50% of points""]}","survey-multi-select","35","1306341","0.0-8.0-8.0-0.0","73","1","2025-07-09 09:07:27","7701e855f2ef39aa3fd6c71abdc6918a","113.20.53.151","Mozilla/5.0 (Windows NT 11.0; Win64; x64) AppleWebKit/537.36 (KHTML, like Gecko) Chrome/124.0.0.0 Safari/537.36","WebKit","Chrome","124.0.0.0","Windows","11.0","https://app.prolific.com/","en,en-US","67df2438f087a74ea30f779b","686d226cabeef709c732f8e1","686e3115042ef17299987012","67df2438f087a74ea30f779b","","","[0]","","","","quiz","","","","","","","","","","","","","","","","","","","","","","","","","","","","","","","","","","","","","true","",""
"1381","","<p align='center'><b>CORRECT!</b> Indeed, you receive 2 pounds extra when you reach 50% of points.</p>","0","html-button-response","36","1307725","0.0-8.0-8.0-1.0","73","1","2025-07-09 09:07:27","7701e855f2ef39aa3fd6c71abdc6918a","113.20.53.151","Mozilla/5.0 (Windows NT 11.0; Win64; x64) AppleWebKit/537.36 (KHTML, like Gecko) Chrome/124.0.0.0 Safari/537.36","WebKit","Chrome","124.0.0.0","Windows","11.0","https://app.prolific.com/","en,en-US","67df2438f087a74ea30f779b","686d226cabeef709c732f8e1","686e3115042ef17299987012","67df2438f087a74ea30f779b","","","","","","","","","","","","","","","","","","","","","","","","","","","","","","","","","","","","","","","","","","","","","",""
"4831","","","","instructions","37","1312557","0.0-8.0-9.0","73","1","2025-07-09 09:07:27","7701e855f2ef39aa3fd6c71abdc6918a","113.20.53.151","Mozilla/5.0 (Windows NT 11.0; Win64; x64) AppleWebKit/537.36 (KHTML, like Gecko) Chrome/124.0.0.0 Safari/537.36","WebKit","Chrome","124.0.0.0","Windows","11.0","https://app.prolific.com/","en,en-US","67df2438f087a74ea30f779b","686d226cabeef709c732f8e1","686e3115042ef17299987012","67df2438f087a74ea30f779b","","[{""page_index"":0,""viewing_time"":4831}]","","","","","","","","","","","","","","","","","","","","","","","","","","","","","","","","","","","","","","","","","","","",""
"24247","","<p>Before you start with this game please answer the following three questions yourself. </p>
  <p>Through this game, we measure several aspects of your cognitive performance, such as reaction times, multi-tasking capabilities </p>
  <p>and the ability to assess the situation you are in.</p>
  <p></p>
  <p><b>How good do you usually are in such tasks?</b></p>","76","html-slider-response","38","1336805","0.0-9.0-0.0","73","1","2025-07-09 09:07:27","7701e855f2ef39aa3fd6c71abdc6918a","113.20.53.151","Mozilla/5.0 (Windows NT 11.0; Win64; x64) AppleWebKit/537.36 (KHTML, like Gecko) Chrome/124.0.0.0 Safari/537.36","WebKit","Chrome","124.0.0.0","Windows","11.0","https://app.prolific.com/","en,en-US","67df2438f087a74ea30f779b","686d226cabeef709c732f8e1","686e3115042ef17299987012","67df2438f087a74ea30f779b","2025-07-09T09:29:49.594Z","","","","","","PreSkillQ","","","","","","","","","","","","","","","","","","","","","","","","","","","","","","","","","","","","","","50",""
"6615","","<div style=""width:500px;"">
  <p>How well do you think you will perform in this task compared to other participants?</p>
  </div>","86","html-slider-response","39","1343421","0.0-9.0-1.0","73","1","2025-07-09 09:07:27","7701e855f2ef39aa3fd6c71abdc6918a","113.20.53.151","Mozilla/5.0 (Windows NT 11.0; Win64; x64) AppleWebKit/537.36 (KHTML, like Gecko) Chrome/124.0.0.0 Safari/537.36","WebKit","Chrome","124.0.0.0","Windows","11.0","https://app.prolific.com/","en,en-US","67df2438f087a74ea30f779b","686d226cabeef709c732f8e1","686e3115042ef17299987012","67df2438f087a74ea30f779b","2025-07-09T09:29:56.210Z","","","","","","PrePerfQ","","","","","","","","","","","","","","","","","","","","","","","","","","","","","","","","","","","","","","50",""
"3631","","<div style=""width:500px;"">
  <p>What best describes how you currently feel?</p>
  </div>","81","html-slider-response","40","1347053","0.0-9.0-2.0","73","1","2025-07-09 09:07:27","7701e855f2ef39aa3fd6c71abdc6918a","113.20.53.151","Mozilla/5.0 (Windows NT 11.0; Win64; x64) AppleWebKit/537.36 (KHTML, like Gecko) Chrome/124.0.0.0 Safari/537.36","WebKit","Chrome","124.0.0.0","Windows","11.0","https://app.prolific.com/","en,en-US","67df2438f087a74ea30f779b","686d226cabeef709c732f8e1","686e3115042ef17299987012","67df2438f087a74ea30f779b","2025-07-09T09:29:59.842Z","","","","","","PreMotivationQ","","","","","","","","","","","","","","","","","","","","","","","","","","","","","","","","","","","","","","50",""
"","","","","ctl-task-cpt","41","1378601","0.0-10.0-0.0","73","1","2025-07-09 09:07:27","7701e855f2ef39aa3fd6c71abdc6918a","113.20.53.151","Mozilla/5.0 (Windows NT 11.0; Win64; x64) AppleWebKit/537.36 (KHTML, like Gecko) Chrome/124.0.0.0 Safari/537.36","WebKit","Chrome","124.0.0.0","Windows","11.0","https://app.prolific.com/","en,en-US","67df2438f087a74ea30f779b","686d226cabeef709c732f8e1","686e3115042ef17299987012","67df2438f087a74ea30f779b","2025-07-09T09:30:31.391Z","","","","","","","","","","","","","","","","win-only","2","g1:SE,g2:NW","1","1","0","1353248.8","8518.8","13533.8","28546","1","4","8","6","2","8","8","8","0","0.06060606060606061","1911.6","3000","1640","[""left"",""up""]","{""num_key_presses"":6,""num_perfect"":6,""num_errors"":0,""num_randdir"":0,""num_randdir_good_moves"":0,""num_whilered"":0,""num_whileblue"":0,""num_blue"":0,""num_good_moves"":6}","[545.4285714285714,550.3348214285714,0.1,547.4285714285714,551.3348214285714,114.4,547.4285714285714,551.3348214285714,217.9,547.4285714285714,551.3348214285714,329,547.4285714285714,551.3348214285714,429.3,547.4285714285714,551.3348214285714,529.7,547.4285714285714,551.3348214285714,631.4,547.4285714285714,551.3348214285714,731.7,547.4285714285714,551.3348214285714,846.1,547.4285714285714,551.3348214285714,954,547.4285714285714,551.3348214285714,1063.1,547.4285714285714,551.3348214285714,1163.2,547.4285714285714,551.3348214285714,1272.4,455.42857142857144,474.33482142857144,1379.5,353.42857142857144,338.33482142857144,1482.1,307.42857142857144,293.33482142857144,1583.7,163.42857142857144,201.33482142857144,1688.8,94.42857142857143,122.33482142857143,1798.4,96.42857142857143,112.33482142857143,1913.4,96.42857142857143,112.33482142857143,2014.4,96.42857142857143,112.33482142857143,2129.5,96.42857142857143,112.33482142857143,2239.3,96.42857142857143,112.33482142857143,2340.7,96.42857142857143,112.33482142857143,2445.5,96.42857142857143,112.33482142857143,2545.6,100.42857142857143,120.33482142857143,2646.5,101.42857142857143,123.33482142857143,2747.4,102.42857142857143,126.33482142857143,2854.6,104.42857142857143,127.33482142857143,2963.8,104.42857142857143,127.33482142857143,3069.6,104.42857142857143,127.33482142857143,3170,104.42857142857143,130.33482142857144,3279.8,104.42857142857143,130.33482142857144,3381.7,104.42857142857143,130.33482142857144,3481.7,104.42857142857143,130.33482142857144,3581.7,104.42857142857143,130.33482142857144,3698.1,104.42857142857143,130.33482142857144,3814.5,104.42857142857143,130.33482142857144,3915.3,104.42857142857143,130.33482142857144,4016,104.42857142857143,130.33482142857144,4116.9,104.42857142857143,130.33482142857144,4230,104.42857142857143,130.33482142857144,4330.1,104.42857142857143,130.33482142857144,4439.2,104.42857142857143,130.33482142857144,4547.7,104.42857142857143,130.33482142857144,4648.7,104.42857142857143,130.33482142857144,4749,104.42857142857143,130.33482142857144,4849.4,104.42857142857143,130.33482142857144,4949.9]","[1562.6,1562.6,1000,0,562.6,""smooth"",""up"",""up"",""good_move"",4424.8,2861.6,2330.4,1563.4,531,""smooth"",""up"",""up"",""good_move"",7000.6,2575.6,2141.9,4425,433.7,""smooth"",""up"",""up"",""good_move"",9385,2384.2,1951.3,7000.8,432.9,""smooth"",""left"",""left"",""good_move"",12568.1,3182.3,2786.9,9385.8,395.4,""smooth"",""left"",""left"",""good_move"",14872.9,2304.8,1895.3,12568.2,409.5,""smooth"",""left"",""left"",""good_move""]","","",""
"12528","","<div style=""width:500px;"">
  <p>What determined the result of this run?</p>
  </div>","100","html-slider-response","42","1391132","0.0-10.0-1.0","73","1","2025-07-09 09:07:27","7701e855f2ef39aa3fd6c71abdc6918a","113.20.53.151","Mozilla/5.0 (Windows NT 11.0; Win64; x64) AppleWebKit/537.36 (KHTML, like Gecko) Chrome/124.0.0.0 Safari/537.36","WebKit","Chrome","124.0.0.0","Windows","11.0","https://app.prolific.com/","en,en-US","67df2438f087a74ea30f779b","686d226cabeef709c732f8e1","686e3115042ef17299987012","67df2438f087a74ea30f779b","2025-07-09T09:30:43.921Z","","","","","","AttribQ","","","","","","","","","","","","","","","","","","","","","","","","","","","","","","","","","","","","","","50",""
"5791","","<div style=""width:500px;"">
  <p>How much control did you have over the ball?</p>
  </div>","96","html-slider-response","43","1396925","0.0-10.0-2.0","73","1","2025-07-09 09:07:27","7701e855f2ef39aa3fd6c71abdc6918a","113.20.53.151","Mozilla/5.0 (Windows NT 11.0; Win64; x64) AppleWebKit/537.36 (KHTML, like Gecko) Chrome/124.0.0.0 Safari/537.36","WebKit","Chrome","124.0.0.0","Windows","11.0","https://app.prolific.com/","en,en-US","67df2438f087a74ea30f779b","686d226cabeef709c732f8e1","686e3115042ef17299987012","67df2438f087a74ea30f779b","2025-07-09T09:30:49.714Z","","","","","","ControlQ","","","","","","","","","","","","","","","","","","","","","","","","","","","","","","","","","","","","","","50",""
"9121","","<div style=""width:500px;"">
  <p>How would you describe your current emotional state?</p>
  </div>","34","html-slider-response","44","1406046","0.0-10.0-3.0","73","1","2025-07-09 09:07:27","7701e855f2ef39aa3fd6c71abdc6918a","113.20.53.151","Mozilla/5.0 (Windows NT 11.0; Win64; x64) AppleWebKit/537.36 (KHTML, like Gecko) Chrome/124.0.0.0 Safari/537.36","WebKit","Chrome","124.0.0.0","Windows","11.0","https://app.prolific.com/","en,en-US","67df2438f087a74ea30f779b","686d226cabeef709c732f8e1","686e3115042ef17299987012","67df2438f087a74ea30f779b","2025-07-09T09:30:58.835Z","","","","","","StressQ","","","","","","","","","","","","","","","","","","","","","","","","","","","","","","","","","","","","","","50",""
"5213","","<div style=""width:500px;"">
  <p>What best describes how you currently feel?</p>
  </div>","67","html-slider-response","45","1411261","0.0-10.0-4.0","73","1","2025-07-09 09:07:27","7701e855f2ef39aa3fd6c71abdc6918a","113.20.53.151","Mozilla/5.0 (Windows NT 11.0; Win64; x64) AppleWebKit/537.36 (KHTML, like Gecko) Chrome/124.0.0.0 Safari/537.36","WebKit","Chrome","124.0.0.0","Windows","11.0","https://app.prolific.com/","en,en-US","67df2438f087a74ea30f779b","686d226cabeef709c732f8e1","686e3115042ef17299987012","67df2438f087a74ea30f779b","2025-07-09T09:31:04.051Z","","","","","","MotivationQ","","","","","","","","","","","","","","","","","","","","","","","","","","","","","","","","","","","","","","50",""
"","","","","ctl-task-cpt","46","1440464","0.0-10.0-0.1","73","1","2025-07-09 09:07:27","7701e855f2ef39aa3fd6c71abdc6918a","113.20.53.151","Mozilla/5.0 (Windows NT 11.0; Win64; x64) AppleWebKit/537.36 (KHTML, like Gecko) Chrome/124.0.0.0 Safari/537.36","WebKit","Chrome","124.0.0.0","Windows","11.0","https://app.prolific.com/","en,en-US","67df2438f087a74ea30f779b","686d226cabeef709c732f8e1","686e3115042ef17299987012","67df2438f087a74ea30f779b","2025-07-09T09:31:33.253Z","","","","","","","","","","","","","","","","win-only","0","g1:NW,g2:SE","0.9","2","0","1417463.3","3241.7","8255","26182.7","1","4","4","6","2","4","3","11","8","0.08333333333333333","2305.4","3000","1425","[""down"",""right""]","{""num_key_presses"":6,""num_perfect"":4,""num_errors"":1,""num_randdir"":1,""num_randdir_good_moves"":1,""num_whilered"":0,""num_whileblue"":1,""num_blue"":1,""num_good_moves"":6}","[547.4285714285714,562.3348214285714,0.1,547.4285714285714,562.3348214285714,111.3,547.4285714285714,562.3348214285714,211.8,547.4285714285714,562.3348214285714,327.8,547.4285714285714,562.3348214285714,428.9,547.4285714285714,562.3348214285714,529.6,547.4285714285714,562.3348214285714,629.7,547.4285714285714,562.3348214285714,737.8,547.4285714285714,562.3348214285714,845.2,547.4285714285714,562.3348214285714,946.5,547.4285714285714,562.3348214285714,1046.5,547.4285714285714,562.3348214285714,1157.9,580.4285714285714,594.3348214285714,1261.9,646.4285714285714,650.3348214285714,1367.4,730.4285714285714,733.3348214285714,1477,917.4285714285714,922.3348214285714,1579.4,993.4285714285714,1003.3348214285714,1679.9,999.4285714285714,1005.3348214285714,1781.2,1020.4285714285714,1013.3348214285714,1896.6,1020.4285714285714,1014.3348214285714,2012.3,1020.4285714285714,1014.3348214285714,2114.1,1020.4285714285714,1014.3348214285714,2228,1020.4285714285714,1014.3348214285714,2328.7,1020.4285714285714,1014.3348214285714,2430.4,1020.4285714285714,1014.3348214285714,2536.6,1020.4285714285714,1014.3348214285714,2647.1,1020.4285714285714,1014.3348214285714,2748.8,1020.4285714285714,1014.3348214285714,2849,1020.4285714285714,1014.3348214285714,2962.6,1020.4285714285714,1014.3348214285714,3064,1020.4285714285714,1014.3348214285714,3165.2,1020.4285714285714,1014.3348214285714,3268.9,1020.4285714285714,1014.3348214285714,3380.2,1020.4285714285714,1014.3348214285714,3480.5,1020.4285714285714,1014.3348214285714,3596.9,1020.4285714285714,1014.3348214285714,3697.2,1020.4285714285714,1014.3348214285714,3797.2,1020.4285714285714,1014.3348214285714,3912.4,1020.4285714285714,1014.3348214285714,4012.7,1020.4285714285714,1014.3348214285714,4113.1,1020.4285714285714,1014.3348214285714,4215.6,1020.4285714285714,1014.3348214285714,4330.4,1020.4285714285714,1014.3348214285714,4431.9,1020.4285714285714,1014.3348214285714,4536.4,1020.4285714285714,1014.3348214285714,4651.1,1020.4285714285714,1014.3348214285714,4757.7,1020.4285714285714,1014.3348214285714,4863.6,1020.4285714285714,1014.3348214285714,4966]","[1648.4,1648.4,1000,0,648.4,""smooth"",""down"",""down"",""good_move"",4276.1,2627.3,2212.5,1649,414.7,""smooth"",""down"",""down"",""good_move"",7505.1,3228.8,2824.9,4276.4,403.9,""smooth"",""down"",""down"",""good_move"",10672.9,3167.6,2822.3,7505.4,345.3,""while_blue"",""right"",""right"",""good_move"",14096.1,3422.4,2320.6,10673.7,1101.8,""smooth"",""right"",""right"",""good_move"",17792.5,3696.2,3240.9,14096.3,455.3,""oops"",""right"",""right"",""good_move""]","","",""
"6290","","<div style=""width:500px;"">
  <p>What determined the result of this run?</p>
  </div>","100","html-slider-response","47","1446757","0.0-10.0-1.1","73","1","2025-07-09 09:07:27","7701e855f2ef39aa3fd6c71abdc6918a","113.20.53.151","Mozilla/5.0 (Windows NT 11.0; Win64; x64) AppleWebKit/537.36 (KHTML, like Gecko) Chrome/124.0.0.0 Safari/537.36","WebKit","Chrome","124.0.0.0","Windows","11.0","https://app.prolific.com/","en,en-US","67df2438f087a74ea30f779b","686d226cabeef709c732f8e1","686e3115042ef17299987012","67df2438f087a74ea30f779b","2025-07-09T09:31:39.546Z","","","","","","AttribQ","","","","","","","","","","","","","","","","","","","","","","","","","","","","","","","","","","","","","","50",""
"6903","","<div style=""width:500px;"">
  <p>How much control did you have over the ball?</p>
  </div>","53","html-slider-response","48","1453661","0.0-10.0-2.1","73","1","2025-07-09 09:07:27","7701e855f2ef39aa3fd6c71abdc6918a","113.20.53.151","Mozilla/5.0 (Windows NT 11.0; Win64; x64) AppleWebKit/537.36 (KHTML, like Gecko) Chrome/124.0.0.0 Safari/537.36","WebKit","Chrome","124.0.0.0","Windows","11.0","https://app.prolific.com/","en,en-US","67df2438f087a74ea30f779b","686d226cabeef709c732f8e1","686e3115042ef17299987012","67df2438f087a74ea30f779b","2025-07-09T09:31:46.450Z","","","","","","ControlQ","","","","","","","","","","","","","","","","","","","","","","","","","","","","","","","","","","","","","","50",""
"3647","","<div style=""width:500px;"">
  <p>How would you describe your current emotional state?</p>
  </div>","58","html-slider-response","49","1457309","0.0-10.0-3.1","73","1","2025-07-09 09:07:27","7701e855f2ef39aa3fd6c71abdc6918a","113.20.53.151","Mozilla/5.0 (Windows NT 11.0; Win64; x64) AppleWebKit/537.36 (KHTML, like Gecko) Chrome/124.0.0.0 Safari/537.36","WebKit","Chrome","124.0.0.0","Windows","11.0","https://app.prolific.com/","en,en-US","67df2438f087a74ea30f779b","686d226cabeef709c732f8e1","686e3115042ef17299987012","67df2438f087a74ea30f779b","2025-07-09T09:31:50.098Z","","","","","","StressQ","","","","","","","","","","","","","","","","","","","","","","","","","","","","","","","","","","","","","","50",""
"2151","","<div style=""width:500px;"">
  <p>What best describes how you currently feel?</p>
  </div>","39","html-slider-response","50","1459461","0.0-10.0-4.1","73","1","2025-07-09 09:07:27","7701e855f2ef39aa3fd6c71abdc6918a","113.20.53.151","Mozilla/5.0 (Windows NT 11.0; Win64; x64) AppleWebKit/537.36 (KHTML, like Gecko) Chrome/124.0.0.0 Safari/537.36","WebKit","Chrome","124.0.0.0","Windows","11.0","https://app.prolific.com/","en,en-US","67df2438f087a74ea30f779b","686d226cabeef709c732f8e1","686e3115042ef17299987012","67df2438f087a74ea30f779b","2025-07-09T09:31:52.250Z","","","","","","MotivationQ","","","","","","","","","","","","","","","","","","","","","","","","","","","","","","","","","","","","","","50",""
"","","","","ctl-task-cpt","51","1489717","0.0-10.0-0.2","73","1","2025-07-09 09:07:27","7701e855f2ef39aa3fd6c71abdc6918a","113.20.53.151","Mozilla/5.0 (Windows NT 11.0; Win64; x64) AppleWebKit/537.36 (KHTML, like Gecko) Chrome/124.0.0.0 Safari/537.36","WebKit","Chrome","124.0.0.0","Windows","11.0","https://app.prolific.com/","en,en-US","67df2438f087a74ea30f779b","686d226cabeef709c732f8e1","686e3115042ef17299987012","67df2438f087a74ea30f779b","2025-07-09T09:32:22.506Z","","","","","","","","","","","","","","","","win-only","2","g1:SE,g2:NW","0.8","3","0","1465656","2871.1","7878.7","27252.1","1","4","8","6","2","8","8","19","11","0.14393939393939395","1297.1","3000","1400","[""left"",""up""]","{""num_key_presses"":6,""num_perfect"":4,""num_errors"":0,""num_randdir"":2,""num_randdir_good_moves"":2,""num_whilered"":0,""num_whileblue"":0,""num_blue"":1,""num_good_moves"":6}","[557.4285714285714,547.3348214285714,0.1,557.4285714285714,547.3348214285714,107,557.4285714285714,547.3348214285714,221.9,557.4285714285714,547.3348214285714,322.2,557.4285714285714,547.3348214285714,422.4,563.4285714285714,565.3348214285714,532.5,565.4285714285714,573.3348214285714,634.4,541.4285714285714,563.3348214285714,739.7,351.42857142857144,420.33482142857144,846.5,237.42857142857144,312.33482142857144,948,173.42857142857144,247.33482142857144,1056.6,143.42857142857144,167.33482142857144,1156.9,106.42857142857143,108.33482142857143,1264,106.42857142857143,108.33482142857143,1364.6,106.42857142857143,108.33482142857143,1472.6,106.42857142857143,108.33482142857143,1574.7,106.42857142857143,108.33482142857143,1674.9,106.42857142857143,108.33482142857143,1775.6,106.42857142857143,108.33482142857143,1884.6,106.42857142857143,108.33482142857143,2002.7,106.42857142857143,109.33482142857143,2103.4,127.42857142857143,134.33482142857144,2205.9,145.42857142857144,159.33482142857144,2314.9,153.42857142857144,171.33482142857144,2422.6,162.42857142857144,187.33482142857144,2523.1,162.42857142857144,189.33482142857144,2623.4,163.42857142857144,192.33482142857144,2725,163.42857142857144,192.33482142857144,2834,163.42857142857144,192.33482142857144,2936.9,163.42857142857144,192.33482142857144,3040.6,163.42857142857144,192.33482142857144,3140.8,163.42857142857144,192.33482142857144,3241.5,163.42857142857144,192.33482142857144,3350.1,163.42857142857144,192.33482142857144,3456.3,163.42857142857144,192.33482142857144,3556.6,163.42857142857144,192.33482142857144,3658.2,163.42857142857144,192.33482142857144,3765.7,163.42857142857144,192.33482142857144,3867.5,163.42857142857144,192.33482142857144,3975.1,163.42857142857144,192.33482142857144,4079.6,163.42857142857144,192.33482142857144,4190.5,163.42857142857144,192.33482142857144,4291.6,163.42857142857144,192.33482142857144,4396.6,163.42857142857144,192.33482142857144,4497.6,163.42857142857144,192.33482142857144,4600.5,163.42857142857144,192.33482142857144,4707.1,163.42857142857144,192.33482142857144,4809.2,163.42857142857144,192.33482142857144,4915]","[1545.6,1545.6,1000,0,545.6,""smooth"",""up"",""up"",""good_move"",7784.3,6238.3,2287.3,5075.8,421.2,""oops"",""up"",""left"",""good_move"",10583.6,2798.8,2033.3,7784.8,765.5,""smooth"",""up"",""up"",""good_move"",12968.7,2384.9,1761.5,10583.8,623.4,""oops"",""up"",""up"",""good_move"",15719.9,2750.9,2328.3,12969,422.6,""smooth"",""left"",""left"",""good_move"",19241.1,3521.1,3139.8,15720,381.3,""smooth"",""left"",""left"",""good_move""]","","",""
"2910","","<div style=""width:500px;"">
  <p>What determined the result of this run?</p>
  </div>","100","html-slider-response","52","1492628","0.0-10.0-1.2","73","1","2025-07-09 09:07:27","7701e855f2ef39aa3fd6c71abdc6918a","113.20.53.151","Mozilla/5.0 (Windows NT 11.0; Win64; x64) AppleWebKit/537.36 (KHTML, like Gecko) Chrome/124.0.0.0 Safari/537.36","WebKit","Chrome","124.0.0.0","Windows","11.0","https://app.prolific.com/","en,en-US","67df2438f087a74ea30f779b","686d226cabeef709c732f8e1","686e3115042ef17299987012","67df2438f087a74ea30f779b","2025-07-09T09:32:25.417Z","","","","","","AttribQ","","","","","","","","","","","","","","","","","","","","","","","","","","","","","","","","","","","","","","50",""
"5643","","<div style=""width:500px;"">
  <p>How much control did you have over the ball?</p>
  </div>","100","html-slider-response","53","1498272","0.0-10.0-2.2","73","1","2025-07-09 09:07:27","7701e855f2ef39aa3fd6c71abdc6918a","113.20.53.151","Mozilla/5.0 (Windows NT 11.0; Win64; x64) AppleWebKit/537.36 (KHTML, like Gecko) Chrome/124.0.0.0 Safari/537.36","WebKit","Chrome","124.0.0.0","Windows","11.0","https://app.prolific.com/","en,en-US","67df2438f087a74ea30f779b","686d226cabeef709c732f8e1","686e3115042ef17299987012","67df2438f087a74ea30f779b","2025-07-09T09:32:31.061Z","","","","","","ControlQ","","","","","","","","","","","","","","","","","","","","","","","","","","","","","","","","","","","","","","50",""
"3672","","<div style=""width:500px;"">
  <p>How would you describe your current emotional state?</p>
  </div>","0","html-slider-response","54","1501945","0.0-10.0-3.2","73","1","2025-07-09 09:07:27","7701e855f2ef39aa3fd6c71abdc6918a","113.20.53.151","Mozilla/5.0 (Windows NT 11.0; Win64; x64) AppleWebKit/537.36 (KHTML, like Gecko) Chrome/124.0.0.0 Safari/537.36","WebKit","Chrome","124.0.0.0","Windows","11.0","https://app.prolific.com/","en,en-US","67df2438f087a74ea30f779b","686d226cabeef709c732f8e1","686e3115042ef17299987012","67df2438f087a74ea30f779b","2025-07-09T09:32:34.734Z","","","","","","StressQ","","","","","","","","","","","","","","","","","","","","","","","","","","","","","","","","","","","","","","50",""
"3864","","<div style=""width:500px;"">
  <p>What best describes how you currently feel?</p>
  </div>","100","html-slider-response","55","1505812","0.0-10.0-4.2","73","1","2025-07-09 09:07:27","7701e855f2ef39aa3fd6c71abdc6918a","113.20.53.151","Mozilla/5.0 (Windows NT 11.0; Win64; x64) AppleWebKit/537.36 (KHTML, like Gecko) Chrome/124.0.0.0 Safari/537.36","WebKit","Chrome","124.0.0.0","Windows","11.0","https://app.prolific.com/","en,en-US","67df2438f087a74ea30f779b","686d226cabeef709c732f8e1","686e3115042ef17299987012","67df2438f087a74ea30f779b","2025-07-09T09:32:38.601Z","","","","","","MotivationQ","","","","","","","","","","","","","","","","","","","","","","","","","","","","","","","","","","","","","","50",""
"","","","","ctl-task-cpt","56","1551404","0.0-10.0-0.3","73","1","2025-07-09 09:07:27","7701e855f2ef39aa3fd6c71abdc6918a","113.20.53.151","Mozilla/5.0 (Windows NT 11.0; Win64; x64) AppleWebKit/537.36 (KHTML, like Gecko) Chrome/124.0.0.0 Safari/537.36","WebKit","Chrome","124.0.0.0","Windows","11.0","https://app.prolific.com/","en,en-US","67df2438f087a74ea30f779b","686d226cabeef709c732f8e1","686e3115042ef17299987012","67df2438f087a74ea30f779b","2025-07-09T09:33:24.193Z","","","","","","","","","","","","","","","","win-only","3","g1:SW,g2:NE","0.7","4","0","1512007.6","7447.4","12459.3","42580.6","1","4","4","6","2","4","3","22","19","0.16666666666666666","2307.9","3000","1165","[""up"",""right""]","{""num_key_presses"":8,""num_perfect"":6,""num_errors"":1,""num_randdir"":1,""num_randdir_good_moves"":1,""num_whilered"":0,""num_whileblue"":1,""num_blue"":3,""num_good_moves"":7}","[557.4285714285714,560.3348214285714,0.3,557.4285714285714,560.3348214285714,112.9,557.4285714285714,560.3348214285714,222.8,557.4285714285714,560.3348214285714,330.6,557.4285714285714,560.3348214285714,436.4,557.4285714285714,560.3348214285714,540,535.4285714285714,598.3348214285714,640,257.42857142857144,779.3348214285714,745.5,186.42857142857144,944.3348214285714,848.1,69.42857142857143,1048.3348214285713,951.8,54.42857142857143,1073.3348214285713,1054,65.42857142857143,1067.3348214285713,1161.7,67.42857142857143,1057.3348214285713,1263.1,67.42857142857143,1057.3348214285713,1372,363.42857142857144,810.3348214285714,1474.1,653.4285714285714,524.3348214285714,1581,736.4285714285714,409.33482142857144,1681.7,807.4285714285714,303.33482142857144,1785.9,875.4285714285714,221.33482142857144,1891.8,908.4285714285714,167.33482142857144,1996.7,921.4285714285714,142.33482142857144,2097,937.4285714285714,131.33482142857144,2203.8,952.4285714285714,126.33482142857143,2310.1,952.4285714285714,126.33482142857143,2427,952.4285714285714,126.33482142857143,2530.5,950.4285714285714,131.33482142857144,2640.8,934.4285714285714,167.33482142857144,2745,834.4285714285714,319.33482142857144,2847.8,731.4285714285714,491.33482142857144,2955,671.4285714285714,569.3348214285714,3056.2,619.4285714285714,597.3348214285714,3159.6,612.4285714285714,597.3348214285714,3265.1,604.4285714285714,598.3348214285714,3365.7,604.4285714285714,598.3348214285714,3473.8,604.4285714285714,598.3348214285714,3575.1,604.4285714285714,598.3348214285714,3676.3,599.4285714285714,595.3348214285714,3784.8,599.4285714285714,595.3348214285714,3888.2,593.4285714285714,592.3348214285714,3995.6,593.4285714285714,592.3348214285714,4096.1,593.4285714285714,592.3348214285714,4197.3,593.4285714285714,592.3348214285714,4307.5,593.4285714285714,592.3348214285714,4414.8,593.4285714285714,592.3348214285714,4529.1,593.4285714285714,592.3348214285714,4630.8,593.4285714285714,592.3348214285714,4731,593.4285714285714,592.3348214285714,4833.4,593.4285714285714,592.3348214285714,4936.9]","[4164.3,4164.3,1687.2,2003.3,473.8,""smooth"",""up"",""up"",""good_move"",7814.7,3650.3,3273.8,4164.4,376.5,""smooth"",""up"",""up"",""good_move"",10485.8,2670.9,2244.4,7814.9,426.5,""while_blue"",""up"",""down"",""bad_move"",13494.3,3008.3,2410.4,10486.1,597.9,""smooth"",""up"",""up"",""good_move"",17283.7,3788.9,3152.1,13494.8,636.8,""smooth"",""up"",""up"",""good_move"",23484.6,6200.7,2779.9,20295.6,409.1,""oops"",""right"",""right"",""good_move"",26773.9,3288.8,2794.5,23485.1,494.3,""smooth"",""right"",""right"",""good_move"",29987.8,3213.7,2754.6,26774.1,459.2,""smooth"",""right"",""right"",""good_move""]","","",""
"4982","","<div style=""width:500px;"">
  <p>What determined the result of this run?</p>
  </div>","8","html-slider-response","57","1556388","0.0-10.0-1.3","73","1","2025-07-09 09:07:27","7701e855f2ef39aa3fd6c71abdc6918a","113.20.53.151","Mozilla/5.0 (Windows NT 11.0; Win64; x64) AppleWebKit/537.36 (KHTML, like Gecko) Chrome/124.0.0.0 Safari/537.36","WebKit","Chrome","124.0.0.0","Windows","11.0","https://app.prolific.com/","en,en-US","67df2438f087a74ea30f779b","686d226cabeef709c732f8e1","686e3115042ef17299987012","67df2438f087a74ea30f779b","2025-07-09T09:33:29.177Z","","","","","","AttribQ","","","","","","","","","","","","","","","","","","","","","","","","","","","","","","","","","","","","","","50",""
"3714","","<div style=""width:500px;"">
  <p>How much control did you have over the ball?</p>
  </div>","57","html-slider-response","58","1560103","0.0-10.0-2.3","73","1","2025-07-09 09:07:27","7701e855f2ef39aa3fd6c71abdc6918a","113.20.53.151","Mozilla/5.0 (Windows NT 11.0; Win64; x64) AppleWebKit/537.36 (KHTML, like Gecko) Chrome/124.0.0.0 Safari/537.36","WebKit","Chrome","124.0.0.0","Windows","11.0","https://app.prolific.com/","en,en-US","67df2438f087a74ea30f779b","686d226cabeef709c732f8e1","686e3115042ef17299987012","67df2438f087a74ea30f779b","2025-07-09T09:33:32.892Z","","","","","","ControlQ","","","","","","","","","","","","","","","","","","","","","","","","","","","","","","","","","","","","","","50",""
"3048","","<div style=""width:500px;"">
  <p>How would you describe your current emotional state?</p>
  </div>","55","html-slider-response","59","1563153","0.0-10.0-3.3","73","1","2025-07-09 09:07:27","7701e855f2ef39aa3fd6c71abdc6918a","113.20.53.151","Mozilla/5.0 (Windows NT 11.0; Win64; x64) AppleWebKit/537.36 (KHTML, like Gecko) Chrome/124.0.0.0 Safari/537.36","WebKit","Chrome","124.0.0.0","Windows","11.0","https://app.prolific.com/","en,en-US","67df2438f087a74ea30f779b","686d226cabeef709c732f8e1","686e3115042ef17299987012","67df2438f087a74ea30f779b","2025-07-09T09:33:35.942Z","","","","","","StressQ","","","","","","","","","","","","","","","","","","","","","","","","","","","","","","","","","","","","","","50",""
"3440","","<div style=""width:500px;"">
  <p>What best describes how you currently feel?</p>
  </div>","60","html-slider-response","60","1566597","0.0-10.0-4.3","73","1","2025-07-09 09:07:27","7701e855f2ef39aa3fd6c71abdc6918a","113.20.53.151","Mozilla/5.0 (Windows NT 11.0; Win64; x64) AppleWebKit/537.36 (KHTML, like Gecko) Chrome/124.0.0.0 Safari/537.36","WebKit","Chrome","124.0.0.0","Windows","11.0","https://app.prolific.com/","en,en-US","67df2438f087a74ea30f779b","686d226cabeef709c732f8e1","686e3115042ef17299987012","67df2438f087a74ea30f779b","2025-07-09T09:33:39.386Z","","","","","","MotivationQ","","","","","","","","","","","","","","","","","","","","","","","","","","","","","","","","","","","","","","50",""
"","","","","ctl-task-cpt","61","1604021","0.0-10.0-0.4","73","1","2025-07-09 09:07:27","7701e855f2ef39aa3fd6c71abdc6918a","113.20.53.151","Mozilla/5.0 (Windows NT 11.0; Win64; x64) AppleWebKit/537.36 (KHTML, like Gecko) Chrome/124.0.0.0 Safari/537.36","WebKit","Chrome","124.0.0.0","Windows","11.0","https://app.prolific.com/","en,en-US","67df2438f087a74ea30f779b","686d226cabeef709c732f8e1","686e3115042ef17299987012","67df2438f087a74ea30f779b","2025-07-09T09:34:16.810Z","","","","","","","","","","","","","","","","win-only","0","g1:NW,g2:SE","0.6","5","0","1572792.6","3735.6","8745.3","34421.6","1","4","4","6","2","4","4","26","22","0.19696969696969696","1103.6","3000","875","[""down"",""right""]","{""num_key_presses"":6,""num_perfect"":4,""num_errors"":0,""num_randdir"":2,""num_randdir_good_moves"":2,""num_whilered"":0,""num_whileblue"":0,""num_blue"":2,""num_good_moves"":6}","[552.4285714285714,553.3348214285714,0.1,552.4285714285714,553.3348214285714,109.6,552.4285714285714,553.3348214285714,219.7,552.4285714285714,553.3348214285714,325.3,552.4285714285714,553.3348214285714,440.9,541.4285714285714,581.3348214285714,548.5,828.4285714285714,719.3348214285714,651.4,966.4285714285714,885.3348214285714,755.7,1011.4285714285714,937.3348214285714,861.9,996.4285714285714,961.3348214285714,972.5,1001.4285714285714,980.3348214285714,1076.7,1001.4285714285714,980.3348214285714,1185,1001.4285714285714,980.3348214285714,1292.9,1001.4285714285714,980.3348214285714,1408.3,1001.4285714285714,980.3348214285714,1510.5,885.4285714285714,960.3348214285714,1611.1,803.4285714285714,931.3348214285714,1722,775.4285714285714,914.3348214285714,1826.7,775.4285714285714,914.3348214285714,1927,775.4285714285714,914.3348214285714,2027,775.4285714285714,914.3348214285714,2127,775.4285714285714,914.3348214285714,2240.8,775.4285714285714,914.3348214285714,2352.7,775.4285714285714,914.3348214285714,2458.6,775.4285714285714,914.3348214285714,2560,763.4285714285714,904.3348214285714,2665.7,734.4285714285714,884.3348214285714,2776.9,710.4285714285714,864.3348214285714,2888.9,684.4285714285714,846.3348214285714,3001.7,664.4285714285714,832.3348214285714,3105.8,640.4285714285714,815.3348214285714,3206.9,625.4285714285714,800.3348214285714,3313.2,604.4285714285714,780.3348214285714,3417,554.4285714285714,740.3348214285714,3522.2,531.4285714285714,716.3348214285714,3625.1,514.4285714285714,701.3348214285714,3725.1,510.42857142857144,695.3348214285714,3828.5,510.42857142857144,695.3348214285714,3934.7,510.42857142857144,695.3348214285714,4041.3,510.42857142857144,695.3348214285714,4143.8,510.42857142857144,695.3348214285714,4244.3,510.42857142857144,695.3348214285714,4346,510.42857142857144,695.3348214285714,4459,509.42857142857144,694.3348214285714,4569.3,509.42857142857144,694.3348214285714,4678.4,509.42857142857144,694.3348214285714,4779.1,509.42857142857144,694.3348214285714,4883.1,509.42857142857144,694.3348214285714,4990]","[1609.6,1609.6,1000,0,609.6,""smooth"",""down"",""down"",""good_move"",7862,6252.3,2151.4,5263.5,447.2,""smooth"",""down"",""down"",""good_move"",11317,3454.4,3001.2,7862.7,453.2,""oops"",""down"",""right"",""good_move"",15190.2,3873,3088.7,11317.3,784.2,""oops"",""down"",""right"",""good_move"",22308.7,7118.4,3158.7,18472.1,677.9,""smooth"",""down"",""down"",""good_move"",25526.4,3217.4,2270.2,22309,947.2,""smooth"",""right"",""right"",""good_move""]","","",""
"3967","","<div style=""width:500px;"">
  <p>What determined the result of this run?</p>
  </div>","6","html-slider-response","62","1607988","0.0-10.0-1.4","73","1","2025-07-09 09:07:27","7701e855f2ef39aa3fd6c71abdc6918a","113.20.53.151","Mozilla/5.0 (Windows NT 11.0; Win64; x64) AppleWebKit/537.36 (KHTML, like Gecko) Chrome/124.0.0.0 Safari/537.36","WebKit","Chrome","124.0.0.0","Windows","11.0","https://app.prolific.com/","en,en-US","67df2438f087a74ea30f779b","686d226cabeef709c732f8e1","686e3115042ef17299987012","67df2438f087a74ea30f779b","2025-07-09T09:34:20.777Z","","","","","","AttribQ","","","","","","","","","","","","","","","","","","","","","","","","","","","","","","","","","","","","","","50",""
"3762","","<div style=""width:500px;"">
  <p>How much control did you have over the ball?</p>
  </div>","62","html-slider-response","63","1611751","0.0-10.0-2.4","73","1","2025-07-09 09:07:27","7701e855f2ef39aa3fd6c71abdc6918a","113.20.53.151","Mozilla/5.0 (Windows NT 11.0; Win64; x64) AppleWebKit/537.36 (KHTML, like Gecko) Chrome/124.0.0.0 Safari/537.36","WebKit","Chrome","124.0.0.0","Windows","11.0","https://app.prolific.com/","en,en-US","67df2438f087a74ea30f779b","686d226cabeef709c732f8e1","686e3115042ef17299987012","67df2438f087a74ea30f779b","2025-07-09T09:34:24.540Z","","","","","","ControlQ","","","","","","","","","","","","","","","","","","","","","","","","","","","","","","","","","","","","","","50",""
"2541","","<div style=""width:500px;"">
  <p>How would you describe your current emotional state?</p>
  </div>","76","html-slider-response","64","1614292","0.0-10.0-3.4","73","1","2025-07-09 09:07:27","7701e855f2ef39aa3fd6c71abdc6918a","113.20.53.151","Mozilla/5.0 (Windows NT 11.0; Win64; x64) AppleWebKit/537.36 (KHTML, like Gecko) Chrome/124.0.0.0 Safari/537.36","WebKit","Chrome","124.0.0.0","Windows","11.0","https://app.prolific.com/","en,en-US","67df2438f087a74ea30f779b","686d226cabeef709c732f8e1","686e3115042ef17299987012","67df2438f087a74ea30f779b","2025-07-09T09:34:27.081Z","","","","","","StressQ","","","","","","","","","","","","","","","","","","","","","","","","","","","","","","","","","","","","","","50",""
"1935","","<div style=""width:500px;"">
  <p>What best describes how you currently feel?</p>
  </div>","32","html-slider-response","65","1616228","0.0-10.0-4.4","73","1","2025-07-09 09:07:27","7701e855f2ef39aa3fd6c71abdc6918a","113.20.53.151","Mozilla/5.0 (Windows NT 11.0; Win64; x64) AppleWebKit/537.36 (KHTML, like Gecko) Chrome/124.0.0.0 Safari/537.36","WebKit","Chrome","124.0.0.0","Windows","11.0","https://app.prolific.com/","en,en-US","67df2438f087a74ea30f779b","686d226cabeef709c732f8e1","686e3115042ef17299987012","67df2438f087a74ea30f779b","2025-07-09T09:34:29.017Z","","","","","","MotivationQ","","","","","","","","","","","","","","","","","","","","","","","","","","","","","","","","","","","","","","50",""
"","","","","ctl-task-cpt","66","1660080","0.0-10.0-0.5","73","1","2025-07-09 09:07:27","7701e855f2ef39aa3fd6c71abdc6918a","113.20.53.151","Mozilla/5.0 (Windows NT 11.0; Win64; x64) AppleWebKit/537.36 (KHTML, like Gecko) Chrome/124.0.0.0 Safari/537.36","WebKit","Chrome","124.0.0.0","Windows","11.0","https://app.prolific.com/","en,en-US","67df2438f087a74ea30f779b","686d226cabeef709c732f8e1","686e3115042ef17299987012","67df2438f087a74ea30f779b","2025-07-09T09:35:12.869Z","","","","","","","","","","","","","","","","win-only","0","g1:NW,g2:SE","0.5","6","0","1622423.8","4359.1","9362.1","40843.2","1","4","8","6","2","8","8","34","26","0.25757575757575757","1031.8","3000","460","[""down"",""right""]","{""num_key_presses"":8,""num_perfect"":4,""num_errors"":0,""num_randdir"":4,""num_randdir_good_moves"":3,""num_whilered"":0,""num_whileblue"":0,""num_blue"":2,""num_good_moves"":7}","[544.4285714285714,567.3348214285714,0.2,544.4285714285714,567.3348214285714,109.2,544.4285714285714,567.3348214285714,214.2,544.4285714285714,567.3348214285714,315.2,535.4285714285714,568.3348214285714,422,534.4285714285714,588.3348214285714,530.6,904.4285714285714,792.3348214285714,636,980.4285714285714,895.3348214285714,736.8,1049.4285714285713,954.3348214285714,843.4,1050.4285714285713,982.3348214285714,950.9,1048.4285714285713,992.3348214285714,1051.4,1048.4285714285713,992.3348214285714,1151.9,1048.4285714285713,992.3348214285714,1255.4,1048.4285714285713,992.3348214285714,1371,1045.4285714285713,992.3348214285714,1471.8,1019.4285714285714,987.3348214285714,1579.8,978.4285714285714,983.3348214285714,1690.9,953.4285714285714,977.3348214285714,1794.6,953.4285714285714,977.3348214285714,1896.2,950.4285714285714,977.3348214285714,2001.7,946.4285714285714,982.3348214285714,2109.4,946.4285714285714,982.3348214285714,2218.7,946.4285714285714,982.3348214285714,2328.1,942.4285714285714,982.3348214285714,2434.5,938.4285714285714,976.3348214285714,2541.4,938.4285714285714,976.3348214285714,2653.4,936.4285714285714,973.3348214285714,2756,934.4285714285714,968.3348214285714,2861.6,933.4285714285714,959.3348214285714,2967.7,933.4285714285714,954.3348214285714,3073.2,933.4285714285714,954.3348214285714,3189.2,933.4285714285714,954.3348214285714,3289.3,933.4285714285714,954.3348214285714,3402,933.4285714285714,954.3348214285714,3520,933.4285714285714,954.3348214285714,3633.6,933.4285714285714,954.3348214285714,3742.3,933.4285714285714,954.3348214285714,3850.8,933.4285714285714,954.3348214285714,3956.4,933.4285714285714,954.3348214285714,4072.3,933.4285714285714,954.3348214285714,4173.9,933.4285714285714,954.3348214285714,4274.4,933.4285714285714,954.3348214285714,4377,933.4285714285714,954.3348214285714,4489,933.4285714285714,954.3348214285714,4606.5,933.4285714285714,954.3348214285714,4712,933.4285714285714,954.3348214285714,4813.4,933.4285714285714,954.3348214285714,4927.8]","[1854.5,1854.5,1000,0,854.5,""smooth"",""down"",""down"",""good_move"",9069.1,7214.3,2841.6,5755.3,472.2,""oops"",""down"",""down"",""good_move"",11999,2929.7,2404.5,9069.3,525.2,""oops"",""down"",""down"",""good_move"",14876.6,2877.4,2086.5,11999.2,790.9,""smooth"",""right"",""right"",""good_move"",17853,2976.2,2539.5,14876.8,436.7,""oops"",""right"",""right"",""good_move"",24766.7,6913.5,2514.3,21751,501.4,""oops"",""right"",""up"",""bad_move"",27920,3152.9,2484.3,24767.1,668.6,""smooth"",""down"",""down"",""good_move"",31308.7,3387.9,2758.4,27920.9,629.5,""smooth"",""right"",""right"",""good_move""]","","",""
"5041","","<div style=""width:500px;"">
  <p>What determined the result of this run?</p>
  </div>","100","html-slider-response","67","1665124","0.0-10.0-1.5","73","1","2025-07-09 09:07:27","7701e855f2ef39aa3fd6c71abdc6918a","113.20.53.151","Mozilla/5.0 (Windows NT 11.0; Win64; x64) AppleWebKit/537.36 (KHTML, like Gecko) Chrome/124.0.0.0 Safari/537.36","WebKit","Chrome","124.0.0.0","Windows","11.0","https://app.prolific.com/","en,en-US","67df2438f087a74ea30f779b","686d226cabeef709c732f8e1","686e3115042ef17299987012","67df2438f087a74ea30f779b","2025-07-09T09:35:17.913Z","","","","","","AttribQ","","","","","","","","","","","","","","","","","","","","","","","","","","","","","","","","","","","","","","50",""
"2879","","<div style=""width:500px;"">
  <p>How much control did you have over the ball?</p>
  </div>","100","html-slider-response","68","1668004","0.0-10.0-2.5","73","1","2025-07-09 09:07:27","7701e855f2ef39aa3fd6c71abdc6918a","113.20.53.151","Mozilla/5.0 (Windows NT 11.0; Win64; x64) AppleWebKit/537.36 (KHTML, like Gecko) Chrome/124.0.0.0 Safari/537.36","WebKit","Chrome","124.0.0.0","Windows","11.0","https://app.prolific.com/","en,en-US","67df2438f087a74ea30f779b","686d226cabeef709c732f8e1","686e3115042ef17299987012","67df2438f087a74ea30f779b","2025-07-09T09:35:20.793Z","","","","","","ControlQ","","","","","","","","","","","","","","","","","","","","","","","","","","","","","","","","","","","","","","50",""
"4264","","<div style=""width:500px;"">
  <p>How would you describe your current emotional state?</p>
  </div>","2","html-slider-response","69","1672269","0.0-10.0-3.5","73","1","2025-07-09 09:07:27","7701e855f2ef39aa3fd6c71abdc6918a","113.20.53.151","Mozilla/5.0 (Windows NT 11.0; Win64; x64) AppleWebKit/537.36 (KHTML, like Gecko) Chrome/124.0.0.0 Safari/537.36","WebKit","Chrome","124.0.0.0","Windows","11.0","https://app.prolific.com/","en,en-US","67df2438f087a74ea30f779b","686d226cabeef709c732f8e1","686e3115042ef17299987012","67df2438f087a74ea30f779b","2025-07-09T09:35:25.058Z","","","","","","StressQ","","","","","","","","","","","","","","","","","","","","","","","","","","","","","","","","","","","","","","50",""
"2607","","<div style=""width:500px;"">
  <p>What best describes how you currently feel?</p>
  </div>","100","html-slider-response","70","1674880","0.0-10.0-4.5","73","1","2025-07-09 09:07:27","7701e855f2ef39aa3fd6c71abdc6918a","113.20.53.151","Mozilla/5.0 (Windows NT 11.0; Win64; x64) AppleWebKit/537.36 (KHTML, like Gecko) Chrome/124.0.0.0 Safari/537.36","WebKit","Chrome","124.0.0.0","Windows","11.0","https://app.prolific.com/","en,en-US","67df2438f087a74ea30f779b","686d226cabeef709c732f8e1","686e3115042ef17299987012","67df2438f087a74ea30f779b","2025-07-09T09:35:27.669Z","","","","","","MotivationQ","","","","","","","","","","","","","","","","","","","","","","","","","","","","","","","","","","","","","","50",""
"","","","","ctl-task-cpt","71","1720241","0.0-10.0-0.6","73","1","2025-07-09 09:07:27","7701e855f2ef39aa3fd6c71abdc6918a","113.20.53.151","Mozilla/5.0 (Windows NT 11.0; Win64; x64) AppleWebKit/537.36 (KHTML, like Gecko) Chrome/124.0.0.0 Safari/537.36","WebKit","Chrome","124.0.0.0","Windows","11.0","https://app.prolific.com/","en,en-US","67df2438f087a74ea30f779b","686d226cabeef709c732f8e1","686e3115042ef17299987012","67df2438f087a74ea30f779b","2025-07-09T09:36:13.030Z","","","","","","","","","","","","","","","","win-only","0","g1:NW,g2:SE","0.4","7","0","1681078.5","2520.5","7529.4","42351.6","1","4","4","6","2","-4","-4","30","34","0.22727272727272727","1105.7","3000","-1690","[""down"",""right""]","{""num_key_presses"":11,""num_perfect"":5,""num_errors"":0,""num_randdir"":6,""num_randdir_good_moves"":3,""num_whilered"":0,""num_whileblue"":0,""num_blue"":0,""num_good_moves"":8}","[554.4285714285714,554.3348214285714,0.1,554.4285714285714,554.3348214285714,104.7,554.4285714285714,554.3348214285714,207.1,554.4285714285714,554.3348214285714,308.4,555.4285714285714,564.3348214285714,408.8,602.4285714285714,635.3348214285714,525,843.4285714285714,761.3348214285714,628.6,922.4285714285714,876.3348214285714,733.7,972.4285714285714,925.3348214285714,839.4,972.4285714285714,934.3348214285714,950.8,982.4285714285714,960.3348214285714,1056.1,982.4285714285714,960.3348214285714,1164.2,982.4285714285714,960.3348214285714,1264.4,982.4285714285714,960.3348214285714,1380.4,982.4285714285714,960.3348214285714,1487.5,982.4285714285714,960.3348214285714,1598.2,929.4285714285714,956.3348214285714,1705.1,831.4285714285714,949.3348214285714,1808.9,779.4285714285714,938.3348214285714,1909.1,763.4285714285714,934.3348214285714,2010.4,744.4285714285714,927.3348214285714,2122.3,740.4285714285714,926.3348214285714,2226.6,735.4285714285714,925.3348214285714,2329.2,735.4285714285714,925.3348214285714,2430.4,735.4285714285714,925.3348214285714,2534.6,735.4285714285714,925.3348214285714,2638.1,735.4285714285714,925.3348214285714,2739.6,735.4285714285714,925.3348214285714,2841.5,735.4285714285714,925.3348214285714,2942.7,735.4285714285714,925.3348214285714,3055,735.4285714285714,925.3348214285714,3160.1,735.4285714285714,925.3348214285714,3260.8,735.4285714285714,925.3348214285714,3372.7,735.4285714285714,925.3348214285714,3483.1,735.4285714285714,925.3348214285714,3592.3,735.4285714285714,925.3348214285714,3692.7,735.4285714285714,925.3348214285714,3794.3,735.4285714285714,925.3348214285714,3910,735.4285714285714,925.3348214285714,4012.9,735.4285714285714,925.3348214285714,4120.7,735.4285714285714,925.3348214285714,4239.6,735.4285714285714,925.3348214285714,4343.4,735.4285714285714,925.3348214285714,4449.3,735.4285714285714,925.3348214285714,4549.3,735.4285714285714,925.3348214285714,4653.6,735.4285714285714,925.3348214285714,4756.2,735.4285714285714,925.3348214285714,4870.5,735.4285714285714,925.3348214285714,4973]","[1848,1848,1000,0,848,""smooth"",""down"",""down"",""good_move"",5336.2,3487.9,3010.7,1848.3,477.3,""smooth"",""right"",""right"",""good_move"",8377.2,3040.3,2567.3,5337,473,""oops"",""down"",""left"",""bad_move"",10777.2,2399.4,1939.7,8377.8,459.7,""oops"",""right"",""up"",""bad_move"",13351.3,2572.8,2061,10778.5,511.8,""smooth"",""down"",""down"",""good_move"",16728.4,3376.9,2954.1,13351.5,422.8,""smooth"",""down"",""down"",""good_move"",19894.9,3166.3,2663.1,16728.6,503.2,""oops"",""down"",""right"",""good_move"",22617.6,2722.4,2322.6,19895.2,399.8,""oops"",""right"",""left"",""bad_move"",26058.7,3440.8,2972.4,22617.9,468.4,""oops"",""down"",""down"",""good_move"",28697.5,2637.8,2054.5,26059.9,583.2,""oops"",""right"",""right"",""good_move"",32232.5,3534,3087.8,28698.5,446.2,""smooth"",""right"",""right"",""good_move""]","","",""
"6057","","<div style=""width:500px;"">
  <p>What determined the result of this run?</p>
  </div>","0","html-slider-response","72","1726301","0.0-10.0-1.6","73","1","2025-07-09 09:07:27","7701e855f2ef39aa3fd6c71abdc6918a","113.20.53.151","Mozilla/5.0 (Windows NT 11.0; Win64; x64) AppleWebKit/537.36 (KHTML, like Gecko) Chrome/124.0.0.0 Safari/537.36","WebKit","Chrome","124.0.0.0","Windows","11.0","https://app.prolific.com/","en,en-US","67df2438f087a74ea30f779b","686d226cabeef709c732f8e1","686e3115042ef17299987012","67df2438f087a74ea30f779b","2025-07-09T09:36:19.090Z","","","","","","AttribQ","","","","","","","","","","","","","","","","","","","","","","","","","","","","","","","","","","","","","","50",""
"5096","","<div style=""width:500px;"">
  <p>How much control did you have over the ball?</p>
  </div>","0","html-slider-response","73","1731399","0.0-10.0-2.6","73","1","2025-07-09 09:07:27","7701e855f2ef39aa3fd6c71abdc6918a","113.20.53.151","Mozilla/5.0 (Windows NT 11.0; Win64; x64) AppleWebKit/537.36 (KHTML, like Gecko) Chrome/124.0.0.0 Safari/537.36","WebKit","Chrome","124.0.0.0","Windows","11.0","https://app.prolific.com/","en,en-US","67df2438f087a74ea30f779b","686d226cabeef709c732f8e1","686e3115042ef17299987012","67df2438f087a74ea30f779b","2025-07-09T09:36:24.188Z","","","","","","ControlQ","","","","","","","","","","","","","","","","","","","","","","","","","","","","","","","","","","","","","","50",""
"6091","","<div style=""width:500px;"">
  <p>How would you describe your current emotional state?</p>
  </div>","100","html-slider-response","74","1737492","0.0-10.0-3.6","73","1","2025-07-09 09:07:27","7701e855f2ef39aa3fd6c71abdc6918a","113.20.53.151","Mozilla/5.0 (Windows NT 11.0; Win64; x64) AppleWebKit/537.36 (KHTML, like Gecko) Chrome/124.0.0.0 Safari/537.36","WebKit","Chrome","124.0.0.0","Windows","11.0","https://app.prolific.com/","en,en-US","67df2438f087a74ea30f779b","686d226cabeef709c732f8e1","686e3115042ef17299987012","67df2438f087a74ea30f779b","2025-07-09T09:36:30.281Z","","","","","","StressQ","","","","","","","","","","","","","","","","","","","","","","","","","","","","","","","","","","","","","","50",""
"3497","","<div style=""width:500px;"">
  <p>What best describes how you currently feel?</p>
  </div>","0","html-slider-response","75","1740990","0.0-10.0-4.6","73","1","2025-07-09 09:07:27","7701e855f2ef39aa3fd6c71abdc6918a","113.20.53.151","Mozilla/5.0 (Windows NT 11.0; Win64; x64) AppleWebKit/537.36 (KHTML, like Gecko) Chrome/124.0.0.0 Safari/537.36","WebKit","Chrome","124.0.0.0","Windows","11.0","https://app.prolific.com/","en,en-US","67df2438f087a74ea30f779b","686d226cabeef709c732f8e1","686e3115042ef17299987012","67df2438f087a74ea30f779b","2025-07-09T09:36:33.779Z","","","","","","MotivationQ","","","","","","","","","","","","","","","","","","","","","","","","","","","","","","","","","","","","","","50",""
"","","","","ctl-task-cpt","76","1786595","0.0-10.0-0.7","73","1","2025-07-09 09:07:27","7701e855f2ef39aa3fd6c71abdc6918a","113.20.53.151","Mozilla/5.0 (Windows NT 11.0; Win64; x64) AppleWebKit/537.36 (KHTML, like Gecko) Chrome/124.0.0.0 Safari/537.36","WebKit","Chrome","124.0.0.0","Windows","11.0","https://app.prolific.com/","en,en-US","67df2438f087a74ea30f779b","686d226cabeef709c732f8e1","686e3115042ef17299987012","67df2438f087a74ea30f779b","2025-07-09T09:37:19.384Z","","","","","","","","","","","","","","","","win-only","3","g1:SW,g2:NE","0.3","8","0","1747185.6","3329.5","8342.2","42601.4","1","4","8","6","2","8","8","38","30","0.2878787878787879","1373.9","3000","670","[""up"",""right""]","{""num_key_presses"":8,""num_perfect"":2,""num_errors"":0,""num_randdir"":6,""num_randdir_good_moves"":5,""num_whilered"":0,""num_whileblue"":0,""num_blue"":3,""num_good_moves"":7}","[551.4285714285714,558.3348214285714,0.6,551.4285714285714,558.3348214285714,105.4,551.4285714285714,558.3348214285714,215.5,551.4285714285714,558.3348214285714,319,551.4285714285714,558.3348214285714,427,631.4285714285714,520.3348214285714,544.2,679.4285714285714,491.33482142857144,652.8,808.4285714285714,377.33482142857144,762.5,879.4285714285714,267.33482142857144,872.3,864.4285714285714,282.33482142857144,977,956.4285714285714,214.33482142857144,1086.2,1018.4285714285714,146.33482142857144,1197.9,1017.4285714285714,127.33482142857143,1315.8,1017.4285714285714,127.33482142857143,1420.9,1017.4285714285714,127.33482142857143,1521.8,1017.4285714285714,127.33482142857143,1631.1,1017.4285714285714,127.33482142857143,1731.8,1010.4285714285714,141.33482142857144,1834.6,997.4285714285714,166.33482142857144,1950.8,978.4285714285714,200.33482142857144,2062,952.4285714285714,233.33482142857144,2165.8,941.4285714285714,268.33482142857144,2272.9,932.4285714285714,310.33482142857144,2375,924.4285714285714,326.33482142857144,2483.9,892.4285714285714,360.33482142857144,2599.3,844.4285714285714,383.33482142857144,2701.3,776.4285714285714,410.33482142857144,2803.7,719.4285714285714,422.33482142857144,2912.8,688.4285714285714,424.33482142857144,3016.6,667.4285714285714,425.33482142857144,3116.9,660.4285714285714,425.33482142857144,3222.9,660.4285714285714,425.33482142857144,3330.7,660.4285714285714,425.33482142857144,3432.8,660.4285714285714,425.33482142857144,3543.9,651.4285714285714,420.33482142857144,3645,640.4285714285714,421.33482142857144,3746.5,618.4285714285714,428.33482142857144,3850.8,610.4285714285714,432.33482142857144,3965.3,594.4285714285714,431.33482142857144,4071.1,581.4285714285714,428.33482142857144,4173.8,579.4285714285714,428.33482142857144,4279,576.4285714285714,428.33482142857144,4384.3,576.4285714285714,428.33482142857144,4494.7,576.4285714285714,428.33482142857144,4601.8,574.4285714285714,427.33482142857144,4715.6,574.4285714285714,427.33482142857144,4816.8,574.4285714285714,427.33482142857144,4923.3]","[1858.1,1858.1,1000,0,858.1,""oops"",""up"",""down"",""bad_move"",4734.6,2876.1,2337.4,1858.5,538.7,""oops"",""up"",""right"",""good_move"",7506.8,2772,2195.1,4734.8,576.9,""oops"",""up"",""right"",""good_move"",10752.4,3245.2,2761.8,7507.2,483.4,""smooth"",""up"",""up"",""good_move"",17297.2,6544.2,2771.6,14083.2,442.4,""smooth"",""up"",""up"",""good_move"",24177.9,6879.9,2767.1,21001,409.8,""oops"",""up"",""up"",""good_move"",26958.6,2780.3,2225.6,24178.3,554.7,""oops"",""up"",""right"",""good_move"",34094.8,7136.1,3069.4,30575.4,450,""oops"",""up"",""up"",""good_move""]","","",""
"10929","","<div style=""width:500px;"">
  <p>What determined the result of this run?</p>
  </div>","16","html-slider-response","77","1797525","0.0-10.0-1.7","73","1","2025-07-09 09:07:27","7701e855f2ef39aa3fd6c71abdc6918a","113.20.53.151","Mozilla/5.0 (Windows NT 11.0; Win64; x64) AppleWebKit/537.36 (KHTML, like Gecko) Chrome/124.0.0.0 Safari/537.36","WebKit","Chrome","124.0.0.0","Windows","11.0","https://app.prolific.com/","en,en-US","67df2438f087a74ea30f779b","686d226cabeef709c732f8e1","686e3115042ef17299987012","67df2438f087a74ea30f779b","2025-07-09T09:37:30.314Z","","","","","","AttribQ","","","","","","","","","","","","","","","","","","","","","","","","","","","","","","","","","","","","","","50",""
"4186","","<div style=""width:500px;"">
  <p>How much control did you have over the ball?</p>
  </div>","63","html-slider-response","78","1801711","0.0-10.0-2.7","73","1","2025-07-09 09:07:27","7701e855f2ef39aa3fd6c71abdc6918a","113.20.53.151","Mozilla/5.0 (Windows NT 11.0; Win64; x64) AppleWebKit/537.36 (KHTML, like Gecko) Chrome/124.0.0.0 Safari/537.36","WebKit","Chrome","124.0.0.0","Windows","11.0","https://app.prolific.com/","en,en-US","67df2438f087a74ea30f779b","686d226cabeef709c732f8e1","686e3115042ef17299987012","67df2438f087a74ea30f779b","2025-07-09T09:37:34.501Z","","","","","","ControlQ","","","","","","","","","","","","","","","","","","","","","","","","","","","","","","","","","","","","","","50",""
"2460","","<div style=""width:500px;"">
  <p>How would you describe your current emotional state?</p>
  </div>","32","html-slider-response","79","1804172","0.0-10.0-3.7","73","1","2025-07-09 09:07:27","7701e855f2ef39aa3fd6c71abdc6918a","113.20.53.151","Mozilla/5.0 (Windows NT 11.0; Win64; x64) AppleWebKit/537.36 (KHTML, like Gecko) Chrome/124.0.0.0 Safari/537.36","WebKit","Chrome","124.0.0.0","Windows","11.0","https://app.prolific.com/","en,en-US","67df2438f087a74ea30f779b","686d226cabeef709c732f8e1","686e3115042ef17299987012","67df2438f087a74ea30f779b","2025-07-09T09:37:36.961Z","","","","","","StressQ","","","","","","","","","","","","","","","","","","","","","","","","","","","","","","","","","","","","","","50",""
"2167","","<div style=""width:500px;"">
  <p>What best describes how you currently feel?</p>
  </div>","63","html-slider-response","80","1806340","0.0-10.0-4.7","73","1","2025-07-09 09:07:27","7701e855f2ef39aa3fd6c71abdc6918a","113.20.53.151","Mozilla/5.0 (Windows NT 11.0; Win64; x64) AppleWebKit/537.36 (KHTML, like Gecko) Chrome/124.0.0.0 Safari/537.36","WebKit","Chrome","124.0.0.0","Windows","11.0","https://app.prolific.com/","en,en-US","67df2438f087a74ea30f779b","686d226cabeef709c732f8e1","686e3115042ef17299987012","67df2438f087a74ea30f779b","2025-07-09T09:37:39.129Z","","","","","","MotivationQ","","","","","","","","","","","","","","","","","","","","","","","","","","","","","","","","","","","","","","50",""
"","","","","ctl-task-cpt","81","1848970","0.0-10.0-0.8","73","1","2025-07-09 09:07:27","7701e855f2ef39aa3fd6c71abdc6918a","113.20.53.151","Mozilla/5.0 (Windows NT 11.0; Win64; x64) AppleWebKit/537.36 (KHTML, like Gecko) Chrome/124.0.0.0 Safari/537.36","WebKit","Chrome","124.0.0.0","Windows","11.0","https://app.prolific.com/","en,en-US","67df2438f087a74ea30f779b","686d226cabeef709c732f8e1","686e3115042ef17299987012","67df2438f087a74ea30f779b","2025-07-09T09:38:21.760Z","","","","","","","","","","","","","","","","win-only","2","g1:SE,g2:NW","0.2","9","0","1812536.3","3234.3","8244.7","39621.7","1","4","8","6","2","-8","-8","30","38","0.22727272727272727","1212.9","3000","-1625","[""left"",""up""]","{""num_key_presses"":10,""num_perfect"":2,""num_errors"":0,""num_randdir"":8,""num_randdir_good_moves"":2,""num_whilered"":0,""num_whileblue"":0,""num_blue"":0,""num_good_moves"":4}","[563.4285714285714,559.3348214285714,0.2,563.4285714285714,559.3348214285714,111.9,563.4285714285714,559.3348214285714,217.8,562.4285714285714,560.3348214285714,339.6,590.4285714285714,607.3348214285714,444.7,618.4285714285714,630.3348214285714,549.2,617.4285714285714,636.3348214285714,650.8,485.42857142857144,532.3348214285714,760.4,195.42857142857144,283.33482142857144,863.5,111.42857142857143,171.33482142857144,975.7,102.42857142857143,158.33482142857144,1075.9,110.42857142857143,140.33482142857144,1178.3,110.42857142857143,140.33482142857144,1284,110.42857142857143,140.33482142857144,1386.9,110.42857142857143,140.33482142857144,1498,110.42857142857143,140.33482142857144,1599,110.42857142857143,140.33482142857144,1716.8,129.42857142857144,160.33482142857144,1824.2,165.42857142857144,174.33482142857144,1927.6,182.42857142857144,183.33482142857144,2030.8,210.42857142857144,206.33482142857144,2133.7,234.42857142857144,230.33482142857144,2233.7,253.42857142857144,258.33482142857144,2336.1,253.42857142857144,258.33482142857144,2443.5,253.42857142857144,258.33482142857144,2548.6,252.42857142857144,253.33482142857144,2667.9,251.42857142857144,253.33482142857144,2770.4,251.42857142857144,253.33482142857144,2881.9,241.42857142857144,254.33482142857144,2982.5,241.42857142857144,254.33482142857144,3082.9,241.42857142857144,254.33482142857144,3184,241.42857142857144,254.33482142857144,3285.8,241.42857142857144,254.33482142857144,3392.9,241.42857142857144,254.33482142857144,3495.6,241.42857142857144,254.33482142857144,3597.6,241.42857142857144,254.33482142857144,3700.1,241.42857142857144,254.33482142857144,3807.8,241.42857142857144,254.33482142857144,3911.3,241.42857142857144,254.33482142857144,4013.7,241.42857142857144,254.33482142857144,4116.7,241.42857142857144,254.33482142857144,4222.6,241.42857142857144,254.33482142857144,4330.1,241.42857142857144,254.33482142857144,4432.9,241.42857142857144,254.33482142857144,4533.6,241.42857142857144,254.33482142857144,4646.5,241.42857142857144,254.33482142857144,4760.9,241.42857142857144,254.33482142857144,4863.9,241.42857142857144,254.33482142857144,4968.6]","[1705.4,1705.4,1000,0,705.4,""oops"",""up"",""right"",""bad_move"",3643.7,1938.1,1318.4,1705.6,619.7,""oops"",""up"",""down"",""bad_move"",6234.2,2590.1,1966,3644.1,624.1,""oops"",""up"",""right"",""bad_move"",9624.3,3389.7,2888.9,6234.6,500.8,""oops"",""up"",""left"",""good_move"",12637.4,3012.7,2564.7,9624.7,448.1,""oops"",""left"",""right"",""bad_move"",15641.4,3003.7,2531.5,12637.8,472.1,""oops"",""down"",""up"",""good_move"",18571.1,2929.4,2519.5,15641.7,409.9,""oops"",""down"",""down"",""bad_move"",22124.4,3552.1,3065,18572.3,487.1,""smooth"",""left"",""left"",""good_move"",25710.7,3585.5,3062.9,22125.2,522.6,""smooth"",""left"",""left"",""good_move"",28621.1,2909.7,2438.2,25711.4,471.5,""oops"",""left"",""down"",""bad_move""]","","",""
"3619","","<div style=""width:500px;"">
  <p>What determined the result of this run?</p>
  </div>","0","html-slider-response","82","1852591","0.0-10.0-1.8","73","1","2025-07-09 09:07:27","7701e855f2ef39aa3fd6c71abdc6918a","113.20.53.151","Mozilla/5.0 (Windows NT 11.0; Win64; x64) AppleWebKit/537.36 (KHTML, like Gecko) Chrome/124.0.0.0 Safari/537.36","WebKit","Chrome","124.0.0.0","Windows","11.0","https://app.prolific.com/","en,en-US","67df2438f087a74ea30f779b","686d226cabeef709c732f8e1","686e3115042ef17299987012","67df2438f087a74ea30f779b","2025-07-09T09:38:25.380Z","","","","","","AttribQ","","","","","","","","","","","","","","","","","","","","","","","","","","","","","","","","","","","","","","50",""
"2661","","<div style=""width:500px;"">
  <p>How much control did you have over the ball?</p>
  </div>","0","html-slider-response","83","1855253","0.0-10.0-2.8","73","1","2025-07-09 09:07:27","7701e855f2ef39aa3fd6c71abdc6918a","113.20.53.151","Mozilla/5.0 (Windows NT 11.0; Win64; x64) AppleWebKit/537.36 (KHTML, like Gecko) Chrome/124.0.0.0 Safari/537.36","WebKit","Chrome","124.0.0.0","Windows","11.0","https://app.prolific.com/","en,en-US","67df2438f087a74ea30f779b","686d226cabeef709c732f8e1","686e3115042ef17299987012","67df2438f087a74ea30f779b","2025-07-09T09:38:28.042Z","","","","","","ControlQ","","","","","","","","","","","","","","","","","","","","","","","","","","","","","","","","","","","","","","50",""
"2781","","<div style=""width:500px;"">
  <p>How would you describe your current emotional state?</p>
  </div>","100","html-slider-response","84","1858036","0.0-10.0-3.8","73","1","2025-07-09 09:07:27","7701e855f2ef39aa3fd6c71abdc6918a","113.20.53.151","Mozilla/5.0 (Windows NT 11.0; Win64; x64) AppleWebKit/537.36 (KHTML, like Gecko) Chrome/124.0.0.0 Safari/537.36","WebKit","Chrome","124.0.0.0","Windows","11.0","https://app.prolific.com/","en,en-US","67df2438f087a74ea30f779b","686d226cabeef709c732f8e1","686e3115042ef17299987012","67df2438f087a74ea30f779b","2025-07-09T09:38:30.825Z","","","","","","StressQ","","","","","","","","","","","","","","","","","","","","","","","","","","","","","","","","","","","","","","50",""
"2228","","<div style=""width:500px;"">
  <p>What best describes how you currently feel?</p>
  </div>","0","html-slider-response","85","1860266","0.0-10.0-4.8","73","1","2025-07-09 09:07:27","7701e855f2ef39aa3fd6c71abdc6918a","113.20.53.151","Mozilla/5.0 (Windows NT 11.0; Win64; x64) AppleWebKit/537.36 (KHTML, like Gecko) Chrome/124.0.0.0 Safari/537.36","WebKit","Chrome","124.0.0.0","Windows","11.0","https://app.prolific.com/","en,en-US","67df2438f087a74ea30f779b","686d226cabeef709c732f8e1","686e3115042ef17299987012","67df2438f087a74ea30f779b","2025-07-09T09:38:33.055Z","","","","","","MotivationQ","","","","","","","","","","","","","","","","","","","","","","","","","","","","","","","","","","","","","","50",""
