"rt","response_timestamp","stimulus","response","trial_type","trial_index","time_elapsed","internal_node_id","run_id","condition","recorded_at","source_code_version","ip","user_agent","device","browser","browser_version","platform","platform_version","referer","accept_language","PROLIFIC_PID","STUDY_ID","SESSION_ID","prolific_id","realtime","view_history","question_order","consent","success","question_id","eventType","responses","item_order","radio_event_ids","radio_event_times","key_event_times","mouse_event_times","straightlining","zigzagging","honeypot","which_type","canvas_config","goals_layout","control_level","trial_number","tutorial_trial_number","trial_start_time","phase1_start_time","phase2_start_time","phase3_start_time","goal_1_value","goal_1_distance","goal_2_value","goal_2_distance","goal_selected","outcome","outcome_total","participant_final_score","participant_initial_score","participant_final_score_prop","goal_choice_rt","allocated_time","allocated_time_remaining","goal_direction","counts","mouse_movements","key_presses","correct","slider_start","sub_question"
"25632","1752060856131","<p style='font-size:40px;line-height:1.25'><strong>Welcome to the experiment!</strong></p><p style='font-size:1.1em;line-height:1.25'>Thank you for your interest in our experiment! Before you begin, it is important that we obtain your informed consent to participate in the study.</p><p style='font-size:1.1em;line-height:1.25'>On the next screen will be an <strong>information sheet</strong> for you to read. To participate in the study we need you to read this information sheet and the following consent form carefully. If you agree with all the statements, please click the <strong>I agree</strong> button.</p><p style='font-size:1.1em;line-height:1.25'>Press <strong>Next</strong> to read the information sheet.</p>","0","custom-html-button-response","0","25636","0.0-0.0","283","1","2025-07-09 11:33:48","7701e855f2ef39aa3fd6c71abdc6918a","41.145.193.119","Mozilla/5.0 (Windows NT 10.0; Win64; x64) AppleWebKit/537.36 (KHTML, like Gecko) Chrome/138.0.0.0 Safari/537.36 Edg/138.0.0.0","WebKit","Edge","138.0.0.0","Windows","10.0","null","en-US,en;q=0.9,en-ZA;q=0.8,pl;q=0.7","666f635d8dd0ca4982930967","686d226cabeef709c732f8e1","686e4ef79ab6441d4ae3aa4f","666f635d8dd0ca4982930967","2025-07-09T11:34:16.132Z","","","","","","","","","","","","","","","","","","","","","","","","","","","","","","","","","","","","","","","","","","","","",""
"3890","","","","instructions","1","29527","0.0-1.0","283","1","2025-07-09 11:33:48","7701e855f2ef39aa3fd6c71abdc6918a","41.145.193.119","Mozilla/5.0 (Windows NT 10.0; Win64; x64) AppleWebKit/537.36 (KHTML, like Gecko) Chrome/138.0.0.0 Safari/537.36 Edg/138.0.0.0","WebKit","Edge","138.0.0.0","Windows","10.0","null","en-US,en;q=0.9,en-ZA;q=0.8,pl;q=0.7","666f635d8dd0ca4982930967","686d226cabeef709c732f8e1","686e4ef79ab6441d4ae3aa4f","666f635d8dd0ca4982930967","","[{""page_index"":0,""viewing_time"":2746},{""page_index"":1,""viewing_time"":1144}]","","","","","","","","","","","","","","","","","","","","","","","","","","","","","","","","","","","","","","","","","","","",""
"6623","","","{""Q0"":"""",""Q1"":"""",""Q2"":"""",""Q3"":"""",""Q4"":"""",""Q5"":"""",""Q6"":""I agree""}","survey-multi-choice","2","36152","0.0-2.0","283","1","2025-07-09 11:33:48","7701e855f2ef39aa3fd6c71abdc6918a","41.145.193.119","Mozilla/5.0 (Windows NT 10.0; Win64; x64) AppleWebKit/537.36 (KHTML, like Gecko) Chrome/138.0.0.0 Safari/537.36 Edg/138.0.0.0","WebKit","Edge","138.0.0.0","Windows","10.0","null","en-US,en;q=0.9,en-ZA;q=0.8,pl;q=0.7","666f635d8dd0ca4982930967","686d226cabeef709c732f8e1","686e4ef79ab6441d4ae3aa4f","666f635d8dd0ca4982930967","","","[0,1,2,3,4,5,6]","true","","","","","","","","","","","","","","","","","","","","","","","","","","","","","","","","","","","","","","","","","",""
"1010","","","","fullscreen","3","38169","0.0-4.0","283","1","2025-07-09 11:33:48","7701e855f2ef39aa3fd6c71abdc6918a","41.145.193.119","Mozilla/5.0 (Windows NT 10.0; Win64; x64) AppleWebKit/537.36 (KHTML, like Gecko) Chrome/138.0.0.0 Safari/537.36 Edg/138.0.0.0","WebKit","Edge","138.0.0.0","Windows","10.0","null","en-US,en;q=0.9,en-ZA;q=0.8,pl;q=0.7","666f635d8dd0ca4982930967","686d226cabeef709c732f8e1","686e4ef79ab6441d4ae3aa4f","666f635d8dd0ca4982930967","","","","","true","","","","","","","","","","","","","","","","","","","","","","","","","","","","","","","","","","","","","","","","",""
"1181","1752060869847"," <p style='font-size:1.1em;line-height:1.25'>Thank you for completing the consent form and closing all other tabs.</p><p style='font-size:1.1em;line-height:1.25'>We will now invite you to fill in some demographic information and questionnaires, before starting the game.<br>This will take about 5 minutes.<br></p><p style='font-size:1.1em;line-height:1.25'>Press the <strong>Next</strong> button to continue.</p>","0","custom-html-button-response","4","39351","0.0-5.0","283","1","2025-07-09 11:33:48","7701e855f2ef39aa3fd6c71abdc6918a","41.145.193.119","Mozilla/5.0 (Windows NT 10.0; Win64; x64) AppleWebKit/537.36 (KHTML, like Gecko) Chrome/138.0.0.0 Safari/537.36 Edg/138.0.0.0","WebKit","Edge","138.0.0.0","Windows","10.0","null","en-US,en;q=0.9,en-ZA;q=0.8,pl;q=0.7","666f635d8dd0ca4982930967","686d226cabeef709c732f8e1","686e4ef79ab6441d4ae3aa4f","666f635d8dd0ca4982930967","2025-07-09T11:34:29.847Z","","","","","","","","","","","","","","","","","","","","","","","","","","","","","","","","","","","","","","","","","","","","",""
"3225","","","{""age"":""39""}","survey-text","5","42579","0.0-6.0-0.0","283","1","2025-07-09 11:33:48","7701e855f2ef39aa3fd6c71abdc6918a","41.145.193.119","Mozilla/5.0 (Windows NT 10.0; Win64; x64) AppleWebKit/537.36 (KHTML, like Gecko) Chrome/138.0.0.0 Safari/537.36 Edg/138.0.0.0","WebKit","Edge","138.0.0.0","Windows","10.0","null","en-US,en;q=0.9,en-ZA;q=0.8,pl;q=0.7","666f635d8dd0ca4982930967","686d226cabeef709c732f8e1","686e4ef79ab6441d4ae3aa4f","666f635d8dd0ca4982930967","","","","","","0","demographics","","","","","","","","","","","","","","","","","","","","","","","","","","","","","","","","","","","","","","",""
"2136","","","{""gender_identity"":""female/woman""}","survey-multi-choice","6","44716","0.0-6.0-1.0","283","1","2025-07-09 11:33:48","7701e855f2ef39aa3fd6c71abdc6918a","41.145.193.119","Mozilla/5.0 (Windows NT 10.0; Win64; x64) AppleWebKit/537.36 (KHTML, like Gecko) Chrome/138.0.0.0 Safari/537.36 Edg/138.0.0.0","WebKit","Edge","138.0.0.0","Windows","10.0","null","en-US,en;q=0.9,en-ZA;q=0.8,pl;q=0.7","666f635d8dd0ca4982930967","686d226cabeef709c732f8e1","686e4ef79ab6441d4ae3aa4f","666f635d8dd0ca4982930967","","","[0]","","","1","demographics","","","","","","","","","","","","","","","","","","","","","","","","","","","","","","","","","","","","","","",""
"1939","","","{""assigned_sex"":""female""}","survey-multi-choice","7","46656","0.0-6.0-2.0","283","1","2025-07-09 11:33:48","7701e855f2ef39aa3fd6c71abdc6918a","41.145.193.119","Mozilla/5.0 (Windows NT 10.0; Win64; x64) AppleWebKit/537.36 (KHTML, like Gecko) Chrome/138.0.0.0 Safari/537.36 Edg/138.0.0.0","WebKit","Edge","138.0.0.0","Windows","10.0","null","en-US,en;q=0.9,en-ZA;q=0.8,pl;q=0.7","666f635d8dd0ca4982930967","686d226cabeef709c732f8e1","686e4ef79ab6441d4ae3aa4f","666f635d8dd0ca4982930967","","","[0]","","","2","demographics","","","","","","","","","","","","","","","","","","","","","","","","","","","","","","","","","","","","","","",""
"3070","","","{""menstrual_cycle"":""Yes""}","survey-multi-choice","8","49727","0.0-6.0-3.0","283","1","2025-07-09 11:33:48","7701e855f2ef39aa3fd6c71abdc6918a","41.145.193.119","Mozilla/5.0 (Windows NT 10.0; Win64; x64) AppleWebKit/537.36 (KHTML, like Gecko) Chrome/138.0.0.0 Safari/537.36 Edg/138.0.0.0","WebKit","Edge","138.0.0.0","Windows","10.0","null","en-US,en;q=0.9,en-ZA;q=0.8,pl;q=0.7","666f635d8dd0ca4982930967","686d226cabeef709c732f8e1","686e4ef79ab6441d4ae3aa4f","666f635d8dd0ca4982930967","","","[0]","","","4","demographics","","","","","","","","","","","","","","","","","","","","","","","","","","","","","","","","","","","","","","",""
"13627","","","{""education"":""Bachelor's Degree (e.g., BA)""}","survey-multi-choice","9","63359","0.0-6.0-4.0","283","1","2025-07-09 11:33:48","7701e855f2ef39aa3fd6c71abdc6918a","41.145.193.119","Mozilla/5.0 (Windows NT 10.0; Win64; x64) AppleWebKit/537.36 (KHTML, like Gecko) Chrome/138.0.0.0 Safari/537.36 Edg/138.0.0.0","WebKit","Edge","138.0.0.0","Windows","10.0","null","en-US,en;q=0.9,en-ZA;q=0.8,pl;q=0.7","666f635d8dd0ca4982930967","686d226cabeef709c732f8e1","686e4ef79ab6441d4ae3aa4f","666f635d8dd0ca4982930967","","","[0]","","","5","demographics","","","","","","","","","","","","","","","","","","","","","","","","","","","","","","","","","","","","","","",""
"4035","","","{""education"":""Bachelor's Degree (e.g., BA)""}","survey-multi-choice","10","67395","0.0-6.0-5.0","283","1","2025-07-09 11:33:48","7701e855f2ef39aa3fd6c71abdc6918a","41.145.193.119","Mozilla/5.0 (Windows NT 10.0; Win64; x64) AppleWebKit/537.36 (KHTML, like Gecko) Chrome/138.0.0.0 Safari/537.36 Edg/138.0.0.0","WebKit","Edge","138.0.0.0","Windows","10.0","null","en-US,en;q=0.9,en-ZA;q=0.8,pl;q=0.7","666f635d8dd0ca4982930967","686d226cabeef709c732f8e1","686e4ef79ab6441d4ae3aa4f","666f635d8dd0ca4982930967","2025-07-09T11:34:57.891Z","","[0]","","","6","demographics","","","","","","","","","","","","","","","","","","","","","","","","","","","","","","","","","","","","","","",""
"55745","","","{""mental_health_condition"":""depression"",""mental_health_treatment"":""physcological therapy, medication"",""psychiatric_medication"":""Fluoxetine 10-20mg a day""}","survey-text","11","123142","0.0-7.0-0.0","283","1","2025-07-09 11:33:48","7701e855f2ef39aa3fd6c71abdc6918a","41.145.193.119","Mozilla/5.0 (Windows NT 10.0; Win64; x64) AppleWebKit/537.36 (KHTML, like Gecko) Chrome/138.0.0.0 Safari/537.36 Edg/138.0.0.0","WebKit","Edge","138.0.0.0","Windows","10.0","null","en-US,en;q=0.9,en-ZA;q=0.8,pl;q=0.7","666f635d8dd0ca4982930967","686d226cabeef709c732f8e1","686e4ef79ab6441d4ae3aa4f","666f635d8dd0ca4982930967","2025-07-09T11:35:53.638Z","","","","","1","mental_health","","","","","","","","","","","","","","","","","","","","","","","","","","","","","","","","","","","","","","",""
"5327","","","{""depression_history"":[""Yes""]}","survey-multi-select","12","128474","0.0-7.0-1.0","283","1","2025-07-09 11:33:48","7701e855f2ef39aa3fd6c71abdc6918a","41.145.193.119","Mozilla/5.0 (Windows NT 10.0; Win64; x64) AppleWebKit/537.36 (KHTML, like Gecko) Chrome/138.0.0.0 Safari/537.36 Edg/138.0.0.0","WebKit","Edge","138.0.0.0","Windows","10.0","null","en-US,en;q=0.9,en-ZA;q=0.8,pl;q=0.7","666f635d8dd0ca4982930967","686d226cabeef709c732f8e1","686e4ef79ab6441d4ae3aa4f","666f635d8dd0ca4982930967","","","[0]","","","","mental_health","","","","","","","","","","","","","","","","","","","","","","","","","","","","","","","","","","","","","","",""
"3487","","","{""depression_episodes"":""3-5"",""depression_recent"":""Currently experiencing an episode""}","survey-multi-choice","13","131962","0.0-7.0-2.0-0.0","283","1","2025-07-09 11:33:48","7701e855f2ef39aa3fd6c71abdc6918a","41.145.193.119","Mozilla/5.0 (Windows NT 10.0; Win64; x64) AppleWebKit/537.36 (KHTML, like Gecko) Chrome/138.0.0.0 Safari/537.36 Edg/138.0.0.0","WebKit","Edge","138.0.0.0","Windows","10.0","null","en-US,en;q=0.9,en-ZA;q=0.8,pl;q=0.7","666f635d8dd0ca4982930967","686d226cabeef709c732f8e1","686e4ef79ab6441d4ae3aa4f","666f635d8dd0ca4982930967","2025-07-09T11:36:02.458Z","","[0,1]","","","3","mental_health","","","","","","","","","","","","","","","","","","","","","","","","","","","","","","","","","","","","","","",""
"40234.10000002384","","","","survey-template","14","172200","0.0-7.0-3.0","283","1","2025-07-09 11:33:48","7701e855f2ef39aa3fd6c71abdc6918a","41.145.193.119","Mozilla/5.0 (Windows NT 10.0; Win64; x64) AppleWebKit/537.36 (KHTML, like Gecko) Chrome/138.0.0.0 Safari/537.36 Edg/138.0.0.0","WebKit","Edge","138.0.0.0","Windows","10.0","null","en-US,en;q=0.9,en-ZA;q=0.8,pl;q=0.7","666f635d8dd0ca4982930967","686d226cabeef709c732f8e1","686e4ef79ab6441d4ae3aa4f","666f635d8dd0ca4982930967","2025-07-09T11:36:42.696Z","","","","","","ius","{""Q01"":""4"",""Q02"":""4"",""Q03"":""2"",""Q04"":""4"",""Q05"":""4"",""Q06"":""4"",""Q07"":""4"",""Q08"":""0"",""Q09"":""4"",""Q10"":""4"",""Q11"":""2"",""Q12"":""4"",""Q13"":""4""}","[0,1,2,3,4,5,6,7,8,9,10,11,12]","[""Q01"",""Q02"",""Q03"",""Q04"",""Q05"",""Q06"",""Q07"",""Q08"",""Q09"",""Q10"",""Q11"",""Q12"",""Q13""]","[3328.800000011921,4940.200000047684,7268.100000023842,9580.300000011921,13488.600000023842,15612.300000011921,17776.700000047684,22015,26772.100000023842,29116.400000035763,33776.60000002384,36536.40000003576,39548.5]","[]","[3328.800000011921,4940.200000047684,7268.100000023842,9580.300000011921,11988.200000047684,13488.600000023842,15612.300000011921,17776.700000047684,22015,26772.100000023842,29116.400000035763,33776.60000002384,36536.40000003576,39548.5,40232.30000001192]","0.7692307692307693","0.16666666666666666","0","","","","","","","","","","","","","","","","","","","","","","","","","","","","","",""
"1279","1752061003976","<p style='font-size:1.1em;line-height:1.25'>In the following, we will ask you a few questions relating to your experiences over the past month.<br></p><p style='font-size:1.1em;line-height:1.25'>Press the <strong>Next</strong> button to continue.</p>","0","custom-html-button-response","15","173480","0.0-7.0-4.0","283","1","2025-07-09 11:33:48","7701e855f2ef39aa3fd6c71abdc6918a","41.145.193.119","Mozilla/5.0 (Windows NT 10.0; Win64; x64) AppleWebKit/537.36 (KHTML, like Gecko) Chrome/138.0.0.0 Safari/537.36 Edg/138.0.0.0","WebKit","Edge","138.0.0.0","Windows","10.0","null","en-US,en;q=0.9,en-ZA;q=0.8,pl;q=0.7","666f635d8dd0ca4982930967","686d226cabeef709c732f8e1","686e4ef79ab6441d4ae3aa4f","666f635d8dd0ca4982930967","2025-07-09T11:36:43.977Z","","","","","","","","","","","","","","","","","","","","","","","","","","","","","","","","","","","","","","","","","","","","",""
"39487.80000001192","","","","survey-template","16","212972","0.0-7.0-5.0","283","1","2025-07-09 11:33:48","7701e855f2ef39aa3fd6c71abdc6918a","41.145.193.119","Mozilla/5.0 (Windows NT 10.0; Win64; x64) AppleWebKit/537.36 (KHTML, like Gecko) Chrome/138.0.0.0 Safari/537.36 Edg/138.0.0.0","WebKit","Edge","138.0.0.0","Windows","10.0","null","en-US,en;q=0.9,en-ZA;q=0.8,pl;q=0.7","666f635d8dd0ca4982930967","686d226cabeef709c732f8e1","686e4ef79ab6441d4ae3aa4f","666f635d8dd0ca4982930967","2025-07-09T11:37:23.468Z","","","","","","pss","{""Q01"":""4"",""Q02"":""4"",""Q03"":""4"",""Q04"":""2"",""Q05"":""3"",""Q06"":""3"",""Q07"":""3"",""Q08"":""3"",""Q09"":""4"",""Q10"":""4""}","[0,1,2,3,4,5,6,7,8,9]","[""Q01"",""Q02"",""Q03"",""Q04"",""Q05"",""Q06"",""Q07"",""Q08"",""Q09"",""Q10""]","[4350.599999964237,7422.800000011921,9422.199999988079,13062.899999976158,15866.599999964237,24270.099999964237,27422.69999998808,31618,34702.30000001192,38921.5]","[]","[0,4350.599999964237,7422.800000011921,9422.199999988079,13062.899999976158,15866.599999964237,19574.69999998808,24270.099999964237,27422.69999998808,31618,34702.30000001192,38921.5,39486.30000001192]","0.5","0.1111111111111111","0","","","","","","","","","","","","","","","","","","","","","","","","","","","","","",""
"1381","1752061044851","<p style='font-size:1.1em;line-height:1.25'>Thank you for your answers! Now we will ask you a few more questions relating to your feelings in the last 24 hours.<br></p><p style='font-size:1.1em;line-height:1.25'>Press the <strong>Next</strong> button to continue.</p>","0","custom-html-button-response","17","214355","0.0-7.0-6.0","283","1","2025-07-09 11:33:48","7701e855f2ef39aa3fd6c71abdc6918a","41.145.193.119","Mozilla/5.0 (Windows NT 10.0; Win64; x64) AppleWebKit/537.36 (KHTML, like Gecko) Chrome/138.0.0.0 Safari/537.36 Edg/138.0.0.0","WebKit","Edge","138.0.0.0","Windows","10.0","null","en-US,en;q=0.9,en-ZA;q=0.8,pl;q=0.7","666f635d8dd0ca4982930967","686d226cabeef709c732f8e1","686e4ef79ab6441d4ae3aa4f","666f635d8dd0ca4982930967","2025-07-09T11:37:24.851Z","","","","","","","","","","","","","","","","","","","","","","","","","","","","","","","","","","","","","","","","","","","","",""
"53680.90000003576","","","","survey-template","18","268040","0.0-7.0-7.0","283","1","2025-07-09 11:33:48","7701e855f2ef39aa3fd6c71abdc6918a","41.145.193.119","Mozilla/5.0 (Windows NT 10.0; Win64; x64) AppleWebKit/537.36 (KHTML, like Gecko) Chrome/138.0.0.0 Safari/537.36 Edg/138.0.0.0","WebKit","Edge","138.0.0.0","Windows","10.0","null","en-US,en;q=0.9,en-ZA;q=0.8,pl;q=0.7","666f635d8dd0ca4982930967","686d226cabeef709c732f8e1","686e4ef79ab6441d4ae3aa4f","666f635d8dd0ca4982930967","2025-07-09T11:38:18.537Z","","","","","","drsp","{""Q01"":""5"",""Q02"":""5"",""Q03"":""4"",""Q04"":""4"",""Q05"":""5"",""Q06"":""5"",""Q07"":""5"",""Q08"":""3"",""Q09"":""5"",""Q10"":""5"",""Q11"":""5"",""Q12"":""1"",""Q13"":""1"",""Q14"":""5"",""Q15"":""5"",""Q16"":""5"",""Q17"":""5"",""Q18"":""5"",""Q19"":""5"",""Q20"":""5"",""Q21"":""5""}","[0,1,2,3,4,5,6,7,8,9,10,11,12,13,14,15,16,17,18,19,20]","[""Q01"",""Q02"",""Q03"",""Q03"",""Q04"",""Q06"",""Q05"",""Q07"",""Q08"",""Q09"",""Q10"",""Q11"",""Q12"",""Q13"",""Q14"",""Q15"",""Q16"",""Q17"",""Q18"",""Q18"",""Q19"",""Q21"",""Q20""]","[4109.5,6049.200000047684,7922.100000023842,9737.800000011921,10721.100000023842,14328.700000047684,14989.900000035763,17077.200000047684,18716.80000001192,20373.80000001192,22005.900000035763,23197.600000023842,25464.80000001192,30297.80000001192,31394.200000047684,33797.30000001192,35305.5,36669.700000047684,38997.40000003576,44973.60000002384,46573.5,50990,51715.700000047684]","[]","[0.10000002384185791,4109.5,6049.200000047684,7922.100000023842,9737.800000011921,10721.100000023842,12092.900000035763,14328.700000047684,14989.900000035763,17077.200000047684,18716.80000001192,20373.80000001192,22005.900000035763,23197.600000023842,25464.80000001192,26981.900000035763,30297.80000001192,31394.200000047684,33797.30000001192,35305.5,36669.700000047684,38997.40000003576,44973.60000002384,46573.5,48394.10000002384,50990,51715.700000047684,53678]","0.7619047619047619","0.1","0","","","","","","","","","","","","","","","","","","","","","","","","","","","","","",""
"9686","","","","survey-template","19","277728","0.0-7.0-8.0","283","1","2025-07-09 11:33:48","7701e855f2ef39aa3fd6c71abdc6918a","41.145.193.119","Mozilla/5.0 (Windows NT 10.0; Win64; x64) AppleWebKit/537.36 (KHTML, like Gecko) Chrome/138.0.0.0 Safari/537.36 Edg/138.0.0.0","WebKit","Edge","138.0.0.0","Windows","10.0","null","en-US,en;q=0.9,en-ZA;q=0.8,pl;q=0.7","666f635d8dd0ca4982930967","686d226cabeef709c732f8e1","686e4ef79ab6441d4ae3aa4f","666f635d8dd0ca4982930967","2025-07-09T11:38:28.224Z","","","","","","stress","{""Q01"":""5"",""Q02"":""5"",""Q03"":""5""}","[0,1,2]","[""Q01"",""Q02"",""Q02"",""Q03""]","[2690.699999988079,4579,5925.699999988079,8866.099999964237]","[]","[2690.699999988079,4579,5925.699999988079,8866.099999964237,9685.5]","0.6666666666666666","1","0","","","","","","","","","","","","","","","","","","","","","","","","","","","","","",""
"44655","","","","instructions","20","322387","0.0-8.0-0.0","283","1","2025-07-09 11:33:48","7701e855f2ef39aa3fd6c71abdc6918a","41.145.193.119","Mozilla/5.0 (Windows NT 10.0; Win64; x64) AppleWebKit/537.36 (KHTML, like Gecko) Chrome/138.0.0.0 Safari/537.36 Edg/138.0.0.0","WebKit","Edge","138.0.0.0","Windows","10.0","null","en-US,en;q=0.9,en-ZA;q=0.8,pl;q=0.7","666f635d8dd0ca4982930967","686d226cabeef709c732f8e1","686e4ef79ab6441d4ae3aa4f","666f635d8dd0ca4982930967","","[{""page_index"":0,""viewing_time"":6874},{""page_index"":1,""viewing_time"":2938},{""page_index"":2,""viewing_time"":6739},{""page_index"":1,""viewing_time"":8549},{""page_index"":2,""viewing_time"":3900},{""page_index"":3,""viewing_time"":15656}]","","","","","","","","","","","","","","","","","","","","","","","","","","","","","","","","","","","","","","","","","","","",""
"","","","","ctl-task-cpt","21","341820","0.0-8.0-1.0","283","1","2025-07-09 11:33:48","7701e855f2ef39aa3fd6c71abdc6918a","41.145.193.119","Mozilla/5.0 (Windows NT 10.0; Win64; x64) AppleWebKit/537.36 (KHTML, like Gecko) Chrome/138.0.0.0 Safari/537.36 Edg/138.0.0.0","WebKit","Edge","138.0.0.0","Windows","10.0","null","en-US,en;q=0.9,en-ZA;q=0.8,pl;q=0.7","666f635d8dd0ca4982930967","686d226cabeef709c732f8e1","686e4ef79ab6441d4ae3aa4f","666f635d8dd0ca4982930967","","","","","","","","","","","","","","","","","win-only","2","g1:SE,g2:NW","1","0","1","326543.8","4365.2","8367","16428.3","2","4","4","6","2","-4","-4","0","0","0","2088.4","4000","-2990","[""left"",""up""]","{""num_key_presses"":0,""num_perfect"":0,""num_errors"":0,""num_randdir"":0,""num_randdir_good_moves"":0,""num_whilered"":0,""num_whileblue"":0,""num_blue"":1,""num_good_moves"":0}","[419.09571208747514,423.56130547012674,0.3,419.09571208747514,423.56130547012674,101.4,419.09571208747514,423.56130547012674,205.9,419.09571208747514,423.56130547012674,306.4,419.09571208747514,423.56130547012674,410.3,419.09571208747514,423.56130547012674,512,419.09571208747514,423.56130547012674,615.9,419.09571208747514,423.56130547012674,715.9,419.09571208747514,423.56130547012674,816,419.09571208747514,423.56130547012674,921.2,419.09571208747514,423.56130547012674,1021.9,419.09571208747514,423.56130547012674,1126,419.09571208747514,423.56130547012674,1231.6,419.09571208747514,423.56130547012674,1332.8,419.09571208747514,423.56130547012674,1435.7,419.09571208747514,423.56130547012674,1536.1,419.09571208747514,423.56130547012674,1636.2,341.92070307525285,372.11129946197855,1737.3,74.87067189010267,168.76127571548804,1841.8,57.720669887386606,95.26126713241919,1942,50.37066902907972,75.66126484360083,2047.2,50.37066902907972,75.66126484360083,2151.4,50.37066902907972,75.66126484360083,2251.5,55.27066960128431,83.01126570190772,2355.9,105.49567546638136,124.66127056564673,2460.7,131.22067847045545,143.03627271141394,2566.2,131.22067847045545,143.03627271141394,2666.3,131.22067847045545,143.03627271141394,2771.8,131.22067847045545,143.03627271141394,2876,131.22067847045545,143.03627271141394,2976.4,131.22067847045545,143.03627271141394,3081.3,131.22067847045545,143.03627271141394,3181.6,131.22067847045545,143.03627271141394,3286,131.22067847045545,143.03627271141394,3386.1,131.22067847045545,143.03627271141394,3486.1,131.22067847045545,143.03627271141394,3591.6,127.54567804130201,143.03627271141394,3696.6,120.19567718299513,135.68627185310706,3800.4,116.52067675384168,128.33627099480017,3901.7]","[]","","",""
"17182","","","","instructions","22","359002","0.0-8.0-2.0","283","1","2025-07-09 11:33:48","7701e855f2ef39aa3fd6c71abdc6918a","41.145.193.119","Mozilla/5.0 (Windows NT 10.0; Win64; x64) AppleWebKit/537.36 (KHTML, like Gecko) Chrome/138.0.0.0 Safari/537.36 Edg/138.0.0.0","WebKit","Edge","138.0.0.0","Windows","10.0","null","en-US,en;q=0.9,en-ZA;q=0.8,pl;q=0.7","666f635d8dd0ca4982930967","686d226cabeef709c732f8e1","686e4ef79ab6441d4ae3aa4f","666f635d8dd0ca4982930967","","[{""page_index"":0,""viewing_time"":17182}]","","","","","","","","","","","","","","","","","","","","","","","","","","","","","","","","","","","","","","","","","","","",""
"","","","","ctl-task-cpt","23","401407","0.0-8.0-3.0","283","1","2025-07-09 11:33:48","7701e855f2ef39aa3fd6c71abdc6918a","41.145.193.119","Mozilla/5.0 (Windows NT 10.0; Win64; x64) AppleWebKit/537.36 (KHTML, like Gecko) Chrome/138.0.0.0 Safari/537.36 Edg/138.0.0.0","WebKit","Edge","138.0.0.0","Windows","10.0","null","en-US,en;q=0.9,en-ZA;q=0.8,pl;q=0.7","666f635d8dd0ca4982930967","686d226cabeef709c732f8e1","686e4ef79ab6441d4ae3aa4f","666f635d8dd0ca4982930967","","","","","","","","","","","","","","","","","win-only","2","g1:SE,g2:NW","0.35","0","3","363158.3","2386.9","6391","39385.5","2","4","8","6","2","-8","-13","0","0","0","1945.8","4000","-2715","[""left"",""up""]","{""num_key_presses"":16,""num_perfect"":2,""num_errors"":5,""num_randdir"":5,""num_randdir_good_moves"":2,""num_whilered"":4,""num_whileblue"":1,""num_blue"":1,""num_good_moves"":4}","[416.64571180137284,419.8863050409733,0.2,416.64571180137284,419.8863050409733,104.3,416.64571180137284,419.8863050409733,204.4,416.64571180137284,419.8863050409733,304.5,416.64571180137284,419.8863050409733,408.7,416.64571180137284,419.8863050409733,508.7,416.64571180137284,419.8863050409733,613.6,416.64571180137284,419.8863050409733,714.5,416.64571180137284,419.8863050409733,814.8,416.64571180137284,419.8863050409733,919.4,416.64571180137284,419.8863050409733,1024.1,392.1457089403499,402.73630303825723,1124.2,2.5956634500849702,106.28626841987952,1224.5,-29.254340269244864,32.78625983681067,1324.7,-26.80433998314257,26.661259121554934,1428.5,-26.80433998314257,26.661259121554934,1530,11.170664451443002,57.28626269783362,1630.1,28.320666454159067,60.96126312698706,1730.2,50.37066902907972,65.86126369919165,1833.6,58.94567003043775,68.31126398529395,1939.4,61.39567031654005,69.5362641283451,2039.4,69.97067131789808,70.76126427139624,2143.4,197.37068619521742,107.51126856293067,2244.1,256.1706930616725,132.01127142395362,2349.3,257.39569320472367,136.9112719961582,2449.7,257.39569320472367,138.13627213920935,2549.7,257.39569320472367,138.13627213920935,2654.5,257.39569320472367,138.13627213920935,2754.5,257.39569320472367,138.13627213920935,2859.7,257.39569320472367,138.13627213920935,2965.2,348.0457037905086,233.68628329719886,3069.6,514.6457232454646,399.0613026091038,3174.3,517.0957235315669,421.11130518402445,3279.8,501.170721671902,498.28631419624674,3384.1,508.5207225302089,536.2613186308323,3484.7,508.5207225302089,536.2613186308323,3589.2,504.84572210105546,528.9113177725254,3689.6,501.170721671902,525.236317343372,3793.8,490.1457203844417,514.2113160559117,3899.4]","[1299.9,1299.9,1000,0,299.9,""smooth"",""left"",""left"",""good_move"",1564.9,264.6,2478.9,1300.4,-2214.4,""error"",""-"",""-"",""no_move"",1777.2,212,2478.9,1300.4,-2002.1,""while_red"",""-"",""-"",""no_move"",1974.9,409.8,2478.9,1300.4,-1804.3,""while_red"",""-"",""-"",""no_move"",2479.8,914.6,2478.9,1300.4,-1299.5,""while_red"",""-"",""-"",""no_move"",3492.1,1926.9,2687.3,2575.6,-1770.8,""error"",""-"",""-"",""no_move"",4947.8,1455.5,2656.2,4495.3,-2203.7,""error"",""-"",""-"",""no_move"",9441.8,4493.9,2802.4,5950.1,689.3,""oops"",""left"",""right"",""bad_move"",10391.7,949.5,2136.4,9442.3,-1187,""error"",""-"",""-"",""no_move"",10608.3,216.4,2136.4,9442.3,-970.4,""while_red"",""-"",""-"",""no_move"",13909,3517.1,2030,11392.6,486.4,""smooth"",""left"",""left"",""good_move"",16977.2,3068,2376,13909.2,692,""while_blue"",""left"",""right"",""bad_move"",21098.8,4121.4,3238,16977.4,883.4,""oops"",""left"",""down"",""bad_move"",24181.8,3082.6,2321.3,21099.2,761.3,""oops"",""left"",""up"",""good_move"",27328.9,3146.8,2546.2,24182.1,600.6,""oops"",""left"",""right"",""bad_move"",30611.2,3282.1,2570.6,27329.1,711.5,""oops"",""left"",""up"",""good_move""]","","",""
"720660","","","","instructions","24","1122083","0.0-8.0-4.0","283","1","2025-07-09 11:33:48","7701e855f2ef39aa3fd6c71abdc6918a","41.145.193.119","Mozilla/5.0 (Windows NT 10.0; Win64; x64) AppleWebKit/537.36 (KHTML, like Gecko) Chrome/138.0.0.0 Safari/537.36 Edg/138.0.0.0","WebKit","Edge","138.0.0.0","Windows","10.0","null","en-US,en;q=0.9,en-ZA;q=0.8,pl;q=0.7","666f635d8dd0ca4982930967","686d226cabeef709c732f8e1","686e4ef79ab6441d4ae3aa4f","666f635d8dd0ca4982930967","","[{""page_index"":0,""viewing_time"":681272},{""page_index"":1,""viewing_time"":39387}]","","","","","","","","","","","","","","","","","","","","","","","","","","","","","","","","","","","","","","","","","","","",""
"9909","","","{""green_ball"":[""Ball always moves in the direction I press""]}","survey-multi-select","25","1131994","0.0-8.0-5.0-0.0","283","1","2025-07-09 11:33:48","7701e855f2ef39aa3fd6c71abdc6918a","41.145.193.119","Mozilla/5.0 (Windows NT 10.0; Win64; x64) AppleWebKit/537.36 (KHTML, like Gecko) Chrome/138.0.0.0 Safari/537.36 Edg/138.0.0.0","WebKit","Edge","138.0.0.0","Windows","10.0","null","en-US,en;q=0.9,en-ZA;q=0.8,pl;q=0.7","666f635d8dd0ca4982930967","686d226cabeef709c732f8e1","686e4ef79ab6441d4ae3aa4f","666f635d8dd0ca4982930967","","","[0]","","","","quiz","","","","","","","","","","","","","","","","","","","","","","","","","","","","","","","","","","","","","false","",""
"7229","","<p align='center'><b>INCORRECT.</b> Usually the green ball moves in the indicated direction, but sometimes it shakes and moves randomly. </p>","0","html-button-response","26","1139226","0.0-8.0-5.0-1.0","283","1","2025-07-09 11:33:48","7701e855f2ef39aa3fd6c71abdc6918a","41.145.193.119","Mozilla/5.0 (Windows NT 10.0; Win64; x64) AppleWebKit/537.36 (KHTML, like Gecko) Chrome/138.0.0.0 Safari/537.36 Edg/138.0.0.0","WebKit","Edge","138.0.0.0","Windows","10.0","null","en-US,en;q=0.9,en-ZA;q=0.8,pl;q=0.7","666f635d8dd0ca4982930967","686d226cabeef709c732f8e1","686e4ef79ab6441d4ae3aa4f","666f635d8dd0ca4982930967","","","","","","","","","","","","","","","","","","","","","","","","","","","","","","","","","","","","","","","","","","","","","",""
"12180","","","{""green_ball"":[""Ball sometimes shakes and moves in a random direction""]}","survey-multi-select","27","1151408","0.0-8.0-5.1-0.1","283","1","2025-07-09 11:33:48","7701e855f2ef39aa3fd6c71abdc6918a","41.145.193.119","Mozilla/5.0 (Windows NT 10.0; Win64; x64) AppleWebKit/537.36 (KHTML, like Gecko) Chrome/138.0.0.0 Safari/537.36 Edg/138.0.0.0","WebKit","Edge","138.0.0.0","Windows","10.0","null","en-US,en;q=0.9,en-ZA;q=0.8,pl;q=0.7","666f635d8dd0ca4982930967","686d226cabeef709c732f8e1","686e4ef79ab6441d4ae3aa4f","666f635d8dd0ca4982930967","","","[0]","","","","quiz","","","","","","","","","","","","","","","","","","","","","","","","","","","","","","","","","","","","","true","",""
"3365","","<p align='center'><b>CORRECT!</b> Indeed, the green ball may sometimes shake and move in a random direction.</p>","0","html-button-response","28","1154774","0.0-8.0-5.1-1.1","283","1","2025-07-09 11:33:48","7701e855f2ef39aa3fd6c71abdc6918a","41.145.193.119","Mozilla/5.0 (Windows NT 10.0; Win64; x64) AppleWebKit/537.36 (KHTML, like Gecko) Chrome/138.0.0.0 Safari/537.36 Edg/138.0.0.0","WebKit","Edge","138.0.0.0","Windows","10.0","null","en-US,en;q=0.9,en-ZA;q=0.8,pl;q=0.7","666f635d8dd0ca4982930967","686d226cabeef709c732f8e1","686e4ef79ab6441d4ae3aa4f","666f635d8dd0ca4982930967","","","","","","","","","","","","","","","","","","","","","","","","","","","","","","","","","","","","","","","","","","","","","",""
"6609","","","{""yellow_ball"":[""Ball doesn‘t move and I get -1 penalty point""]}","survey-multi-select","29","1161385","0.0-8.0-6.0-0.0","283","1","2025-07-09 11:33:48","7701e855f2ef39aa3fd6c71abdc6918a","41.145.193.119","Mozilla/5.0 (Windows NT 10.0; Win64; x64) AppleWebKit/537.36 (KHTML, like Gecko) Chrome/138.0.0.0 Safari/537.36 Edg/138.0.0.0","WebKit","Edge","138.0.0.0","Windows","10.0","null","en-US,en;q=0.9,en-ZA;q=0.8,pl;q=0.7","666f635d8dd0ca4982930967","686d226cabeef709c732f8e1","686e4ef79ab6441d4ae3aa4f","666f635d8dd0ca4982930967","","","[0]","","","","quiz","","","","","","","","","","","","","","","","","","","","","","","","","","","","","","","","","","","","","true","",""
"3697","","<p align='center'><b>CORRECT!</b> Indeed, the yellow ball never moves and you receive a penalty.</p>","0","html-button-response","30","1165083","0.0-8.0-6.0-1.0","283","1","2025-07-09 11:33:48","7701e855f2ef39aa3fd6c71abdc6918a","41.145.193.119","Mozilla/5.0 (Windows NT 10.0; Win64; x64) AppleWebKit/537.36 (KHTML, like Gecko) Chrome/138.0.0.0 Safari/537.36 Edg/138.0.0.0","WebKit","Edge","138.0.0.0","Windows","10.0","null","en-US,en;q=0.9,en-ZA;q=0.8,pl;q=0.7","666f635d8dd0ca4982930967","686d226cabeef709c732f8e1","686e4ef79ab6441d4ae3aa4f","666f635d8dd0ca4982930967","","","","","","","","","","","","","","","","","","","","","","","","","","","","","","","","","","","","","","","","","","","","","",""
"9663","","","{""blue_ball"":[""Ball always shakes and moves in a random direction""]}","survey-multi-select","31","1174749","0.0-8.0-7.0-0.0","283","1","2025-07-09 11:33:48","7701e855f2ef39aa3fd6c71abdc6918a","41.145.193.119","Mozilla/5.0 (Windows NT 10.0; Win64; x64) AppleWebKit/537.36 (KHTML, like Gecko) Chrome/138.0.0.0 Safari/537.36 Edg/138.0.0.0","WebKit","Edge","138.0.0.0","Windows","10.0","null","en-US,en;q=0.9,en-ZA;q=0.8,pl;q=0.7","666f635d8dd0ca4982930967","686d226cabeef709c732f8e1","686e4ef79ab6441d4ae3aa4f","666f635d8dd0ca4982930967","","","[0]","","","","quiz","","","","","","","","","","","","","","","","","","","","","","","","","","","","","","","","","","","","","true","",""
"2732","","<p align='center'><b>CORRECT!</b> Indeed, the blue ball always shakes and moves in a random direction. Also there is a penalty of -1 point.</p>","0","html-button-response","32","1177483","0.0-8.0-7.0-1.0","283","1","2025-07-09 11:33:48","7701e855f2ef39aa3fd6c71abdc6918a","41.145.193.119","Mozilla/5.0 (Windows NT 10.0; Win64; x64) AppleWebKit/537.36 (KHTML, like Gecko) Chrome/138.0.0.0 Safari/537.36 Edg/138.0.0.0","WebKit","Edge","138.0.0.0","Windows","10.0","null","en-US,en;q=0.9,en-ZA;q=0.8,pl;q=0.7","666f635d8dd0ca4982930967","686d226cabeef709c732f8e1","686e4ef79ab6441d4ae3aa4f","666f635d8dd0ca4982930967","","","","","","","","","","","","","","","","","","","","","","","","","","","","","","","","","","","","","","","","","","","","","",""
"4079","","","{""bonus"":[""When I reach 50% of points""]}","survey-multi-select","33","1181563","0.0-8.0-8.0-0.0","283","1","2025-07-09 11:33:48","7701e855f2ef39aa3fd6c71abdc6918a","41.145.193.119","Mozilla/5.0 (Windows NT 10.0; Win64; x64) AppleWebKit/537.36 (KHTML, like Gecko) Chrome/138.0.0.0 Safari/537.36 Edg/138.0.0.0","WebKit","Edge","138.0.0.0","Windows","10.0","null","en-US,en;q=0.9,en-ZA;q=0.8,pl;q=0.7","666f635d8dd0ca4982930967","686d226cabeef709c732f8e1","686e4ef79ab6441d4ae3aa4f","666f635d8dd0ca4982930967","","","[0]","","","","quiz","","","","","","","","","","","","","","","","","","","","","","","","","","","","","","","","","","","","","true","",""
"2030","","<p align='center'><b>CORRECT!</b> Indeed, you receive 2 pounds extra when you reach 50% of points.</p>","0","html-button-response","34","1183595","0.0-8.0-8.0-1.0","283","1","2025-07-09 11:33:48","7701e855f2ef39aa3fd6c71abdc6918a","41.145.193.119","Mozilla/5.0 (Windows NT 10.0; Win64; x64) AppleWebKit/537.36 (KHTML, like Gecko) Chrome/138.0.0.0 Safari/537.36 Edg/138.0.0.0","WebKit","Edge","138.0.0.0","Windows","10.0","null","en-US,en;q=0.9,en-ZA;q=0.8,pl;q=0.7","666f635d8dd0ca4982930967","686d226cabeef709c732f8e1","686e4ef79ab6441d4ae3aa4f","666f635d8dd0ca4982930967","","","","","","","","","","","","","","","","","","","","","","","","","","","","","","","","","","","","","","","","","","","","","",""
"5183","","","","instructions","35","1188778","0.0-8.0-9.0","283","1","2025-07-09 11:33:48","7701e855f2ef39aa3fd6c71abdc6918a","41.145.193.119","Mozilla/5.0 (Windows NT 10.0; Win64; x64) AppleWebKit/537.36 (KHTML, like Gecko) Chrome/138.0.0.0 Safari/537.36 Edg/138.0.0.0","WebKit","Edge","138.0.0.0","Windows","10.0","null","en-US,en;q=0.9,en-ZA;q=0.8,pl;q=0.7","666f635d8dd0ca4982930967","686d226cabeef709c732f8e1","686e4ef79ab6441d4ae3aa4f","666f635d8dd0ca4982930967","","[{""page_index"":0,""viewing_time"":5182}]","","","","","","","","","","","","","","","","","","","","","","","","","","","","","","","","","","","","","","","","","","","",""
"20105","","<p>Before you start with this game please answer the following three questions yourself. </p>
  <p>Through this game, we measure several aspects of your cognitive performance, such as reaction times, multi-tasking capabilities </p>
  <p>and the ability to assess the situation you are in.</p>
  <p></p>
  <p><b>How good do you usually are in such tasks?</b></p>","85","html-slider-response","36","1208885","0.0-9.0-0.0","283","1","2025-07-09 11:33:48","7701e855f2ef39aa3fd6c71abdc6918a","41.145.193.119","Mozilla/5.0 (Windows NT 10.0; Win64; x64) AppleWebKit/537.36 (KHTML, like Gecko) Chrome/138.0.0.0 Safari/537.36 Edg/138.0.0.0","WebKit","Edge","138.0.0.0","Windows","10.0","null","en-US,en;q=0.9,en-ZA;q=0.8,pl;q=0.7","666f635d8dd0ca4982930967","686d226cabeef709c732f8e1","686e4ef79ab6441d4ae3aa4f","666f635d8dd0ca4982930967","2025-07-09T11:53:59.381Z","","","","","","PreSkillQ","","","","","","","","","","","","","","","","","","","","","","","","","","","","","","","","","","","","","","50",""
"6188","","<div style=""width:500px;"">
  <p>How well do you think you will perform in this task compared to other participants?</p>
  </div>","86","html-slider-response","37","1215075","0.0-9.0-1.0","283","1","2025-07-09 11:33:48","7701e855f2ef39aa3fd6c71abdc6918a","41.145.193.119","Mozilla/5.0 (Windows NT 10.0; Win64; x64) AppleWebKit/537.36 (KHTML, like Gecko) Chrome/138.0.0.0 Safari/537.36 Edg/138.0.0.0","WebKit","Edge","138.0.0.0","Windows","10.0","null","en-US,en;q=0.9,en-ZA;q=0.8,pl;q=0.7","666f635d8dd0ca4982930967","686d226cabeef709c732f8e1","686e4ef79ab6441d4ae3aa4f","666f635d8dd0ca4982930967","2025-07-09T11:54:05.571Z","","","","","","PrePerfQ","","","","","","","","","","","","","","","","","","","","","","","","","","","","","","","","","","","","","","50",""
"8631","","<div style=""width:500px;"">
  <p>What best describes how you currently feel?</p>
  </div>","69","html-slider-response","38","1223707","0.0-9.0-2.0","283","1","2025-07-09 11:33:48","7701e855f2ef39aa3fd6c71abdc6918a","41.145.193.119","Mozilla/5.0 (Windows NT 10.0; Win64; x64) AppleWebKit/537.36 (KHTML, like Gecko) Chrome/138.0.0.0 Safari/537.36 Edg/138.0.0.0","WebKit","Edge","138.0.0.0","Windows","10.0","null","en-US,en;q=0.9,en-ZA;q=0.8,pl;q=0.7","666f635d8dd0ca4982930967","686d226cabeef709c732f8e1","686e4ef79ab6441d4ae3aa4f","666f635d8dd0ca4982930967","2025-07-09T11:54:14.203Z","","","","","","PreMotivationQ","","","","","","","","","","","","","","","","","","","","","","","","","","","","","","","","","","","","","","50",""
"","","","","ctl-task-cpt","39","1252288","0.0-10.0-0.0","283","1","2025-07-09 11:33:48","7701e855f2ef39aa3fd6c71abdc6918a","41.145.193.119","Mozilla/5.0 (Windows NT 10.0; Win64; x64) AppleWebKit/537.36 (KHTML, like Gecko) Chrome/138.0.0.0 Safari/537.36 Edg/138.0.0.0","WebKit","Edge","138.0.0.0","Windows","10.0","null","en-US,en;q=0.9,en-ZA;q=0.8,pl;q=0.7","666f635d8dd0ca4982930967","686d226cabeef709c732f8e1","686e4ef79ab6441d4ae3aa4f","666f635d8dd0ca4982930967","2025-07-09T11:54:42.784Z","","","","","","","","","","","","","","","","win-only","1","g1:NE,g2:SW","1","1","0","1227847.4","5021.1","10026","25563.1","1","4","8","6","2","-8","-10","0","0","0","3153.3","3000","-2985","[""down"",""left""]","{""num_key_presses"":5,""num_perfect"":3,""num_errors"":2,""num_randdir"":0,""num_randdir_good_moves"":0,""num_whilered"":0,""num_whileblue"":1,""num_blue"":1,""num_good_moves"":3}","[337.6113649560569,336.3519200953909,0.2,337.6113649560569,336.3519200953909,104.7,337.6113649560569,336.3519200953909,204.7,344.9613658143638,337.576920238442,308.4,344.9613658143638,337.576920238442,409.5,344.9613658143638,337.576920238442,510.5,344.9613658143638,337.576920238442,614.7,344.9613658143638,337.576920238442,719.6,344.9613658143638,337.576920238442,820.4,344.9613658143638,337.576920238442,920.6,344.9613658143638,337.576920238442,1020.7,344.9613658143638,337.576920238442,1121.1,344.9613658143638,337.576920238442,1225.3,344.9613658143638,337.576920238442,1329.9,344.9613658143638,337.576920238442,1430.3,344.9613658143638,337.576920238442,1530.4,344.9613658143638,337.576920238442,1630.4,344.9613658143638,337.576920238442,1730.4,344.9613658143638,337.576920238442,1830.4,344.9613658143638,337.576920238442,1936.8,344.9613658143638,337.576920238442,2037,344.9613658143638,337.576920238442,2139.3,344.9613658143638,337.576920238442,2240.3,344.9613658143638,337.576920238442,2340.5,344.9613658143638,337.576920238442,2445.1,344.9613658143638,337.576920238442,2545.1,343.7363656713126,346.15192123980006,2650.3,200.41134893432837,518.8769414100118,2750.6,153.86134349838477,635.2519549998708,2855.6,97.51133691803199,664.6519584330983,2955.7,90.1613360597251,637.7019552859731,3060.9,86.48633563057166,627.9019541415639,3160.9,86.48633563057166,627.9019541415639,3268.4,85.26133548752051,625.4519538554616,3369.7,85.26133548752051,625.4519538554616,3470.9,85.26133548752051,625.4519538554616,3574.7,85.26133548752051,625.4519538554616,3676,85.26133548752051,625.4519538554616,3780.9,85.26133548752051,625.4519538554616,3884.4,85.26133548752051,625.4519538554616,3987.2,85.26133548752051,625.4519538554616,4090.9,85.26133548752051,625.4519538554616,4195.3,85.26133548752051,625.4519538554616,4300.3,85.26133548752051,625.4519538554616,4404.4,85.26133548752051,625.4519538554616,4504.7,85.26133548752051,625.4519538554616,4604.8,85.26133548752051,625.4519538554616,4710,85.26133548752051,625.4519538554616,4810.5,85.26133548752051,625.4519538554616,4910.9]","[2378.6,2378.6,1000,0,1378.6,""smooth"",""left"",""left"",""good_move"",2782.9,403.8,2427.2,2379.3,-2023.6,""error"",""-"",""-"",""no_move"",6422.5,3639.5,2020.9,3784.6,617,""smooth"",""left"",""left"",""good_move"",9670.5,3247.9,2252.5,6422.7,995.4,""smooth"",""left"",""left"",""good_move"",12793,3122.3,2689.6,9670.7,432.7,""while_blue"",""down"",""up"",""bad_move""]","","",""
"6939","","<div style=""width:500px;"">
  <p>What determined the result of this run?</p>
  </div>","100","html-slider-response","40","1259227","0.0-10.0-1.0","283","1","2025-07-09 11:33:48","7701e855f2ef39aa3fd6c71abdc6918a","41.145.193.119","Mozilla/5.0 (Windows NT 10.0; Win64; x64) AppleWebKit/537.36 (KHTML, like Gecko) Chrome/138.0.0.0 Safari/537.36 Edg/138.0.0.0","WebKit","Edge","138.0.0.0","Windows","10.0","null","en-US,en;q=0.9,en-ZA;q=0.8,pl;q=0.7","666f635d8dd0ca4982930967","686d226cabeef709c732f8e1","686e4ef79ab6441d4ae3aa4f","666f635d8dd0ca4982930967","2025-07-09T11:54:49.723Z","","","","","","AttribQ","","","","","","","","","","","","","","","","","","","","","","","","","","","","","","","","","","","","","","50",""
"6903","","<div style=""width:500px;"">
  <p>How much control did you have over the ball?</p>
  </div>","51","html-slider-response","41","1266131","0.0-10.0-2.0","283","1","2025-07-09 11:33:48","7701e855f2ef39aa3fd6c71abdc6918a","41.145.193.119","Mozilla/5.0 (Windows NT 10.0; Win64; x64) AppleWebKit/537.36 (KHTML, like Gecko) Chrome/138.0.0.0 Safari/537.36 Edg/138.0.0.0","WebKit","Edge","138.0.0.0","Windows","10.0","null","en-US,en;q=0.9,en-ZA;q=0.8,pl;q=0.7","666f635d8dd0ca4982930967","686d226cabeef709c732f8e1","686e4ef79ab6441d4ae3aa4f","666f635d8dd0ca4982930967","2025-07-09T11:54:56.627Z","","","","","","ControlQ","","","","","","","","","","","","","","","","","","","","","","","","","","","","","","","","","","","","","","50",""
"5480","","<div style=""width:500px;"">
  <p>How would you describe your current emotional state?</p>
  </div>","29","html-slider-response","42","1271612","0.0-10.0-3.0","283","1","2025-07-09 11:33:48","7701e855f2ef39aa3fd6c71abdc6918a","41.145.193.119","Mozilla/5.0 (Windows NT 10.0; Win64; x64) AppleWebKit/537.36 (KHTML, like Gecko) Chrome/138.0.0.0 Safari/537.36 Edg/138.0.0.0","WebKit","Edge","138.0.0.0","Windows","10.0","null","en-US,en;q=0.9,en-ZA;q=0.8,pl;q=0.7","666f635d8dd0ca4982930967","686d226cabeef709c732f8e1","686e4ef79ab6441d4ae3aa4f","666f635d8dd0ca4982930967","2025-07-09T11:55:02.108Z","","","","","","StressQ","","","","","","","","","","","","","","","","","","","","","","","","","","","","","","","","","","","","","","50",""
"4902","","<div style=""width:500px;"">
  <p>What best describes how you currently feel?</p>
  </div>","77","html-slider-response","43","1276515","0.0-10.0-4.0","283","1","2025-07-09 11:33:48","7701e855f2ef39aa3fd6c71abdc6918a","41.145.193.119","Mozilla/5.0 (Windows NT 10.0; Win64; x64) AppleWebKit/537.36 (KHTML, like Gecko) Chrome/138.0.0.0 Safari/537.36 Edg/138.0.0.0","WebKit","Edge","138.0.0.0","Windows","10.0","null","en-US,en;q=0.9,en-ZA;q=0.8,pl;q=0.7","666f635d8dd0ca4982930967","686d226cabeef709c732f8e1","686e4ef79ab6441d4ae3aa4f","666f635d8dd0ca4982930967","2025-07-09T11:55:07.011Z","","","","","","MotivationQ","","","","","","","","","","","","","","","","","","","","","","","","","","","","","","","","","","","","","","50",""
"","","","","ctl-task-cpt","44","1308860","0.0-10.0-0.1","283","1","2025-07-09 11:33:48","7701e855f2ef39aa3fd6c71abdc6918a","41.145.193.119","Mozilla/5.0 (Windows NT 10.0; Win64; x64) AppleWebKit/537.36 (KHTML, like Gecko) Chrome/138.0.0.0 Safari/537.36 Edg/138.0.0.0","WebKit","Edge","138.0.0.0","Windows","10.0","null","en-US,en;q=0.9,en-ZA;q=0.8,pl;q=0.7","666f635d8dd0ca4982930967","686d226cabeef709c732f8e1","686e4ef79ab6441d4ae3aa4f","666f635d8dd0ca4982930967","2025-07-09T11:55:39.356Z","","","","","","","","","","","","","","","","win-only","2","g1:SE,g2:NW","0.9","2","0","1280653.7","3202","8205.9","29326.9","1","4","4","6","2","-4","-4","0","0","0","1674.3","3000","-2675","[""left"",""up""]","{""num_key_presses"":5,""num_perfect"":5,""num_errors"":0,""num_randdir"":0,""num_randdir_good_moves"":0,""num_whilered"":0,""num_whileblue"":0,""num_blue"":1,""num_good_moves"":5}","[347.41136610046607,336.3519200953909,0.2,347.41136610046607,336.3519200953909,100.8,347.41136610046607,336.3519200953909,205.3,347.41136610046607,336.3519200953909,308.4,347.41136610046607,336.3519200953909,409.1,347.41136610046607,336.3519200953909,509.4,347.41136610046607,336.3519200953909,613.2,347.41136610046607,336.3519200953909,713.6,347.41136610046607,336.3519200953909,814.2,347.41136610046607,336.3519200953909,918.6,347.41136610046607,336.3519200953909,1020.9,347.41136610046607,336.3519200953909,1124.2,347.41136610046607,336.3519200953909,1225.1,212.66135036483985,240.80190893740138,1329.3,74.23633420006018,93.80189177126368,1435.2,74.23633420006018,92.57689162821254,1539.2,71.78633391395789,86.4518909129568,1640.1,71.78633391395789,85.22689076990565,1744.1,71.78633391395789,85.22689076990565,1844.2,71.78633391395789,85.22689076990565,1948.8,71.78633391395789,85.22689076990565,2055,71.78633391395789,85.22689076990565,2155,71.78633391395789,85.22689076990565,2258.6,71.78633391395789,85.22689076990565,2359.1,71.78633391395789,85.22689076990565,2464.2,71.78633391395789,85.22689076990565,2565.3,71.78633391395789,85.22689076990565,2668.6,71.78633391395789,85.22689076990565,2769.8,71.78633391395789,85.22689076990565,2873.7,71.78633391395789,85.22689076990565,2978.5,71.78633391395789,85.22689076990565,3078.7,99.96133720413428,85.22689076990565,3179,145.28634249702674,130.5518960627981,3279,130.58634078041297,196.70190378756007,3379,91.38633620277625,175.87690135569056,3479.1,53.41133176819068,115.85189434618434,3586.8,47.28633105293494,92.57689162821254,3687.1,47.28633105293494,90.12689134211024,3789.7,47.28633105293494,90.12689134211024,3893.2,47.28633105293494,90.12689134211024,3993.3,47.28633105293494,90.12689134211024,4094.2,47.28633105293494,90.12689134211024,4194.4,47.28633105293494,90.12689134211024,4299.5,47.28633105293494,90.12689134211024,4399.7,47.28633105293494,90.12689134211024,4504.4,47.28633105293494,90.12689134211024,4608.9,47.28633105293494,90.12689134211024,4709,47.28633105293494,90.12689134211024,4813.9,47.28633105293494,90.12689134211024,4914.3]","[5133.4,5133.4,2459.1,2005.1,669.2,""smooth"",""left"",""left"",""good_move"",8557.6,3423.3,2677.7,5134.3,745.6,""smooth"",""left"",""left"",""good_move"",12120.5,3562.7,2856.1,8557.8,706.6,""smooth"",""left"",""left"",""good_move"",15644.2,3523.5,2902.4,12120.7,621.1,""smooth"",""up"",""up"",""good_move"",18841.6,3197.1,2642.8,15644.5,554.3,""smooth"",""up"",""up"",""good_move""]","","",""
"7436","","<div style=""width:500px;"">
  <p>What determined the result of this run?</p>
  </div>","100","html-slider-response","45","1316296","0.0-10.0-1.1","283","1","2025-07-09 11:33:48","7701e855f2ef39aa3fd6c71abdc6918a","41.145.193.119","Mozilla/5.0 (Windows NT 10.0; Win64; x64) AppleWebKit/537.36 (KHTML, like Gecko) Chrome/138.0.0.0 Safari/537.36 Edg/138.0.0.0","WebKit","Edge","138.0.0.0","Windows","10.0","null","en-US,en;q=0.9,en-ZA;q=0.8,pl;q=0.7","666f635d8dd0ca4982930967","686d226cabeef709c732f8e1","686e4ef79ab6441d4ae3aa4f","666f635d8dd0ca4982930967","2025-07-09T11:55:46.792Z","","","","","","AttribQ","","","","","","","","","","","","","","","","","","","","","","","","","","","","","","","","","","","","","","50",""
"5102","","<div style=""width:500px;"">
  <p>How much control did you have over the ball?</p>
  </div>","100","html-slider-response","46","1321400","0.0-10.0-2.1","283","1","2025-07-09 11:33:48","7701e855f2ef39aa3fd6c71abdc6918a","41.145.193.119","Mozilla/5.0 (Windows NT 10.0; Win64; x64) AppleWebKit/537.36 (KHTML, like Gecko) Chrome/138.0.0.0 Safari/537.36 Edg/138.0.0.0","WebKit","Edge","138.0.0.0","Windows","10.0","null","en-US,en;q=0.9,en-ZA;q=0.8,pl;q=0.7","666f635d8dd0ca4982930967","686d226cabeef709c732f8e1","686e4ef79ab6441d4ae3aa4f","666f635d8dd0ca4982930967","2025-07-09T11:55:51.896Z","","","","","","ControlQ","","","","","","","","","","","","","","","","","","","","","","","","","","","","","","","","","","","","","","50",""
"3935","","<div style=""width:500px;"">
  <p>How would you describe your current emotional state?</p>
  </div>","6","html-slider-response","47","1325336","0.0-10.0-3.1","283","1","2025-07-09 11:33:48","7701e855f2ef39aa3fd6c71abdc6918a","41.145.193.119","Mozilla/5.0 (Windows NT 10.0; Win64; x64) AppleWebKit/537.36 (KHTML, like Gecko) Chrome/138.0.0.0 Safari/537.36 Edg/138.0.0.0","WebKit","Edge","138.0.0.0","Windows","10.0","null","en-US,en;q=0.9,en-ZA;q=0.8,pl;q=0.7","666f635d8dd0ca4982930967","686d226cabeef709c732f8e1","686e4ef79ab6441d4ae3aa4f","666f635d8dd0ca4982930967","2025-07-09T11:55:55.832Z","","","","","","StressQ","","","","","","","","","","","","","","","","","","","","","","","","","","","","","","","","","","","","","","50",""
"4759","","<div style=""width:500px;"">
  <p>What best describes how you currently feel?</p>
  </div>","100","html-slider-response","48","1330097","0.0-10.0-4.1","283","1","2025-07-09 11:33:48","7701e855f2ef39aa3fd6c71abdc6918a","41.145.193.119","Mozilla/5.0 (Windows NT 10.0; Win64; x64) AppleWebKit/537.36 (KHTML, like Gecko) Chrome/138.0.0.0 Safari/537.36 Edg/138.0.0.0","WebKit","Edge","138.0.0.0","Windows","10.0","null","en-US,en;q=0.9,en-ZA;q=0.8,pl;q=0.7","666f635d8dd0ca4982930967","686d226cabeef709c732f8e1","686e4ef79ab6441d4ae3aa4f","666f635d8dd0ca4982930967","2025-07-09T11:56:00.593Z","","","","","","MotivationQ","","","","","","","","","","","","","","","","","","","","","","","","","","","","","","","","","","","","","","50",""
"","","","","ctl-task-cpt","49","1369131","0.0-10.0-0.2","283","1","2025-07-09 11:33:48","7701e855f2ef39aa3fd6c71abdc6918a","41.145.193.119","Mozilla/5.0 (Windows NT 10.0; Win64; x64) AppleWebKit/537.36 (KHTML, like Gecko) Chrome/138.0.0.0 Safari/537.36 Edg/138.0.0.0","WebKit","Edge","138.0.0.0","Windows","10.0","null","en-US,en;q=0.9,en-ZA;q=0.8,pl;q=0.7","666f635d8dd0ca4982930967","686d226cabeef709c732f8e1","686e4ef79ab6441d4ae3aa4f","666f635d8dd0ca4982930967","2025-07-09T11:56:39.627Z","","","","","","","","","","","","","","","","win-only","2","g1:SE,g2:NW","0.8","3","0","1334235.2","1814.1","6818.2","36015.6","1","4","4","6","2","-4","-4","0","0","0","1399","3000","-2990","[""left"",""up""]","{""num_key_presses"":5,""num_perfect"":4,""num_errors"":0,""num_randdir"":1,""num_randdir_good_moves"":0,""num_whilered"":0,""num_whileblue"":0,""num_blue"":3,""num_good_moves"":4}","[337.6113649560569,333.9019198092886,0.4,337.6113649560569,333.9019198092886,101,337.6113649560569,333.9019198092886,201.5,262.8863562299369,227.32690736383876,301.9,190.6113477899192,147.70189806551417,402.4,190.6113477899192,147.70189806551417,507.7,190.6113477899192,147.70189806551417,612.1,190.6113477899192,147.70189806551417,717.1,190.6113477899192,147.70189806551417,817.2,190.6113477899192,147.70189806551417,917.2,162.4363444997428,124.42689534754237,1017.2,108.53633820549231,88.9018911990591,1117.2,107.31133806244117,82.77689048380336,1221.8,60.76133262649756,70.52688905329188,1322.3,53.41133176819068,66.85188862413844,1431,53.41133176819068,66.85188862413844,1532.1,53.41133176819068,66.85188862413844,1636.5,53.41133176819068,66.85188862413844,1736.9,53.41133176819068,66.85188862413844,1842.4,53.41133176819068,66.85188862413844,1951.2,53.41133176819068,66.85188862413844,2051.9,53.41133176819068,66.85188862413844,2152,53.41133176819068,66.85188862413844,2252.2,53.41133176819068,66.85188862413844,2352.7,53.41133176819068,66.85188862413844,2459.7,53.41133176819068,66.85188862413844,2562.7,53.41133176819068,66.85188862413844,2666.7,53.41133176819068,66.85188862413844,2767.5,53.41133176819068,66.85188862413844,2871.7,53.41133176819068,66.85188862413844,2977,53.41133176819068,66.85188862413844,3079.2,53.41133176819068,66.85188862413844,3181.9,53.41133176819068,66.85188862413844,3287.3,53.41133176819068,66.85188862413844,3387.7,53.41133176819068,66.85188862413844,3491.6,53.41133176819068,66.85188862413844,3600.1,53.41133176819068,66.85188862413844,3702.1,53.41133176819068,66.85188862413844,3802.1,53.41133176819068,66.85188862413844,3902.1,53.41133176819068,66.85188862413844,4002.2,53.41133176819068,66.85188862413844,4107.1,53.41133176819068,66.85188862413844,4207.4,53.41133176819068,66.85188862413844,4316,53.41133176819068,66.85188862413844,4416.5,53.41133176819068,66.85188862413844,4521.9,53.41133176819068,66.85188862413844,4622,53.41133176819068,66.85188862413844,4728.5,53.41133176819068,66.85188862413844,4832.1,53.41133176819068,66.85188862413844,4932.8]","[5197.2,5197.3,2714.4,2007.9,475,""smooth"",""left"",""left"",""good_move"",8612.1,3414.4,2724,5197.7,690.4,""smooth"",""left"",""left"",""good_move"",15715.1,7102.9,2821.2,12303,590.9,""smooth"",""left"",""left"",""good_move"",18779.8,3064.3,2489,15715.5,575.3,""oops"",""up"",""down"",""bad_move"",21898.7,3118.5,2620.2,18780.2,498.3,""smooth"",""up"",""up"",""good_move""]","","",""
"2600","","<div style=""width:500px;"">
  <p>What determined the result of this run?</p>
  </div>","100","html-slider-response","50","1371732","0.0-10.0-1.2","283","1","2025-07-09 11:33:48","7701e855f2ef39aa3fd6c71abdc6918a","41.145.193.119","Mozilla/5.0 (Windows NT 10.0; Win64; x64) AppleWebKit/537.36 (KHTML, like Gecko) Chrome/138.0.0.0 Safari/537.36 Edg/138.0.0.0","WebKit","Edge","138.0.0.0","Windows","10.0","null","en-US,en;q=0.9,en-ZA;q=0.8,pl;q=0.7","666f635d8dd0ca4982930967","686d226cabeef709c732f8e1","686e4ef79ab6441d4ae3aa4f","666f635d8dd0ca4982930967","2025-07-09T11:56:42.228Z","","","","","","AttribQ","","","","","","","","","","","","","","","","","","","","","","","","","","","","","","","","","","","","","","50",""
"2291","","<div style=""width:500px;"">
  <p>How much control did you have over the ball?</p>
  </div>","81","html-slider-response","51","1374024","0.0-10.0-2.2","283","1","2025-07-09 11:33:48","7701e855f2ef39aa3fd6c71abdc6918a","41.145.193.119","Mozilla/5.0 (Windows NT 10.0; Win64; x64) AppleWebKit/537.36 (KHTML, like Gecko) Chrome/138.0.0.0 Safari/537.36 Edg/138.0.0.0","WebKit","Edge","138.0.0.0","Windows","10.0","null","en-US,en;q=0.9,en-ZA;q=0.8,pl;q=0.7","666f635d8dd0ca4982930967","686d226cabeef709c732f8e1","686e4ef79ab6441d4ae3aa4f","666f635d8dd0ca4982930967","2025-07-09T11:56:44.520Z","","","","","","ControlQ","","","","","","","","","","","","","","","","","","","","","","","","","","","","","","","","","","","","","","50",""
"3168","","<div style=""width:500px;"">
  <p>How would you describe your current emotional state?</p>
  </div>","3","html-slider-response","52","1377193","0.0-10.0-3.2","283","1","2025-07-09 11:33:48","7701e855f2ef39aa3fd6c71abdc6918a","41.145.193.119","Mozilla/5.0 (Windows NT 10.0; Win64; x64) AppleWebKit/537.36 (KHTML, like Gecko) Chrome/138.0.0.0 Safari/537.36 Edg/138.0.0.0","WebKit","Edge","138.0.0.0","Windows","10.0","null","en-US,en;q=0.9,en-ZA;q=0.8,pl;q=0.7","666f635d8dd0ca4982930967","686d226cabeef709c732f8e1","686e4ef79ab6441d4ae3aa4f","666f635d8dd0ca4982930967","2025-07-09T11:56:47.689Z","","","","","","StressQ","","","","","","","","","","","","","","","","","","","","","","","","","","","","","","","","","","","","","","50",""
"3082","","<div style=""width:500px;"">
  <p>What best describes how you currently feel?</p>
  </div>","100","html-slider-response","53","1380277","0.0-10.0-4.2","283","1","2025-07-09 11:33:48","7701e855f2ef39aa3fd6c71abdc6918a","41.145.193.119","Mozilla/5.0 (Windows NT 10.0; Win64; x64) AppleWebKit/537.36 (KHTML, like Gecko) Chrome/138.0.0.0 Safari/537.36 Edg/138.0.0.0","WebKit","Edge","138.0.0.0","Windows","10.0","null","en-US,en;q=0.9,en-ZA;q=0.8,pl;q=0.7","666f635d8dd0ca4982930967","686d226cabeef709c732f8e1","686e4ef79ab6441d4ae3aa4f","666f635d8dd0ca4982930967","2025-07-09T11:56:50.773Z","","","","","","MotivationQ","","","","","","","","","","","","","","","","","","","","","","","","","","","","","","","","","","","","","","50",""
"","","","","ctl-task-cpt","54","1417869","0.0-10.0-0.3","283","1","2025-07-09 11:33:48","7701e855f2ef39aa3fd6c71abdc6918a","41.145.193.119","Mozilla/5.0 (Windows NT 10.0; Win64; x64) AppleWebKit/537.36 (KHTML, like Gecko) Chrome/138.0.0.0 Safari/537.36 Edg/138.0.0.0","WebKit","Edge","138.0.0.0","Windows","10.0","null","en-US,en;q=0.9,en-ZA;q=0.8,pl;q=0.7","666f635d8dd0ca4982930967","686d226cabeef709c732f8e1","686e4ef79ab6441d4ae3aa4f","666f635d8dd0ca4982930967","2025-07-09T11:57:28.365Z","","","","","","","","","","","","","","","","win-only","3","g1:SW,g2:NE","0.7","4","0","1384418.1","1198.8","6200.3","34575.2","1","4","8","6","2","-8","-8","0","0","0","2352.4","3000","-2580","[""up"",""right""]","{""num_key_presses"":6,""num_perfect"":4,""num_errors"":0,""num_randdir"":2,""num_randdir_good_moves"":1,""num_whilered"":0,""num_whileblue"":0,""num_blue"":3,""num_good_moves"":5}","[341.28636538521033,329.001919237084,0.1,342.5113655282615,329.001919237084,100.4,342.5113655282615,329.001919237084,202.9,342.5113655282615,329.001919237084,307.2,342.5113655282615,329.001919237084,407.3,342.5113655282615,329.001919237084,513.8,346.1863659574149,338.8019203814932,616.4,342.5113655282615,386.5769259604879,716.6,325.3613635255454,409.8519286784597,816.9,295.9613600923179,425.77693053812465,917.5,275.13635766044837,430.67693111032924,1021.9,254.31135522857886,418.42692967981776,1127.6,266.56135665909034,400.05192753405055,1228.7,266.56135665909034,398.8269273909994,1336.1,266.56135665909034,398.8269273909994,1436.3,270.2363570882438,400.05192753405055,1537.1,275.13635766044837,401.2769276771017,1637.5,292.28635966316443,381.67692538828334,1741.6,624.2613984300253,49.701886621422375,1850,646.311401004946,32.55188461870631,1953.5,652.4364017202017,28.876884189552868,2057,630.3863991452811,41.12688562006434,2164.1,624.2613984300253,44.801886049217785,2264.2,624.2613984300253,46.02688619226893,2367.5,624.2613984300253,47.25188633532008,2467.5,583.8363937093375,99.92689248651942,2572.3,466.2363799764274,235.9019083651968,2678.1,400.0863722516654,289.8019146594473,2778.8,382.93637024894934,300.8269159469076,2883.5,382.93637024894934,300.8269159469076,2984.2,374.3613692475913,304.50191637606105,3086.4,352.31136667267066,327.77691909403285,3187.2,319.2363628102897,354.7269222411581,3291.7,299.6363605214713,363.3019232425161,3391.8,299.6363605214713,363.3019232425161,3492.1,299.6363605214713,363.3019232425161,3592.7,299.6363605214713,363.3019232425161,3696.6,299.6363605214713,363.3019232425161,3798,299.6363605214713,363.3019232425161,3902.2,299.6363605214713,363.3019232425161,4009.5,299.6363605214713,363.3019232425161,4114.2,299.6363605214713,363.3019232425161,4216.5,299.6363605214713,363.3019232425161,4317.7,299.6363605214713,363.3019232425161,4421.9,299.6363605214713,363.3019232425161,4528.6,299.6363605214713,363.3019232425161,4630.2,299.6363605214713,363.3019232425161,4735.7,299.6363605214713,363.3019232425161,4837.4,299.6363605214713,363.3019232425161,4941.7]","[1563.2,1563.2,1000,0,563.2,""oops"",""up"",""right"",""good_move"",7953.6,6389.4,2849.2,4766.6,337.8,""oops"",""up"",""down"",""bad_move"",10332.7,2378.8,1676.8,7953.9,702,""smooth"",""up"",""up"",""good_move"",12146.3,1812.5,1298.7,10333.8,513.8,""smooth"",""up"",""up"",""good_move"",21848.1,9701.6,2720.1,18705.6,422.4,""smooth"",""up"",""up"",""good_move"",25939.8,4091.4,3578.6,21848.4,512.8,""smooth"",""up"",""up"",""good_move""]","","",""
"6567","","<div style=""width:500px;"">
  <p>What determined the result of this run?</p>
  </div>","94","html-slider-response","55","1424437","0.0-10.0-1.3","283","1","2025-07-09 11:33:48","7701e855f2ef39aa3fd6c71abdc6918a","41.145.193.119","Mozilla/5.0 (Windows NT 10.0; Win64; x64) AppleWebKit/537.36 (KHTML, like Gecko) Chrome/138.0.0.0 Safari/537.36 Edg/138.0.0.0","WebKit","Edge","138.0.0.0","Windows","10.0","null","en-US,en;q=0.9,en-ZA;q=0.8,pl;q=0.7","666f635d8dd0ca4982930967","686d226cabeef709c732f8e1","686e4ef79ab6441d4ae3aa4f","666f635d8dd0ca4982930967","2025-07-09T11:57:34.933Z","","","","","","AttribQ","","","","","","","","","","","","","","","","","","","","","","","","","","","","","","","","","","","","","","50",""
"3742","","<div style=""width:500px;"">
  <p>How much control did you have over the ball?</p>
  </div>","31","html-slider-response","56","1428181","0.0-10.0-2.3","283","1","2025-07-09 11:33:48","7701e855f2ef39aa3fd6c71abdc6918a","41.145.193.119","Mozilla/5.0 (Windows NT 10.0; Win64; x64) AppleWebKit/537.36 (KHTML, like Gecko) Chrome/138.0.0.0 Safari/537.36 Edg/138.0.0.0","WebKit","Edge","138.0.0.0","Windows","10.0","null","en-US,en;q=0.9,en-ZA;q=0.8,pl;q=0.7","666f635d8dd0ca4982930967","686d226cabeef709c732f8e1","686e4ef79ab6441d4ae3aa4f","666f635d8dd0ca4982930967","2025-07-09T11:57:38.677Z","","","","","","ControlQ","","","","","","","","","","","","","","","","","","","","","","","","","","","","","","","","","","","","","","50",""
"4291","","<div style=""width:500px;"">
  <p>How would you describe your current emotional state?</p>
  </div>","64","html-slider-response","57","1432474","0.0-10.0-3.3","283","1","2025-07-09 11:33:48","7701e855f2ef39aa3fd6c71abdc6918a","41.145.193.119","Mozilla/5.0 (Windows NT 10.0; Win64; x64) AppleWebKit/537.36 (KHTML, like Gecko) Chrome/138.0.0.0 Safari/537.36 Edg/138.0.0.0","WebKit","Edge","138.0.0.0","Windows","10.0","null","en-US,en;q=0.9,en-ZA;q=0.8,pl;q=0.7","666f635d8dd0ca4982930967","686d226cabeef709c732f8e1","686e4ef79ab6441d4ae3aa4f","666f635d8dd0ca4982930967","2025-07-09T11:57:42.970Z","","","","","","StressQ","","","","","","","","","","","","","","","","","","","","","","","","","","","","","","","","","","","","","","50",""
"5334","","<div style=""width:500px;"">
  <p>What best describes how you currently feel?</p>
  </div>","100","html-slider-response","58","1437809","0.0-10.0-4.3","283","1","2025-07-09 11:33:48","7701e855f2ef39aa3fd6c71abdc6918a","41.145.193.119","Mozilla/5.0 (Windows NT 10.0; Win64; x64) AppleWebKit/537.36 (KHTML, like Gecko) Chrome/138.0.0.0 Safari/537.36 Edg/138.0.0.0","WebKit","Edge","138.0.0.0","Windows","10.0","null","en-US,en;q=0.9,en-ZA;q=0.8,pl;q=0.7","666f635d8dd0ca4982930967","686d226cabeef709c732f8e1","686e4ef79ab6441d4ae3aa4f","666f635d8dd0ca4982930967","2025-07-09T11:57:48.305Z","","","","","","MotivationQ","","","","","","","","","","","","","","","","","","","","","","","","","","","","","","","","","","","","","","50",""
"","","","","ctl-task-cpt","59","1469286","0.0-10.0-0.4","283","1","2025-07-09 11:33:48","7701e855f2ef39aa3fd6c71abdc6918a","41.145.193.119","Mozilla/5.0 (Windows NT 10.0; Win64; x64) AppleWebKit/537.36 (KHTML, like Gecko) Chrome/138.0.0.0 Safari/537.36 Edg/138.0.0.0","WebKit","Edge","138.0.0.0","Windows","10.0","null","en-US,en;q=0.9,en-ZA;q=0.8,pl;q=0.7","666f635d8dd0ca4982930967","686d226cabeef709c732f8e1","686e4ef79ab6441d4ae3aa4f","666f635d8dd0ca4982930967","2025-07-09T11:58:19.782Z","","","","","","","","","","","","","","","","win-only","2","g1:SE,g2:NW","0.6","5","0","1441945.7","1282.4","6294.7","28460.4","1","4","4","6","1","-1","-1","0","0","0","1562","3000","-2900","[""down"",""right""]","{""num_key_presses"":6,""num_perfect"":4,""num_errors"":0,""num_randdir"":2,""num_randdir_good_moves"":0,""num_whilered"":0,""num_whileblue"":0,""num_blue"":1,""num_good_moves"":4}","[338.83636509910804,329.001919237084,0.2,338.83636509910804,329.001919237084,103.9,338.83636509910804,330.22691938013514,206.3,338.83636509910804,330.22691938013514,308.8,338.83636509910804,330.22691938013514,414.7,338.83636509910804,330.22691938013514,520,319.2363628102897,302.05191608995875,625,139.161341781771,164.85190006823024,728,108.53633820549231,151.3768984946676,828.9,291.0613595201133,354.7269222411581,933.3,717.3614093019125,778.5769717368551,1033.9,743.0864123059866,779.8019718799062,1138.3,716.1364091588614,740.6019673022695,1238.9,687.961405868685,689.1519612941213,1342.8,619.3613978578207,640.1519555720754,1444.2,618.1363977147696,630.3519544276662,1548.7,618.1363977147696,630.3519544276662,1653.8,618.1363977147696,630.3519544276662,1757.8,597.3113952829001,621.7769534263082,1858.8,501.76138412491065,567.8769471320577,1959.4,501.76138412491065,567.8769471320577,2063.6,501.76138412491065,567.8769471320577,2164.5,501.76138412491065,567.8769471320577,2268.3,501.76138412491065,567.8769471320577,2370.4,501.76138412491065,567.8769471320577,2473.1,501.76138412491065,567.8769471320577,2575,549.5363897039053,585.0269491347738,2677,635.2863997174857,643.8269560012288,2778.9,635.2863997174857,643.8269560012288,2883,635.2863997174857,643.8269560012288,2983.9,635.2863997174857,643.8269560012288,3087.9,635.2863997174857,643.8269560012288,3194.9,635.2863997174857,643.8269560012288,3299.5,635.2863997174857,643.8269560012288,3403.9,635.2863997174857,643.8269560012288,3507.9,635.2863997174857,643.8269560012288,3611.4,635.2863997174857,643.8269560012288,3714.9,635.2863997174857,643.8269560012288,3820.6,635.2863997174857,643.8269560012288,3926.4,635.2863997174857,643.8269560012288,4027.8,635.2863997174857,643.8269560012288,4127.8,635.2863997174857,643.8269560012288,4227.9,635.2863997174857,643.8269560012288,4333.8,635.2863997174857,643.8269560012288,4438.6,635.2863997174857,643.8269560012288,4541.9,635.2863997174857,643.8269560012288,4644.1,635.2863997174857,643.8269560012288,4749.3,635.2863997174857,643.8269560012288,4854.7,635.2863997174857,643.8269560012288,4954.7]","[1823.5,1823.5,1000,0,823.5,""smooth"",""right"",""right"",""good_move"",5132.3,3308.2,2733.9,1824.1,574.3,""smooth"",""right"",""right"",""good_move"",11251,6118.4,2377.4,8456.3,417.3,""oops"",""down"",""left"",""bad_move"",13743.9,2492.6,2023.9,11251.3,468.7,""smooth"",""down"",""down"",""good_move"",17137.6,3393.5,2932.3,13744.1,461.2,""oops"",""right"",""left"",""bad_move"",20305.1,3166.7,2760.6,17138.4,406.1,""smooth"",""right"",""right"",""good_move""]","","",""
"6370","","<div style=""width:500px;"">
  <p>What determined the result of this run?</p>
  </div>","33","html-slider-response","60","1475659","0.0-10.0-1.4","283","1","2025-07-09 11:33:48","7701e855f2ef39aa3fd6c71abdc6918a","41.145.193.119","Mozilla/5.0 (Windows NT 10.0; Win64; x64) AppleWebKit/537.36 (KHTML, like Gecko) Chrome/138.0.0.0 Safari/537.36 Edg/138.0.0.0","WebKit","Edge","138.0.0.0","Windows","10.0","null","en-US,en;q=0.9,en-ZA;q=0.8,pl;q=0.7","666f635d8dd0ca4982930967","686d226cabeef709c732f8e1","686e4ef79ab6441d4ae3aa4f","666f635d8dd0ca4982930967","2025-07-09T11:58:26.155Z","","","","","","AttribQ","","","","","","","","","","","","","","","","","","","","","","","","","","","","","","","","","","","","","","50",""
"4673","","<div style=""width:500px;"">
  <p>How much control did you have over the ball?</p>
  </div>","21","html-slider-response","61","1480336","0.0-10.0-2.4","283","1","2025-07-09 11:33:48","7701e855f2ef39aa3fd6c71abdc6918a","41.145.193.119","Mozilla/5.0 (Windows NT 10.0; Win64; x64) AppleWebKit/537.36 (KHTML, like Gecko) Chrome/138.0.0.0 Safari/537.36 Edg/138.0.0.0","WebKit","Edge","138.0.0.0","Windows","10.0","null","en-US,en;q=0.9,en-ZA;q=0.8,pl;q=0.7","666f635d8dd0ca4982930967","686d226cabeef709c732f8e1","686e4ef79ab6441d4ae3aa4f","666f635d8dd0ca4982930967","2025-07-09T11:58:30.833Z","","","","","","ControlQ","","","","","","","","","","","","","","","","","","","","","","","","","","","","","","","","","","","","","","50",""
"3431","","<div style=""width:500px;"">
  <p>How would you describe your current emotional state?</p>
  </div>","68","html-slider-response","62","1483770","0.0-10.0-3.4","283","1","2025-07-09 11:33:48","7701e855f2ef39aa3fd6c71abdc6918a","41.145.193.119","Mozilla/5.0 (Windows NT 10.0; Win64; x64) AppleWebKit/537.36 (KHTML, like Gecko) Chrome/138.0.0.0 Safari/537.36 Edg/138.0.0.0","WebKit","Edge","138.0.0.0","Windows","10.0","null","en-US,en;q=0.9,en-ZA;q=0.8,pl;q=0.7","666f635d8dd0ca4982930967","686d226cabeef709c732f8e1","686e4ef79ab6441d4ae3aa4f","666f635d8dd0ca4982930967","2025-07-09T11:58:34.266Z","","","","","","StressQ","","","","","","","","","","","","","","","","","","","","","","","","","","","","","","","","","","","","","","50",""
"4002","","<div style=""width:500px;"">
  <p>What best describes how you currently feel?</p>
  </div>","62","html-slider-response","63","1487773","0.0-10.0-4.4","283","1","2025-07-09 11:33:48","7701e855f2ef39aa3fd6c71abdc6918a","41.145.193.119","Mozilla/5.0 (Windows NT 10.0; Win64; x64) AppleWebKit/537.36 (KHTML, like Gecko) Chrome/138.0.0.0 Safari/537.36 Edg/138.0.0.0","WebKit","Edge","138.0.0.0","Windows","10.0","null","en-US,en;q=0.9,en-ZA;q=0.8,pl;q=0.7","666f635d8dd0ca4982930967","686d226cabeef709c732f8e1","686e4ef79ab6441d4ae3aa4f","666f635d8dd0ca4982930967","2025-07-09T11:58:38.269Z","","","","","","MotivationQ","","","","","","","","","","","","","","","","","","","","","","","","","","","","","","","","","","","","","","50",""
"","","","","ctl-task-cpt","64","1542046","0.0-10.0-0.5","283","1","2025-07-09 11:33:48","7701e855f2ef39aa3fd6c71abdc6918a","41.145.193.119","Mozilla/5.0 (Windows NT 10.0; Win64; x64) AppleWebKit/537.36 (KHTML, like Gecko) Chrome/138.0.0.0 Safari/537.36 Edg/138.0.0.0","WebKit","Edge","138.0.0.0","Windows","10.0","null","en-US,en;q=0.9,en-ZA;q=0.8,pl;q=0.7","666f635d8dd0ca4982930967","686d226cabeef709c732f8e1","686e4ef79ab6441d4ae3aa4f","666f635d8dd0ca4982930967","2025-07-09T11:59:32.542Z","","","","","","","","","","","","","","","","win-only","1","g1:NE,g2:SW","0.5","6","0","1491909.2","999.8","6001.4","51260.2","1","4","8","6","2","-8","-8","0","0","0","2248.3","3000","-2305","[""down"",""left""]","{""num_key_presses"":7,""num_perfect"":5,""num_errors"":0,""num_randdir"":2,""num_randdir_good_moves"":0,""num_whilered"":0,""num_whileblue"":0,""num_blue"":6,""num_good_moves"":5}","[343.7363656713126,335.12691995233973,0.2,343.7363656713126,335.12691995233973,101.4,343.7363656713126,335.12691995233973,209.9,343.7363656713126,335.12691995233973,310.4,343.7363656713126,335.12691995233973,414.1,343.7363656713126,335.12691995233973,516.5,344.9613658143638,333.9019198092886,616.8,375.58636939064246,333.9019198092886,721.7,396.41137182251197,324.1019186648794,823.6,378.03636967674475,311.85191723436793,928,374.3613692475913,305.7269165191122,1032,374.3613692475913,305.7269165191122,1135.8,374.3613692475913,305.7269165191122,1243.1,374.3613692475913,305.7269165191122,1350.5,374.3613692475913,305.7269165191122,1453.1,374.3613692475913,305.7269165191122,1555.8,375.58636939064246,303.2769162330099,1661.7,373.13636910454017,304.50191637606105,1764.6,208.9863499356864,445.376932826943,1865.3,80.36133491531592,583.8019489917226,1968.3,80.36133491531592,587.476949420876,2072.7,70.56133377090674,605.8519515666433,2176.7,68.11133348480445,607.0769517096944,2281.2,66.8863333417533,607.0769517096944,2381.5,66.8863333417533,605.8519515666433,2483.5,66.8863333417533,605.8519515666433,2586.3,68.11133348480445,600.9519509944387,2690.8,68.11133348480445,600.9519509944387,2790.8,68.11133348480445,600.9519509944387,2897.2,68.11133348480445,600.9519509944387,2998.2,68.11133348480445,600.9519509944387,3102.4,68.11133348480445,600.9519509944387,3206.5,68.11133348480445,600.9519509944387,3306.9,68.11133348480445,600.9519509944387,3413.6,68.11133348480445,600.9519509944387,3516.9,68.11133348480445,600.9519509944387,3617.7,68.11133348480445,600.9519509944387,3723,68.11133348480445,600.9519509944387,3825.6,68.11133348480445,600.9519509944387,3931.9,68.11133348480445,600.9519509944387,4033,68.11133348480445,600.9519509944387,4136.4,68.11133348480445,600.9519509944387,4241.8,68.11133348480445,600.9519509944387,4343.1,68.11133348480445,600.9519509944387,4443.7,68.11133348480445,600.9519509944387,4551.5,68.11133348480445,600.9519509944387,4658.8,68.11133348480445,600.9519509944387,4763.5,68.11133348480445,600.9519509944387,4867.5,68.11133348480445,600.9519509944387,4971]","[8700.4,8700.4,2385.7,5733.6,581.1,""smooth"",""left"",""left"",""good_move"",11427.5,2726.7,2206,8700.8,520.7,""smooth"",""left"",""left"",""good_move"",14833.6,3405.7,2943.5,11427.9,462.2,""smooth"",""left"",""left"",""good_move"",29451.3,14617.5,3015.8,25868.2,567.3,""oops"",""down"",""up"",""bad_move"",32651.8,3200.1,2661.7,29451.8,538.3,""smooth"",""down"",""down"",""good_move"",35201,2548.9,2090.9,32652.2,458,""oops"",""down"",""up"",""bad_move"",41887.1,6685.7,2234.6,39119,533.5,""smooth"",""down"",""down"",""good_move""]","","",""
"4124","","<div style=""width:500px;"">
  <p>What determined the result of this run?</p>
  </div>","72","html-slider-response","65","1546172","0.0-10.0-1.5","283","1","2025-07-09 11:33:48","7701e855f2ef39aa3fd6c71abdc6918a","41.145.193.119","Mozilla/5.0 (Windows NT 10.0; Win64; x64) AppleWebKit/537.36 (KHTML, like Gecko) Chrome/138.0.0.0 Safari/537.36 Edg/138.0.0.0","WebKit","Edge","138.0.0.0","Windows","10.0","null","en-US,en;q=0.9,en-ZA;q=0.8,pl;q=0.7","666f635d8dd0ca4982930967","686d226cabeef709c732f8e1","686e4ef79ab6441d4ae3aa4f","666f635d8dd0ca4982930967","2025-07-09T11:59:36.668Z","","","","","","AttribQ","","","","","","","","","","","","","","","","","","","","","","","","","","","","","","","","","","","","","","50",""
"3179","","<div style=""width:500px;"">
  <p>How much control did you have over the ball?</p>
  </div>","39","html-slider-response","66","1549356","0.0-10.0-2.5","283","1","2025-07-09 11:33:48","7701e855f2ef39aa3fd6c71abdc6918a","41.145.193.119","Mozilla/5.0 (Windows NT 10.0; Win64; x64) AppleWebKit/537.36 (KHTML, like Gecko) Chrome/138.0.0.0 Safari/537.36 Edg/138.0.0.0","WebKit","Edge","138.0.0.0","Windows","10.0","null","en-US,en;q=0.9,en-ZA;q=0.8,pl;q=0.7","666f635d8dd0ca4982930967","686d226cabeef709c732f8e1","686e4ef79ab6441d4ae3aa4f","666f635d8dd0ca4982930967","2025-07-09T11:59:39.852Z","","","","","","ControlQ","","","","","","","","","","","","","","","","","","","","","","","","","","","","","","","","","","","","","","50",""
"5270","","<div style=""width:500px;"">
  <p>How would you describe your current emotional state?</p>
  </div>","79","html-slider-response","67","1554629","0.0-10.0-3.5","283","1","2025-07-09 11:33:48","7701e855f2ef39aa3fd6c71abdc6918a","41.145.193.119","Mozilla/5.0 (Windows NT 10.0; Win64; x64) AppleWebKit/537.36 (KHTML, like Gecko) Chrome/138.0.0.0 Safari/537.36 Edg/138.0.0.0","WebKit","Edge","138.0.0.0","Windows","10.0","null","en-US,en;q=0.9,en-ZA;q=0.8,pl;q=0.7","666f635d8dd0ca4982930967","686d226cabeef709c732f8e1","686e4ef79ab6441d4ae3aa4f","666f635d8dd0ca4982930967","2025-07-09T11:59:45.126Z","","","","","","StressQ","","","","","","","","","","","","","","","","","","","","","","","","","","","","","","","","","","","","","","50",""
"3931","","<div style=""width:500px;"">
  <p>What best describes how you currently feel?</p>
  </div>","68","html-slider-response","68","1558562","0.0-10.0-4.5","283","1","2025-07-09 11:33:48","7701e855f2ef39aa3fd6c71abdc6918a","41.145.193.119","Mozilla/5.0 (Windows NT 10.0; Win64; x64) AppleWebKit/537.36 (KHTML, like Gecko) Chrome/138.0.0.0 Safari/537.36 Edg/138.0.0.0","WebKit","Edge","138.0.0.0","Windows","10.0","null","en-US,en;q=0.9,en-ZA;q=0.8,pl;q=0.7","666f635d8dd0ca4982930967","686d226cabeef709c732f8e1","686e4ef79ab6441d4ae3aa4f","666f635d8dd0ca4982930967","2025-07-09T11:59:49.059Z","","","","","","MotivationQ","","","","","","","","","","","","","","","","","","","","","","","","","","","","","","","","","","","","","","50",""
"","","","","ctl-task-cpt","69","1594998","0.0-10.0-0.6","283","1","2025-07-09 11:33:48","7701e855f2ef39aa3fd6c71abdc6918a","41.145.193.119","Mozilla/5.0 (Windows NT 10.0; Win64; x64) AppleWebKit/537.36 (KHTML, like Gecko) Chrome/138.0.0.0 Safari/537.36 Edg/138.0.0.0","WebKit","Edge","138.0.0.0","Windows","10.0","null","en-US,en;q=0.9,en-ZA;q=0.8,pl;q=0.7","666f635d8dd0ca4982930967","686d226cabeef709c732f8e1","686e4ef79ab6441d4ae3aa4f","666f635d8dd0ca4982930967","2025-07-09T12:00:25.494Z","","","","","","","","","","","","","","","","win-only","0","g1:NW,g2:SE","0.4","7","0","1562699.4","1064.9","6065.6","33413.6","1","4","4","6","2","-4","-4","0","0","0","1566.1","3000","-2730","[""down"",""right""]","{""num_key_presses"":6,""num_perfect"":2,""num_errors"":0,""num_randdir"":4,""num_randdir_good_moves"":2,""num_whilered"":0,""num_whileblue"":0,""num_blue"":2,""num_good_moves"":4}","[347.41136610046607,338.8019203814932,0.2,347.41136610046607,338.8019203814932,100.5,347.41136610046607,338.8019203814932,201.6,347.41136610046607,338.8019203814932,301.7,347.41136610046607,338.8019203814932,402.1,347.41136610046607,338.8019203814932,507.7,347.41136610046607,338.8019203814932,611.5,347.41136610046607,338.8019203814932,718.1,347.41136610046607,338.8019203814932,820.5,347.41136610046607,338.8019203814932,920.8,347.41136610046607,338.8019203814932,1021.3,472.3613806916831,523.7769419822164,1127.5,586.2863939954398,635.2519549998708,1227.6,586.2863939954398,635.2519549998708,1330.4,599.7613955690024,634.0269548568197,1433.3,609.5613967134116,630.3519544276662,1537.1,609.5613967134116,627.9019541415639,1644.6,609.5613967134116,627.9019541415639,1746.8,609.5613967134116,627.9019541415639,1850.4,609.5613967134116,627.9019541415639,1959.4,609.5613967134116,627.9019541415639,2064.7,609.5613967134116,627.9019541415639,2165.2,610.7863968564627,627.9019541415639,2266,610.7863968564627,627.9019541415639,2366.4,610.7863968564627,627.9019541415639,2471.7,610.7863968564627,627.9019541415639,2578.3,610.7863968564627,627.9019541415639,2680.9,610.7863968564627,627.9019541415639,2781.4,610.7863968564627,627.9019541415639,2882.7,610.7863968564627,627.9019541415639,2985.7,610.7863968564627,627.9019541415639,3088.6,610.7863968564627,627.9019541415639,3195.2,610.7863968564627,627.9019541415639,3295.6,610.7863968564627,627.9019541415639,3396.7,610.7863968564627,627.9019541415639,3497.9,610.7863968564627,627.9019541415639,3602.8,610.7863968564627,627.9019541415639,3709,610.7863968564627,627.9019541415639,3809.7,610.7863968564627,627.9019541415639,3914.8,610.7863968564627,627.9019541415639,4016.2,610.7863968564627,627.9019541415639,4118.7,610.7863968564627,627.9019541415639,4219.5,610.7863968564627,627.9019541415639,4320.9,610.7863968564627,627.9019541415639,4423.1,610.7863968564627,627.9019541415639,4527.6,610.7863968564627,627.9019541415639,4633,610.7863968564627,627.9019541415639,4735.6,610.7863968564627,627.9019541415639,4836.4,610.7863968564627,627.9019541415639,4945.7]","[1638.4,1638.4,1000,0,638.4,""oops"",""right"",""right"",""good_move"",5366.8,3728.1,3187.9,1638.8,540.1,""smooth"",""right"",""right"",""good_move"",7998.9,2631.9,2192.4,5367,439.5,""smooth"",""right"",""right"",""good_move"",14771.5,6772.5,2581.3,11699.7,490.5,""oops"",""down"",""up"",""bad_move"",18146.3,3374.4,2942.5,14771.9,431.9,""oops"",""down"",""up"",""bad_move"",25480.2,7333.7,2639.4,21931.8,909,""oops"",""down"",""down"",""good_move""]","","",""
"95507","","<div style=""width:500px;"">
  <p>What determined the result of this run?</p>
  </div>","42","html-slider-response","70","1690506","0.0-10.0-1.6","283","1","2025-07-09 11:33:48","7701e855f2ef39aa3fd6c71abdc6918a","41.145.193.119","Mozilla/5.0 (Windows NT 10.0; Win64; x64) AppleWebKit/537.36 (KHTML, like Gecko) Chrome/138.0.0.0 Safari/537.36 Edg/138.0.0.0","WebKit","Edge","138.0.0.0","Windows","10.0","null","en-US,en;q=0.9,en-ZA;q=0.8,pl;q=0.7","666f635d8dd0ca4982930967","686d226cabeef709c732f8e1","686e4ef79ab6441d4ae3aa4f","666f635d8dd0ca4982930967","2025-07-09T12:02:01.002Z","","","","","","AttribQ","","","","","","","","","","","","","","","","","","","","","","","","","","","","","","","","","","","","","","50",""
"3953","","<div style=""width:500px;"">
  <p>How much control did you have over the ball?</p>
  </div>","9","html-slider-response","71","1694462","0.0-10.0-2.6","283","1","2025-07-09 11:33:48","7701e855f2ef39aa3fd6c71abdc6918a","41.145.193.119","Mozilla/5.0 (Windows NT 10.0; Win64; x64) AppleWebKit/537.36 (KHTML, like Gecko) Chrome/138.0.0.0 Safari/537.36 Edg/138.0.0.0","WebKit","Edge","138.0.0.0","Windows","10.0","null","en-US,en;q=0.9,en-ZA;q=0.8,pl;q=0.7","666f635d8dd0ca4982930967","686d226cabeef709c732f8e1","686e4ef79ab6441d4ae3aa4f","666f635d8dd0ca4982930967","2025-07-09T12:02:04.959Z","","","","","","ControlQ","","","","","","","","","","","","","","","","","","","","","","","","","","","","","","","","","","","","","","50",""
"4128","","<div style=""width:500px;"">
  <p>How would you describe your current emotional state?</p>
  </div>","98","html-slider-response","72","1698596","0.0-10.0-3.6","283","1","2025-07-09 11:33:48","7701e855f2ef39aa3fd6c71abdc6918a","41.145.193.119","Mozilla/5.0 (Windows NT 10.0; Win64; x64) AppleWebKit/537.36 (KHTML, like Gecko) Chrome/138.0.0.0 Safari/537.36 Edg/138.0.0.0","WebKit","Edge","138.0.0.0","Windows","10.0","null","en-US,en;q=0.9,en-ZA;q=0.8,pl;q=0.7","666f635d8dd0ca4982930967","686d226cabeef709c732f8e1","686e4ef79ab6441d4ae3aa4f","666f635d8dd0ca4982930967","2025-07-09T12:02:09.092Z","","","","","","StressQ","","","","","","","","","","","","","","","","","","","","","","","","","","","","","","","","","","","","","","50",""
"2878","","<div style=""width:500px;"">
  <p>What best describes how you currently feel?</p>
  </div>","88","html-slider-response","73","1701481","0.0-10.0-4.6","283","1","2025-07-09 11:33:48","7701e855f2ef39aa3fd6c71abdc6918a","41.145.193.119","Mozilla/5.0 (Windows NT 10.0; Win64; x64) AppleWebKit/537.36 (KHTML, like Gecko) Chrome/138.0.0.0 Safari/537.36 Edg/138.0.0.0","WebKit","Edge","138.0.0.0","Windows","10.0","null","en-US,en;q=0.9,en-ZA;q=0.8,pl;q=0.7","666f635d8dd0ca4982930967","686d226cabeef709c732f8e1","686e4ef79ab6441d4ae3aa4f","666f635d8dd0ca4982930967","2025-07-09T12:02:11.977Z","","","","","","MotivationQ","","","","","","","","","","","","","","","","","","","","","","","","","","","","","","","","","","","","","","50",""
"","","","","ctl-task-cpt","74","1743488","0.0-10.0-0.7","283","1","2025-07-09 11:33:48","7701e855f2ef39aa3fd6c71abdc6918a","41.145.193.119","Mozilla/5.0 (Windows NT 10.0; Win64; x64) AppleWebKit/537.36 (KHTML, like Gecko) Chrome/138.0.0.0 Safari/537.36 Edg/138.0.0.0","WebKit","Edge","138.0.0.0","Windows","10.0","null","en-US,en;q=0.9,en-ZA;q=0.8,pl;q=0.7","666f635d8dd0ca4982930967","686d226cabeef709c732f8e1","686e4ef79ab6441d4ae3aa4f","666f635d8dd0ca4982930967","2025-07-09T12:02:53.984Z","","","","","","","","","","","","","","","","win-only","1","g1:NE,g2:SW","0.3","8","0","1705619.5","1885","6885.7","38976.2","1","4","8","6","2","-8","-9","0","0","0","1475.9","3000","-2595","[""down"",""left""]","{""num_key_presses"":7,""num_perfect"":1,""num_errors"":1,""num_randdir"":5,""num_randdir_good_moves"":4,""num_whilered"":0,""num_whileblue"":1,""num_blue"":4,""num_good_moves"":6}","[330.26136409775,335.12691995233973,0.2,330.26136409775,335.12691995233973,101.1,330.26136409775,335.12691995233973,202.9,330.26136409775,335.12691995233973,308.3,378.03636967674475,487.026937690682,412.2,456.4363788320182,616.8769528541036,513,417.2363742543815,447.8269331130453,616,434.38637625709754,357.1769225272604,717.6,425.8113752557395,333.9019198092886,821.8,84.03633534446936,588.7019495639272,935.7,-38.46367896064538,732.0269663009115,1037.5,-43.36367953284997,725.9019655856557,1137.9,-37.238678817594234,711.201963869042,1240.6,-1.713674669110958,663.4269582900472,1347.3,11.761326904451664,642.6019558581777,1451.3,12.986327047502812,642.6019558581777,1563.2,14.211327190553959,642.6019558581777,1663.6,14.211327190553959,642.6019558581777,1765.5,14.211327190553959,642.6019558581777,1866.3,14.211327190553959,642.6019558581777,1972,14.211327190553959,642.6019558581777,2079,14.211327190553959,642.6019558581777,2181.6,14.211327190553959,642.6019558581777,2281.9,14.211327190553959,642.6019558581777,2387.1,14.211327190553959,642.6019558581777,2491.4,14.211327190553959,642.6019558581777,2597.7,14.211327190553959,642.6019558581777,2700.4,14.211327190553959,642.6019558581777,2801.8,14.211327190553959,642.6019558581777,2907.9,14.211327190553959,642.6019558581777,3017.5,14.211327190553959,642.6019558581777,3117.9,14.211327190553959,642.6019558581777,3220.6,14.211327190553959,642.6019558581777,3323.5,14.211327190553959,642.6019558581777,3432.8,14.211327190553959,642.6019558581777,3535.6,14.211327190553959,642.6019558581777,3636.4,14.211327190553959,642.6019558581777,3741.5,14.211327190553959,642.6019558581777,3849.6,14.211327190553959,642.6019558581777,3951.9,14.211327190553959,642.6019558581777,4052.7,14.211327190553959,642.6019558581777,4161.5,14.211327190553959,642.6019558581777,4268,14.211327190553959,642.6019558581777,4371.1,14.211327190553959,642.6019558581777,4472.2,14.211327190553959,642.6019558581777,4583.3,14.211327190553959,642.6019558581777,4685.3,14.211327190553959,642.6019558581777,4785.9,14.211327190553959,642.6019558581777,4886,14.211327190553959,642.6019558581777,4986.3]","[5091.1,5091.1,2532.2,2000.8,558.1,""oops"",""left"",""left"",""good_move"",7669.6,2577.8,2014.7,5091.8,563.1,""oops"",""left"",""down"",""good_move"",11563.4,3893.5,3462,7669.9,431.5,""oops"",""left"",""down"",""good_move"",17284.3,5720.7,2385.3,14505.2,393.9,""oops"",""left"",""up"",""bad_move"",20185.3,2900,2505.5,17285.4,394.5,""while_blue"",""left"",""left"",""good_move"",23076.8,2891,2192.4,20185.8,698.6,""oops"",""left"",""down"",""good_move"",29742.8,6665.2,2987.2,26264.5,491.1,""smooth"",""left"",""left"",""good_move""]","","",""
"11099","","<div style=""width:500px;"">
  <p>What determined the result of this run?</p>
  </div>","36","html-slider-response","75","1754589","0.0-10.0-1.7","283","1","2025-07-09 11:33:48","7701e855f2ef39aa3fd6c71abdc6918a","41.145.193.119","Mozilla/5.0 (Windows NT 10.0; Win64; x64) AppleWebKit/537.36 (KHTML, like Gecko) Chrome/138.0.0.0 Safari/537.36 Edg/138.0.0.0","WebKit","Edge","138.0.0.0","Windows","10.0","null","en-US,en;q=0.9,en-ZA;q=0.8,pl;q=0.7","666f635d8dd0ca4982930967","686d226cabeef709c732f8e1","686e4ef79ab6441d4ae3aa4f","666f635d8dd0ca4982930967","2025-07-09T12:03:05.085Z","","","","","","AttribQ","","","","","","","","","","","","","","","","","","","","","","","","","","","","","","","","","","","","","","50",""
"4007","","<div style=""width:500px;"">
  <p>How much control did you have over the ball?</p>
  </div>","38","html-slider-response","76","1758599","0.0-10.0-2.7","283","1","2025-07-09 11:33:48","7701e855f2ef39aa3fd6c71abdc6918a","41.145.193.119","Mozilla/5.0 (Windows NT 10.0; Win64; x64) AppleWebKit/537.36 (KHTML, like Gecko) Chrome/138.0.0.0 Safari/537.36 Edg/138.0.0.0","WebKit","Edge","138.0.0.0","Windows","10.0","null","en-US,en;q=0.9,en-ZA;q=0.8,pl;q=0.7","666f635d8dd0ca4982930967","686d226cabeef709c732f8e1","686e4ef79ab6441d4ae3aa4f","666f635d8dd0ca4982930967","2025-07-09T12:03:09.095Z","","","","","","ControlQ","","","","","","","","","","","","","","","","","","","","","","","","","","","","","","","","","","","","","","50",""
"15339","","<div style=""width:500px;"">
  <p>How would you describe your current emotional state?</p>
  </div>","86","html-slider-response","77","1773941","0.0-10.0-3.7","283","1","2025-07-09 11:33:48","7701e855f2ef39aa3fd6c71abdc6918a","41.145.193.119","Mozilla/5.0 (Windows NT 10.0; Win64; x64) AppleWebKit/537.36 (KHTML, like Gecko) Chrome/138.0.0.0 Safari/537.36 Edg/138.0.0.0","WebKit","Edge","138.0.0.0","Windows","10.0","null","en-US,en;q=0.9,en-ZA;q=0.8,pl;q=0.7","666f635d8dd0ca4982930967","686d226cabeef709c732f8e1","686e4ef79ab6441d4ae3aa4f","666f635d8dd0ca4982930967","2025-07-09T12:03:24.437Z","","","","","","StressQ","","","","","","","","","","","","","","","","","","","","","","","","","","","","","","","","","","","","","","50",""
"2469","","<div style=""width:500px;"">
  <p>What best describes how you currently feel?</p>
  </div>","75","html-slider-response","78","1776415","0.0-10.0-4.7","283","1","2025-07-09 11:33:48","7701e855f2ef39aa3fd6c71abdc6918a","41.145.193.119","Mozilla/5.0 (Windows NT 10.0; Win64; x64) AppleWebKit/537.36 (KHTML, like Gecko) Chrome/138.0.0.0 Safari/537.36 Edg/138.0.0.0","WebKit","Edge","138.0.0.0","Windows","10.0","null","en-US,en;q=0.9,en-ZA;q=0.8,pl;q=0.7","666f635d8dd0ca4982930967","686d226cabeef709c732f8e1","686e4ef79ab6441d4ae3aa4f","666f635d8dd0ca4982930967","2025-07-09T12:03:26.912Z","","","","","","MotivationQ","","","","","","","","","","","","","","","","","","","","","","","","","","","","","","","","","","","","","","50",""
"","","","","ctl-task-cpt","79","1808707","0.0-10.0-0.8","283","1","2025-07-09 11:33:48","7701e855f2ef39aa3fd6c71abdc6918a","41.145.193.119","Mozilla/5.0 (Windows NT 10.0; Win64; x64) AppleWebKit/537.36 (KHTML, like Gecko) Chrome/138.0.0.0 Safari/537.36 Edg/138.0.0.0","WebKit","Edge","138.0.0.0","Windows","10.0","null","en-US,en;q=0.9,en-ZA;q=0.8,pl;q=0.7","666f635d8dd0ca4982930967","686d226cabeef709c732f8e1","686e4ef79ab6441d4ae3aa4f","666f635d8dd0ca4982930967","2025-07-09T12:03:59.203Z","","","","","","","","","","","","","","","","win-only","1","g1:NE,g2:SW","0.2","9","0","1780550.3","1433.2","6438.2","29280.7","1","4","8","6","2","-8","-8","0","0","0","1267.7","3000","-2595","[""down"",""left""]","{""num_key_presses"":6,""num_perfect"":1,""num_errors"":0,""num_randdir"":5,""num_randdir_good_moves"":1,""num_whilered"":0,""num_whileblue"":0,""num_blue"":1,""num_good_moves"":2}","[337.6113649560569,333.9019198092886,0.3,337.6113649560569,333.9019198092886,103.8,337.6113649560569,333.9019198092886,210.8,337.6113649560569,333.9019198092886,312.9,337.6113649560569,333.9019198092886,413.9,337.6113649560569,333.9019198092886,522.8,337.6113649560569,333.9019198092886,627.2,267.7863568021415,469.87693568796595,727.6,-23.763677244031612,744.2769677314229,828.1,-22.538677100980465,735.7019667300649,936.2,-9.063675527417843,702.6269628676839,1040.6,38.71133005157691,654.8519572886892,1143.2,53.41133176819068,634.0269548568197,1248.5,53.41133176819068,634.0269548568197,1354.2,53.41133176819068,634.0269548568197,1455.8,53.41133176819068,634.0269548568197,1557.6,53.41133176819068,634.0269548568197,1658.4,53.41133176819068,634.0269548568197,1765.1,53.41133176819068,634.0269548568197,1872.3,53.41133176819068,634.0269548568197,1974.4,53.41133176819068,634.0269548568197,2080.9,53.41133176819068,634.0269548568197,2184.4,53.41133176819068,634.0269548568197,2291,53.41133176819068,634.0269548568197,2392.3,91.38633620277625,501.7269394072958,2495.2,85.26133548752051,420.87692996592006,2599.1,86.48633563057166,431.9019312533804,2708.5,117.11133920685035,452.7269336852499,2808.6,108.53633820549231,474.77693626017054,2909.5,107.31133806244117,510.3019404086538,3014.8,135.48634135261756,583.8019489917226,3119.9,135.48634135261756,583.8019489917226,3223.9,135.48634135261756,583.8019489917226,3325.2,135.48634135261756,583.8019489917226,3429.5,135.48634135261756,583.8019489917226,3535.3,135.48634135261756,583.8019489917226,3636.3,135.48634135261756,583.8019489917226,3737.8,135.48634135261756,583.8019489917226,3840.1,135.48634135261756,583.8019489917226,3942.2,135.48634135261756,583.8019489917226,4042.4,135.48634135261756,583.8019489917226,4143.5,135.48634135261756,583.8019489917226,4249.5,135.48634135261756,583.8019489917226,4353.9,135.48634135261756,583.8019489917226,4458.2,135.48634135261756,583.8019489917226,4559.7,135.48634135261756,583.8019489917226,4660.3,135.48634135261756,583.8019489917226,4762.6,135.48634135261756,583.8019489917226,4865.4,135.48634135261756,583.8019489917226,4972.2]","[1853.7,1853.7,1000,0,853.7,""oops"",""down"",""up"",""bad_move"",4780.6,2926.4,2438.9,1854.2,487.5,""oops"",""down"",""right"",""bad_move"",7040,2259.2,1734.2,4780.8,525,""oops"",""down"",""left"",""good_move"",9858.7,2818.3,2321.9,7040.4,496.4,""oops"",""down"",""up"",""bad_move"",12692.5,2833.5,2436,9859.1,397.4,""oops"",""down"",""right"",""bad_move"",15304.5,2611.1,2183.4,12693.4,427.7,""smooth"",""down"",""down"",""good_move""]","","",""
"3330","","<div style=""width:500px;"">
  <p>What determined the result of this run?</p>
  </div>","14","html-slider-response","80","1812039","0.0-10.0-1.8","283","1","2025-07-09 11:33:48","7701e855f2ef39aa3fd6c71abdc6918a","41.145.193.119","Mozilla/5.0 (Windows NT 10.0; Win64; x64) AppleWebKit/537.36 (KHTML, like Gecko) Chrome/138.0.0.0 Safari/537.36 Edg/138.0.0.0","WebKit","Edge","138.0.0.0","Windows","10.0","null","en-US,en;q=0.9,en-ZA;q=0.8,pl;q=0.7","666f635d8dd0ca4982930967","686d226cabeef709c732f8e1","686e4ef79ab6441d4ae3aa4f","666f635d8dd0ca4982930967","2025-07-09T12:04:02.535Z","","","","","","AttribQ","","","","","","","","","","","","","","","","","","","","","","","","","","","","","","","","","","","","","","50",""
"2976","","<div style=""width:500px;"">
  <p>How much control did you have over the ball?</p>
  </div>","0","html-slider-response","81","1815016","0.0-10.0-2.8","283","1","2025-07-09 11:33:48","7701e855f2ef39aa3fd6c71abdc6918a","41.145.193.119","Mozilla/5.0 (Windows NT 10.0; Win64; x64) AppleWebKit/537.36 (KHTML, like Gecko) Chrome/138.0.0.0 Safari/537.36 Edg/138.0.0.0","WebKit","Edge","138.0.0.0","Windows","10.0","null","en-US,en;q=0.9,en-ZA;q=0.8,pl;q=0.7","666f635d8dd0ca4982930967","686d226cabeef709c732f8e1","686e4ef79ab6441d4ae3aa4f","666f635d8dd0ca4982930967","2025-07-09T12:04:05.512Z","","","","","","ControlQ","","","","","","","","","","","","","","","","","","","","","","","","","","","","","","","","","","","","","","50",""
"2343","","<div style=""width:500px;"">
  <p>How would you describe your current emotional state?</p>
  </div>","100","html-slider-response","82","1817360","0.0-10.0-3.8","283","1","2025-07-09 11:33:48","7701e855f2ef39aa3fd6c71abdc6918a","41.145.193.119","Mozilla/5.0 (Windows NT 10.0; Win64; x64) AppleWebKit/537.36 (KHTML, like Gecko) Chrome/138.0.0.0 Safari/537.36 Edg/138.0.0.0","WebKit","Edge","138.0.0.0","Windows","10.0","null","en-US,en;q=0.9,en-ZA;q=0.8,pl;q=0.7","666f635d8dd0ca4982930967","686d226cabeef709c732f8e1","686e4ef79ab6441d4ae3aa4f","666f635d8dd0ca4982930967","2025-07-09T12:04:07.856Z","","","","","","StressQ","","","","","","","","","","","","","","","","","","","","","","","","","","","","","","","","","","","","","","50",""
"2312","","<div style=""width:500px;"">
  <p>What best describes how you currently feel?</p>
  </div>","48","html-slider-response","83","1819673","0.0-10.0-4.8","283","1","2025-07-09 11:33:48","7701e855f2ef39aa3fd6c71abdc6918a","41.145.193.119","Mozilla/5.0 (Windows NT 10.0; Win64; x64) AppleWebKit/537.36 (KHTML, like Gecko) Chrome/138.0.0.0 Safari/537.36 Edg/138.0.0.0","WebKit","Edge","138.0.0.0","Windows","10.0","null","en-US,en;q=0.9,en-ZA;q=0.8,pl;q=0.7","666f635d8dd0ca4982930967","686d226cabeef709c732f8e1","686e4ef79ab6441d4ae3aa4f","666f635d8dd0ca4982930967","2025-07-09T12:04:10.169Z","","","","","","MotivationQ","","","","","","","","","","","","","","","","","","","","","","","","","","","","","","","","","","","","","","50",""
"","","","","ctl-task-cpt","84","1835588","0.0-10.0-0.9","283","1","2025-07-09 11:33:48","7701e855f2ef39aa3fd6c71abdc6918a","41.145.193.119","Mozilla/5.0 (Windows NT 10.0; Win64; x64) AppleWebKit/537.36 (KHTML, like Gecko) Chrome/138.0.0.0 Safari/537.36 Edg/138.0.0.0","WebKit","Edge","138.0.0.0","Windows","10.0","null","en-US,en;q=0.9,en-ZA;q=0.8,pl;q=0.7","666f635d8dd0ca4982930967","686d226cabeef709c732f8e1","686e4ef79ab6441d4ae3aa4f","666f635d8dd0ca4982930967","2025-07-09T12:04:26.085Z","","","","","","","","","","","","","","","","win-only","1","g1:NE,g2:SW","0.4","10","0","1823807","1227.5","6238.2","12890.6","1","4","4","6","2","-4","-4","0","0","0","1811.5","3000","-1670","[""down"",""left""]","{""num_key_presses"":0,""num_perfect"":0,""num_errors"":0,""num_randdir"":0,""num_randdir_good_moves"":0,""num_whilered"":0,""num_whileblue"":0,""num_blue"":0,""num_good_moves"":0}","[336.38636481300574,346.15192123980006,0.3,336.38636481300574,346.15192123980006,104,336.38636481300574,346.15192123980006,206.6,336.38636481300574,344.9269210967489,307.3,336.38636481300574,344.9269210967489,407.5,336.38636481300574,344.9269210967489,511.2,336.38636481300574,344.9269210967489,615.4,336.38636481300574,344.9269210967489,719.6,336.38636481300574,344.9269210967489,821.7,336.38636481300574,344.9269210967489,924.3,336.38636481300574,344.9269210967489,1024.5,336.38636481300574,344.9269210967489,1128.5,336.38636481300574,344.9269210967489,1229.1,305.76136123672705,407.40192839235743,1330.4,118.3363393499015,554.4019455584951,1437.2,95.06133663192969,574.0019478473134,1538,69.3363336278556,594.8269502791829,1641.1,79.13633477226477,610.7519521388479,1743.7,80.36133491531592,611.976952281899,1848.9,80.36133491531592,611.976952281899,1949.7,80.36133491531592,611.976952281899,2057.3,80.36133491531592,611.976952281899,2159.7,80.36133491531592,611.976952281899,2261.2,80.36133491531592,611.976952281899,2363.3,80.36133491531592,611.976952281899,2465.6,80.36133491531592,611.976952281899,2571.5,80.36133491531592,611.976952281899,2674.7,80.36133491531592,611.976952281899,2778.6,80.36133491531592,611.976952281899,2885.6,80.36133491531592,611.976952281899,2986.9,80.36133491531592,611.976952281899,3089.2,80.36133491531592,611.976952281899,3189.3,80.36133491531592,611.976952281899,3291.3,82.81133520141822,598.5019507083364,3393.5,316.7863625241874,88.9018911990591,3493.9,472.3613806916831,-91.17312982945958,3595.7,472.3613806916831,-91.17312982945958,3698.8,472.3613806916831,-91.17312982945958,3799.7,472.3613806916831,-91.17312982945958,3909,472.3613806916831,-91.17312982945958,4014.1,472.3613806916831,-91.17312982945958,4114.1,472.3613806916831,-91.17312982945958,4224.7,472.3613806916831,-91.17312982945958,4328.3,472.3613806916831,-91.17312982945958,4431.2,472.3613806916831,-91.17312982945958,4531.6,472.3613806916831,-91.17312982945958,4634.1,472.3613806916831,-91.17312982945958,4735.6,472.3613806916831,-91.17312982945958,4837.3,472.3613806916831,-91.17312982945958,4939.9]","[]","","",""
"5765","","<div style=""width:500px;"">
  <p>What determined the result of this run?</p>
  </div>","71","html-slider-response","85","1841357","0.0-10.0-1.9","283","1","2025-07-09 11:33:48","7701e855f2ef39aa3fd6c71abdc6918a","41.145.193.119","Mozilla/5.0 (Windows NT 10.0; Win64; x64) AppleWebKit/537.36 (KHTML, like Gecko) Chrome/138.0.0.0 Safari/537.36 Edg/138.0.0.0","WebKit","Edge","138.0.0.0","Windows","10.0","null","en-US,en;q=0.9,en-ZA;q=0.8,pl;q=0.7","666f635d8dd0ca4982930967","686d226cabeef709c732f8e1","686e4ef79ab6441d4ae3aa4f","666f635d8dd0ca4982930967","2025-07-09T12:04:31.854Z","","","","","","AttribQ","","","","","","","","","","","","","","","","","","","","","","","","","","","","","","","","","","","","","","50",""
"2904","","<div style=""width:500px;"">
  <p>How much control did you have over the ball?</p>
