"rt","response_timestamp","stimulus","response","trial_type","trial_index","time_elapsed","internal_node_id","run_id","condition","recorded_at","source_code_version","ip","user_agent","device","browser","browser_version","platform","platform_version","referer","accept_language","PROLIFIC_PID","STUDY_ID","SESSION_ID","prolific_id","realtime","view_history","question_order","consent","success","question_id","eventType","responses","item_order","radio_event_ids","radio_event_times","key_event_times","mouse_event_times","straightlining","zigzagging","honeypot","which_type","canvas_config","goals_layout","control_level","trial_number","tutorial_trial_number","trial_start_time","phase1_start_time","phase2_start_time","phase3_start_time","goal_1_value","goal_1_distance","goal_2_value","goal_2_distance","goal_selected","outcome","outcome_total","participant_final_score","participant_initial_score","participant_final_score_prop","goal_choice_rt","allocated_time","allocated_time_remaining","goal_direction","counts","mouse_movements","key_presses","correct","slider_start"
"111970","1752052614643","<p style='font-size:40px;line-height:1.25'><strong>Welcome to the experiment!</strong></p><p style='font-size:1.1em;line-height:1.25'>Thank you for your interest in our experiment! Before you begin, it is important that we obtain your informed consent to participate in the study.</p><p style='font-size:1.1em;line-height:1.25'>On the next screen will be an <strong>information sheet</strong> for you to read. To participate in the study we need you to read this information sheet and the following consent form carefully. If you agree with all the statements, please click the <strong>I agree</strong> button.</p><p style='font-size:1.1em;line-height:1.25'>Press <strong>Next</strong> to read the information sheet.</p>","0","custom-html-button-response","0","111975","0.0-0.0","189","1","2025-07-09 09:15:00","7701e855f2ef39aa3fd6c71abdc6918a","102.219.25.34","Mozilla/5.0 (Windows NT 10.0; Win64; x64) AppleWebKit/537.36 (KHTML, like Gecko) Chrome/138.0.0.0 Safari/537.36","WebKit","Chrome","138.0.0.0","Windows","10.0","https://app.prolific.com/","en-US,en;q=0.9","67d35cb70a0ad6d3c2703443","686d226cabeef709c732f8e1","686e3149237902f5be59e1d1","67d35cb70a0ad6d3c2703443","2025-07-09T09:16:54.646Z","","","","","","","","","","","","","","","","","","","","","","","","","","","","","","","","","","","","","","","","","","","",""
"57052","","","","instructions","1","169037","0.0-1.0","189","1","2025-07-09 09:15:00","7701e855f2ef39aa3fd6c71abdc6918a","102.219.25.34","Mozilla/5.0 (Windows NT 10.0; Win64; x64) AppleWebKit/537.36 (KHTML, like Gecko) Chrome/138.0.0.0 Safari/537.36","WebKit","Chrome","138.0.0.0","Windows","10.0","https://app.prolific.com/","en-US,en;q=0.9","67d35cb70a0ad6d3c2703443","686d226cabeef709c732f8e1","686e3149237902f5be59e1d1","67d35cb70a0ad6d3c2703443","","[{""page_index"":0,""viewing_time"":34339},{""page_index"":1,""viewing_time"":22712}]","","","","","","","","","","","","","","","","","","","","","","","","","","","","","","","","","","","","","","","","","","",""
"10635","","","{""Q0"":"""",""Q1"":"""",""Q2"":"""",""Q3"":"""",""Q4"":"""",""Q5"":"""",""Q6"":""I agree""}","survey-multi-choice","2","179682","0.0-2.0","189","1","2025-07-09 09:15:00","7701e855f2ef39aa3fd6c71abdc6918a","102.219.25.34","Mozilla/5.0 (Windows NT 10.0; Win64; x64) AppleWebKit/537.36 (KHTML, like Gecko) Chrome/138.0.0.0 Safari/537.36","WebKit","Chrome","138.0.0.0","Windows","10.0","https://app.prolific.com/","en-US,en;q=0.9","67d35cb70a0ad6d3c2703443","686d226cabeef709c732f8e1","686e3149237902f5be59e1d1","67d35cb70a0ad6d3c2703443","","","[0,1,2,3,4,5,6]","true","","","","","","","","","","","","","","","","","","","","","","","","","","","","","","","","","","","","","","","","",""
"19863","","","","fullscreen","3","200569","0.0-4.0","189","1","2025-07-09 09:15:00","7701e855f2ef39aa3fd6c71abdc6918a","102.219.25.34","Mozilla/5.0 (Windows NT 10.0; Win64; x64) AppleWebKit/537.36 (KHTML, like Gecko) Chrome/138.0.0.0 Safari/537.36","WebKit","Chrome","138.0.0.0","Windows","10.0","https://app.prolific.com/","en-US,en;q=0.9","67d35cb70a0ad6d3c2703443","686d226cabeef709c732f8e1","686e3149237902f5be59e1d1","67d35cb70a0ad6d3c2703443","","","","","true","","","","","","","","","","","","","","","","","","","","","","","","","","","","","","","","","","","","","","","",""
"18065","1752052721309"," <p style='font-size:1.1em;line-height:1.25'>Thank you for completing the consent form and closing all other tabs.</p><p style='font-size:1.1em;line-height:1.25'>We will now invite you to fill in some demographic information and questionnaires, before starting the game.<br>This will take about 5 minutes.<br></p><p style='font-size:1.1em;line-height:1.25'>Press the <strong>Next</strong> button to continue.</p>","0","custom-html-button-response","4","218639","0.0-5.0","189","1","2025-07-09 09:15:00","7701e855f2ef39aa3fd6c71abdc6918a","102.219.25.34","Mozilla/5.0 (Windows NT 10.0; Win64; x64) AppleWebKit/537.36 (KHTML, like Gecko) Chrome/138.0.0.0 Safari/537.36","WebKit","Chrome","138.0.0.0","Windows","10.0","https://app.prolific.com/","en-US,en;q=0.9","67d35cb70a0ad6d3c2703443","686d226cabeef709c732f8e1","686e3149237902f5be59e1d1","67d35cb70a0ad6d3c2703443","2025-07-09T09:18:41.311Z","","","","","","","","","","","","","","","","","","","","","","","","","","","","","","","","","","","","","","","","","","","",""
"14898","","","{""age"":""32""}","survey-text","5","233558","0.0-6.0-0.0","189","1","2025-07-09 09:15:00","7701e855f2ef39aa3fd6c71abdc6918a","102.219.25.34","Mozilla/5.0 (Windows NT 10.0; Win64; x64) AppleWebKit/537.36 (KHTML, like Gecko) Chrome/138.0.0.0 Safari/537.36","WebKit","Chrome","138.0.0.0","Windows","10.0","https://app.prolific.com/","en-US,en;q=0.9","67d35cb70a0ad6d3c2703443","686d226cabeef709c732f8e1","686e3149237902f5be59e1d1","67d35cb70a0ad6d3c2703443","","","","","","0","demographics","","","","","","","","","","","","","","","","","","","","","","","","","","","","","","","","","","","","","",""
"5130","","","{""gender_identity"":""female/woman""}","survey-multi-choice","6","238692","0.0-6.0-1.0","189","1","2025-07-09 09:15:00","7701e855f2ef39aa3fd6c71abdc6918a","102.219.25.34","Mozilla/5.0 (Windows NT 10.0; Win64; x64) AppleWebKit/537.36 (KHTML, like Gecko) Chrome/138.0.0.0 Safari/537.36","WebKit","Chrome","138.0.0.0","Windows","10.0","https://app.prolific.com/","en-US,en;q=0.9","67d35cb70a0ad6d3c2703443","686d226cabeef709c732f8e1","686e3149237902f5be59e1d1","67d35cb70a0ad6d3c2703443","","","[0]","","","1","demographics","","","","","","","","","","","","","","","","","","","","","","","","","","","","","","","","","","","","","",""
"8645","","","{""assigned_sex"":""female""}","survey-multi-choice","7","247339","0.0-6.0-2.0","189","1","2025-07-09 09:15:00","7701e855f2ef39aa3fd6c71abdc6918a","102.219.25.34","Mozilla/5.0 (Windows NT 10.0; Win64; x64) AppleWebKit/537.36 (KHTML, like Gecko) Chrome/138.0.0.0 Safari/537.36","WebKit","Chrome","138.0.0.0","Windows","10.0","https://app.prolific.com/","en-US,en;q=0.9","67d35cb70a0ad6d3c2703443","686d226cabeef709c732f8e1","686e3149237902f5be59e1d1","67d35cb70a0ad6d3c2703443","","","[0]","","","2","demographics","","","","","","","","","","","","","","","","","","","","","","","","","","","","","","","","","","","","","",""
"6725","","","{""menstrual_cycle"":""Yes""}","survey-multi-choice","8","254067","0.0-6.0-3.0","189","1","2025-07-09 09:15:00","7701e855f2ef39aa3fd6c71abdc6918a","102.219.25.34","Mozilla/5.0 (Windows NT 10.0; Win64; x64) AppleWebKit/537.36 (KHTML, like Gecko) Chrome/138.0.0.0 Safari/537.36","WebKit","Chrome","138.0.0.0","Windows","10.0","https://app.prolific.com/","en-US,en;q=0.9","67d35cb70a0ad6d3c2703443","686d226cabeef709c732f8e1","686e3149237902f5be59e1d1","67d35cb70a0ad6d3c2703443","","","[0]","","","4","demographics","","","","","","","","","","","","","","","","","","","","","","","","","","","","","","","","","","","","","",""
"9502","","","{""education"":""Doctoral Degree (e.g., PhD)""}","survey-multi-choice","9","263574","0.0-6.0-4.0","189","1","2025-07-09 09:15:00","7701e855f2ef39aa3fd6c71abdc6918a","102.219.25.34","Mozilla/5.0 (Windows NT 10.0; Win64; x64) AppleWebKit/537.36 (KHTML, like Gecko) Chrome/138.0.0.0 Safari/537.36","WebKit","Chrome","138.0.0.0","Windows","10.0","https://app.prolific.com/","en-US,en;q=0.9","67d35cb70a0ad6d3c2703443","686d226cabeef709c732f8e1","686e3149237902f5be59e1d1","67d35cb70a0ad6d3c2703443","","","[0]","","","5","demographics","","","","","","","","","","","","","","","","","","","","","","","","","","","","","","","","","","","","","",""
"32640","","","{""education"":""Bachelor's Degree (e.g., BA)""}","survey-multi-choice","10","296221","0.0-6.0-5.0","189","1","2025-07-09 09:15:00","7701e855f2ef39aa3fd6c71abdc6918a","102.219.25.34","Mozilla/5.0 (Windows NT 10.0; Win64; x64) AppleWebKit/537.36 (KHTML, like Gecko) Chrome/138.0.0.0 Safari/537.36","WebKit","Chrome","138.0.0.0","Windows","10.0","https://app.prolific.com/","en-US,en;q=0.9","67d35cb70a0ad6d3c2703443","686d226cabeef709c732f8e1","686e3149237902f5be59e1d1","67d35cb70a0ad6d3c2703443","2025-07-09T09:19:58.892Z","","[0]","","","6","demographics","","","","","","","","","","","","","","","","","","","","","","","","","","","","","","","","","","","","","",""
"51308","","","{""mental_health_condition"":""no"",""mental_health_treatment"":""Yes and it is part of our job requirements"",""psychiatric_medication"":""no""}","survey-text","11","347536","0.0-7.0-0.0","189","1","2025-07-09 09:15:00","7701e855f2ef39aa3fd6c71abdc6918a","102.219.25.34","Mozilla/5.0 (Windows NT 10.0; Win64; x64) AppleWebKit/537.36 (KHTML, like Gecko) Chrome/138.0.0.0 Safari/537.36","WebKit","Chrome","138.0.0.0","Windows","10.0","https://app.prolific.com/","en-US,en;q=0.9","67d35cb70a0ad6d3c2703443","686d226cabeef709c732f8e1","686e3149237902f5be59e1d1","67d35cb70a0ad6d3c2703443","2025-07-09T09:20:50.207Z","","","","","1","mental_health","","","","","","","","","","","","","","","","","","","","","","","","","","","","","","","","","","","","","",""
"14437","","","{""depression_history"":[""Yes""]}","survey-multi-select","12","362036","0.0-7.0-1.0","189","1","2025-07-09 09:15:00","7701e855f2ef39aa3fd6c71abdc6918a","102.219.25.34","Mozilla/5.0 (Windows NT 10.0; Win64; x64) AppleWebKit/537.36 (KHTML, like Gecko) Chrome/138.0.0.0 Safari/537.36","WebKit","Chrome","138.0.0.0","Windows","10.0","https://app.prolific.com/","en-US,en;q=0.9","67d35cb70a0ad6d3c2703443","686d226cabeef709c732f8e1","686e3149237902f5be59e1d1","67d35cb70a0ad6d3c2703443","","","[0]","","","","mental_health","","","","","","","","","","","","","","","","","","","","","","","","","","","","","","","","","","","","","",""
"19359","","","{""depression_episodes"":""more than 5"",""depression_recent"":""Within the past year""}","survey-multi-choice","13","381400","0.0-7.0-2.0-0.0","189","1","2025-07-09 09:15:00","7701e855f2ef39aa3fd6c71abdc6918a","102.219.25.34","Mozilla/5.0 (Windows NT 10.0; Win64; x64) AppleWebKit/537.36 (KHTML, like Gecko) Chrome/138.0.0.0 Safari/537.36","WebKit","Chrome","138.0.0.0","Windows","10.0","https://app.prolific.com/","en-US,en;q=0.9","67d35cb70a0ad6d3c2703443","686d226cabeef709c732f8e1","686e3149237902f5be59e1d1","67d35cb70a0ad6d3c2703443","2025-07-09T09:21:24.071Z","","[0,1]","","","3","mental_health","","","","","","","","","","","","","","","","","","","","","","","","","","","","","","","","","","","","","",""
"116235.10000002384","","","","survey-template","14","497647","0.0-7.0-3.0","189","1","2025-07-09 09:15:00","7701e855f2ef39aa3fd6c71abdc6918a","102.219.25.34","Mozilla/5.0 (Windows NT 10.0; Win64; x64) AppleWebKit/537.36 (KHTML, like Gecko) Chrome/138.0.0.0 Safari/537.36","WebKit","Chrome","138.0.0.0","Windows","10.0","https://app.prolific.com/","en-US,en;q=0.9","67d35cb70a0ad6d3c2703443","686d226cabeef709c732f8e1","686e3149237902f5be59e1d1","67d35cb70a0ad6d3c2703443","2025-07-09T09:23:20.318Z","","","","","","ius","{""Q01"":""3"",""Q02"":""2"",""Q03"":""2"",""Q04"":""3"",""Q05"":""3"",""Q06"":""2"",""Q07"":""1"",""Q08"":""0"",""Q09"":""4"",""Q10"":""1"",""Q11"":""1"",""Q12"":""3"",""Q13"":""4""}","[0,1,2,3,4,5,6,7,8,9,10,11,12]","[""Q01"",""Q02"",""Q03"",""Q04"",""Q05"",""Q06"",""Q07"",""Q08"",""Q09"",""Q10"",""Q11"",""Q11"",""Q12"",""Q13""]","[13670.199999928474,21684.600000023842,26273,32187.699999928474,38438.60000002384,51038.60000002384,57475.799999952316,67885.19999992847,78882.10000002384,85340.10000002384,99414.89999997616,102997.10000002384,107146.89999997616,115013.29999995232]","[]","[11356.699999928474,13670.199999928474,19283.799999952316,21684.600000023842,26273,32187.699999928474,38438.60000002384,49237.39999997616,51038.60000002384,57475.799999952316,67885.19999992847,78882.10000002384,83800.5,85340.10000002384,99414.89999997616,101379.89999997616,102997.10000002384,107146.89999997616,113613.60000002384,115013.29999995232,116230.39999997616]","0.3076923076923077","0.5833333333333334","0","","","","","","","","","","","","","","","","","","","","","","","","","","","","",""
"7863","1752053008186","<p style='font-size:1.1em;line-height:1.25'>In the following, we will ask you a few questions relating to your experiences over the past month.<br></p><p style='font-size:1.1em;line-height:1.25'>Press the <strong>Next</strong> button to continue.</p>","0","custom-html-button-response","15","505515","0.0-7.0-4.0","189","1","2025-07-09 09:15:00","7701e855f2ef39aa3fd6c71abdc6918a","102.219.25.34","Mozilla/5.0 (Windows NT 10.0; Win64; x64) AppleWebKit/537.36 (KHTML, like Gecko) Chrome/138.0.0.0 Safari/537.36","WebKit","Chrome","138.0.0.0","Windows","10.0","https://app.prolific.com/","en-US,en;q=0.9","67d35cb70a0ad6d3c2703443","686d226cabeef709c732f8e1","686e3149237902f5be59e1d1","67d35cb70a0ad6d3c2703443","2025-07-09T09:23:28.187Z","","","","","","","","","","","","","","","","","","","","","","","","","","","","","","","","","","","","","","","","","","","",""
"106495.29999995232","","","","survey-template","16","612018","0.0-7.0-5.0","189","1","2025-07-09 09:15:00","7701e855f2ef39aa3fd6c71abdc6918a","102.219.25.34","Mozilla/5.0 (Windows NT 10.0; Win64; x64) AppleWebKit/537.36 (KHTML, like Gecko) Chrome/138.0.0.0 Safari/537.36","WebKit","Chrome","138.0.0.0","Windows","10.0","https://app.prolific.com/","en-US,en;q=0.9","67d35cb70a0ad6d3c2703443","686d226cabeef709c732f8e1","686e3149237902f5be59e1d1","67d35cb70a0ad6d3c2703443","2025-07-09T09:25:14.690Z","","","","","","pss","{""Q01"":""1"",""Q02"":""1"",""Q03"":""0"",""Q04"":""0"",""Q05"":""1"",""Q06"":""1"",""Q07"":""0"",""Q08"":""1"",""Q09"":""0"",""Q10"":""0""}","[0,1,2,3,4,5,6,7,8,9]","[""Q01"",""Q01"",""Q01"",""Q02"",""Q03"",""Q04"",""Q05"",""Q06"",""Q06"",""Q06"",""Q07"",""Q08"",""Q09"",""Q10""]","[15350.5,20571.100000023842,21084.199999928474,29808,35017.5,40730.89999997616,49363.299999952316,61039.699999928474,64239,68562.19999992847,82552.29999995232,87791.5,94067.29999995232,104814.19999992847]","[20571.100000023842,21084.199999928474]","[0,15350.5,29808,35017.5,40730.89999997616,49363.299999952316,61039.699999928474,62488.199999928474,64239,68562.19999992847,82552.29999995232,87791.5,94067.29999995232,103654.69999992847,104814.19999992847,106479.69999992847]","0.3","0.4444444444444444","0","","","","","","","","","","","","","","","","","","","","","","","","","","","","",""
"6849","1752053121542","<p style='font-size:1.1em;line-height:1.25'>Thank you for your answers! Now we will ask you a few more questions relating to your feelings in the last 24 hours.<br></p><p style='font-size:1.1em;line-height:1.25'>Press the <strong>Next</strong> button to continue.</p>","0","custom-html-button-response","17","618873","0.0-7.0-6.0","189","1","2025-07-09 09:15:00","7701e855f2ef39aa3fd6c71abdc6918a","102.219.25.34","Mozilla/5.0 (Windows NT 10.0; Win64; x64) AppleWebKit/537.36 (KHTML, like Gecko) Chrome/138.0.0.0 Safari/537.36","WebKit","Chrome","138.0.0.0","Windows","10.0","https://app.prolific.com/","en-US,en;q=0.9","67d35cb70a0ad6d3c2703443","686d226cabeef709c732f8e1","686e3149237902f5be59e1d1","67d35cb70a0ad6d3c2703443","2025-07-09T09:25:21.544Z","","","","","","","","","","","","","","","","","","","","","","","","","","","","","","","","","","","","","","","","","","","",""
"85755.20000004768","","","","survey-template","18","704641","0.0-7.0-7.0","189","1","2025-07-09 09:15:00","7701e855f2ef39aa3fd6c71abdc6918a","102.219.25.34","Mozilla/5.0 (Windows NT 10.0; Win64; x64) AppleWebKit/537.36 (KHTML, like Gecko) Chrome/138.0.0.0 Safari/537.36","WebKit","Chrome","138.0.0.0","Windows","10.0","https://app.prolific.com/","en-US,en;q=0.9","67d35cb70a0ad6d3c2703443","686d226cabeef709c732f8e1","686e3149237902f5be59e1d1","67d35cb70a0ad6d3c2703443","2025-07-09T09:26:47.312Z","","","","","","drsp","{""Q01"":""0"",""Q02"":""0"",""Q03"":""0"",""Q04"":""0"",""Q05"":""0"",""Q06"":""0"",""Q07"":""0"",""Q08"":""0"",""Q09"":""0"",""Q10"":""0"",""Q11"":""0"",""Q12"":""2"",""Q13"":""3"",""Q14"":""0"",""Q15"":""0"",""Q16"":""0"",""Q17"":""0"",""Q18"":""0"",""Q19"":""0"",""Q20"":""0"",""Q21"":""0""}","[0,1,2,3,4,5,6,7,8,9,10,11,12,13,14,15,16,17,18,19,20]","[""Q01"",""Q02"",""Q03"",""Q04"",""Q05"",""Q06"",""Q07"",""Q08"",""Q09"",""Q10"",""Q11"",""Q12"",""Q13"",""Q12"",""Q12"",""Q14"",""Q15"",""Q16"",""Q17"",""Q18"",""Q19"",""Q20"",""Q21""]","[2509,5217.899999976158,9082,10884.100000023842,12157.700000047684,14993.700000047684,17823.600000023842,18882.600000023842,29297.600000023842,33113.5,36187.200000047684,38160.200000047684,41653.5,44209,46078.5,51836.200000047684,56749.89999997616,58128.799999952316,64550,69000.5,75941.39999997616,81142.39999997616,83994.39999997616]","[]","[0.3999999761581421,2509,3836.2999999523163,5217.899999976158,9082,10884.100000023842,12157.700000047684,14993.700000047684,17823.600000023842,18882.600000023842,29297.600000023842,31679.100000023842,33113.5,36187.200000047684,38160.200000047684,41653.5,44209,46078.5,51836.200000047684,55161.60000002384,56749.89999997616,58128.799999952316,64550,69000.5,75941.39999997616,81142.39999997616,83994.39999997616,85730.79999995232]","0.9047619047619048","0.05","0","","","","","","","","","","","","","","","","","","","","","","","","","","","","",""
"21998.200000047684","","","","survey-template","19","726644","0.0-7.0-8.0","189","1","2025-07-09 09:15:00","7701e855f2ef39aa3fd6c71abdc6918a","102.219.25.34","Mozilla/5.0 (Windows NT 10.0; Win64; x64) AppleWebKit/537.36 (KHTML, like Gecko) Chrome/138.0.0.0 Safari/537.36","WebKit","Chrome","138.0.0.0","Windows","10.0","https://app.prolific.com/","en-US,en;q=0.9","67d35cb70a0ad6d3c2703443","686d226cabeef709c732f8e1","686e3149237902f5be59e1d1","67d35cb70a0ad6d3c2703443","2025-07-09T09:27:09.315Z","","","","","","stress","{""Q01"":""0"",""Q02"":""0"",""Q03"":""1""}","[0,1,2]","[""Q01"",""Q02"",""Q03""]","[7235.399999976158,15099.899999976158,20396.899999976158]","[]","[7235.399999976158,15099.899999976158,20396.899999976158,21992.5]","0.3333333333333333","0.5","0","","","","","","","","","","","","","","","","","","","","","","","","","","","","",""
"149355","","","","instructions","20","876002","0.0-8.0-0.0","189","1","2025-07-09 09:15:00","7701e855f2ef39aa3fd6c71abdc6918a","102.219.25.34","Mozilla/5.0 (Windows NT 10.0; Win64; x64) AppleWebKit/537.36 (KHTML, like Gecko) Chrome/138.0.0.0 Safari/537.36","WebKit","Chrome","138.0.0.0","Windows","10.0","https://app.prolific.com/","en-US,en;q=0.9","67d35cb70a0ad6d3c2703443","686d226cabeef709c732f8e1","686e3149237902f5be59e1d1","67d35cb70a0ad6d3c2703443","","[{""page_index"":0,""viewing_time"":46620},{""page_index"":1,""viewing_time"":45423},{""page_index"":2,""viewing_time"":14173},{""page_index"":1,""viewing_time"":869},{""page_index"":0,""viewing_time"":2640},{""page_index"":1,""viewing_time"":834},{""page_index"":2,""viewing_time"":20119},{""page_index"":3,""viewing_time"":18677}]","","","","","","","","","","","","","","","","","","","","","","","","","","","","","","","","","","","","","","","","","","",""
"","","","","ctl-task-cpt","21","914216","0.0-8.0-1.0","189","1","2025-07-09 09:15:00","7701e855f2ef39aa3fd6c71abdc6918a","102.219.25.34","Mozilla/5.0 (Windows NT 10.0; Win64; x64) AppleWebKit/537.36 (KHTML, like Gecko) Chrome/138.0.0.0 Safari/537.36","WebKit","Chrome","138.0.0.0","Windows","10.0","https://app.prolific.com/","en-US,en;q=0.9","67d35cb70a0ad6d3c2703443","686d226cabeef709c732f8e1","686e3149237902f5be59e1d1","67d35cb70a0ad6d3c2703443","","","","","","","","","","","","","","","","","win-only","0","g1:NW,g2:SE","1","0","1","879776.9","5867.3","9870.8","35168.1","2","4","4","6","2","4","2","2","0","0.015151515151515152","4003.5","4000","2215","[""down"",""right""]","{""num_key_presses"":10,""num_perfect"":7,""num_errors"":2,""num_randdir"":0,""num_randdir_good_moves"":0,""num_whilered"":1,""num_whileblue"":1,""num_blue"":2,""num_good_moves"":7}","[419.57142857142856,408.6808016640799,4.1,419.57142857142856,408.6808016640799,101.5,419.57142857142856,408.6808016640799,202.1,419.57142857142856,408.6808016640799,302.5,419.57142857142856,408.6808016640799,403.7,419.57142857142856,408.6808016640799,508.8,419.57142857142856,408.6808016640799,610.8,419.57142857142856,408.6808016640799,716.6,419.57142857142856,408.6808016640799,824.2,419.57142857142856,408.6808016640799,925.5,419.57142857142856,408.6808016640799,1030.4,419.57142857142856,408.6808016640799,1134,419.57142857142856,408.6808016640799,1235.1,419.57142857142856,408.6808016640799,1337.1,419.57142857142856,408.6808016640799,1445.3,419.57142857142856,408.6808016640799,1554.7,419.57142857142856,408.6808016640799,1660.8,419.57142857142856,408.6808016640799,1761.6,419.57142857142856,408.6808016640799,1869.9,419.57142857142856,408.6808016640799,1970.2,419.57142857142856,408.6808016640799,2073,419.57142857142856,408.6808016640799,2178.4,419.57142857142856,408.6808016640799,2283.7,419.57142857142856,408.6808016640799,2391.1,419.57142857142856,408.6808016640799,2493.6,419.57142857142856,408.6808016640799,2594.4,419.57142857142856,408.6808016640799,2701.3,419.57142857142856,408.6808016640799,2806.6,419.57142857142856,408.6808016640799,2910.1,419.57142857142856,408.6808016640799,3012.3,419.57142857142856,408.6808016640799,3119.3,419.57142857142856,408.6808016640799,3225.8,419.57142857142856,408.6808016640799,3332.3,419.57142857142856,408.6808016640799,3435,715.0714285714286,890.1808016640799,3539.4,770.5714285714286,942.6808016640799,3644.9,839.5714285714286,959.1808016640799,3754.1,839.5714285714286,959.1808016640799,3862.1,839.5714285714286,959.1808016640799,3967.8]","[1159.5,1159.6,1000,0.1,159.5,""smooth"",""down"",""down"",""good_move"",1467.7,307,2936.2,1160.8,-2629.3,""error"",""-"",""-"",""no_move"",1641.7,173.4,2936.2,1160.8,-2455.2,""while_red"",""-"",""-"",""no_move"",4910.1,3441.7,2111.9,2471.2,327,""smooth"",""down"",""down"",""good_move"",8205.3,3292.6,2734.5,4912.7,558.1,""smooth"",""right"",""right"",""good_move"",10796.1,2589.6,2229.9,8206.6,359.6,""smooth"",""right"",""right"",""good_move"",13823,3026,2731.5,10797,294.5,""while_blue"",""right"",""up"",""bad_move"",16034.8,2209.8,1833.7,13825,376.1,""smooth"",""right"",""right"",""good_move"",18980.2,2944.4,2542.9,16035.9,401.4,""smooth"",""down"",""down"",""good_move"",25174.3,6193.3,2300.1,22554.1,320.1,""smooth"",""down"",""down"",""good_move""]","",""
"21847","","","","instructions","22","936064","0.0-8.0-2.0","189","1","2025-07-09 09:15:00","7701e855f2ef39aa3fd6c71abdc6918a","102.219.25.34","Mozilla/5.0 (Windows NT 10.0; Win64; x64) AppleWebKit/537.36 (KHTML, like Gecko) Chrome/138.0.0.0 Safari/537.36","WebKit","Chrome","138.0.0.0","Windows","10.0","https://app.prolific.com/","en-US,en;q=0.9","67d35cb70a0ad6d3c2703443","686d226cabeef709c732f8e1","686e3149237902f5be59e1d1","67d35cb70a0ad6d3c2703443","","[{""page_index"":0,""viewing_time"":21840}]","","","","","","","","","","","","","","","","","","","","","","","","","","","","","","","","","","","","","","","","","","",""
"","","","","ctl-task-cpt","23","1006913","0.0-8.0-3.0","189","1","2025-07-09 09:15:00","7701e855f2ef39aa3fd6c71abdc6918a","102.219.25.34","Mozilla/5.0 (Windows NT 10.0; Win64; x64) AppleWebKit/537.36 (KHTML, like Gecko) Chrome/138.0.0.0 Safari/537.36","WebKit","Chrome","138.0.0.0","Windows","10.0","https://app.prolific.com/","en-US,en;q=0.9","67d35cb70a0ad6d3c2703443","686d226cabeef709c732f8e1","686e3149237902f5be59e1d1","67d35cb70a0ad6d3c2703443","","","","","","","","","","","","","","","","","win-only","0","g1:NW,g2:SE","0.35","0","3","939811.6","6339.9","10345.1","67828.7","2","4","8","6","2","-8","-12","0","0","0","4005.2","4000","-1830","[""down"",""right""]","{""num_key_presses"":17,""num_perfect"":5,""num_errors"":4,""num_randdir"":8,""num_randdir_good_moves"":5,""num_whilered"":0,""num_whileblue"":3,""num_blue"":5,""num_good_moves"":7}","[415.07142857142856,416.1808016640799,1.6,415.07142857142856,416.1808016640799,102.4,415.07142857142856,416.1808016640799,210.5,415.07142857142856,416.1808016640799,312.3,415.07142857142856,416.1808016640799,420,415.07142857142856,416.1808016640799,521.9,415.07142857142856,416.1808016640799,626.9,415.07142857142856,416.1808016640799,727.6,415.07142857142856,416.1808016640799,828.6,415.07142857142856,416.1808016640799,933.8,415.07142857142856,416.1808016640799,1039.5,415.07142857142856,416.1808016640799,1142,415.07142857142856,416.1808016640799,1255.1,415.07142857142856,416.1808016640799,1362.6,415.07142857142856,416.1808016640799,1470.6,415.07142857142856,416.1808016640799,1573.4,415.07142857142856,416.1808016640799,1691,415.07142857142856,416.1808016640799,1805.4,415.07142857142856,416.1808016640799,1906.4,415.07142857142856,416.1808016640799,2007,415.07142857142856,416.1808016640799,2111.6,415.07142857142856,416.1808016640799,2221.9,415.07142857142856,416.1808016640799,2322,415.07142857142856,416.1808016640799,2422,415.07142857142856,416.1808016640799,2541.1,415.07142857142856,416.1808016640799,2641.2,415.07142857142856,416.1808016640799,2743.7,415.07142857142856,416.1808016640799,2855.6,415.07142857142856,416.1808016640799,2961.1,415.07142857142856,416.1808016640799,3061.8,415.07142857142856,416.1808016640799,3167,415.07142857142856,416.1808016640799,3267.6,415.07142857142856,416.1808016640799,3372.1,415.07142857142856,416.1808016640799,3478.3,415.07142857142856,416.1808016640799,3588.7,415.07142857142856,416.1808016640799,3691.9,415.07142857142856,416.1808016640799,3794.1,415.07142857142856,416.1808016640799,3894.7]","[1365.3,1365.5,1000,0,365.5,""smooth"",""right"",""right"",""good_move"",3852.4,2486.1,2132,1366.3,354.1,""oops"",""down"",""right"",""good_move"",7128.6,3274.6,2858.1,3854,416.5,""oops"",""down"",""up"",""bad_move"",9604,2474.3,2062.6,7129.7,411.7,""oops"",""up"",""left"",""bad_move"",12581.4,2975.2,2557.9,9606.3,417.2,""smooth"",""up"",""up"",""bad_move"",16298.2,3715.7,3253,12582.5,462.7,""oops"",""left"",""down"",""good_move"",19151.3,2851.1,2500.9,16300.2,350.2,""oops"",""left"",""down"",""good_move"",22212.4,3058.9,2733.5,19153.6,325.3,""while_blue"",""left"",""left"",""bad_move"",25046.1,2832.6,2147.4,22213.6,685.1,""smooth"",""left"",""left"",""bad_move"",28458.2,3411.5,2929.8,25046.8,481.7,""oops"",""left"",""down"",""good_move"",31472.3,3012.8,2577.9,28459.5,434.9,""smooth"",""left"",""left"",""bad_move"",34048.9,2575.4,2207.5,31473.6,367.9,""while_blue"",""down"",""up"",""bad_move"",36647.5,2597.9,2158.7,34049.7,439.2,""oops"",""down"",""right"",""good_move"",38255.9,1607.3,2210.3,36648.6,-603,""error"",""-"",""-"",""no_move"",44974.9,6717.7,2354.4,42316.3,304.2,""while_blue"",""up"",""right"",""good_move"",51106,6130.3,1752.4,48899.7,454,""smooth"",""up"",""up"",""bad_move"",54267.7,3161,2044,51106.7,1117,""oops"",""right"",""left"",""bad_move""]","",""
"83163","","","","instructions","24","1090078","0.0-8.0-4.0","189","1","2025-07-09 09:15:00","7701e855f2ef39aa3fd6c71abdc6918a","102.219.25.34","Mozilla/5.0 (Windows NT 10.0; Win64; x64) AppleWebKit/537.36 (KHTML, like Gecko) Chrome/138.0.0.0 Safari/537.36","WebKit","Chrome","138.0.0.0","Windows","10.0","https://app.prolific.com/","en-US,en;q=0.9","67d35cb70a0ad6d3c2703443","686d226cabeef709c732f8e1","686e3149237902f5be59e1d1","67d35cb70a0ad6d3c2703443","","[{""page_index"":0,""viewing_time"":26829},{""page_index"":1,""viewing_time"":56334}]","","","","","","","","","","","","","","","","","","","","","","","","","","","","","","","","","","","","","","","","","","",""
"56453","","","{""green_ball"":[""Ball sometimes shakes and moves in a random direction""]}","survey-multi-select","25","1146545","0.0-8.0-5.0-0.0","189","1","2025-07-09 09:15:00","7701e855f2ef39aa3fd6c71abdc6918a","102.219.25.34","Mozilla/5.0 (Windows NT 10.0; Win64; x64) AppleWebKit/537.36 (KHTML, like Gecko) Chrome/138.0.0.0 Safari/537.36","WebKit","Chrome","138.0.0.0","Windows","10.0","https://app.prolific.com/","en-US,en;q=0.9","67d35cb70a0ad6d3c2703443","686d226cabeef709c732f8e1","686e3149237902f5be59e1d1","67d35cb70a0ad6d3c2703443","","","[0]","","","","quiz","","","","","","","","","","","","","","","","","","","","","","","","","","","","","","","","","","","","","true",""
"5385","","<p align='center'><b>CORRECT!</b> Indeed, the green ball may sometimes shake and move in a random direction.</p>","0","html-button-response","26","1151940","0.0-8.0-5.0-1.0","189","1","2025-07-09 09:15:00","7701e855f2ef39aa3fd6c71abdc6918a","102.219.25.34","Mozilla/5.0 (Windows NT 10.0; Win64; x64) AppleWebKit/537.36 (KHTML, like Gecko) Chrome/138.0.0.0 Safari/537.36","WebKit","Chrome","138.0.0.0","Windows","10.0","https://app.prolific.com/","en-US,en;q=0.9","67d35cb70a0ad6d3c2703443","686d226cabeef709c732f8e1","686e3149237902f5be59e1d1","67d35cb70a0ad6d3c2703443","","","","","","","","","","","","","","","","","","","","","","","","","","","","","","","","","","","","","","","","","","","","",""
"29587","","","{""yellow_ball"":[""Ball doesn‘t move and I get -1 penalty point""]}","survey-multi-select","27","1181537","0.0-8.0-6.0-0.0","189","1","2025-07-09 09:15:00","7701e855f2ef39aa3fd6c71abdc6918a","102.219.25.34","Mozilla/5.0 (Windows NT 10.0; Win64; x64) AppleWebKit/537.36 (KHTML, like Gecko) Chrome/138.0.0.0 Safari/537.36","WebKit","Chrome","138.0.0.0","Windows","10.0","https://app.prolific.com/","en-US,en;q=0.9","67d35cb70a0ad6d3c2703443","686d226cabeef709c732f8e1","686e3149237902f5be59e1d1","67d35cb70a0ad6d3c2703443","","","[0]","","","","quiz","","","","","","","","","","","","","","","","","","","","","","","","","","","","","","","","","","","","","true",""
"2776","","<p align='center'><b>CORRECT!</b> Indeed, the yellow ball never moves and you receive a penalty.</p>","0","html-button-response","28","1184319","0.0-8.0-6.0-1.0","189","1","2025-07-09 09:15:00","7701e855f2ef39aa3fd6c71abdc6918a","102.219.25.34","Mozilla/5.0 (Windows NT 10.0; Win64; x64) AppleWebKit/537.36 (KHTML, like Gecko) Chrome/138.0.0.0 Safari/537.36","WebKit","Chrome","138.0.0.0","Windows","10.0","https://app.prolific.com/","en-US,en;q=0.9","67d35cb70a0ad6d3c2703443","686d226cabeef709c732f8e1","686e3149237902f5be59e1d1","67d35cb70a0ad6d3c2703443","","","","","","","","","","","","","","","","","","","","","","","","","","","","","","","","","","","","","","","","","","","","",""
"8235","","","{""blue_ball"":[""Ball always shakes and moves in a random direction""]}","survey-multi-select","29","1192563","0.0-8.0-7.0-0.0","189","1","2025-07-09 09:15:00","7701e855f2ef39aa3fd6c71abdc6918a","102.219.25.34","Mozilla/5.0 (Windows NT 10.0; Win64; x64) AppleWebKit/537.36 (KHTML, like Gecko) Chrome/138.0.0.0 Safari/537.36","WebKit","Chrome","138.0.0.0","Windows","10.0","https://app.prolific.com/","en-US,en;q=0.9","67d35cb70a0ad6d3c2703443","686d226cabeef709c732f8e1","686e3149237902f5be59e1d1","67d35cb70a0ad6d3c2703443","","","[0]","","","","quiz","","","","","","","","","","","","","","","","","","","","","","","","","","","","","","","","","","","","","true",""
"2112","","<p align='center'><b>CORRECT!</b> Indeed, the blue ball always shakes and moves in a random direction. Also there is a penalty of -1 point.</p>","0","html-button-response","30","1194679","0.0-8.0-7.0-1.0","189","1","2025-07-09 09:15:00","7701e855f2ef39aa3fd6c71abdc6918a","102.219.25.34","Mozilla/5.0 (Windows NT 10.0; Win64; x64) AppleWebKit/537.36 (KHTML, like Gecko) Chrome/138.0.0.0 Safari/537.36","WebKit","Chrome","138.0.0.0","Windows","10.0","https://app.prolific.com/","en-US,en;q=0.9","67d35cb70a0ad6d3c2703443","686d226cabeef709c732f8e1","686e3149237902f5be59e1d1","67d35cb70a0ad6d3c2703443","","","","","","","","","","","","","","","","","","","","","","","","","","","","","","","","","","","","","","","","","","","","",""
"8655","","","{""bonus"":[""When I reach 50% of points""]}","survey-multi-select","31","1203342","0.0-8.0-8.0-0.0","189","1","2025-07-09 09:15:00","7701e855f2ef39aa3fd6c71abdc6918a","102.219.25.34","Mozilla/5.0 (Windows NT 10.0; Win64; x64) AppleWebKit/537.36 (KHTML, like Gecko) Chrome/138.0.0.0 Safari/537.36","WebKit","Chrome","138.0.0.0","Windows","10.0","https://app.prolific.com/","en-US,en;q=0.9","67d35cb70a0ad6d3c2703443","686d226cabeef709c732f8e1","686e3149237902f5be59e1d1","67d35cb70a0ad6d3c2703443","","","[0]","","","","quiz","","","","","","","","","","","","","","","","","","","","","","","","","","","","","","","","","","","","","true",""
"1991","","<p align='center'><b>CORRECT!</b> Indeed, you receive 2 pounds extra when you reach 50% of points.</p>","0","html-button-response","32","1205339","0.0-8.0-8.0-1.0","189","1","2025-07-09 09:15:00","7701e855f2ef39aa3fd6c71abdc6918a","102.219.25.34","Mozilla/5.0 (Windows NT 10.0; Win64; x64) AppleWebKit/537.36 (KHTML, like Gecko) Chrome/138.0.0.0 Safari/537.36","WebKit","Chrome","138.0.0.0","Windows","10.0","https://app.prolific.com/","en-US,en;q=0.9","67d35cb70a0ad6d3c2703443","686d226cabeef709c732f8e1","686e3149237902f5be59e1d1","67d35cb70a0ad6d3c2703443","","","","","","","","","","","","","","","","","","","","","","","","","","","","","","","","","","","","","","","","","","","","",""
"12091","","","","instructions","33","1217438","0.0-8.0-9.0","189","1","2025-07-09 09:15:00","7701e855f2ef39aa3fd6c71abdc6918a","102.219.25.34","Mozilla/5.0 (Windows NT 10.0; Win64; x64) AppleWebKit/537.36 (KHTML, like Gecko) Chrome/138.0.0.0 Safari/537.36","WebKit","Chrome","138.0.0.0","Windows","10.0","https://app.prolific.com/","en-US,en;q=0.9","67d35cb70a0ad6d3c2703443","686d226cabeef709c732f8e1","686e3149237902f5be59e1d1","67d35cb70a0ad6d3c2703443","","[{""page_index"":0,""viewing_time"":12090}]","","","","","","","","","","","","","","","","","","","","","","","","","","","","","","","","","","","","","","","","","","",""
"27214","","<p>Before you start with this game please answer the following three questions yourself. </p>
  <p>Through this game, we measure several aspects of your cognitive performance, such as reaction times, multi-tasking capabilities </p>
  <p>and the ability to assess the situation you are in.</p>
  <p></p>
  <p><b>How good do you usually are in such tasks?</b></p>","96","html-slider-response","34","1244670","0.0-9.0-0.0","189","1","2025-07-09 09:15:00","7701e855f2ef39aa3fd6c71abdc6918a","102.219.25.34","Mozilla/5.0 (Windows NT 10.0; Win64; x64) AppleWebKit/537.36 (KHTML, like Gecko) Chrome/138.0.0.0 Safari/537.36","WebKit","Chrome","138.0.0.0","Windows","10.0","https://app.prolific.com/","en-US,en;q=0.9","67d35cb70a0ad6d3c2703443","686d226cabeef709c732f8e1","686e3149237902f5be59e1d1","67d35cb70a0ad6d3c2703443","2025-07-09T09:35:47.341Z","","","","","","PreSkillQ","","","","","","","","","","","","","","","","","","","","","","","","","","","","","","","","","","","","","","50"
"7310","","<div style=""width:500px;"">
  <p>How well do you think you will perform in this task compared to other participants?</p>
  </div>","81","html-slider-response","35","1251983","0.0-9.0-1.0","189","1","2025-07-09 09:15:00","7701e855f2ef39aa3fd6c71abdc6918a","102.219.25.34","Mozilla/5.0 (Windows NT 10.0; Win64; x64) AppleWebKit/537.36 (KHTML, like Gecko) Chrome/138.0.0.0 Safari/537.36","WebKit","Chrome","138.0.0.0","Windows","10.0","https://app.prolific.com/","en-US,en;q=0.9","67d35cb70a0ad6d3c2703443","686d226cabeef709c732f8e1","686e3149237902f5be59e1d1","67d35cb70a0ad6d3c2703443","2025-07-09T09:35:54.665Z","","","","","","PrePerfQ","","","","","","","","","","","","","","","","","","","","","","","","","","","","","","","","","","","","","","50"
"8760","","<div style=""width:500px;"">
  <p>What best describes how you currently feel?</p>
  </div>","100","html-slider-response","36","1260757","0.0-9.0-2.0","189","1","2025-07-09 09:15:00","7701e855f2ef39aa3fd6c71abdc6918a","102.219.25.34","Mozilla/5.0 (Windows NT 10.0; Win64; x64) AppleWebKit/537.36 (KHTML, like Gecko) Chrome/138.0.0.0 Safari/537.36","WebKit","Chrome","138.0.0.0","Windows","10.0","https://app.prolific.com/","en-US,en;q=0.9","67d35cb70a0ad6d3c2703443","686d226cabeef709c732f8e1","686e3149237902f5be59e1d1","67d35cb70a0ad6d3c2703443","2025-07-09T09:36:03.429Z","","","","","","PreMotivationQ","","","","","","","","","","","","","","","","","","","","","","","","","","","","","","","","","","","","","","50"
"","","","","ctl-task-cpt","37","1308141","0.0-10.0-0.0","189","1","2025-07-09 09:15:00","7701e855f2ef39aa3fd6c71abdc6918a","102.219.25.34","Mozilla/5.0 (Windows NT 10.0; Win64; x64) AppleWebKit/537.36 (KHTML, like Gecko) Chrome/138.0.0.0 Safari/537.36","WebKit","Chrome","138.0.0.0","Windows","10.0","https://app.prolific.com/","en-US,en;q=0.9","67d35cb70a0ad6d3c2703443","686d226cabeef709c732f8e1","686e3149237902f5be59e1d1","67d35cb70a0ad6d3c2703443","2025-07-09T09:36:50.812Z","","","","","","","","","","","","","","","","win-only","2","g1:SE,g2:NW","1","1","0","1264501.3","3705.8","8709.1","44364.7","1","4","4","6","2","4","3","3","0","0.022727272727272728","1405","3000","1560","[""left"",""up""]","{""num_key_presses"":8,""num_perfect"":7,""num_errors"":1,""num_randdir"":0,""num_randdir_good_moves"":0,""num_whilered"":0,""num_whileblue"":1,""num_blue"":5,""num_good_moves"":7}","[418.07142857142856,414.6808016640799,1,418.07142857142856,414.6808016640799,111.5,418.07142857142856,414.6808016640799,216,418.07142857142856,414.6808016640799,327.4,418.07142857142856,414.6808016640799,451,418.07142857142856,414.6808016640799,555.5,215.57142857142856,168.68080166407992,665.8,157.07142857142856,122.18080166407994,791.5,121.07142857142857,92.18080166407994,893.8,97.07142857142857,59.18080166407994,1027.8,92.57142857142857,53.18080166407994,1132.7,91.07142857142857,48.68080166407994,1233.3,91.07142857142857,48.68080166407994,1334.1,91.07142857142857,48.68080166407994,1452.3,91.07142857142857,48.68080166407994,1555,91.07142857142857,48.68080166407994,1656.3,91.07142857142857,48.68080166407994,1758.4,91.07142857142857,48.68080166407994,1868.9,91.07142857142857,48.68080166407994,1972,91.07142857142857,48.68080166407994,2092.6,91.07142857142857,48.68080166407994,2195.1,91.07142857142857,48.68080166407994,2298.1,91.07142857142857,48.68080166407994,2425.2,91.07142857142857,48.68080166407994,2526.6,91.07142857142857,48.68080166407994,2680.7,91.07142857142857,48.68080166407994,2823.6,91.07142857142857,48.68080166407994,2924.9,91.07142857142857,48.68080166407994,3025.8,91.07142857142857,48.68080166407994,3146.3,91.07142857142857,48.68080166407994,3246.7,91.07142857142857,48.68080166407994,3352.1,91.07142857142857,48.68080166407994,3460.9,91.07142857142857,48.68080166407994,3565.3,91.07142857142857,48.68080166407994,3704.1,91.07142857142857,48.68080166407994,3815.3,91.07142857142857,48.68080166407994,3938,91.07142857142857,48.68080166407994,4042.7,91.07142857142857,48.68080166407994,4153.7,91.07142857142857,48.68080166407994,4272.3,91.07142857142857,48.68080166407994,4374.7,91.07142857142857,48.68080166407994,4481.5,91.07142857142857,48.68080166407994,4587.9,91.07142857142857,48.68080166407994,4708.4,91.07142857142857,48.68080166407994,4824.7,91.07142857142857,48.68080166407994,4925.4]","[5473.4,5473.4,3078.9,2009.2,385.3,""smooth"",""up"",""up"",""good_move"",11142.1,5667.5,2451.7,8230.8,459.6,""smooth"",""left"",""left"",""good_move"",14052.6,2909.5,2436.3,11143.1,473.2,""smooth"",""left"",""left"",""good_move"",16541.9,2488.2,2101.1,14053.8,387,""while_blue"",""up"",""right"",""bad_move"",19123,2579.5,2159.9,16543.5,419.6,""smooth"",""up"",""up"",""good_move"",25971.4,6846.8,2014.5,23562.3,394.6,""smooth"",""left"",""left"",""good_move"",31934.3,5962.1,2747,28783.4,403.9,""smooth"",""left"",""left"",""good_move"",35482.9,3548,3139.5,31934.9,408.5,""smooth"",""up"",""up"",""good_move""]","",""
"5727","","<div style=""width:500px;"">
  <p>What determined the result of this run?</p>
  </div>","84","html-slider-response","38","1313874","0.0-10.0-1.0","189","1","2025-07-09 09:15:00","7701e855f2ef39aa3fd6c71abdc6918a","102.219.25.34","Mozilla/5.0 (Windows NT 10.0; Win64; x64) AppleWebKit/537.36 (KHTML, like Gecko) Chrome/138.0.0.0 Safari/537.36","WebKit","Chrome","138.0.0.0","Windows","10.0","https://app.prolific.com/","en-US,en;q=0.9","67d35cb70a0ad6d3c2703443","686d226cabeef709c732f8e1","686e3149237902f5be59e1d1","67d35cb70a0ad6d3c2703443","2025-07-09T09:36:56.545Z","","","","","","AttribQ","","","","","","","","","","","","","","","","","","","","","","","","","","","","","","","","","","","","","","50"
"6351","","<div style=""width:500px;"">
  <p>How much control did you have over the ball?</p>
  </div>","100","html-slider-response","39","1320230","0.0-10.0-2.0","189","1","2025-07-09 09:15:00","7701e855f2ef39aa3fd6c71abdc6918a","102.219.25.34","Mozilla/5.0 (Windows NT 10.0; Win64; x64) AppleWebKit/537.36 (KHTML, like Gecko) Chrome/138.0.0.0 Safari/537.36","WebKit","Chrome","138.0.0.0","Windows","10.0","https://app.prolific.com/","en-US,en;q=0.9","67d35cb70a0ad6d3c2703443","686d226cabeef709c732f8e1","686e3149237902f5be59e1d1","67d35cb70a0ad6d3c2703443","2025-07-09T09:37:02.902Z","","","","","","ControlQ","","","","","","","","","","","","","","","","","","","","","","","","","","","","","","","","","","","","","","50"
"7855","","<div style=""width:500px;"">
  <p>How would you describe your current emotional state?</p>
  </div>","0","html-slider-response","40","1328089","0.0-10.0-3.0","189","1","2025-07-09 09:15:00","7701e855f2ef39aa3fd6c71abdc6918a","102.219.25.34","Mozilla/5.0 (Windows NT 10.0; Win64; x64) AppleWebKit/537.36 (KHTML, like Gecko) Chrome/138.0.0.0 Safari/537.36","WebKit","Chrome","138.0.0.0","Windows","10.0","https://app.prolific.com/","en-US,en;q=0.9","67d35cb70a0ad6d3c2703443","686d226cabeef709c732f8e1","686e3149237902f5be59e1d1","67d35cb70a0ad6d3c2703443","2025-07-09T09:37:10.761Z","","","","","","StressQ","","","","","","","","","","","","","","","","","","","","","","","","","","","","","","","","","","","","","","50"
"6952","","<div style=""width:500px;"">
  <p>What best describes how you currently feel?</p>
  </div>","100","html-slider-response","41","1335051","0.0-10.0-4.0","189","1","2025-07-09 09:15:00","7701e855f2ef39aa3fd6c71abdc6918a","102.219.25.34","Mozilla/5.0 (Windows NT 10.0; Win64; x64) AppleWebKit/537.36 (KHTML, like Gecko) Chrome/138.0.0.0 Safari/537.36","WebKit","Chrome","138.0.0.0","Windows","10.0","https://app.prolific.com/","en-US,en;q=0.9","67d35cb70a0ad6d3c2703443","686d226cabeef709c732f8e1","686e3149237902f5be59e1d1","67d35cb70a0ad6d3c2703443","2025-07-09T09:37:17.722Z","","","","","","MotivationQ","","","","","","","","","","","","","","","","","","","","","","","","","","","","","","","","","","","","","","50"
"","","","","ctl-task-cpt","42","1376162","0.0-10.0-0.1","189","1","2025-07-09 09:15:00","7701e855f2ef39aa3fd6c71abdc6918a","102.219.25.34","Mozilla/5.0 (Windows NT 10.0; Win64; x64) AppleWebKit/537.36 (KHTML, like Gecko) Chrome/138.0.0.0 Safari/537.36","WebKit","Chrome","138.0.0.0","Windows","10.0","https://app.prolific.com/","en-US,en;q=0.9","67d35cb70a0ad6d3c2703443","686d226cabeef709c732f8e1","686e3149237902f5be59e1d1","67d35cb70a0ad6d3c2703443","2025-07-09T09:37:58.833Z","","","","","","","","","","","","","","","","win-only","0","g1:NW,g2:SE","0.9","2","0","1338797.2","4725.9","9730.2","38052.2","1","4","8","6","2","8","8","11","3","0.08333333333333333","1720.5","3000","1990","[""down"",""right""]","{""num_key_presses"":6,""num_perfect"":5,""num_errors"":0,""num_randdir"":1,""num_randdir_good_moves"":1,""num_whilered"":0,""num_whileblue"":0,""num_blue"":3,""num_good_moves"":6}","[415.07142857142856,413.1808016640799,1,415.07142857142856,413.1808016640799,101.2,415.07142857142856,413.1808016640799,204.6,415.07142857142856,413.1808016640799,308.2,415.07142857142856,413.1808016640799,409.7,415.07142857142856,413.1808016640799,538.7,415.07142857142856,413.1808016640799,665.9,542.5714285714286,647.1808016640799,768.3,599.5714285714286,800.1808016640799,930.5,611.5714285714286,809.1808016640799,1034,662.5714285714286,782.1808016640799,1140.2,697.0714285714286,747.6808016640799,1240.6,718.0714285714286,728.1808016640799,1375.4,734.5714285714286,719.1808016640799,1478.9,734.5714285714286,719.1808016640799,1579.5,734.5714285714286,719.1808016640799,1683.3,734.5714285714286,719.1808016640799,1819.4,734.5714285714286,719.1808016640799,1920.8,734.5714285714286,719.1808016640799,2025.4,734.5714285714286,719.1808016640799,2126.3,734.5714285714286,719.1808016640799,2277.9,734.5714285714286,719.1808016640799,2398.1,734.5714285714286,719.1808016640799,2506.9,734.5714285714286,719.1808016640799,2608.8,734.5714285714286,719.1808016640799,2716.9,734.5714285714286,719.1808016640799,2861,734.5714285714286,719.1808016640799,2972.2,734.5714285714286,719.1808016640799,3091.1,734.5714285714286,719.1808016640799,3213.8,734.5714285714286,719.1808016640799,3315.5,734.5714285714286,719.1808016640799,3426.1,734.5714285714286,719.1808016640799,3533.8,734.5714285714286,719.1808016640799,3653,734.5714285714286,719.1808016640799,3753.1,734.5714285714286,719.1808016640799,3866.1,734.5714285714286,719.1808016640799,3972.7,734.5714285714286,719.1808016640799,4104,734.5714285714286,719.1808016640799,4210.6,734.5714285714286,719.1808016640799,4312,734.5714285714286,719.1808016640799,4423,734.5714285714286,719.1808016640799,4549.3,734.5714285714286,719.1808016640799,4650.3,734.5714285714286,719.1808016640799,4755.3,734.5714285714286,719.1808016640799,4855.8,734.5714285714286,719.1808016640799,4984.4]","[1432,1432,1000,0.1,431.9,""smooth"",""right"",""right"",""good_move"",7973.2,6539.6,2294.5,5241.9,436.8,""smooth"",""right"",""right"",""good_move"",11027.4,3052.8,2619.6,7974.6,433.2,""smooth"",""down"",""down"",""good_move"",17744.3,6715.4,2917.8,14463.1,363.4,""smooth"",""down"",""down"",""good_move"",24468.3,6723.2,2286.5,21783.1,398.7,""oops"",""right"",""down"",""good_move"",28103.9,3634.8,3034.4,24469.1,600.4,""smooth"",""right"",""right"",""good_move""]","",""
"8694","","<div style=""width:500px;"">
  <p>What determined the result of this run?</p>
  </div>","100","html-slider-response","43","1384862","0.0-10.0-1.1","189","1","2025-07-09 09:15:00","7701e855f2ef39aa3fd6c71abdc6918a","102.219.25.34","Mozilla/5.0 (Windows NT 10.0; Win64; x64) AppleWebKit/537.36 (KHTML, like Gecko) Chrome/138.0.0.0 Safari/537.36","WebKit","Chrome","138.0.0.0","Windows","10.0","https://app.prolific.com/","en-US,en;q=0.9","67d35cb70a0ad6d3c2703443","686d226cabeef709c732f8e1","686e3149237902f5be59e1d1","67d35cb70a0ad6d3c2703443","2025-07-09T09:38:07.533Z","","","","","","AttribQ","","","","","","","","","","","","","","","","","","","","","","","","","","","","","","","","","","","","","","50"
"8418","","<div style=""width:500px;"">
  <p>How much control did you have over the ball?</p>
  </div>","99","html-slider-response","44","1393283","0.0-10.0-2.1","189","1","2025-07-09 09:15:00","7701e855f2ef39aa3fd6c71abdc6918a","102.219.25.34","Mozilla/5.0 (Windows NT 10.0; Win64; x64) AppleWebKit/537.36 (KHTML, like Gecko) Chrome/138.0.0.0 Safari/537.36","WebKit","Chrome","138.0.0.0","Windows","10.0","https://app.prolific.com/","en-US,en;q=0.9","67d35cb70a0ad6d3c2703443","686d226cabeef709c732f8e1","686e3149237902f5be59e1d1","67d35cb70a0ad6d3c2703443","2025-07-09T09:38:15.954Z","","","","","","ControlQ","","","","","","","","","","","","","","","","","","","","","","","","","","","","","","","","","","","","","","50"
"10909","","<div style=""width:500px;"">
  <p>How would you describe your current emotional state?</p>
  </div>","0","html-slider-response","45","1404196","0.0-10.0-3.1","189","1","2025-07-09 09:15:00","7701e855f2ef39aa3fd6c71abdc6918a","102.219.25.34","Mozilla/5.0 (Windows NT 10.0; Win64; x64) AppleWebKit/537.36 (KHTML, like Gecko) Chrome/138.0.0.0 Safari/537.36","WebKit","Chrome","138.0.0.0","Windows","10.0","https://app.prolific.com/","en-US,en;q=0.9","67d35cb70a0ad6d3c2703443","686d226cabeef709c732f8e1","686e3149237902f5be59e1d1","67d35cb70a0ad6d3c2703443","2025-07-09T09:38:26.867Z","","","","","","StressQ","","","","","","","","","","","","","","","","","","","","","","","","","","","","","","","","","","","","","","50"
"19057","","<div style=""width:500px;"">
  <p>What best describes how you currently feel?</p>
  </div>","100","html-slider-response","46","1423256","0.0-10.0-4.1","189","1","2025-07-09 09:15:00","7701e855f2ef39aa3fd6c71abdc6918a","102.219.25.34","Mozilla/5.0 (Windows NT 10.0; Win64; x64) AppleWebKit/537.36 (KHTML, like Gecko) Chrome/138.0.0.0 Safari/537.36","WebKit","Chrome","138.0.0.0","Windows","10.0","https://app.prolific.com/","en-US,en;q=0.9","67d35cb70a0ad6d3c2703443","686d226cabeef709c732f8e1","686e3149237902f5be59e1d1","67d35cb70a0ad6d3c2703443","2025-07-09T09:38:45.928Z","","","","","","MotivationQ","","","","","","","","","","","","","","","","","","","","","","","","","","","","","","","","","","","","","","50"
"","","","","ctl-task-cpt","47","1462165","0.0-10.0-0.2","189","1","2025-07-09 09:15:00","7701e855f2ef39aa3fd6c71abdc6918a","102.219.25.34","Mozilla/5.0 (Windows NT 10.0; Win64; x64) AppleWebKit/537.36 (KHTML, like Gecko) Chrome/138.0.0.0 Safari/537.36","WebKit","Chrome","138.0.0.0","Windows","10.0","https://app.prolific.com/","en-US,en;q=0.9","67d35cb70a0ad6d3c2703443","686d226cabeef709c732f8e1","686e3149237902f5be59e1d1","67d35cb70a0ad6d3c2703443","2025-07-09T09:39:24.836Z","","","","","","","","","","","","","","","","win-only","2","g1:SE,g2:NW","0.8","3","0","1426998.8","12477.8","17485.7","35889.3","1","4","8","6","2","8","8","19","11","0.14393939393939395","1933.2","3000","2250","[""left"",""up""]","{""num_key_presses"":6,""num_perfect"":5,""num_errors"":0,""num_randdir"":1,""num_randdir_good_moves"":1,""num_whilered"":0,""num_whileblue"":0,""num_blue"":0,""num_good_moves"":6}","[413.57142857142856,410.1808016640799,1.3,413.57142857142856,410.1808016640799,107.6,413.57142857142856,410.1808016640799,263,413.57142857142856,410.1808016640799,400,413.57142857142856,410.1808016640799,519.4,413.57142857142856,410.1808016640799,625.2,413.57142857142856,410.1808016640799,726.8,413.57142857142856,410.1808016640799,892.3,413.57142857142856,410.1808016640799,1033.1,413.57142857142856,410.1808016640799,1134,4.071428571428569,75.68080166407994,1407,4.071428571428569,75.68080166407994,1545.7,25.07142857142857,75.68080166407994,1725.4,25.07142857142857,75.68080166407994,1866.3,25.07142857142857,75.68080166407994,1969.7,25.07142857142857,75.68080166407994,2189.1,25.07142857142857,75.68080166407994,2302,25.07142857142857,75.68080166407994,2410.5,25.07142857142857,75.68080166407994,2669.8,25.07142857142857,75.68080166407994,2802.6,25.07142857142857,75.68080166407994,2959.5,25.07142857142857,75.68080166407994,3069.1,25.07142857142857,75.68080166407994,3183.5,25.07142857142857,75.68080166407994,3336.8,25.07142857142857,75.68080166407994,3469.2,25.07142857142857,75.68080166407994,3571,25.07142857142857,75.68080166407994,3674,25.07142857142857,75.68080166407994,3774.9,25.07142857142857,75.68080166407994,3912.7,25.07142857142857,75.68080166407994,4015.5,25.07142857142857,75.68080166407994,4123.3,25.07142857142857,75.68080166407994,4287.3,25.07142857142857,75.68080166407994,4415.9,25.07142857142857,75.68080166407994,4520.8,25.07142857142857,75.68080166407994,4670.4,25.07142857142857,75.68080166407994,4776.6,25.07142857142857,75.68080166407994,4880.7]","[1556.1,1556.2,1000,0,556.2,""smooth"",""up"",""up"",""good_move"",5184,3626.4,2373.3,1557.7,1253.1,""smooth"",""left"",""left"",""good_move"",8802.2,3611.9,2098.5,5190.3,1513.4,""smooth"",""up"",""up"",""good_move"",12180.4,3376.6,1686.6,8803.8,1690,""oops"",""left"",""left"",""good_move"",15325.6,3143.9,2753,12181.7,390.9,""smooth"",""up"",""up"",""good_move"",18105.6,2774.4,2396.2,15331.2,378.2,""smooth"",""left"",""left"",""good_move""]","",""
"13197","","<div style=""width:500px;"">
  <p>What determined the result of this run?</p>
  </div>","100","html-slider-response","48","1475366","0.0-10.0-1.2","189","1","2025-07-09 09:15:00","7701e855f2ef39aa3fd6c71abdc6918a","102.219.25.34","Mozilla/5.0 (Windows NT 10.0; Win64; x64) AppleWebKit/537.36 (KHTML, like Gecko) Chrome/138.0.0.0 Safari/537.36","WebKit","Chrome","138.0.0.0","Windows","10.0","https://app.prolific.com/","en-US,en;q=0.9","67d35cb70a0ad6d3c2703443","686d226cabeef709c732f8e1","686e3149237902f5be59e1d1","67d35cb70a0ad6d3c2703443","2025-07-09T09:39:38.038Z","","","","","","AttribQ","","","","","","","","","","","","","","","","","","","","","","","","","","","","","","","","","","","","","","50"
"9841","","<div style=""width:500px;"">
  <p>How much control did you have over the ball?</p>
  </div>","100","html-slider-response","49","1485212","0.0-10.0-2.2","189","1","2025-07-09 09:15:00","7701e855f2ef39aa3fd6c71abdc6918a","102.219.25.34","Mozilla/5.0 (Windows NT 10.0; Win64; x64) AppleWebKit/537.36 (KHTML, like Gecko) Chrome/138.0.0.0 Safari/537.36","WebKit","Chrome","138.0.0.0","Windows","10.0","https://app.prolific.com/","en-US,en;q=0.9","67d35cb70a0ad6d3c2703443","686d226cabeef709c732f8e1","686e3149237902f5be59e1d1","67d35cb70a0ad6d3c2703443","2025-07-09T09:39:47.883Z","","","","","","ControlQ","","","","","","","","","","","","","","","","","","","","","","","","","","","","","","","","","","","","","","50"
"10228","","<div style=""width:500px;"">
  <p>How would you describe your current emotional state?</p>
  </div>","0","html-slider-response","50","1495443","0.0-10.0-3.2","189","1","2025-07-09 09:15:00","7701e855f2ef39aa3fd6c71abdc6918a","102.219.25.34","Mozilla/5.0 (Windows NT 10.0; Win64; x64) AppleWebKit/537.36 (KHTML, like Gecko) Chrome/138.0.0.0 Safari/537.36","WebKit","Chrome","138.0.0.0","Windows","10.0","https://app.prolific.com/","en-US,en;q=0.9","67d35cb70a0ad6d3c2703443","686d226cabeef709c732f8e1","686e3149237902f5be59e1d1","67d35cb70a0ad6d3c2703443","2025-07-09T09:39:58.114Z","","","","","","StressQ","","","","","","","","","","","","","","","","","","","","","","","","","","","","","","","","","","","","","","50"
"9432","","<div style=""width:500px;"">
  <p>What best describes how you currently feel?</p>
  </div>","100","html-slider-response","51","1504880","0.0-10.0-4.2","189","1","2025-07-09 09:15:00","7701e855f2ef39aa3fd6c71abdc6918a","102.219.25.34","Mozilla/5.0 (Windows NT 10.0; Win64; x64) AppleWebKit/537.36 (KHTML, like Gecko) Chrome/138.0.0.0 Safari/537.36","WebKit","Chrome","138.0.0.0","Windows","10.0","https://app.prolific.com/","en-US,en;q=0.9","67d35cb70a0ad6d3c2703443","686d226cabeef709c732f8e1","686e3149237902f5be59e1d1","67d35cb70a0ad6d3c2703443","2025-07-09T09:40:07.551Z","","","","","","MotivationQ","","","","","","","","","","","","","","","","","","","","","","","","","","","","","","","","","","","","","","50"
"","","","","ctl-task-cpt","52","1569659","0.0-10.0-0.3","189","1","2025-07-09 09:15:00","7701e855f2ef39aa3fd6c71abdc6918a","102.219.25.34","Mozilla/5.0 (Windows NT 10.0; Win64; x64) AppleWebKit/537.36 (KHTML, like Gecko) Chrome/138.0.0.0 Safari/537.36","WebKit","Chrome","138.0.0.0","Windows","10.0","https://app.prolific.com/","en-US,en;q=0.9","67d35cb70a0ad6d3c2703443","686d226cabeef709c732f8e1","686e3149237902f5be59e1d1","67d35cb70a0ad6d3c2703443","2025-07-09T09:41:12.330Z","","","","","","","","","","","","","","","","win-only","3","g1:SW,g2:NE","0.7","4","0","1508625.1","18360.3","23379.3","61753.6","1","4","4","6","2","4","4","23","19","0.17424242424242425","1430.5","3000","1425","[""up"",""right""]","{""num_key_presses"":12,""num_perfect"":9,""num_errors"":0,""num_randdir"":3,""num_randdir_good_moves"":1,""num_whilered"":0,""num_whileblue"":0,""num_blue"":1,""num_good_moves"":9}","[410.57142857142856,420.6808016640799,1.3,410.57142857142856,420.6808016640799,100.7,410.57142857142856,420.6808016640799,200.8,410.57142857142856,420.6808016640799,355.1,410.57142857142856,420.6808016640799,469.6,410.57142857142856,420.6808016640799,659.6,695.5714285714286,50.18080166407994,762.5,752.5714285714286,32.18080166407994,882.9,767.5714285714286,23.180801664079937,987.8,770.5714285714286,30.680801664079937,1163,770.5714285714286,75.68080166407994,1265.3,770.5714285714286,75.68080166407994,1438.9,770.5714285714286,75.68080166407994,1602.9,770.5714285714286,75.68080166407994,1736,770.5714285714286,75.68080166407994,1847.2,770.5714285714286,75.68080166407994,1953.9,770.5714285714286,75.68080166407994,2056.8,770.5714285714286,75.68080166407994,2246.5,770.5714285714286,75.68080166407994,2350.5,770.5714285714286,75.68080166407994,2516.3,770.5714285714286,75.68080166407994,2626.4,770.5714285714286,75.68080166407994,2759.5,770.5714285714286,75.68080166407994,2861.9,770.5714285714286,75.68080166407994,2971.3,770.5714285714286,75.68080166407994,3093.6,770.5714285714286,75.68080166407994,3249.5,770.5714285714286,75.68080166407994,3356.2,770.5714285714286,75.68080166407994,3529.9,770.5714285714286,75.68080166407994,3636.5,770.5714285714286,75.68080166407994,3779.5,770.5714285714286,75.68080166407994,3909.3,770.5714285714286,75.68080166407994,4019.4,770.5714285714286,75.68080166407994,4121.2,770.5714285714286,75.68080166407994,4275.9,770.5714285714286,75.68080166407994,4399.2,770.5714285714286,75.68080166407994,4535.5,770.5714285714286,75.68080166407994,4640.6,770.5714285714286,75.68080166407994,4750.7,770.5714285714286,75.68080166407994,4888.2]","[4331.1,4331.2,1869.3,2070.4,391.5,""smooth"",""up"",""up"",""good_move"",7465.1,3132.1,2326.2,4333,805.9,""oops"",""right"",""right"",""good_move"",10417.4,2947.1,2389.9,7470.3,557.2,""smooth"",""up"",""up"",""good_move"",13699.8,3281.1,1905.3,10418.7,1375.8,""smooth"",""right"",""right"",""good_move"",16528.3,2826.5,2341.1,13701.8,485.4,""oops"",""up"",""down"",""bad_move"",19226.2,2696.4,2133.7,16529.8,562.7,""smooth"",""right"",""right"",""good_move"",22272.1,3044.8,2661.4,19227.4,383.4,""oops"",""up"",""down"",""bad_move"",25826.2,3551.7,3135.7,22274.5,416,""smooth"",""down"",""down"",""bad_move"",28447.4,2619.7,2211.2,25827.7,408.5,""smooth"",""up"",""up"",""good_move"",31712,3261.5,2885.6,28450.5,375.9,""smooth"",""up"",""up"",""good_move"",34839.2,3123.2,2254.1,31716,869.1,""smooth"",""up"",""up"",""good_move"",38134,3293.8,2914.4,34840.3,379.3,""smooth"",""up"",""up"",""good_move""]","",""
"7255","","<div style=""width:500px;"">
  <p>What determined the result of this run?</p>
  </div>","100","html-slider-response","53","1576922","0.0-10.0-1.3","189","1","2025-07-09 09:15:00","7701e855f2ef39aa3fd6c71abdc6918a","102.219.25.34","Mozilla/5.0 (Windows NT 10.0; Win64; x64) AppleWebKit/537.36 (KHTML, like Gecko) Chrome/138.0.0.0 Safari/537.36","WebKit","Chrome","138.0.0.0","Windows","10.0","https://app.prolific.com/","en-US,en;q=0.9","67d35cb70a0ad6d3c2703443","686d226cabeef709c732f8e1","686e3149237902f5be59e1d1","67d35cb70a0ad6d3c2703443","2025-07-09T09:41:19.593Z","","","","","","AttribQ","","","","","","","","","","","","","","","","","","","","","","","","","","","","","","","","","","","","","","50"
"13657","","<div style=""width:500px;"">
  <p>How much control did you have over the ball?</p>
  </div>","94","html-slider-response","54","1590581","0.0-10.0-2.3","189","1","2025-07-09 09:15:00","7701e855f2ef39aa3fd6c71abdc6918a","102.219.25.34","Mozilla/5.0 (Windows NT 10.0; Win64; x64) AppleWebKit/537.36 (KHTML, like Gecko) Chrome/138.0.0.0 Safari/537.36","WebKit","Chrome","138.0.0.0","Windows","10.0","https://app.prolific.com/","en-US,en;q=0.9","67d35cb70a0ad6d3c2703443","686d226cabeef709c732f8e1","686e3149237902f5be59e1d1","67d35cb70a0ad6d3c2703443","2025-07-09T09:41:33.253Z","","","","","","ControlQ","","","","","","","","","","","","","","","","","","","","","","","","","","","","","","","","","","","","","","50"
"10794","","<div style=""width:500px;"">
  <p>How would you describe your current emotional state?</p>
  </div>","3","html-slider-response","55","1601379","0.0-10.0-3.3","189","1","2025-07-09 09:15:00","7701e855f2ef39aa3fd6c71abdc6918a","102.219.25.34","Mozilla/5.0 (Windows NT 10.0; Win64; x64) AppleWebKit/537.36 (KHTML, like Gecko) Chrome/138.0.0.0 Safari/537.36","WebKit","Chrome","138.0.0.0","Windows","10.0","https://app.prolific.com/","en-US,en;q=0.9","67d35cb70a0ad6d3c2703443","686d226cabeef709c732f8e1","686e3149237902f5be59e1d1","67d35cb70a0ad6d3c2703443","2025-07-09T09:41:44.050Z","","","","","","StressQ","","","","","","","","","","","","","","","","","","","","","","","","","","","","","","","","","","","","","","50"
"10395","","<div style=""width:500px;"">
  <p>What best describes how you currently feel?</p>
  </div>","100","html-slider-response","56","1611778","0.0-10.0-4.3","189","1","2025-07-09 09:15:00","7701e855f2ef39aa3fd6c71abdc6918a","102.219.25.34","Mozilla/5.0 (Windows NT 10.0; Win64; x64) AppleWebKit/537.36 (KHTML, like Gecko) Chrome/138.0.0.0 Safari/537.36","WebKit","Chrome","138.0.0.0","Windows","10.0","https://app.prolific.com/","en-US,en;q=0.9","67d35cb70a0ad6d3c2703443","686d226cabeef709c732f8e1","686e3149237902f5be59e1d1","67d35cb70a0ad6d3c2703443","2025-07-09T09:41:54.449Z","","","","","","MotivationQ","","","","","","","","","","","","","","","","","","","","","","","","","","","","","","","","","","","","","","50"
"","","","","ctl-task-cpt","57","1693398","0.0-10.0-0.4","189","1","2025-07-09 09:15:00","7701e855f2ef39aa3fd6c71abdc6918a","102.219.25.34","Mozilla/5.0 (Windows NT 10.0; Win64; x64) AppleWebKit/537.36 (KHTML, like Gecko) Chrome/138.0.0.0 Safari/537.36","WebKit","Chrome","138.0.0.0","Windows","10.0","https://app.prolific.com/","en-US,en;q=0.9","67d35cb70a0ad6d3c2703443","686d226cabeef709c732f8e1","686e3149237902f5be59e1d1","67d35cb70a0ad6d3c2703443","2025-07-09T09:43:16.069Z","","","","","","","","","","","","","","","","win-only","2","g1:SE,g2:NW","0.6","5","0","1615523.9","16863.4","21989.4","78554.4","1","4","4","6","2","4","4","27","23","0.20454545454545456","1234","3000","1890","[""left"",""up""]","{""num_key_presses"":12,""num_perfect"":8,""num_errors"":0,""num_randdir"":4,""num_randdir_good_moves"":1,""num_whilered"":0,""num_whileblue"":0,""num_blue"":2,""num_good_moves"":9}","[424.07142857142856,408.6808016640799,6.2,424.07142857142856,408.6808016640799,132.2,424.07142857142856,408.6808016640799,234.3,424.07142857142856,408.6808016640799,478.8,296.57142857142856,296.1808016640799,591.3,116.57142857142857,102.68080166407994,903.7,116.57142857142857,102.68080166407994,1006.5,116.57142857142857,102.68080166407994,1242.1,116.57142857142857,102.68080166407994,1347.1,116.57142857142857,102.68080166407994,1580.2,116.57142857142857,102.68080166407994,1730.1,116.57142857142857,102.68080166407994,1834.5,116.57142857142857,102.68080166407994,2000.4,116.57142857142857,102.68080166407994,2104.2,116.57142857142857,102.68080166407994,2309.1,116.57142857142857,102.68080166407994,2422.1,116.57142857142857,102.68080166407994,2585.5,116.57142857142857,102.68080166407994,2690.4,116.57142857142857,102.68080166407994,2916.7,116.57142857142857,102.68080166407994,3017.4,116.57142857142857,102.68080166407994,3233.7,116.57142857142857,102.68080166407994,3342.5,116.57142857142857,102.68080166407994,3572.6,116.57142857142857,102.68080166407994,3685.3,116.57142857142857,102.68080166407994,3905,116.57142857142857,102.68080166407994,4011.4,116.57142857142857,102.68080166407994,4244.8,116.57142857142857,102.68080166407994,4345.9,116.57142857142857,102.68080166407994,4449.9,116.57142857142857,102.68080166407994,4611.4,116.57142857142857,102.68080166407994,4714.1,116.57142857142857,102.68080166407994,4814.8,116.57142857142857,102.68080166407994,4920.3]","[1384,1384,1000,0,384,""oops"",""up"",""down"",""bad_move"",4624.7,3239.4,2563,1385.4,676.3,""smooth"",""left"",""left"",""good_move"",11548.6,6921,1475.6,9497.1,575.9,""smooth"",""up"",""up"",""good_move"",19199.6,7649.8,2304,16419.2,476.4,""oops"",""left"",""left"",""good_move"",24025.2,4818.4,1769.3,19206.8,3049.1,""smooth"",""up"",""up"",""good_move"",28840.1,4813.7,2525.5,24026.4,2288.2,""oops"",""up"",""down"",""bad_move"",32041.2,3199.8,2579.7,28841.4,620.1,""smooth"",""left"",""left"",""good_move"",37261.7,5218.7,2501.5,32043,2717.2,""smooth"",""up"",""up"",""good_move"",42525.5,5262.4,2753.9,37263.1,2508.5,""smooth"",""up"",""up"",""good_move"",47898.9,5372.3,1822.5,42526.6,3549.8,""oops"",""up"",""right"",""bad_move"",50562.4,2662.3,1903.4,47900.1,759,""smooth"",""up"",""up"",""good_move"",56053.3,5489.4,1477,50563.9,4012.4,""smooth"",""left"",""left"",""good_move""]","",""
"7870","","<div style=""width:500px;"">
  <p>What determined the result of this run?</p>
  </div>","100","html-slider-response","58","1701276","0.0-10.0-1.4","189","1","2025-07-09 09:15:00","7701e855f2ef39aa3fd6c71abdc6918a","102.219.25.34","Mozilla/5.0 (Windows NT 10.0; Win64; x64) AppleWebKit/537.36 (KHTML, like Gecko) Chrome/138.0.0.0 Safari/537.36","WebKit","Chrome","138.0.0.0","Windows","10.0","https://app.prolific.com/","en-US,en;q=0.9","67d35cb70a0ad6d3c2703443","686d226cabeef709c732f8e1","686e3149237902f5be59e1d1","67d35cb70a0ad6d3c2703443","2025-07-09T09:43:23.947Z","","","","","","AttribQ","","","","","","","","","","","","","","","","","","","","","","","","","","","","","","","","","","","","","","50"
"5111","","<div style=""width:500px;"">
  <p>How much control did you have over the ball?</p>
  </div>","100","html-slider-response","59","1706394","0.0-10.0-2.4","189","1","2025-07-09 09:15:00","7701e855f2ef39aa3fd6c71abdc6918a","102.219.25.34","Mozilla/5.0 (Windows NT 10.0; Win64; x64) AppleWebKit/537.36 (KHTML, like Gecko) Chrome/138.0.0.0 Safari/537.36","WebKit","Chrome","138.0.0.0","Windows","10.0","https://app.prolific.com/","en-US,en;q=0.9","67d35cb70a0ad6d3c2703443","686d226cabeef709c732f8e1","686e3149237902f5be59e1d1","67d35cb70a0ad6d3c2703443","2025-07-09T09:43:29.066Z","","","","","","ControlQ","","","","","","","","","","","","","","","","","","","","","","","","","","","","","","","","","","","","","","50"
"11994","","<div style=""width:500px;"">
  <p>How would you describe your current emotional state?</p>
  </div>","0","html-slider-response","60","1718395","0.0-10.0-3.4","189","1","2025-07-09 09:15:00","7701e855f2ef39aa3fd6c71abdc6918a","102.219.25.34","Mozilla/5.0 (Windows NT 10.0; Win64; x64) AppleWebKit/537.36 (KHTML, like Gecko) Chrome/138.0.0.0 Safari/537.36","WebKit","Chrome","138.0.0.0","Windows","10.0","https://app.prolific.com/","en-US,en;q=0.9","67d35cb70a0ad6d3c2703443","686d226cabeef709c732f8e1","686e3149237902f5be59e1d1","67d35cb70a0ad6d3c2703443","2025-07-09T09:43:41.066Z","","","","","","StressQ","","","","","","","","","","","","","","","","","","","","","","","","","","","","","","","","","","","","","","50"
"4347","","<div style=""width:500px;"">
  <p>What best describes how you currently feel?</p>
  </div>","100","html-slider-response","61","1722749","0.0-10.0-4.4","189","1","2025-07-09 09:15:00","7701e855f2ef39aa3fd6c71abdc6918a","102.219.25.34","Mozilla/5.0 (Windows NT 10.0; Win64; x64) AppleWebKit/537.36 (KHTML, like Gecko) Chrome/138.0.0.0 Safari/537.36","WebKit","Chrome","138.0.0.0","Windows","10.0","https://app.prolific.com/","en-US,en;q=0.9","67d35cb70a0ad6d3c2703443","686d226cabeef709c732f8e1","686e3149237902f5be59e1d1","67d35cb70a0ad6d3c2703443","2025-07-09T09:43:45.420Z","","","","","","MotivationQ","","","","","","","","","","","","","","","","","","","","","","","","","","","","","","","","","","","","","","50"
"","","","","ctl-task-cpt","62","1804059","0.0-10.0-0.5","189","1","2025-07-09 09:15:00","7701e855f2ef39aa3fd6c71abdc6918a","102.219.25.34","Mozilla/5.0 (Windows NT 10.0; Win64; x64) AppleWebKit/537.36 (KHTML, like Gecko) Chrome/138.0.0.0 Safari/537.36","WebKit","Chrome","138.0.0.0","Windows","10.0","https://app.prolific.com/","en-US,en;q=0.9","67d35cb70a0ad6d3c2703443","686d226cabeef709c732f8e1","686e3149237902f5be59e1d1","67d35cb70a0ad6d3c2703443","2025-07-09T09:45:06.730Z","","","","","","","","","","","","","","","","win-only","2","g1:SE,g2:NW","0.5","6","0","1726496.6","1965.2","6993.4","78239.7","1","4","8","6","2","8","7","34","27","0.25757575757575757","1581.9","3000","1895","[""left"",""up""]","{""num_key_presses"":14,""num_perfect"":7,""num_errors"":1,""num_randdir"":6,""num_randdir_good_moves"":3,""num_whilered"":0,""num_whileblue"":1,""num_blue"":4,""num_good_moves"":10}","[418.07142857142856,414.6808016640799,1,418.07142857142856,414.6808016640799,113.9,418.07142857142856,414.6808016640799,232.5,418.07142857142856,414.6808016640799,336.6,418.07142857142856,414.6808016640799,439.8,418.07142857142856,414.6808016640799,543.2,241.07142857142856,195.68080166407992,645.6,104.57142857142857,-12.819198335920063,874.2,104.57142857142857,-12.819198335920063,978.5,101.57142857142857,33.68080166407994,1234.9,100.07142857142857,38.18080166407994,1335,100.07142857142857,38.18080166407994,1601.1,100.07142857142857,38.18080166407994,1704.3,100.07142857142857,38.18080166407994,1810,100.07142857142857,38.18080166407994,2012.5,100.07142857142857,38.18080166407994,2114.2,100.07142857142857,38.18080166407994,2325.3,100.07142857142857,38.18080166407994,2430.3,100.07142857142857,38.18080166407994,2659.6,100.07142857142857,38.18080166407994,2763.6,100.07142857142857,38.18080166407994,2935.4,100.07142857142857,38.18080166407994,3035.3,100.07142857142857,38.18080166407994,3252.5,100.07142857142857,38.18080166407994,3363.1,100.07142857142857,38.18080166407994,3618.1,100.07142857142857,38.18080166407994,3874.1,100.07142857142857,38.18080166407994,4074.2,100.07142857142857,38.18080166407994,4174.2,100.07142857142857,38.18080166407994,4278.5,100.07142857142857,38.18080166407994,4382,100.07142857142857,38.18080166407994,4601,100.07142857142857,38.18080166407994,4825.2,100.07142857142857,38.18080166407994,4969.1]","[8675.6,8675.5,2658,5507.5,510.1,""oops"",""up"",""right"",""bad_move"",11671.9,2995.2,2329.6,8676.7,665.6,""smooth"",""up"",""up"",""good_move"",15746.7,4071.4,2301.8,11675.4,1769.5,""oops"",""up"",""left"",""good_move"",19850.7,4102.2,2374,15748.6,1728.2,""smooth"",""up"",""up"",""good_move"",24360.2,4506.1,2009.3,19854.1,2496.8,""smooth"",""left"",""left"",""good_move"",28923.6,4561.6,4086.5,24362,475.1,""while_blue"",""up"",""right"",""bad_move"",32402.2,3477.5,2857.5,28924.7,620,""smooth"",""left"",""left"",""good_move"",37586.8,5182.8,2710.4,32404.1,2472.4,""smooth"",""left"",""left"",""good_move"",43203.1,5614.9,2879.3,37588.2,2735.6,""oops"",""up"",""right"",""bad_move"",46345.1,3141.2,2496.8,43203.9,644.4,""oops"",""left"",""right"",""bad_move"",49183.4,2836.9,2315.3,46346.5,521.6,""oops"",""up"",""left"",""good_move"",55004.9,5820.3,3069.8,49184.7,2750.5,""oops"",""up"",""up"",""good_move"",64554.1,9548.2,2465.6,61542.9,545.7,""smooth"",""left"",""left"",""good_move"",70706.4,6151.3,2955.3,64555.1,3196,""smooth"",""left"",""left"",""good_move""]","",""
"5211","","<div style=""width:500px;"">
  <p>What determined the result of this run?</p>
  </div>","100","html-slider-response","63","1809278","0.0-10.0-1.5","189","1","2025-07-09 09:15:00","7701e855f2ef39aa3fd6c71abdc6918a","102.219.25.34","Mozilla/5.0 (Windows NT 10.0; Win64; x64) AppleWebKit/537.36 (KHTML, like Gecko) Chrome/138.0.0.0 Safari/537.36","WebKit","Chrome","138.0.0.0","Windows","10.0","https://app.prolific.com/","en-US,en;q=0.9","67d35cb70a0ad6d3c2703443","686d226cabeef709c732f8e1","686e3149237902f5be59e1d1","67d35cb70a0ad6d3c2703443","2025-07-09T09:45:11.949Z","","","","","","AttribQ","","","","","","","","","","","","","","","","","","","","","","","","","","","","","","","","","","","","","","50"
"5800","","<div style=""width:500px;"">
  <p>How much control did you have over the ball?</p>
  </div>","95","html-slider-response","64","1815086","0.0-10.0-2.5","189","1","2025-07-09 09:15:00","7701e855f2ef39aa3fd6c71abdc6918a","102.219.25.34","Mozilla/5.0 (Windows NT 10.0; Win64; x64) AppleWebKit/537.36 (KHTML, like Gecko) Chrome/138.0.0.0 Safari/537.36","WebKit","Chrome","138.0.0.0","Windows","10.0","https://app.prolific.com/","en-US,en;q=0.9","67d35cb70a0ad6d3c2703443","686d226cabeef709c732f8e1","686e3149237902f5be59e1d1","67d35cb70a0ad6d3c2703443","2025-07-09T09:45:17.757Z","","","","","","ControlQ","","","","","","","","","","","","","","","","","","","","","","","","","","","","","","","","","","","","","","50"
"5368","","<div style=""width:500px;"">
  <p>How would you describe your current emotional state?</p>
  </div>","3","html-slider-response","65","1820461","0.0-10.0-3.5","189","1","2025-07-09 09:15:00","7701e855f2ef39aa3fd6c71abdc6918a","102.219.25.34","Mozilla/5.0 (Windows NT 10.0; Win64; x64) AppleWebKit/537.36 (KHTML, like Gecko) Chrome/138.0.0.0 Safari/537.36","WebKit","Chrome","138.0.0.0","Windows","10.0","https://app.prolific.com/","en-US,en;q=0.9","67d35cb70a0ad6d3c2703443","686d226cabeef709c732f8e1","686e3149237902f5be59e1d1","67d35cb70a0ad6d3c2703443","2025-07-09T09:45:23.132Z","","","","","","StressQ","","","","","","","","","","","","","","","","","","","","","","","","","","","","","","","","","","","","","","50"
"4848","","<div style=""width:500px;"">
  <p>What best describes how you currently feel?</p>
  </div>","98","html-slider-response","66","1825316","0.0-10.0-4.5","189","1","2025-07-09 09:15:00","7701e855f2ef39aa3fd6c71abdc6918a","102.219.25.34","Mozilla/5.0 (Windows NT 10.0; Win64; x64) AppleWebKit/537.36 (KHTML, like Gecko) Chrome/138.0.0.0 Safari/537.36","WebKit","Chrome","138.0.0.0","Windows","10.0","https://app.prolific.com/","en-US,en;q=0.9","67d35cb70a0ad6d3c2703443","686d226cabeef709c732f8e1","686e3149237902f5be59e1d1","67d35cb70a0ad6d3c2703443","2025-07-09T09:45:27.987Z","","","","","","MotivationQ","","","","","","","","","","","","","","","","","","","","","","","","","","","","","","","","","","","","","","50"
"","","","","ctl-task-cpt","67","1997604","0.0-10.0-0.6","189","1","2025-07-09 09:15:00","7701e855f2ef39aa3fd6c71abdc6918a","102.219.25.34","Mozilla/5.0 (Windows NT 10.0; Win64; x64) AppleWebKit/537.36 (KHTML, like Gecko) Chrome/138.0.0.0 Safari/537.36","WebKit","Chrome","138.0.0.0","Windows","10.0","https://app.prolific.com/","en-US,en;q=0.9","67d35cb70a0ad6d3c2703443","686d226cabeef709c732f8e1","686e3149237902f5be59e1d1","67d35cb70a0ad6d3c2703443","2025-07-09T09:48:20.275Z","","","","","","","","","","","","","","","","win-only","2","g1:SE,g2:NW","0.4","7","0","1829062.7","2839.9","7885.5","169219.4","1","4","4","6","2","4","4","38","34","0.2878787878787879","1097.6","3000","1530","[""left"",""up""]","{""num_key_presses"":22,""num_perfect"":10,""num_errors"":0,""num_randdir"":12,""num_randdir_good_moves"":5,""num_whilered"":0,""num_whileblue"":0,""num_blue"":7,""num_good_moves"":14}","[424.07142857142856,407.1808016640799,1.5,424.07142857142856,407.1808016640799,121.2,424.07142857142856,407.1808016640799,237.9,424.07142857142856,407.1808016640799,352.2,424.07142857142856,407.1808016640799,475.2,118.07142857142857,107.18080166407994,607.9,91.07142857142857,77.18080166407994,732.9,91.07142857142857,77.18080166407994,852.2,91.07142857142857,77.18080166407994,968.3,91.07142857142857,77.18080166407994,1090.4,91.07142857142857,77.18080166407994,1216.4,91.07142857142857,77.18080166407994,1332.4,91.07142857142857,77.18080166407994,1448.1,91.07142857142857,77.18080166407994,1562.4,91.07142857142857,77.18080166407994,1677.2,91.07142857142857,77.18080166407994,1791.5,91.07142857142857,77.18080166407994,1906.2,91.07142857142857,77.18080166407994,2022.2,91.07142857142857,77.18080166407994,2139,91.07142857142857,77.18080166407994,2256.1,91.07142857142857,77.18080166407994,2369.6,91.07142857142857,77.18080166407994,2485.7,91.07142857142857,77.18080166407994,2600.7,91.07142857142857,77.18080166407994,2717.6,91.07142857142857,77.18080166407994,2828.9,91.07142857142857,77.18080166407994,2941.8,91.07142857142857,77.18080166407994,3057.9,91.07142857142857,77.18080166407994,3172.1,91.07142857142857,77.18080166407994,3291.6,91.07142857142857,77.18080166407994,3409.1,91.07142857142857,77.18080166407994,3523.4,91.07142857142857,77.18080166407994,3638.2,91.07142857142857,77.18080166407994,3750.9,91.07142857142857,77.18080166407994,3868.1,91.07142857142857,77.18080166407994,3982.9,91.07142857142857,77.18080166407994,4099.4,91.07142857142857,77.18080166407994,4221.9,91.07142857142857,77.18080166407994,4344.3,91.07142857142857,77.18080166407994,4464.1,91.07142857142857,77.18080166407994,4582.2,91.07142857142857,77.18080166407994,4697,91.07142857142857,77.18080166407994,4813.1,91.07142857142857,77.18080166407994,4930.6]","[1578.5,1578.5,1000,0,578.5,""oops"",""up"",""right"",""bad_move"",4273.6,2693.8,2081.8,1579.8,612,""oops"",""up"",""right"",""bad_move"",10621.5,6346.7,2185.6,7880,556,""smooth"",""left"",""left"",""good_move"",21022.8,10400.6,2092.2,10622.2,8308.4,""oops"",""left"",""right"",""bad_move"",24314.2,3290.4,2605.9,21023.8,684.6,""smooth"",""up"",""up"",""good_move"",34976.5,10660.6,2766.5,24315.9,7894.1,""oops"",""up"",""up"",""good_move"",49405.1,14427.4,2468.2,46370.7,566.2,""smooth"",""right"",""down"",""bad_move"",52184,2777.9,2027.3,49406.1,750.6,""smooth"",""left"",""left"",""good_move"",63426.4,11240.9,2629.5,52185.5,8611.5,""oops"",""up"",""down"",""bad_move"",66094.7,2667.3,2039.3,63427.4,628.1,""oops"",""left"",""right"",""bad_move"",74035.1,7939.1,3210.5,70161.3,663.3,""smooth"",""left"",""left"",""good_move"",85280.5,11244.3,2120.5,74036.2,9123.8,""oops"",""up"",""down"",""bad_move"",92017.7,6736.3,2015.5,89326,676.2,""oops"",""left"",""up"",""good_move"",112624.6,20606.1,3440.9,108498.1,685.6,""oops"",""left"",""up"",""good_move"",122330.9,9705.5,1482.4,112625.5,8223.1,""oops"",""left"",""right"",""bad_move"",125890.4,3555.4,2742.6,122335,812.8,""oops"",""left"",""left"",""good_move"",129960.6,4060.1,2575.8,125900.6,1484.2,""smooth"",""left"",""left"",""good_move"",134332.8,4370.2,3466,129962.7,904.1,""oops"",""left"",""left"",""good_move"",138967.8,4633.9,2434.8,134333.9,2199.1,""smooth"",""left"",""left"",""good_move"",143624.5,4654.2,3043,138970.3,1611.2,""smooth"",""left"",""left"",""good_move"",151473.4,7847.6,1691.2,149190.4,591.8,""smooth"",""up"",""up"",""good_move"",161270.4,9795.8,2425.6,158204.6,640.2,""smooth"",""up"",""up"",""good_move""]","",""
"8294","","<div style=""width:500px;"">
  <p>What determined the result of this run?</p>
  </div>","100","html-slider-response","68","2005902","0.0-10.0-1.6","189","1","2025-07-09 09:15:00","7701e855f2ef39aa3fd6c71abdc6918a","102.219.25.34","Mozilla/5.0 (Windows NT 10.0; Win64; x64) AppleWebKit/537.36 (KHTML, like Gecko) Chrome/138.0.0.0 Safari/537.36","WebKit","Chrome","138.0.0.0","Windows","10.0","https://app.prolific.com/","en-US,en;q=0.9","67d35cb70a0ad6d3c2703443","686d226cabeef709c732f8e1","686e3149237902f5be59e1d1","67d35cb70a0ad6d3c2703443","2025-07-09T09:48:28.573Z","","","","","","AttribQ","","","","","","","","","","","","","","","","","","","","","","","","","","","","","","","","","","","","","","50"
"9841","","<div style=""width:500px;"">
  <p>How much control did you have over the ball?</p>
  </div>","87","html-slider-response","69","2015748","0.0-10.0-2.6","189","1","2025-07-09 09:15:00","7701e855f2ef39aa3fd6c71abdc6918a","102.219.25.34","Mozilla/5.0 (Windows NT 10.0; Win64; x64) AppleWebKit/537.36 (KHTML, like Gecko) Chrome/138.0.0.0 Safari/537.36","WebKit","Chrome","138.0.0.0","Windows","10.0","https://app.prolific.com/","en-US,en;q=0.9","67d35cb70a0ad6d3c2703443","686d226cabeef709c732f8e1","686e3149237902f5be59e1d1","67d35cb70a0ad6d3c2703443","2025-07-09T09:48:38.419Z","","","","","","ControlQ","","","","","","","","","","","","","","","","","","","","","","","","","","","","","","","","","","","","","","50"
"13293","","<div style=""width:500px;"">
  <p>How would you describe your current emotional state?</p>
  </div>","2","html-slider-response","70","2029047","0.0-10.0-3.6","189","1","2025-07-09 09:15:00","7701e855f2ef39aa3fd6c71abdc6918a","102.219.25.34","Mozilla/5.0 (Windows NT 10.0; Win64; x64) AppleWebKit/537.36 (KHTML, like Gecko) Chrome/138.0.0.0 Safari/537.36","WebKit","Chrome","138.0.0.0","Windows","10.0","https://app.prolific.com/","en-US,en;q=0.9","67d35cb70a0ad6d3c2703443","686d226cabeef709c732f8e1","686e3149237902f5be59e1d1","67d35cb70a0ad6d3c2703443","2025-07-09T09:48:51.718Z","","","","","","StressQ","","","","","","","","","","","","","","","","","","","","","","","","","","","","","","","","","","","","","","50"
"9308","","<div style=""width:500px;"">
  <p>What best describes how you currently feel?</p>
  </div>","100","html-slider-response","71","2038362","0.0-10.0-4.6","189","1","2025-07-09 09:15:00","7701e855f2ef39aa3fd6c71abdc6918a","102.219.25.34","Mozilla/5.0 (Windows NT 10.0; Win64; x64) AppleWebKit/537.36 (KHTML, like Gecko) Chrome/138.0.0.0 Safari/537.36","WebKit","Chrome","138.0.0.0","Windows","10.0","https://app.prolific.com/","en-US,en;q=0.9","67d35cb70a0ad6d3c2703443","686d226cabeef709c732f8e1","686e3149237902f5be59e1d1","67d35cb70a0ad6d3c2703443","2025-07-09T09:49:01.033Z","","","","","","MotivationQ","","","","","","","","","","","","","","","","","","","","","","","","","","","","","","","","","","","","","","50"
"","","","","ctl-task-cpt","72","2212727","0.0-10.0-0.7","189","1","2025-07-09 09:15:00","7701e855f2ef39aa3fd6c71abdc6918a","102.219.25.34","Mozilla/5.0 (Windows NT 10.0; Win64; x64) AppleWebKit/537.36 (KHTML, like Gecko) Chrome/138.0.0.0 Safari/537.36","WebKit","Chrome","138.0.0.0","Windows","10.0","https://app.prolific.com/","en-US,en;q=0.9","67d35cb70a0ad6d3c2703443","686d226cabeef709c732f8e1","686e3149237902f5be59e1d1","67d35cb70a0ad6d3c2703443","2025-07-09T09:51:55.398Z","","","","","","","","","","","","","","","","win-only","1","g1:NE,g2:SW","0.3","8","0","2042109.6","2600.3","7622.1","171314.3","1","4","8","6","2","8","7","45","38","0.3409090909090909","1321.2","3000","405","[""down"",""left""]","{""num_key_presses"":30,""num_perfect"":9,""num_errors"":1,""num_randdir"":20,""num_randdir_good_moves"":9,""num_whilered"":0,""num_whileblue"":1,""num_blue"":10,""num_good_moves"":18}","[412.07142857142856,410.1808016640799,0.8,412.07142857142856,410.1808016640799,113.3,412.07142857142856,410.1808016640799,231.5,412.07142857142856,410.1808016640799,382.2,412.07142857142856,410.1808016640799,517.2,412.07142857142856,410.1808016640799,657.9,142.07142857142856,624.6808016640799,804.5,71.57142857142857,711.6808016640799,948.7,59.57142857142857,719.1808016640799,1087.9,59.57142857142857,719.1808016640799,1221.8,59.57142857142857,719.1808016640799,1377.4,59.57142857142857,719.1808016640799,1509.4,59.57142857142857,719.1808016640799,1644.7,59.57142857142857,719.1808016640799,1767.4,59.57142857142857,719.1808016640799,1888.2,59.57142857142857,719.1808016640799,2006.7,59.57142857142857,719.1808016640799,2131.4,59.57142857142857,719.1808016640799,2256.9,59.57142857142857,719.1808016640799,2382.9,59.57142857142857,719.1808016640799,2506.2,59.57142857142857,719.1808016640799,2623.1,59.57142857142857,719.1808016640799,2740.3,59.57142857142857,719.1808016640799,2861.5,59.57142857142857,719.1808016640799,2980.5,59.57142857142857,719.1808016640799,3096.9,59.57142857142857,719.1808016640799,3220.7,59.57142857142857,719.1808016640799,3337.3,59.57142857142857,719.1808016640799,3461.5,59.57142857142857,719.1808016640799,3580.6,59.57142857142857,719.1808016640799,3700.5,59.57142857142857,719.1808016640799,3818.8,59.57142857142857,719.1808016640799,3934.6,59.57142857142857,719.1808016640799,4053.5,59.57142857142857,719.1808016640799,4181.5,59.57142857142857,719.1808016640799,4304.4,59.57142857142857,719.1808016640799,4429.1,59.57142857142857,719.1808016640799,4549.9,59.57142857142857,719.1808016640799,4669,59.57142857142857,719.1808016640799,4788.3,59.57142857142857,719.1808016640799,4905.4]","[1544.6,1544.6,1000,0,544.6,""smooth"",""down"",""down"",""good_move"",4854.3,3308.4,2642.8,1545.9,665.6,""oops"",""left"",""left"",""good_move"",9462.1,4605.1,2943.1,4857.1,1661.9,""oops"",""down"",""right"",""bad_move"",12773.4,3307.9,2718.6,9465.5,589.3,""oops"",""left"",""left"",""good_move"",17304.6,4529.7,2856.9,12774.9,1672.8,""smooth"",""left"",""left"",""good_move"",21764,4458.1,2349.8,17305.9,2108.4,""oops"",""down"",""up"",""bad_move"",26588.1,4820.6,3336.3,21767.6,1484.2,""oops"",""down"",""left"",""good_move"",31819.8,5229,3267.6,26590.8,1961.4,""smooth"",""down"",""down"",""good_move"",34438.6,2615.5,1988.8,31823.1,626.7,""oops"",""down"",""right"",""bad_move"",40852,6411.6,2159.6,38085.4,607,""oops"",""down"",""right"",""bad_move"",43938.2,3084.6,2228.8,40853.6,855.8,""smooth"",""left"",""left"",""good_move"",54426.8,10487.4,2559,51222.6,645.2,""smooth"",""down"",""down"",""good_move"",57587.5,3159.8,2308.9,54427.8,850.8,""smooth"",""left"",""left"",""good_move"",73306.4,15717.7,2792.4,69940,574,""oops"",""down"",""up"",""bad_move"",79708.6,6400.5,2742.1,73308.1,3658.4,""oops"",""down"",""right"",""bad_move"",90370.2,10660.4,2369.5,87409.8,590.9,""oops"",""down"",""left"",""good_move"",98072.9,7701.8,2727.3,90371.2,4974.4,""oops"",""down"",""up"",""bad_move"",106847,8772.8,3193.1,98074.2,5579.7,""oops"",""down"",""up"",""bad_move"",113634.5,6755.7,2231.9,106878.8,4523.8,""oops"",""up"",""up"",""bad_move"",119335.8,5700.4,2703.5,113635.4,2996.9,""oops"",""down"",""right"",""bad_move"",122734.6,3397.2,2726.7,119337.5,670.5,""oops"",""down"",""down"",""good_move"",125621.8,2883.7,2301.5,122738.1,582.2,""oops"",""down"",""right"",""bad_move"",128726,3101.9,2603,125624.1,498.9,""while_blue"",""down"",""right"",""bad_move"",132129.4,3402.1,2596.1,128727.3,806,""oops"",""down"",""down"",""good_move"",135061.3,2931.2,2373.9,132130.1,557.3,""oops"",""down"",""down"",""good_move"",138366.3,3303.8,2807.7,135062.5,496.1,""smooth"",""left"",""left"",""good_move"",149224,10856.3,2613.8,145998.4,611.8,""oops"",""left"",""down"",""good_move"",151751.1,2526.2,2006.2,149225,520,""smooth"",""left"",""left"",""good_move"",156936,5182.5,2180.7,151753.5,3001.8,""oops"",""down"",""down"",""good_move"",163309.1,6371.8,2418.6,160242.4,648.1,""smooth"",""left"",""left"",""good_move""]","",""
"11383","","<div style=""width:500px;"">
  <p>What determined the result of this run?</p>
  </div>","99","html-slider-response","73","2224117","0.0-10.0-1.7","189","1","2025-07-09 09:15:00","7701e855f2ef39aa3fd6c71abdc6918a","102.219.25.34","Mozilla/5.0 (Windows NT 10.0; Win64; x64) AppleWebKit/537.36 (KHTML, like Gecko) Chrome/138.0.0.0 Safari/537.36","WebKit","Chrome","138.0.0.0","Windows","10.0","https://app.prolific.com/","en-US,en;q=0.9","67d35cb70a0ad6d3c2703443","686d226cabeef709c732f8e1","686e3149237902f5be59e1d1","67d35cb70a0ad6d3c2703443","2025-07-09T09:52:06.789Z","","","","","","AttribQ","","","","","","","","","","","","","","","","","","","","","","","","","","","","","","","","","","","","","","50"
"9122","","<div style=""width:500px;"">
  <p>How much control did you have over the ball?</p>
  </div>","91","html-slider-response","74","2233243","0.0-10.0-2.7","189","1","2025-07-09 09:15:00","7701e855f2ef39aa3fd6c71abdc6918a","102.219.25.34","Mozilla/5.0 (Windows NT 10.0; Win64; x64) AppleWebKit/537.36 (KHTML, like Gecko) Chrome/138.0.0.0 Safari/537.36","WebKit","Chrome","138.0.0.0","Windows","10.0","https://app.prolific.com/","en-US,en;q=0.9","67d35cb70a0ad6d3c2703443","686d226cabeef709c732f8e1","686e3149237902f5be59e1d1","67d35cb70a0ad6d3c2703443","2025-07-09T09:52:15.915Z","","","","","","ControlQ","","","","","","","","","","","","","","","","","","","","","","","","","","","","","","","","","","","","","","50"
"8957","","<div style=""width:500px;"">
  <p>How would you describe your current emotional state?</p>
  </div>","6","html-slider-response","75","2242204","0.0-10.0-3.7","189","1","2025-07-09 09:15:00","7701e855f2ef39aa3fd6c71abdc6918a","102.219.25.34","Mozilla/5.0 (Windows NT 10.0; Win64; x64) AppleWebKit/537.36 (KHTML, like Gecko) Chrome/138.0.0.0 Safari/537.36","WebKit","Chrome","138.0.0.0","Windows","10.0","https://app.prolific.com/","en-US,en;q=0.9","67d35cb70a0ad6d3c2703443","686d226cabeef709c732f8e1","686e3149237902f5be59e1d1","67d35cb70a0ad6d3c2703443","2025-07-09T09:52:24.875Z","","","","","","StressQ","","","","","","","","","","","","","","","","","","","","","","","","","","","","","","","","","","","","","","50"
"16357","","<div style=""width:500px;"">
  <p>What best describes how you currently feel?</p>
  </div>","97","html-slider-response","76","2258564","0.0-10.0-4.7","189","1","2025-07-09 09:15:00","7701e855f2ef39aa3fd6c71abdc6918a","102.219.25.34","Mozilla/5.0 (Windows NT 10.0; Win64; x64) AppleWebKit/537.36 (KHTML, like Gecko) Chrome/138.0.0.0 Safari/537.36","WebKit","Chrome","138.0.0.0","Windows","10.0","https://app.prolific.com/","en-US,en;q=0.9","67d35cb70a0ad6d3c2703443","686d226cabeef709c732f8e1","686e3149237902f5be59e1d1","67d35cb70a0ad6d3c2703443","2025-07-09T09:52:41.236Z","","","","","","MotivationQ","","","","","","","","","","","","","","","","","","","","","","","","","","","","","","","","","","","","","","50"
"","","","","ctl-task-cpt","77","2344983","0.0-10.0-0.8","189","1","2025-07-09 09:15:00","7701e855f2ef39aa3fd6c71abdc6918a","102.219.25.34","Mozilla/5.0 (Windows NT 10.0; Win64; x64) AppleWebKit/537.36 (KHTML, like Gecko) Chrome/138.0.0.0 Safari/537.36","WebKit","Chrome","138.0.0.0","Windows","10.0","https://app.prolific.com/","en-US,en;q=0.9","67d35cb70a0ad6d3c2703443","686d226cabeef709c732f8e1","686e3149237902f5be59e1d1","67d35cb70a0ad6d3c2703443","2025-07-09T09:54:07.654Z","","","","","","","","","","","","","","","","win-only","3","g1:SW,g2:NE","0.2","9","0","2262312","17765","22784.3","83378.4","1","4","4","6","2","4","4","49","45","0.3712121212121212","1643.3","3000","1690","[""up"",""right""]","{""num_key_presses"":12,""num_perfect"":2,""num_errors"":0,""num_randdir"":10,""num_randdir_good_moves"":7,""num_whilered"":0,""num_whileblue"":0,""num_blue"":2,""num_good_moves"":9}","[419.57142857142856,414.6808016640799,1.9,419.57142857142856,414.6808016640799,114.7,419.57142857142856,414.6808016640799,402.9,419.57142857142856,414.6808016640799,510.3,797.5714285714286,122.18080166407994,845.5,866.5714285714286,87.68080166407994,954.3,788.5714285714286,92.18080166407994,1308.4,782.5714285714286,92.18080166407994,1414.2,782.5714285714286,92.18080166407994,1671.5,782.5714285714286,92.18080166407994,1775.5,782.5714285714286,92.18080166407994,2000.2,782.5714285714286,92.18080166407994,2108.1,782.5714285714286,92.18080166407994,2365.8,782.5714285714286,92.18080166407994,2481.4,698.5714285714286,134.18080166407992,2594.7,490.07142857142856,251.18080166407992,2827.4,490.07142857142856,251.18080166407992,2935.4,490.07142857142856,251.18080166407992,3111.7,490.07142857142856,251.18080166407992,3225.5,490.07142857142856,251.18080166407992,3476.6,490.07142857142856,251.18080166407992,3593.2,490.07142857142856,251.18080166407992,3815,490.07142857142856,251.18080166407992,3919.4,490.07142857142856,251.18080166407992,4023.4,490.07142857142856,251.18080166407992,4253.8,490.07142857142856,251.18080166407992,4370.9,490.07142857142856,251.18080166407992,4665.7,490.07142857142856,251.18080166407992,4773.6]","[1627.5,1627.5,1000,0,627.6,""oops"",""up"",""right"",""good_move"",8465.6,6836.4,2742.5,5334,389.1,""oops"",""up"",""left"",""bad_move"",14599.5,6132.8,2359.7,8466.7,3773.1,""oops"",""up"",""up"",""good_move"",19505.3,4904.6,3102.9,14600.8,1801.7,""oops"",""up"",""left"",""bad_move"",24699.7,5190.5,2738.1,19509.2,2452.4,""smooth"",""up"",""up"",""good_move"",30487.5,5786.7,2238.3,24700.9,3548.3,""smooth"",""up"",""up"",""good_move"",36743.7,6254.6,1990.1,30489.1,4264.5,""oops"",""right"",""right"",""good_move"",41040,4294.6,3321.8,36745.4,972.8,""oops"",""right"",""down"",""bad_move"",47267.3,6225.9,2480.6,44211.9,574.8,""oops"",""right"",""up"",""good_move"",52922.2,5652.8,2335.5,47269.4,3317.3,""oops"",""right"",""right"",""good_move"",55907,2978,1694.6,52929.1,1283.3,""oops"",""right"",""right"",""good_move"",60005,4095.8,3382.9,55909.2,712.9,""oops"",""right"",""right"",""good_move""]","",""
"17188","","<div style=""width:500px;"">
  <p>What determined the result of this run?</p>
  </div>","97","html-slider-response","78","2362176","0.0-10.0-1.8","189","1","2025-07-09 09:15:00","7701e855f2ef39aa3fd6c71abdc6918a","102.219.25.34","Mozilla/5.0 (Windows NT 10.0; Win64; x64) AppleWebKit/537.36 (KHTML, like Gecko) Chrome/138.0.0.0 Safari/537.36","WebKit","Chrome","138.0.0.0","Windows","10.0","https://app.prolific.com/","en-US,en;q=0.9","67d35cb70a0ad6d3c2703443","686d226cabeef709c732f8e1","686e3149237902f5be59e1d1","67d35cb70a0ad6d3c2703443","2025-07-09T09:54:24.847Z","","","","","","AttribQ","","","","","","","","","","","","","","","","","","","","","","","","","","","","","","","","","","","","","","50"
"17914","","<div style=""width:500px;"">
  <p>How much control did you have over the ball?</p>
  </div>","97","html-slider-response","79","2380095","0.0-10.0-2.8","189","1","2025-07-09 09:15:00","7701e855f2ef39aa3fd6c71abdc6918a","102.219.25.34","Mozilla/5.0 (Windows NT 10.0; Win64; x64) AppleWebKit/537.36 (KHTML, like Gecko) Chrome/138.0.0.0 Safari/537.36","WebKit","Chrome","138.0.0.0","Windows","10.0","https://app.prolific.com/","en-US,en;q=0.9","67d35cb70a0ad6d3c2703443","686d226cabeef709c732f8e1","686e3149237902f5be59e1d1","67d35cb70a0ad6d3c2703443","2025-07-09T09:54:42.766Z","","","","","","ControlQ","","","","","","","","","","","","","","","","","","","","","","","","","","","","","","","","","","","","","","50"
"6272","","<div style=""width:500px;"">
  <p>How would you describe your current emotional state?</p>
  </div>","0","html-slider-response","80","2386374","0.0-10.0-3.8","189","1","2025-07-09 09:15:00","7701e855f2ef39aa3fd6c71abdc6918a","102.219.25.34","Mozilla/5.0 (Windows NT 10.0; Win64; x64) AppleWebKit/537.36 (KHTML, like Gecko) Chrome/138.0.0.0 Safari/537.36","WebKit","Chrome","138.0.0.0","Windows","10.0","https://app.prolific.com/","en-US,en;q=0.9","67d35cb70a0ad6d3c2703443","686d226cabeef709c732f8e1","686e3149237902f5be59e1d1","67d35cb70a0ad6d3c2703443","2025-07-09T09:54:49.045Z","","","","","","StressQ","","","","","","","","","","","","","","","","","","","","","","","","","","","","","","","","","","","","","","50"
"10312","","<div style=""width:500px;"">
  <p>What best describes how you currently feel?</p>
  </div>","100","html-slider-response","81","2396693","0.0-10.0-4.8","189","1","2025-07-09 09:15:00","7701e855f2ef39aa3fd6c71abdc6918a","102.219.25.34","Mozilla/5.0 (Windows NT 10.0; Win64; x64) AppleWebKit/537.36 (KHTML, like Gecko) Chrome/138.0.0.0 Safari/537.36","WebKit","Chrome","138.0.0.0","Windows","10.0","https://app.prolific.com/","en-US,en;q=0.9","67d35cb70a0ad6d3c2703443","686d226cabeef709c732f8e1","686e3149237902f5be59e1d1","67d35cb70a0ad6d3c2703443","2025-07-09T09:54:59.364Z","","","","","","MotivationQ","","","","","","","","","","","","","","","","","","","","","","","","","","","","","","","","","","","","","","50"
