"rt","response_timestamp","stimulus","response","trial_type","trial_index","time_elapsed","internal_node_id","run_id","condition","recorded_at","source_code_version","ip","user_agent","device","browser","browser_version","platform","platform_version","referer","accept_language","PROLIFIC_PID","STUDY_ID","SESSION_ID","prolific_id","realtime","view_history","question_order","consent","success","question_id","eventType","responses","item_order","radio_event_ids","radio_event_times","key_event_times","mouse_event_times","straightlining","zigzagging","honeypot","which_type","canvas_config","goals_layout","control_level","trial_number","tutorial_trial_number","trial_start_time","phase1_start_time","phase2_start_time","phase3_start_time","goal_1_value","goal_1_distance","goal_2_value","goal_2_distance","goal_selected","outcome","outcome_total","participant_final_score","participant_initial_score","participant_final_score_prop","goal_choice_rt","allocated_time","allocated_time_remaining","goal_direction","counts","mouse_movements","key_presses","correct","slider_start","sub_question"
"172367","1752057754201","<p style='font-size:40px;line-height:1.25'><strong>Welcome to the experiment!</strong></p><p style='font-size:1.1em;line-height:1.25'>Thank you for your interest in our experiment! Before you begin, it is important that we obtain your informed consent to participate in the study.</p><p style='font-size:1.1em;line-height:1.25'>On the next screen will be an <strong>information sheet</strong> for you to read. To participate in the study we need you to read this information sheet and the following consent form carefully. If you agree with all the statements, please click the <strong>I agree</strong> button.</p><p style='font-size:1.1em;line-height:1.25'>Press <strong>Next</strong> to read the information sheet.</p>","0","custom-html-button-response","0","172374","0.0-0.0","269","1","2025-07-09 10:39:30","7701e855f2ef39aa3fd6c71abdc6918a","185.177.124.88","Mozilla/5.0 (Windows NT 10.0; Win64; x64) AppleWebKit/537.36 (KHTML, like Gecko) Chrome/138.0.0.0 Safari/537.36 Edg/138.0.0.0","WebKit","Edge","138.0.0.0","Windows","10.0","https://app.prolific.com/","en-US,en;q=0.9,en-ZA;q=0.8","6820e30a98ebaa472670fd3d","686d226cabeef709c732f8e1","686e46b0522ef6a21b26331a","6820e30a98ebaa472670fd3d","2025-07-09T10:42:34.207Z","","","","","","","","","","","","","","","","","","","","","","","","","","","","","","","","","","","","","","","","","","","","",""
"567863","","","","instructions","1","740243","0.0-1.0","269","1","2025-07-09 10:39:30","7701e855f2ef39aa3fd6c71abdc6918a","185.177.124.88","Mozilla/5.0 (Windows NT 10.0; Win64; x64) AppleWebKit/537.36 (KHTML, like Gecko) Chrome/138.0.0.0 Safari/537.36 Edg/138.0.0.0","WebKit","Edge","138.0.0.0","Windows","10.0","https://app.prolific.com/","en-US,en;q=0.9,en-ZA;q=0.8","6820e30a98ebaa472670fd3d","686d226cabeef709c732f8e1","686e46b0522ef6a21b26331a","6820e30a98ebaa472670fd3d","","[{""page_index"":0,""viewing_time"":25969},{""page_index"":1,""viewing_time"":541890}]","","","","","","","","","","","","","","","","","","","","","","","","","","","","","","","","","","","","","","","","","","","",""
"20353","","","{""Q0"":"""",""Q1"":"""",""Q2"":"""",""Q3"":"""",""Q4"":"""",""Q5"":"""",""Q6"":""I agree""}","survey-multi-choice","2","760627","0.0-2.0","269","1","2025-07-09 10:39:30","7701e855f2ef39aa3fd6c71abdc6918a","185.177.124.88","Mozilla/5.0 (Windows NT 10.0; Win64; x64) AppleWebKit/537.36 (KHTML, like Gecko) Chrome/138.0.0.0 Safari/537.36 Edg/138.0.0.0","WebKit","Edge","138.0.0.0","Windows","10.0","https://app.prolific.com/","en-US,en;q=0.9,en-ZA;q=0.8","6820e30a98ebaa472670fd3d","686d226cabeef709c732f8e1","686e46b0522ef6a21b26331a","6820e30a98ebaa472670fd3d","","","[0,1,2,3,4,5,6]","true","","","","","","","","","","","","","","","","","","","","","","","","","","","","","","","","","","","","","","","","","",""
"23130","","","","fullscreen","3","784787","0.0-4.0","269","1","2025-07-09 10:39:30","7701e855f2ef39aa3fd6c71abdc6918a","185.177.124.88","Mozilla/5.0 (Windows NT 10.0; Win64; x64) AppleWebKit/537.36 (KHTML, like Gecko) Chrome/138.0.0.0 Safari/537.36 Edg/138.0.0.0","WebKit","Edge","138.0.0.0","Windows","10.0","https://app.prolific.com/","en-US,en;q=0.9,en-ZA;q=0.8","6820e30a98ebaa472670fd3d","686d226cabeef709c732f8e1","686e46b0522ef6a21b26331a","6820e30a98ebaa472670fd3d","","","","","true","","","","","","","","","","","","","","","","","","","","","","","","","","","","","","","","","","","","","","","","",""
"13287","1752058379909"," <p style='font-size:1.1em;line-height:1.25'>Thank you for completing the consent form and closing all other tabs.</p><p style='font-size:1.1em;line-height:1.25'>We will now invite you to fill in some demographic information and questionnaires, before starting the game.<br>This will take about 5 minutes.<br></p><p style='font-size:1.1em;line-height:1.25'>Press the <strong>Next</strong> button to continue.</p>","0","custom-html-button-response","4","798079","0.0-5.0","269","1","2025-07-09 10:39:30","7701e855f2ef39aa3fd6c71abdc6918a","185.177.124.88","Mozilla/5.0 (Windows NT 10.0; Win64; x64) AppleWebKit/537.36 (KHTML, like Gecko) Chrome/138.0.0.0 Safari/537.36 Edg/138.0.0.0","WebKit","Edge","138.0.0.0","Windows","10.0","https://app.prolific.com/","en-US,en;q=0.9,en-ZA;q=0.8","6820e30a98ebaa472670fd3d","686d226cabeef709c732f8e1","686e46b0522ef6a21b26331a","6820e30a98ebaa472670fd3d","2025-07-09T10:52:59.910Z","","","","","","","","","","","","","","","","","","","","","","","","","","","","","","","","","","","","","","","","","","","","",""
"6357","","","{""age"":""37""}","survey-text","5","804449","0.0-6.0-0.0","269","1","2025-07-09 10:39:30","7701e855f2ef39aa3fd6c71abdc6918a","185.177.124.88","Mozilla/5.0 (Windows NT 10.0; Win64; x64) AppleWebKit/537.36 (KHTML, like Gecko) Chrome/138.0.0.0 Safari/537.36 Edg/138.0.0.0","WebKit","Edge","138.0.0.0","Windows","10.0","https://app.prolific.com/","en-US,en;q=0.9,en-ZA;q=0.8","6820e30a98ebaa472670fd3d","686d226cabeef709c732f8e1","686e46b0522ef6a21b26331a","6820e30a98ebaa472670fd3d","","","","","","0","demographics","","","","","","","","","","","","","","","","","","","","","","","","","","","","","","","","","","","","","","",""
"2482","","","{""gender_identity"":""female/woman""}","survey-multi-choice","6","806933","0.0-6.0-1.0","269","1","2025-07-09 10:39:30","7701e855f2ef39aa3fd6c71abdc6918a","185.177.124.88","Mozilla/5.0 (Windows NT 10.0; Win64; x64) AppleWebKit/537.36 (KHTML, like Gecko) Chrome/138.0.0.0 Safari/537.36 Edg/138.0.0.0","WebKit","Edge","138.0.0.0","Windows","10.0","https://app.prolific.com/","en-US,en;q=0.9,en-ZA;q=0.8","6820e30a98ebaa472670fd3d","686d226cabeef709c732f8e1","686e46b0522ef6a21b26331a","6820e30a98ebaa472670fd3d","","","[0]","","","1","demographics","","","","","","","","","","","","","","","","","","","","","","","","","","","","","","","","","","","","","","",""
"2036","","","{""assigned_sex"":""female""}","survey-multi-choice","7","808971","0.0-6.0-2.0","269","1","2025-07-09 10:39:30","7701e855f2ef39aa3fd6c71abdc6918a","185.177.124.88","Mozilla/5.0 (Windows NT 10.0; Win64; x64) AppleWebKit/537.36 (KHTML, like Gecko) Chrome/138.0.0.0 Safari/537.36 Edg/138.0.0.0","WebKit","Edge","138.0.0.0","Windows","10.0","https://app.prolific.com/","en-US,en;q=0.9,en-ZA;q=0.8","6820e30a98ebaa472670fd3d","686d226cabeef709c732f8e1","686e46b0522ef6a21b26331a","6820e30a98ebaa472670fd3d","","","[0]","","","2","demographics","","","","","","","","","","","","","","","","","","","","","","","","","","","","","","","","","","","","","","",""
"8304","","","{""menstrual_cycle"":""Yes""}","survey-multi-choice","8","817277","0.0-6.0-3.0","269","1","2025-07-09 10:39:30","7701e855f2ef39aa3fd6c71abdc6918a","185.177.124.88","Mozilla/5.0 (Windows NT 10.0; Win64; x64) AppleWebKit/537.36 (KHTML, like Gecko) Chrome/138.0.0.0 Safari/537.36 Edg/138.0.0.0","WebKit","Edge","138.0.0.0","Windows","10.0","https://app.prolific.com/","en-US,en;q=0.9,en-ZA;q=0.8","6820e30a98ebaa472670fd3d","686d226cabeef709c732f8e1","686e46b0522ef6a21b26331a","6820e30a98ebaa472670fd3d","","","[0]","","","4","demographics","","","","","","","","","","","","","","","","","","","","","","","","","","","","","","","","","","","","","","",""
"13269","","","{""education"":""Bachelor's Degree (e.g., BA)""}","survey-multi-choice","9","830549","0.0-6.0-4.0","269","1","2025-07-09 10:39:30","7701e855f2ef39aa3fd6c71abdc6918a","185.177.124.88","Mozilla/5.0 (Windows NT 10.0; Win64; x64) AppleWebKit/537.36 (KHTML, like Gecko) Chrome/138.0.0.0 Safari/537.36 Edg/138.0.0.0","WebKit","Edge","138.0.0.0","Windows","10.0","https://app.prolific.com/","en-US,en;q=0.9,en-ZA;q=0.8","6820e30a98ebaa472670fd3d","686d226cabeef709c732f8e1","686e46b0522ef6a21b26331a","6820e30a98ebaa472670fd3d","","","[0]","","","5","demographics","","","","","","","","","","","","","","","","","","","","","","","","","","","","","","","","","","","","","","",""
"8497","","","{""education"":""Higher National Diploma""}","survey-multi-choice","10","839049","0.0-6.0-5.0","269","1","2025-07-09 10:39:30","7701e855f2ef39aa3fd6c71abdc6918a","185.177.124.88","Mozilla/5.0 (Windows NT 10.0; Win64; x64) AppleWebKit/537.36 (KHTML, like Gecko) Chrome/138.0.0.0 Safari/537.36 Edg/138.0.0.0","WebKit","Edge","138.0.0.0","Windows","10.0","https://app.prolific.com/","en-US,en;q=0.9,en-ZA;q=0.8","6820e30a98ebaa472670fd3d","686d226cabeef709c732f8e1","686e46b0522ef6a21b26331a","6820e30a98ebaa472670fd3d","2025-07-09T10:53:40.881Z","","[0]","","","6","demographics","","","","","","","","","","","","","","","","","","","","","","","","","","","","","","","","","","","","","","",""
"211711","","","{""mental_health_condition"":""Yes, I have been diagnosed with Generalized Anxiety Disorder (GAD) and mild depression. I was first diagnosed in my early 30s and have been managing my symptoms through therapy and occasional medication. I also have a history of panic attacks, though they have become less frequent in recent years."",""mental_health_treatment"":""Yes, I am currently receiving treatment for Generalized Anxiety Disorder and mild depression. I attend weekly cognitive behavioral therapy (CBT) sessions with a licensed therapist, and I take a low-dose SSRI (Selective Serotonin Reuptake Inhibitor) as prescribed by my primary care physician. I also practice mindfulness and meditation regularly as part of my self-care routine."",""psychiatric_medication"":""Yes, I am currently taking Sertraline (Zoloft) 50 mg once daily in the morning. This medication was prescribed to help manage symptoms of anxiety and depression""}","survey-text","11","1050766","0.0-7.0-0.0","269","1","2025-07-09 10:39:30","7701e855f2ef39aa3fd6c71abdc6918a","185.177.124.88","Mozilla/5.0 (Windows NT 10.0; Win64; x64) AppleWebKit/537.36 (KHTML, like Gecko) Chrome/138.0.0.0 Safari/537.36 Edg/138.0.0.0","WebKit","Edge","138.0.0.0","Windows","10.0","https://app.prolific.com/","en-US,en;q=0.9,en-ZA;q=0.8","6820e30a98ebaa472670fd3d","686d226cabeef709c732f8e1","686e46b0522ef6a21b26331a","6820e30a98ebaa472670fd3d","2025-07-09T10:57:12.597Z","","","","","1","mental_health","","","","","","","","","","","","","","","","","","","","","","","","","","","","","","","","","","","","","","",""
"50022","","","{""depression_history"":[""Yes""]}","survey-multi-select","12","1100794","0.0-7.0-1.0","269","1","2025-07-09 10:39:30","7701e855f2ef39aa3fd6c71abdc6918a","185.177.124.88","Mozilla/5.0 (Windows NT 10.0; Win64; x64) AppleWebKit/537.36 (KHTML, like Gecko) Chrome/138.0.0.0 Safari/537.36 Edg/138.0.0.0","WebKit","Edge","138.0.0.0","Windows","10.0","https://app.prolific.com/","en-US,en;q=0.9,en-ZA;q=0.8","6820e30a98ebaa472670fd3d","686d226cabeef709c732f8e1","686e46b0522ef6a21b26331a","6820e30a98ebaa472670fd3d","","","[0]","","","","mental_health","","","","","","","","","","","","","","","","","","","","","","","","","","","","","","","","","","","","","","",""
"29083","","","{""depression_episodes"":""more than 5"",""depression_recent"":""Within the past year""}","survey-multi-choice","13","1129885","0.0-7.0-2.0-0.0","269","1","2025-07-09 10:39:30","7701e855f2ef39aa3fd6c71abdc6918a","185.177.124.88","Mozilla/5.0 (Windows NT 10.0; Win64; x64) AppleWebKit/537.36 (KHTML, like Gecko) Chrome/138.0.0.0 Safari/537.36 Edg/138.0.0.0","WebKit","Edge","138.0.0.0","Windows","10.0","https://app.prolific.com/","en-US,en;q=0.9,en-ZA;q=0.8","6820e30a98ebaa472670fd3d","686d226cabeef709c732f8e1","686e46b0522ef6a21b26331a","6820e30a98ebaa472670fd3d","2025-07-09T10:58:31.717Z","","[0,1]","","","3","mental_health","","","","","","","","","","","","","","","","","","","","","","","","","","","","","","","","","","","","","","",""
"225421.3999999985","","","","survey-template","14","1355313","0.0-7.0-3.0","269","1","2025-07-09 10:39:30","7701e855f2ef39aa3fd6c71abdc6918a","185.177.124.88","Mozilla/5.0 (Windows NT 10.0; Win64; x64) AppleWebKit/537.36 (KHTML, like Gecko) Chrome/138.0.0.0 Safari/537.36 Edg/138.0.0.0","WebKit","Edge","138.0.0.0","Windows","10.0","https://app.prolific.com/","en-US,en;q=0.9,en-ZA;q=0.8","6820e30a98ebaa472670fd3d","686d226cabeef709c732f8e1","686e46b0522ef6a21b26331a","6820e30a98ebaa472670fd3d","2025-07-09T11:02:17.145Z","","","","","","ius","{""Q01"":""2"",""Q02"":""1"",""Q03"":""3"",""Q04"":""1"",""Q05"":""1"",""Q06"":""1"",""Q07"":""1"",""Q08"":""0"",""Q09"":""3"",""Q10"":""2"",""Q11"":""2"",""Q12"":""1"",""Q13"":""3""}","[0,1,2,3,4,5,6,7,8,9,10,11,12]","[""Q01"",""Q02"",""Q02"",""Q03"",""Q04"",""Q05"",""Q06"",""Q07"",""Q08"",""Q07"",""Q09"",""Q11"",""Q12"",""Q13"",""Q10""]","[86776.79999999702,99863.59999999776,136863.79999999702,140175.79999999702,156622.29999999702,163330.09999999776,165409.59999999776,166692.59999999776,181158.19999999925,187411.19999999925,193470.09999999776,199652.79999999702,204083.8999999985,211954.69999999925,223486.5]","[]","[14292.199999999255,86776.79999999702,98828.89999999851,99863.59999999776,136863.79999999702,140175.79999999702,146185.69999999925,155576.59999999776,156622.29999999702,163330.09999999776,165409.59999999776,166692.59999999776,181158.19999999925,187411.19999999925,193470.09999999776,199652.79999999702,204083.8999999985,211954.69999999925,213528.5,223486.5,225418.19999999925]","0.46153846153846156","0.3333333333333333","0","","","","","","","","","","","","","","","","","","","","","","","","","","","","","",""
"4365","1752058941513","<p style='font-size:1.1em;line-height:1.25'>In the following, we will ask you a few questions relating to your experiences over the past month.<br></p><p style='font-size:1.1em;line-height:1.25'>Press the <strong>Next</strong> button to continue.</p>","0","custom-html-button-response","15","1359684","0.0-7.0-4.0","269","1","2025-07-09 10:39:30","7701e855f2ef39aa3fd6c71abdc6918a","185.177.124.88","Mozilla/5.0 (Windows NT 10.0; Win64; x64) AppleWebKit/537.36 (KHTML, like Gecko) Chrome/138.0.0.0 Safari/537.36 Edg/138.0.0.0","WebKit","Edge","138.0.0.0","Windows","10.0","https://app.prolific.com/","en-US,en;q=0.9,en-ZA;q=0.8","6820e30a98ebaa472670fd3d","686d226cabeef709c732f8e1","686e46b0522ef6a21b26331a","6820e30a98ebaa472670fd3d","2025-07-09T11:02:21.515Z","","","","","","","","","","","","","","","","","","","","","","","","","","","","","","","","","","","","","","","","","","","","",""
"153128.80000000075","","","","survey-template","16","1512829","0.0-7.0-5.0","269","1","2025-07-09 10:39:30","7701e855f2ef39aa3fd6c71abdc6918a","185.177.124.88","Mozilla/5.0 (Windows NT 10.0; Win64; x64) AppleWebKit/537.36 (KHTML, like Gecko) Chrome/138.0.0.0 Safari/537.36 Edg/138.0.0.0","WebKit","Edge","138.0.0.0","Windows","10.0","https://app.prolific.com/","en-US,en;q=0.9,en-ZA;q=0.8","6820e30a98ebaa472670fd3d","686d226cabeef709c732f8e1","686e46b0522ef6a21b26331a","6820e30a98ebaa472670fd3d","2025-07-09T11:04:54.664Z","","","","","","pss","{""Q01"":""3"",""Q02"":""2"",""Q03"":""3"",""Q04"":""2"",""Q05"":""1"",""Q06"":""4"",""Q07"":""2"",""Q08"":""3"",""Q09"":""3"",""Q10"":""2""}","[0,1,2,3,4,5,6,7,8,9]","[""Q01"",""Q02"",""Q03"",""Q04"",""Q04"",""Q05"",""Q06"",""Q07"",""Q08"",""Q09"",""Q10""]","[70079.70000000298,77262.40000000224,106526.40000000224,115350.30000000075,118004.80000000075,123786.5,131521.90000000224,135333.70000000298,141450.40000000224,146986.20000000298,151725.30000000075]","[]","[0.10000000149011612,5844.60000000149,70079.70000000298,77262.40000000224,106526.40000000224,115350.30000000075,116958.60000000149,118004.80000000075,122826.60000000149,123786.5,131521.90000000224,135333.70000000298,141450.40000000224,146986.20000000298,151725.30000000075,153111.20000000298]","0.4","0.7777777777777778","0","","","","","","","","","","","","","","","","","","","","","","","","","","","","","",""
"3880","1752059098550","<p style='font-size:1.1em;line-height:1.25'>Thank you for your answers! Now we will ask you a few more questions relating to your feelings in the last 24 hours.<br></p><p style='font-size:1.1em;line-height:1.25'>Press the <strong>Next</strong> button to continue.</p>","0","custom-html-button-response","17","1516720","0.0-7.0-6.0","269","1","2025-07-09 10:39:30","7701e855f2ef39aa3fd6c71abdc6918a","185.177.124.88","Mozilla/5.0 (Windows NT 10.0; Win64; x64) AppleWebKit/537.36 (KHTML, like Gecko) Chrome/138.0.0.0 Safari/537.36 Edg/138.0.0.0","WebKit","Edge","138.0.0.0","Windows","10.0","https://app.prolific.com/","en-US,en;q=0.9,en-ZA;q=0.8","6820e30a98ebaa472670fd3d","686d226cabeef709c732f8e1","686e46b0522ef6a21b26331a","6820e30a98ebaa472670fd3d","2025-07-09T11:04:58.551Z","","","","","","","","","","","","","","","","","","","","","","","","","","","","","","","","","","","","","","","","","","","","",""
"136290.19999999925","","","","survey-template","18","1653020","0.0-7.0-7.0","269","1","2025-07-09 10:39:30","7701e855f2ef39aa3fd6c71abdc6918a","185.177.124.88","Mozilla/5.0 (Windows NT 10.0; Win64; x64) AppleWebKit/537.36 (KHTML, like Gecko) Chrome/138.0.0.0 Safari/537.36 Edg/138.0.0.0","WebKit","Edge","138.0.0.0","Windows","10.0","https://app.prolific.com/","en-US,en;q=0.9,en-ZA;q=0.8","6820e30a98ebaa472670fd3d","686d226cabeef709c732f8e1","686e46b0522ef6a21b26331a","6820e30a98ebaa472670fd3d","2025-07-09T11:07:14.851Z","","","","","","drsp","{""Q01"":""3"",""Q02"":""4"",""Q03"":""3"",""Q04"":""4"",""Q05"":""5"",""Q06"":""4"",""Q07"":""4"",""Q08"":""2"",""Q09"":""4"",""Q10"":""3"",""Q11"":""4"",""Q12"":""0"",""Q13"":""0"",""Q14"":""5"",""Q15"":""2"",""Q16"":""4"",""Q17"":""3"",""Q18"":""1"",""Q19"":""2"",""Q20"":""1"",""Q21"":""4""}","[0,1,2,3,4,5,6,7,8,9,10,11,12,13,14,15,16,17,18,19,20]","[""Q01"",""Q02"",""Q03"",""Q04"",""Q05"",""Q06"",""Q07"",""Q08"",""Q08"",""Q09"",""Q09"",""Q09"",""Q10"",""Q11"",""Q13"",""Q13"",""Q14"",""Q15"",""Q16"",""Q17"",""Q18"",""Q19"",""Q20"",""Q21"",""Q12"",""Q13""]","[5075.5,9041.39999999851,11622.099999997765,19584.800000000745,24725.89999999851,31408,36088.89999999851,39423.89999999851,42157.300000000745,47669.099999997765,47676.39999999851,47693.300000000745,51066.39999999851,54540,59777.39999999851,60535.599999997765,67504,74487.59999999776,77251.59999999776,80935.30000000075,85355.39999999851,99919.19999999925,106456.89999999851,113041,119549.09999999776,129200.09999999776]","[]","[0.09999999776482582,3374.89999999851,5075.5,9041.39999999851,11622.099999997765,18415.800000000745,19584.800000000745,23198.199999999255,24725.89999999851,31408,36088.89999999851,39423.89999999851,42157.300000000745,47669.099999997765,47676.39999999851,47693.300000000745,51066.39999999851,54540,59777.39999999851,60535.599999997765,67504,74487.59999999776,76407.39999999851,77251.59999999776,80935.30000000075,85355.39999999851,90804,99919.19999999925,104855.09999999776,106456.89999999851,111470.89999999851,112159,113041,114533.19999999925,119549.09999999776,129200.09999999776,136285.80000000075]","0.38095238095238093","0.55","0","","","","","","","","","","","","","","","","","","","","","","","","","","","","","",""
"15441.199999999255","","","","survey-template","19","1668465","0.0-7.0-8.0","269","1","2025-07-09 10:39:30","7701e855f2ef39aa3fd6c71abdc6918a","185.177.124.88","Mozilla/5.0 (Windows NT 10.0; Win64; x64) AppleWebKit/537.36 (KHTML, like Gecko) Chrome/138.0.0.0 Safari/537.36 Edg/138.0.0.0","WebKit","Edge","138.0.0.0","Windows","10.0","https://app.prolific.com/","en-US,en;q=0.9,en-ZA;q=0.8","6820e30a98ebaa472670fd3d","686d226cabeef709c732f8e1","686e46b0522ef6a21b26331a","6820e30a98ebaa472670fd3d","2025-07-09T11:07:30.296Z","","","","","","stress","{""Q01"":""3"",""Q02"":""1"",""Q03"":""2""}","[0,1,2]","[""Q01"",""Q02"",""Q03""]","[4754.699999999255,8105,14545.300000000745]","[]","[4754.699999999255,8105,13693.5,14545.300000000745,15440.300000000745]","0.3333333333333333","0.5","0","","","","","","","","","","","","","","","","","","","","","","","","","","","","","",""
"131567","","","","instructions","20","1800034","0.0-8.0-0.0","269","1","2025-07-09 10:39:30","7701e855f2ef39aa3fd6c71abdc6918a","185.177.124.88","Mozilla/5.0 (Windows NT 10.0; Win64; x64) AppleWebKit/537.36 (KHTML, like Gecko) Chrome/138.0.0.0 Safari/537.36 Edg/138.0.0.0","WebKit","Edge","138.0.0.0","Windows","10.0","https://app.prolific.com/","en-US,en;q=0.9,en-ZA;q=0.8","6820e30a98ebaa472670fd3d","686d226cabeef709c732f8e1","686e46b0522ef6a21b26331a","6820e30a98ebaa472670fd3d","","[{""page_index"":0,""viewing_time"":48192},{""page_index"":1,""viewing_time"":28414},{""page_index"":2,""viewing_time"":30433},{""page_index"":3,""viewing_time"":24527}]","","","","","","","","","","","","","","","","","","","","","","","","","","","","","","","","","","","","","","","","","","","",""
"","","","","ctl-task-cpt","21","1824761","0.0-8.0-1.0","269","1","2025-07-09 10:39:30","7701e855f2ef39aa3fd6c71abdc6918a","185.177.124.88","Mozilla/5.0 (Windows NT 10.0; Win64; x64) AppleWebKit/537.36 (KHTML, like Gecko) Chrome/138.0.0.0 Safari/537.36 Edg/138.0.0.0","WebKit","Edge","138.0.0.0","Windows","10.0","https://app.prolific.com/","en-US,en;q=0.9,en-ZA;q=0.8","6820e30a98ebaa472670fd3d","686d226cabeef709c732f8e1","686e46b0522ef6a21b26331a","6820e30a98ebaa472670fd3d","","","","","","","","","","","","","","","","","win-only","3","g1:SW,g2:NE","1","0","1","1812199.4","12072","16077.2","21719.3","2","4","4","6","1","-2","-2","0","0","0","4005.1","4000","-2980","[""down"",""left""]","{""num_key_presses"":0,""num_perfect"":0,""num_errors"":0,""num_randdir"":0,""num_randdir_good_moves"":0,""num_whilered"":0,""num_whileblue"":0,""num_blue"":0,""num_good_moves"":0}","[245.63482142857143,249.52544642857143,0.7,245.63482142857143,249.52544642857143,104.3,245.63482142857143,249.52544642857143,204.4,245.63482142857143,249.52544642857143,304.5,245.63482142857143,249.52544642857143,405,245.63482142857143,249.52544642857143,509.8,245.63482142857143,249.52544642857143,613.7,245.63482142857143,249.52544642857143,719.4,245.63482142857143,249.52544642857143,824.4,245.63482142857143,249.52544642857143,928.4,245.63482142857143,249.52544642857143,1028.5,245.63482142857143,249.52544642857143,1129.6,245.63482142857143,249.52544642857143,1235.2,245.63482142857143,249.52544642857143,1339,245.63482142857143,249.52544642857143,1439,245.63482142857143,249.52544642857143,1539.6,245.63482142857143,249.52544642857143,1643.7,245.63482142857143,249.52544642857143,1749.5,245.63482142857143,249.52544642857143,1854.8,245.63482142857143,249.52544642857143,1958.5,245.63482142857143,249.52544642857143,2058.6,245.63482142857143,249.52544642857143,2159.2,245.63482142857143,249.52544642857143,2259.7,245.63482142857143,249.52544642857143,2365.2,245.63482142857143,249.52544642857143,2469.2,242.63482142857143,251.52544642857143,2570.3,239.63482142857143,254.52544642857143,2678.6,237.63482142857143,254.52544642857143,2779.5,235.63482142857143,254.52544642857143,2885.1,233.63482142857143,254.52544642857143,2985.5,232.63482142857143,254.52544642857143,3117.7,232.63482142857143,254.52544642857143,3220.4,232.63482142857143,254.52544642857143,3321.9,232.63482142857143,254.52544642857143,3422.2,232.63482142857143,254.52544642857143,3526.1,232.63482142857143,254.52544642857143,3632.7,232.63482142857143,254.52544642857143,3742,232.63482142857143,254.52544642857143,3850.1,232.63482142857143,254.52544642857143,3950.1]","[]","","",""
"15363","","","","instructions","22","1840124","0.0-8.0-2.0","269","1","2025-07-09 10:39:30","7701e855f2ef39aa3fd6c71abdc6918a","185.177.124.88","Mozilla/5.0 (Windows NT 10.0; Win64; x64) AppleWebKit/537.36 (KHTML, like Gecko) Chrome/138.0.0.0 Safari/537.36 Edg/138.0.0.0","WebKit","Edge","138.0.0.0","Windows","10.0","https://app.prolific.com/","en-US,en;q=0.9,en-ZA;q=0.8","6820e30a98ebaa472670fd3d","686d226cabeef709c732f8e1","686e46b0522ef6a21b26331a","6820e30a98ebaa472670fd3d","","[{""page_index"":0,""viewing_time"":15362}]","","","","","","","","","","","","","","","","","","","","","","","","","","","","","","","","","","","","","","","","","","","",""
"","","","","ctl-task-cpt","23","1865713","0.0-8.0-3.0","269","1","2025-07-09 10:39:30","7701e855f2ef39aa3fd6c71abdc6918a","185.177.124.88","Mozilla/5.0 (Windows NT 10.0; Win64; x64) AppleWebKit/537.36 (KHTML, like Gecko) Chrome/138.0.0.0 Safari/537.36 Edg/138.0.0.0","WebKit","Edge","138.0.0.0","Windows","10.0","https://app.prolific.com/","en-US,en;q=0.9,en-ZA;q=0.8","6820e30a98ebaa472670fd3d","686d226cabeef709c732f8e1","686e46b0522ef6a21b26331a","6820e30a98ebaa472670fd3d","","","","","","","","","","","","","","","","","win-only","3","g1:SW,g2:NE","0.35","0","3","1852286.2","7507.9","11565.5","22571.7","2","4","8","6","1","-2","-3","0","0","0","4057.6","4000","-2980","[""down"",""left""]","{""num_key_presses"":2,""num_perfect"":0,""num_errors"":1,""num_randdir"":1,""num_randdir_good_moves"":1,""num_whilered"":0,""num_whileblue"":0,""num_blue"":0,""num_good_moves"":1}","[244.63482142857143,242.52544642857143,0.5,244.63482142857143,242.52544642857143,103.3,244.63482142857143,242.52544642857143,205.2,244.63482142857143,242.52544642857143,308.3,244.63482142857143,242.52544642857143,412.9,244.63482142857143,242.52544642857143,517.7,244.63482142857143,242.52544642857143,618.7,244.63482142857143,242.52544642857143,724.9,244.63482142857143,242.52544642857143,827.5,244.63482142857143,242.52544642857143,929.1,244.63482142857143,242.52544642857143,1033,244.63482142857143,242.52544642857143,1133.5,244.63482142857143,242.52544642857143,1233.9,244.63482142857143,242.52544642857143,1339,244.63482142857143,242.52544642857143,1444.3,244.63482142857143,242.52544642857143,1544.3,244.63482142857143,242.52544642857143,1647.9,244.63482142857143,242.52544642857143,1748.4,244.63482142857143,242.52544642857143,1853.4,244.63482142857143,242.52544642857143,1954.9,244.63482142857143,242.52544642857143,2058.5,244.63482142857143,242.52544642857143,2163.7,244.63482142857143,242.52544642857143,2264.3,244.63482142857143,242.52544642857143,2368.9,244.63482142857143,242.52544642857143,2475.1,244.63482142857143,242.52544642857143,2578.8,244.63482142857143,242.52544642857143,2683.4,244.63482142857143,242.52544642857143,2788.8,244.63482142857143,242.52544642857143,2890.1,244.63482142857143,242.52544642857143,2993.4,244.63482142857143,242.52544642857143,3093.8,244.63482142857143,242.52544642857143,3198.4,244.63482142857143,242.52544642857143,3303.5,244.63482142857143,242.52544642857143,3408.6,244.63482142857143,242.52544642857143,3508.6,244.63482142857143,242.52544642857143,3613.2,244.63482142857143,242.52544642857143,3718,244.63482142857143,242.52544642857143,3818.9,244.63482142857143,242.52544642857143,3941.7]","[2273.2,2273.2,1000,0,1273.2,""oops"",""right"",""down"",""good_move"",4370.5,2096.7,2364.4,2273.9,-267.8,""error"",""-"",""-"",""no_move""]","","",""
"102778","","","","instructions","24","1968492","0.0-8.0-4.0","269","1","2025-07-09 10:39:30","7701e855f2ef39aa3fd6c71abdc6918a","185.177.124.88","Mozilla/5.0 (Windows NT 10.0; Win64; x64) AppleWebKit/537.36 (KHTML, like Gecko) Chrome/138.0.0.0 Safari/537.36 Edg/138.0.0.0","WebKit","Edge","138.0.0.0","Windows","10.0","https://app.prolific.com/","en-US,en;q=0.9,en-ZA;q=0.8","6820e30a98ebaa472670fd3d","686d226cabeef709c732f8e1","686e46b0522ef6a21b26331a","6820e30a98ebaa472670fd3d","","[{""page_index"":0,""viewing_time"":17658},{""page_index"":1,""viewing_time"":85120}]","","","","","","","","","","","","","","","","","","","","","","","","","","","","","","","","","","","","","","","","","","","",""
"159253","","","{""green_ball"":[""Ball sometimes shakes and moves in a random direction""]}","survey-multi-select","25","2127751","0.0-8.0-5.0-0.0","269","1","2025-07-09 10:39:30","7701e855f2ef39aa3fd6c71abdc6918a","185.177.124.88","Mozilla/5.0 (Windows NT 10.0; Win64; x64) AppleWebKit/537.36 (KHTML, like Gecko) Chrome/138.0.0.0 Safari/537.36 Edg/138.0.0.0","WebKit","Edge","138.0.0.0","Windows","10.0","https://app.prolific.com/","en-US,en;q=0.9,en-ZA;q=0.8","6820e30a98ebaa472670fd3d","686d226cabeef709c732f8e1","686e46b0522ef6a21b26331a","6820e30a98ebaa472670fd3d","","","[0]","","","","quiz","","","","","","","","","","","","","","","","","","","","","","","","","","","","","","","","","","","","","true","",""
"10588","","<p align='center'><b>CORRECT!</b> Indeed, the green ball may sometimes shake and move in a random direction.</p>","0","html-button-response","26","2138343","0.0-8.0-5.0-1.0","269","1","2025-07-09 10:39:30","7701e855f2ef39aa3fd6c71abdc6918a","185.177.124.88","Mozilla/5.0 (Windows NT 10.0; Win64; x64) AppleWebKit/537.36 (KHTML, like Gecko) Chrome/138.0.0.0 Safari/537.36 Edg/138.0.0.0","WebKit","Edge","138.0.0.0","Windows","10.0","https://app.prolific.com/","en-US,en;q=0.9,en-ZA;q=0.8","6820e30a98ebaa472670fd3d","686d226cabeef709c732f8e1","686e46b0522ef6a21b26331a","6820e30a98ebaa472670fd3d","","","","","","","","","","","","","","","","","","","","","","","","","","","","","","","","","","","","","","","","","","","","","",""
"11778","","","{""yellow_ball"":[""Ball doesn‘t move and I get -1 penalty point""]}","survey-multi-select","27","2150127","0.0-8.0-6.0-0.0","269","1","2025-07-09 10:39:30","7701e855f2ef39aa3fd6c71abdc6918a","185.177.124.88","Mozilla/5.0 (Windows NT 10.0; Win64; x64) AppleWebKit/537.36 (KHTML, like Gecko) Chrome/138.0.0.0 Safari/537.36 Edg/138.0.0.0","WebKit","Edge","138.0.0.0","Windows","10.0","https://app.prolific.com/","en-US,en;q=0.9,en-ZA;q=0.8","6820e30a98ebaa472670fd3d","686d226cabeef709c732f8e1","686e46b0522ef6a21b26331a","6820e30a98ebaa472670fd3d","","","[0]","","","","quiz","","","","","","","","","","","","","","","","","","","","","","","","","","","","","","","","","","","","","true","",""
"2688","","<p align='center'><b>CORRECT!</b> Indeed, the yellow ball never moves and you receive a penalty.</p>","0","html-button-response","28","2152823","0.0-8.0-6.0-1.0","269","1","2025-07-09 10:39:30","7701e855f2ef39aa3fd6c71abdc6918a","185.177.124.88","Mozilla/5.0 (Windows NT 10.0; Win64; x64) AppleWebKit/537.36 (KHTML, like Gecko) Chrome/138.0.0.0 Safari/537.36 Edg/138.0.0.0","WebKit","Edge","138.0.0.0","Windows","10.0","https://app.prolific.com/","en-US,en;q=0.9,en-ZA;q=0.8","6820e30a98ebaa472670fd3d","686d226cabeef709c732f8e1","686e46b0522ef6a21b26331a","6820e30a98ebaa472670fd3d","","","","","","","","","","","","","","","","","","","","","","","","","","","","","","","","","","","","","","","","","","","","","",""
"23699","","","{""blue_ball"":[""Ball doesn‘t move and I get -1 penalty point""]}","survey-multi-select","29","2176524","0.0-8.0-7.0-0.0","269","1","2025-07-09 10:39:30","7701e855f2ef39aa3fd6c71abdc6918a","185.177.124.88","Mozilla/5.0 (Windows NT 10.0; Win64; x64) AppleWebKit/537.36 (KHTML, like Gecko) Chrome/138.0.0.0 Safari/537.36 Edg/138.0.0.0","WebKit","Edge","138.0.0.0","Windows","10.0","https://app.prolific.com/","en-US,en;q=0.9,en-ZA;q=0.8","6820e30a98ebaa472670fd3d","686d226cabeef709c732f8e1","686e46b0522ef6a21b26331a","6820e30a98ebaa472670fd3d","","","[0]","","","","quiz","","","","","","","","","","","","","","","","","","","","","","","","","","","","","","","","","","","","","false","",""
"6074","","<p align='center'><b>INCORRECT.</b> The blue ball always shakes and moves randomly.</p>","0","html-button-response","30","2182600","0.0-8.0-7.0-1.0","269","1","2025-07-09 10:39:30","7701e855f2ef39aa3fd6c71abdc6918a","185.177.124.88","Mozilla/5.0 (Windows NT 10.0; Win64; x64) AppleWebKit/537.36 (KHTML, like Gecko) Chrome/138.0.0.0 Safari/537.36 Edg/138.0.0.0","WebKit","Edge","138.0.0.0","Windows","10.0","https://app.prolific.com/","en-US,en;q=0.9,en-ZA;q=0.8","6820e30a98ebaa472670fd3d","686d226cabeef709c732f8e1","686e46b0522ef6a21b26331a","6820e30a98ebaa472670fd3d","","","","","","","","","","","","","","","","","","","","","","","","","","","","","","","","","","","","","","","","","","","","","",""
"5152","","","{""blue_ball"":[""Ball always shakes and moves in a random direction""]}","survey-multi-select","31","2187756","0.0-8.0-7.1-0.1","269","1","2025-07-09 10:39:30","7701e855f2ef39aa3fd6c71abdc6918a","185.177.124.88","Mozilla/5.0 (Windows NT 10.0; Win64; x64) AppleWebKit/537.36 (KHTML, like Gecko) Chrome/138.0.0.0 Safari/537.36 Edg/138.0.0.0","WebKit","Edge","138.0.0.0","Windows","10.0","https://app.prolific.com/","en-US,en;q=0.9,en-ZA;q=0.8","6820e30a98ebaa472670fd3d","686d226cabeef709c732f8e1","686e46b0522ef6a21b26331a","6820e30a98ebaa472670fd3d","","","[0]","","","","quiz","","","","","","","","","","","","","","","","","","","","","","","","","","","","","","","","","","","","","true","",""
"2282","","<p align='center'><b>CORRECT!</b> Indeed, the blue ball always shakes and moves in a random direction. Also there is a penalty of -1 point.</p>","0","html-button-response","32","2190040","0.0-8.0-7.1-1.1","269","1","2025-07-09 10:39:30","7701e855f2ef39aa3fd6c71abdc6918a","185.177.124.88","Mozilla/5.0 (Windows NT 10.0; Win64; x64) AppleWebKit/537.36 (KHTML, like Gecko) Chrome/138.0.0.0 Safari/537.36 Edg/138.0.0.0","WebKit","Edge","138.0.0.0","Windows","10.0","https://app.prolific.com/","en-US,en;q=0.9,en-ZA;q=0.8","6820e30a98ebaa472670fd3d","686d226cabeef709c732f8e1","686e46b0522ef6a21b26331a","6820e30a98ebaa472670fd3d","","","","","","","","","","","","","","","","","","","","","","","","","","","","","","","","","","","","","","","","","","","","","",""
"10871","","","{""bonus"":[""When I reach all possible points""]}","survey-multi-select","33","2200914","0.0-8.0-8.0-0.0","269","1","2025-07-09 10:39:30","7701e855f2ef39aa3fd6c71abdc6918a","185.177.124.88","Mozilla/5.0 (Windows NT 10.0; Win64; x64) AppleWebKit/537.36 (KHTML, like Gecko) Chrome/138.0.0.0 Safari/537.36 Edg/138.0.0.0","WebKit","Edge","138.0.0.0","Windows","10.0","https://app.prolific.com/","en-US,en;q=0.9,en-ZA;q=0.8","6820e30a98ebaa472670fd3d","686d226cabeef709c732f8e1","686e46b0522ef6a21b26331a","6820e30a98ebaa472670fd3d","","","[0]","","","","quiz","","","","","","","","","","","","","","","","","","","","","","","","","","","","","","","","","","","","","false","",""
"2090","","<p align='center'><b>INCORRECT.</b> You receive 2 pounds extra when you reach 50% of points </p>","0","html-button-response","34","2203007","0.0-8.0-8.0-1.0","269","1","2025-07-09 10:39:30","7701e855f2ef39aa3fd6c71abdc6918a","185.177.124.88","Mozilla/5.0 (Windows NT 10.0; Win64; x64) AppleWebKit/537.36 (KHTML, like Gecko) Chrome/138.0.0.0 Safari/537.36 Edg/138.0.0.0","WebKit","Edge","138.0.0.0","Windows","10.0","https://app.prolific.com/","en-US,en;q=0.9,en-ZA;q=0.8","6820e30a98ebaa472670fd3d","686d226cabeef709c732f8e1","686e46b0522ef6a21b26331a","6820e30a98ebaa472670fd3d","","","","","","","","","","","","","","","","","","","","","","","","","","","","","","","","","","","","","","","","","","","","","",""
"2791","","","{""bonus"":[""When I reach 50% of points""]}","survey-multi-select","35","2205808","0.0-8.0-8.1-0.1","269","1","2025-07-09 10:39:30","7701e855f2ef39aa3fd6c71abdc6918a","185.177.124.88","Mozilla/5.0 (Windows NT 10.0; Win64; x64) AppleWebKit/537.36 (KHTML, like Gecko) Chrome/138.0.0.0 Safari/537.36 Edg/138.0.0.0","WebKit","Edge","138.0.0.0","Windows","10.0","https://app.prolific.com/","en-US,en;q=0.9,en-ZA;q=0.8","6820e30a98ebaa472670fd3d","686d226cabeef709c732f8e1","686e46b0522ef6a21b26331a","6820e30a98ebaa472670fd3d","","","[0]","","","","quiz","","","","","","","","","","","","","","","","","","","","","","","","","","","","","","","","","","","","","true","",""
"3676","","<p align='center'><b>CORRECT!</b> Indeed, you receive 2 pounds extra when you reach 50% of points.</p>","0","html-button-response","36","2209486","0.0-8.0-8.1-1.1","269","1","2025-07-09 10:39:30","7701e855f2ef39aa3fd6c71abdc6918a","185.177.124.88","Mozilla/5.0 (Windows NT 10.0; Win64; x64) AppleWebKit/537.36 (KHTML, like Gecko) Chrome/138.0.0.0 Safari/537.36 Edg/138.0.0.0","WebKit","Edge","138.0.0.0","Windows","10.0","https://app.prolific.com/","en-US,en;q=0.9,en-ZA;q=0.8","6820e30a98ebaa472670fd3d","686d226cabeef709c732f8e1","686e46b0522ef6a21b26331a","6820e30a98ebaa472670fd3d","","","","","","","","","","","","","","","","","","","","","","","","","","","","","","","","","","","","","","","","","","","","","",""
"28155","","","","instructions","37","2237642","0.0-8.0-9.0","269","1","2025-07-09 10:39:30","7701e855f2ef39aa3fd6c71abdc6918a","185.177.124.88","Mozilla/5.0 (Windows NT 10.0; Win64; x64) AppleWebKit/537.36 (KHTML, like Gecko) Chrome/138.0.0.0 Safari/537.36 Edg/138.0.0.0","WebKit","Edge","138.0.0.0","Windows","10.0","https://app.prolific.com/","en-US,en;q=0.9,en-ZA;q=0.8","6820e30a98ebaa472670fd3d","686d226cabeef709c732f8e1","686e46b0522ef6a21b26331a","6820e30a98ebaa472670fd3d","","[{""page_index"":0,""viewing_time"":28152}]","","","","","","","","","","","","","","","","","","","","","","","","","","","","","","","","","","","","","","","","","","","",""
"15561","","<p>Before you start with this game please answer the following three questions yourself. </p>
  <p>Through this game, we measure several aspects of your cognitive performance, such as reaction times, multi-tasking capabilities </p>
  <p>and the ability to assess the situation you are in.</p>
  <p></p>
  <p><b>How good do you usually are in such tasks?</b></p>","80","html-slider-response","38","2253224","0.0-9.0-0.0","269","1","2025-07-09 10:39:30","7701e855f2ef39aa3fd6c71abdc6918a","185.177.124.88","Mozilla/5.0 (Windows NT 10.0; Win64; x64) AppleWebKit/537.36 (KHTML, like Gecko) Chrome/138.0.0.0 Safari/537.36 Edg/138.0.0.0","WebKit","Edge","138.0.0.0","Windows","10.0","https://app.prolific.com/","en-US,en;q=0.9,en-ZA;q=0.8","6820e30a98ebaa472670fd3d","686d226cabeef709c732f8e1","686e46b0522ef6a21b26331a","6820e30a98ebaa472670fd3d","2025-07-09T11:17:15.056Z","","","","","","PreSkillQ","","","","","","","","","","","","","","","","","","","","","","","","","","","","","","","","","","","","","","50",""
"12389","","<div style=""width:500px;"">
  <p>How well do you think you will perform in this task compared to other participants?</p>
  </div>","54","html-slider-response","39","2265616","0.0-9.0-1.0","269","1","2025-07-09 10:39:30","7701e855f2ef39aa3fd6c71abdc6918a","185.177.124.88","Mozilla/5.0 (Windows NT 10.0; Win64; x64) AppleWebKit/537.36 (KHTML, like Gecko) Chrome/138.0.0.0 Safari/537.36 Edg/138.0.0.0","WebKit","Edge","138.0.0.0","Windows","10.0","https://app.prolific.com/","en-US,en;q=0.9,en-ZA;q=0.8","6820e30a98ebaa472670fd3d","686d226cabeef709c732f8e1","686e46b0522ef6a21b26331a","6820e30a98ebaa472670fd3d","2025-07-09T11:17:27.447Z","","","","","","PrePerfQ","","","","","","","","","","","","","","","","","","","","","","","","","","","","","","","","","","","","","","50",""
"7486","","<div style=""width:500px;"">
  <p>What best describes how you currently feel?</p>
  </div>","64","html-slider-response","40","2273106","0.0-9.0-2.0","269","1","2025-07-09 10:39:30","7701e855f2ef39aa3fd6c71abdc6918a","185.177.124.88","Mozilla/5.0 (Windows NT 10.0; Win64; x64) AppleWebKit/537.36 (KHTML, like Gecko) Chrome/138.0.0.0 Safari/537.36 Edg/138.0.0.0","WebKit","Edge","138.0.0.0","Windows","10.0","https://app.prolific.com/","en-US,en;q=0.9,en-ZA;q=0.8","6820e30a98ebaa472670fd3d","686d226cabeef709c732f8e1","686e46b0522ef6a21b26331a","6820e30a98ebaa472670fd3d","2025-07-09T11:17:34.937Z","","","","","","PreMotivationQ","","","","","","","","","","","","","","","","","","","","","","","","","","","","","","","","","","","","","","50",""
"","","","","ctl-task-cpt","41","2295811","0.0-10.0-0.0","269","1","2025-07-09 10:39:30","7701e855f2ef39aa3fd6c71abdc6918a","185.177.124.88","Mozilla/5.0 (Windows NT 10.0; Win64; x64) AppleWebKit/537.36 (KHTML, like Gecko) Chrome/138.0.0.0 Safari/537.36 Edg/138.0.0.0","WebKit","Edge","138.0.0.0","Windows","10.0","https://app.prolific.com/","en-US,en;q=0.9,en-ZA;q=0.8","6820e30a98ebaa472670fd3d","686d226cabeef709c732f8e1","686e46b0522ef6a21b26331a","6820e30a98ebaa472670fd3d","2025-07-09T11:17:57.642Z","","","","","","","","","","","","","","","","win-only","1","g1:NE,g2:SW","1","1","0","2285291.5","10560.1","15561.4","19663.6","1","4","8","6","2","-8","-8","0","0","0","1486.9","3000","-2930","[""down"",""left""]","{""num_key_presses"":0,""num_perfect"":0,""num_errors"":0,""num_randdir"":0,""num_randdir_good_moves"":0,""num_whilered"":0,""num_whileblue"":0,""num_blue"":0,""num_good_moves"":0}","[248.63482142857143,242.52544642857143,0.4,248.63482142857143,242.52544642857143,101.1,248.63482142857143,242.52544642857143,201.4,248.63482142857143,242.52544642857143,307.1,248.63482142857143,242.52544642857143,409,248.63482142857143,242.52544642857143,511.6,248.63482142857143,242.52544642857143,616.4,229.63482142857143,275.5254464285714,717.3,171.63482142857143,337.5254464285714,824.1,101.63482142857143,417.5254464285714,926.1,95.63482142857143,424.5254464285714,1031,74.63482142857143,441.5254464285714,1131.9,51.63482142857142,460.5254464285714,1240.3,47.63482142857142,466.5254464285714,1340.6,47.63482142857142,466.5254464285714,1442.1,47.63482142857142,466.5254464285714,1546.8,47.63482142857142,466.5254464285714,1651.4,47.63482142857142,466.5254464285714,1751.8,47.63482142857142,466.5254464285714,1852.1,47.63482142857142,466.5254464285714,1959.5,47.63482142857142,466.5254464285714,2064,47.63482142857142,466.5254464285714,2166.2,47.63482142857142,466.5254464285714,2266.5,47.63482142857142,466.5254464285714,2376.2,47.63482142857142,465.5254464285714,2481.3,47.63482142857142,465.5254464285714,2581.3,47.63482142857142,465.5254464285714,2681.4,83.63482142857143,441.5254464285714,2786.7,147.63482142857143,419.5254464285714,2888.5,228.63482142857143,354.5254464285714,2991.2,246.63482142857143,307.5254464285714,3094.4,254.63482142857143,285.5254464285714,3196.8,264.6348214285714,266.5254464285714,3302.2,268.6348214285714,260.5254464285714,3403.3,274.6348214285714,254.52544642857143,3508.2,274.6348214285714,254.52544642857143,3611.7,274.6348214285714,254.52544642857143,3711.8,274.6348214285714,253.52544642857143,3812.2,274.6348214285714,252.52544642857143,3917.2,274.6348214285714,252.52544642857143,4021.2,275.6348214285714,252.52544642857143,4123.7,275.6348214285714,251.52544642857143,4226.9,275.6348214285714,251.52544642857143,4330.4,275.6348214285714,251.52544642857143,4431.3,275.6348214285714,251.52544642857143,4531.7,275.6348214285714,251.52544642857143,4632,276.6348214285714,251.52544642857143,4736,276.6348214285714,251.52544642857143,4836.8,276.6348214285714,251.52544642857143,4941.5]","[]","","",""
"24372","","<div style=""width:500px;"">
  <p>What determined the result of this run?</p>
  </div>","84","html-slider-response","42","2320186","0.0-10.0-1.0","269","1","2025-07-09 10:39:30","7701e855f2ef39aa3fd6c71abdc6918a","185.177.124.88","Mozilla/5.0 (Windows NT 10.0; Win64; x64) AppleWebKit/537.36 (KHTML, like Gecko) Chrome/138.0.0.0 Safari/537.36 Edg/138.0.0.0","WebKit","Edge","138.0.0.0","Windows","10.0","https://app.prolific.com/","en-US,en;q=0.9,en-ZA;q=0.8","6820e30a98ebaa472670fd3d","686d226cabeef709c732f8e1","686e46b0522ef6a21b26331a","6820e30a98ebaa472670fd3d","2025-07-09T11:18:22.017Z","","","","","","AttribQ","","","","","","","","","","","","","","","","","","","","","","","","","","","","","","","","","","","","","","50",""
"4605","","<div style=""width:500px;"">
  <p>How much control did you have over the ball?</p>
  </div>","9","html-slider-response","43","2324794","0.0-10.0-2.0","269","1","2025-07-09 10:39:30","7701e855f2ef39aa3fd6c71abdc6918a","185.177.124.88","Mozilla/5.0 (Windows NT 10.0; Win64; x64) AppleWebKit/537.36 (KHTML, like Gecko) Chrome/138.0.0.0 Safari/537.36 Edg/138.0.0.0","WebKit","Edge","138.0.0.0","Windows","10.0","https://app.prolific.com/","en-US,en;q=0.9,en-ZA;q=0.8","6820e30a98ebaa472670fd3d","686d226cabeef709c732f8e1","686e46b0522ef6a21b26331a","6820e30a98ebaa472670fd3d","2025-07-09T11:18:26.625Z","","","","","","ControlQ","","","","","","","","","","","","","","","","","","","","","","","","","","","","","","","","","","","","","","50",""
"11816","","<div style=""width:500px;"">
  <p>How would you describe your current emotional state?</p>
  </div>","21","html-slider-response","44","2336612","0.0-10.0-3.0","269","1","2025-07-09 10:39:30","7701e855f2ef39aa3fd6c71abdc6918a","185.177.124.88","Mozilla/5.0 (Windows NT 10.0; Win64; x64) AppleWebKit/537.36 (KHTML, like Gecko) Chrome/138.0.0.0 Safari/537.36 Edg/138.0.0.0","WebKit","Edge","138.0.0.0","Windows","10.0","https://app.prolific.com/","en-US,en;q=0.9,en-ZA;q=0.8","6820e30a98ebaa472670fd3d","686d226cabeef709c732f8e1","686e46b0522ef6a21b26331a","6820e30a98ebaa472670fd3d","2025-07-09T11:18:38.443Z","","","","","","StressQ","","","","","","","","","","","","","","","","","","","","","","","","","","","","","","","","","","","","","","50",""
"6923","","<div style=""width:500px;"">
  <p>What best describes how you currently feel?</p>
  </div>","83","html-slider-response","45","2343537","0.0-10.0-4.0","269","1","2025-07-09 10:39:30","7701e855f2ef39aa3fd6c71abdc6918a","185.177.124.88","Mozilla/5.0 (Windows NT 10.0; Win64; x64) AppleWebKit/537.36 (KHTML, like Gecko) Chrome/138.0.0.0 Safari/537.36 Edg/138.0.0.0","WebKit","Edge","138.0.0.0","Windows","10.0","https://app.prolific.com/","en-US,en;q=0.9,en-ZA;q=0.8","6820e30a98ebaa472670fd3d","686d226cabeef709c732f8e1","686e46b0522ef6a21b26331a","6820e30a98ebaa472670fd3d","2025-07-09T11:18:45.369Z","","","","","","MotivationQ","","","","","","","","","","","","","","","","","","","","","","","","","","","","","","","","","","","","","","50",""
"","","","","ctl-task-cpt","46","2371450","0.0-10.0-0.1","269","1","2025-07-09 10:39:30","7701e855f2ef39aa3fd6c71abdc6918a","185.177.124.88","Mozilla/5.0 (Windows NT 10.0; Win64; x64) AppleWebKit/537.36 (KHTML, like Gecko) Chrome/138.0.0.0 Safari/537.36 Edg/138.0.0.0","WebKit","Edge","138.0.0.0","Windows","10.0","https://app.prolific.com/","en-US,en;q=0.9,en-ZA;q=0.8","6820e30a98ebaa472670fd3d","686d226cabeef709c732f8e1","686e46b0522ef6a21b26331a","6820e30a98ebaa472670fd3d","2025-07-09T11:19:13.281Z","","","","","","","","","","","","","","","","win-only","1","g1:NE,g2:SW","0.9","2","0","2355701.5","15745.3","20747.7","24891.3","1","4","4","6","2","-4","-4","0","0","0","2622.7","3000","-2940","[""down"",""left""]","{""num_key_presses"":0,""num_perfect"":0,""num_errors"":0,""num_randdir"":0,""num_randdir_good_moves"":0,""num_whilered"":0,""num_whileblue"":0,""num_blue"":0,""num_good_moves"":0}","[247.63482142857143,244.52544642857143,0.5,247.63482142857143,244.52544642857143,100.6,247.63482142857143,244.52544642857143,207.2,247.63482142857143,244.52544642857143,311.9,247.63482142857143,244.52544642857143,416.5,247.63482142857143,244.52544642857143,522.3,247.63482142857143,244.52544642857143,622.3,247.63482142857143,244.52544642857143,724.7,247.63482142857143,244.52544642857143,824.9,247.63482142857143,244.52544642857143,925.2,253.63482142857143,244.52544642857143,1030.7,274.6348214285714,241.52544642857143,1131.3,288.6348214285714,240.52544642857143,1231.4,292.6348214285714,240.52544642857143,1339,299.6348214285714,243.52544642857143,1440.9,297.6348214285714,267.5254464285714,1545.9,199.63482142857143,360.5254464285714,1646.1,122.63482142857143,413.5254464285714,1747.2,49.63482142857142,454.5254464285714,1853.2,34.63482142857142,455.5254464285714,1960.6,28.63482142857142,455.5254464285714,2061.5,28.63482142857142,455.5254464285714,2167,28.63482142857142,455.5254464285714,2271.3,28.63482142857142,455.5254464285714,2375.9,37.63482142857142,453.5254464285714,2481,37.63482142857142,453.5254464285714,2581,37.63482142857142,453.5254464285714,2688.8,37.63482142857142,453.5254464285714,2791.1,37.63482142857142,453.5254464285714,2892.4,37.63482142857142,453.5254464285714,2997,37.63482142857142,453.5254464285714,3101.3,37.63482142857142,453.5254464285714,3201.7,37.63482142857142,453.5254464285714,3301.7,40.63482142857142,451.5254464285714,3401.7,140.63482142857143,401.5254464285714,3502.3,240.63482142857143,334.5254464285714,3610.3,250.63482142857143,309.5254464285714,3711.8,276.6348214285714,239.52544642857143,3813.4,283.6348214285714,221.52544642857143,3916.8,286.6348214285714,218.52544642857143,4026.2,293.6348214285714,217.52544642857143,4126.3,302.6348214285714,215.52544642857143,4230.6,307.6348214285714,213.52544642857143,4331.4,307.6348214285714,213.52544642857143,4438.9,307.6348214285714,213.52544642857143,4543.2,307.6348214285714,213.52544642857143,4646.1,307.6348214285714,213.52544642857143,4746.4,307.6348214285714,213.52544642857143,4850.5,307.6348214285714,213.52544642857143,4952.7]","[]","","",""
"34682","","<div style=""width:500px;"">
  <p>What determined the result of this run?</p>
  </div>","26","html-slider-response","47","2406134","0.0-10.0-1.1","269","1","2025-07-09 10:39:30","7701e855f2ef39aa3fd6c71abdc6918a","185.177.124.88","Mozilla/5.0 (Windows NT 10.0; Win64; x64) AppleWebKit/537.36 (KHTML, like Gecko) Chrome/138.0.0.0 Safari/537.36 Edg/138.0.0.0","WebKit","Edge","138.0.0.0","Windows","10.0","https://app.prolific.com/","en-US,en;q=0.9,en-ZA;q=0.8","6820e30a98ebaa472670fd3d","686d226cabeef709c732f8e1","686e46b0522ef6a21b26331a","6820e30a98ebaa472670fd3d","2025-07-09T11:19:47.965Z","","","","","","AttribQ","","","","","","","","","","","","","","","","","","","","","","","","","","","","","","","","","","","","","","50",""
"9929","","<div style=""width:500px;"">
  <p>How much control did you have over the ball?</p>
  </div>","12","html-slider-response","48","2416066","0.0-10.0-2.1","269","1","2025-07-09 10:39:30","7701e855f2ef39aa3fd6c71abdc6918a","185.177.124.88","Mozilla/5.0 (Windows NT 10.0; Win64; x64) AppleWebKit/537.36 (KHTML, like Gecko) Chrome/138.0.0.0 Safari/537.36 Edg/138.0.0.0","WebKit","Edge","138.0.0.0","Windows","10.0","https://app.prolific.com/","en-US,en;q=0.9,en-ZA;q=0.8","6820e30a98ebaa472670fd3d","686d226cabeef709c732f8e1","686e46b0522ef6a21b26331a","6820e30a98ebaa472670fd3d","2025-07-09T11:19:57.897Z","","","","","","ControlQ","","","","","","","","","","","","","","","","","","","","","","","","","","","","","","","","","","","","","","50",""
"3814","","<div style=""width:500px;"">
  <p>How would you describe your current emotional state?</p>
  </div>","37","html-slider-response","49","2419881","0.0-10.0-3.1","269","1","2025-07-09 10:39:30","7701e855f2ef39aa3fd6c71abdc6918a","185.177.124.88","Mozilla/5.0 (Windows NT 10.0; Win64; x64) AppleWebKit/537.36 (KHTML, like Gecko) Chrome/138.0.0.0 Safari/537.36 Edg/138.0.0.0","WebKit","Edge","138.0.0.0","Windows","10.0","https://app.prolific.com/","en-US,en;q=0.9,en-ZA;q=0.8","6820e30a98ebaa472670fd3d","686d226cabeef709c732f8e1","686e46b0522ef6a21b26331a","6820e30a98ebaa472670fd3d","2025-07-09T11:20:01.713Z","","","","","","StressQ","","","","","","","","","","","","","","","","","","","","","","","","","","","","","","","","","","","","","","50",""
"3475","","<div style=""width:500px;"">
  <p>What best describes how you currently feel?</p>
  </div>","99","html-slider-response","50","2423358","0.0-10.0-4.1","269","1","2025-07-09 10:39:30","7701e855f2ef39aa3fd6c71abdc6918a","185.177.124.88","Mozilla/5.0 (Windows NT 10.0; Win64; x64) AppleWebKit/537.36 (KHTML, like Gecko) Chrome/138.0.0.0 Safari/537.36 Edg/138.0.0.0","WebKit","Edge","138.0.0.0","Windows","10.0","https://app.prolific.com/","en-US,en;q=0.9,en-ZA;q=0.8","6820e30a98ebaa472670fd3d","686d226cabeef709c732f8e1","686e46b0522ef6a21b26331a","6820e30a98ebaa472670fd3d","2025-07-09T11:20:05.189Z","","","","","","MotivationQ","","","","","","","","","","","","","","","","","","","","","","","","","","","","","","","","","","","","","","50",""
"","","","","ctl-task-cpt","51","2502766","0.0-10.0-0.2","269","1","2025-07-09 10:39:30","7701e855f2ef39aa3fd6c71abdc6918a","185.177.124.88","Mozilla/5.0 (Windows NT 10.0; Win64; x64) AppleWebKit/537.36 (KHTML, like Gecko) Chrome/138.0.0.0 Safari/537.36 Edg/138.0.0.0","WebKit","Edge","138.0.0.0","Windows","10.0","https://app.prolific.com/","en-US,en;q=0.9,en-ZA;q=0.8","6820e30a98ebaa472670fd3d","686d226cabeef709c732f8e1","686e46b0522ef6a21b26331a","6820e30a98ebaa472670fd3d","2025-07-09T11:21:24.597Z","","","","","","","","","","","","","","","","win-only","3","g1:SW,g2:NE","0.8","3","0","2435521.5","45857.1","50858.9","76388.1","1","4","8","6","1","-1","-5","0","0","0","2655.9","3000","-2865","[""down"",""left""]","{""num_key_presses"":9,""num_perfect"":1,""num_errors"":4,""num_randdir"":1,""num_randdir_good_moves"":0,""num_whilered"":3,""num_whileblue"":0,""num_blue"":2,""num_good_moves"":1}","[253.63482142857143,246.52544642857143,0.4,253.63482142857143,246.52544642857143,102.8,253.63482142857143,246.52544642857143,204.5,253.63482142857143,246.52544642857143,309.7,253.63482142857143,246.52544642857143,418.9,251.63482142857143,246.52544642857143,520.6,249.63482142857143,246.52544642857143,625,209.63482142857143,273.5254464285714,730.1,192.63482142857143,285.5254464285714,835.7,192.63482142857143,285.5254464285714,939.4,192.63482142857143,285.5254464285714,1039.5,200.63482142857143,283.5254464285714,1144.1,233.63482142857143,254.52544642857143,1244.5,308.6348214285714,169.52544642857143,1350.8,355.6348214285714,104.52544642857143,1453.9,392.6348214285714,41.52544642857142,1558.6,403.6348214285714,35.52544642857142,1659,424.6348214285714,37.52544642857142,1759.9,342.6348214285714,117.52544642857143,1870,-81.36517857142857,394.5254464285714,1974.5,-78.36517857142857,431.5254464285714,2078.7,-80.36517857142857,468.5254464285714,2184.4,-31.36517857142858,452.5254464285714,2286.5,-3.3651785714285793,440.5254464285714,2389.2,17.63482142857142,436.5254464285714,2489.4,41.63482142857142,440.5254464285714,2591.8,41.63482142857142,440.5254464285714,2695.4,41.63482142857142,440.5254464285714,2799.2,41.63482142857142,440.5254464285714,2899.5,42.63482142857142,442.5254464285714,3003.7,53.63482142857142,462.5254464285714,3104.8,103.63482142857143,449.5254464285714,3205.6,154.63482142857143,425.5254464285714,3309.7,152.63482142857143,421.5254464285714,3410.2,158.63482142857143,385.5254464285714,3514.7,158.63482142857143,385.5254464285714,3618.3,176.63482142857143,373.5254464285714,3723,191.63482142857143,361.5254464285714,3825.2,186.63482142857143,334.5254464285714,3930,143.63482142857143,321.5254464285714,4034.9,55.63482142857142,383.5254464285714,4135.4,55.63482142857142,383.5254464285714,4239.2,54.63482142857142,377.5254464285714,4339.8,62.63482142857142,400.5254464285714,4441.7,122.63482142857143,495.5254464285714,4544.6,133.63482142857143,569.5254464285714,4654,133.63482142857143,569.5254464285714,4755.6,133.63482142857143,569.5254464285714,4859.2,133.63482142857143,569.5254464285714,4966.3]","[618.6,618.6,1000,0,-381.4,""error"",""-"",""-"",""no_move"",892.3,273.4,1000,0,-107.7,""while_red"",""-"",""-"",""no_move"",4847.4,4228.5,3510.7,1622.4,-285.7,""error"",""-"",""-"",""no_move"",10557,5709.2,3091.2,5851.9,1613.9,""smooth"",""left"",""left"",""good_move"",11157.2,599.4,2520.9,10557.8,-1921.5,""error"",""-"",""-"",""no_move"",11540.5,383.1,2520.9,10557.8,-1538.2,""while_red"",""-"",""-"",""no_move"",11923.3,765.9,2520.9,10557.8,-1155.4,""while_red"",""-"",""-"",""no_move"",21168.5,10011.1,2091.9,18086.9,989.7,""oops"",""left"",""right"",""bad_move"",21784.4,615.5,2352.1,21169,-1736.7,""error"",""-"",""-"",""no_move""]","","",""
"25226","","<div style=""width:500px;"">
  <p>What determined the result of this run?</p>
  </div>","5","html-slider-response","52","2527994","0.0-10.0-1.2","269","1","2025-07-09 10:39:30","7701e855f2ef39aa3fd6c71abdc6918a","185.177.124.88","Mozilla/5.0 (Windows NT 10.0; Win64; x64) AppleWebKit/537.36 (KHTML, like Gecko) Chrome/138.0.0.0 Safari/537.36 Edg/138.0.0.0","WebKit","Edge","138.0.0.0","Windows","10.0","https://app.prolific.com/","en-US,en;q=0.9,en-ZA;q=0.8","6820e30a98ebaa472670fd3d","686d226cabeef709c732f8e1","686e46b0522ef6a21b26331a","6820e30a98ebaa472670fd3d","2025-07-09T11:21:49.825Z","","","","","","AttribQ","","","","","","","","","","","","","","","","","","","","","","","","","","","","","","","","","","","","","","50",""
"4796","","<div style=""width:500px;"">
  <p>How much control did you have over the ball?</p>
  </div>","20","html-slider-response","53","2532793","0.0-10.0-2.2","269","1","2025-07-09 10:39:30","7701e855f2ef39aa3fd6c71abdc6918a","185.177.124.88","Mozilla/5.0 (Windows NT 10.0; Win64; x64) AppleWebKit/537.36 (KHTML, like Gecko) Chrome/138.0.0.0 Safari/537.36 Edg/138.0.0.0","WebKit","Edge","138.0.0.0","Windows","10.0","https://app.prolific.com/","en-US,en;q=0.9,en-ZA;q=0.8","6820e30a98ebaa472670fd3d","686d226cabeef709c732f8e1","686e46b0522ef6a21b26331a","6820e30a98ebaa472670fd3d","2025-07-09T11:21:54.625Z","","","","","","ControlQ","","","","","","","","","","","","","","","","","","","","","","","","","","","","","","","","","","","","","","50",""
"4540","","<div style=""width:500px;"">
  <p>How would you describe your current emotional state?</p>
  </div>","11","html-slider-response","54","2537336","0.0-10.0-3.2","269","1","2025-07-09 10:39:30","7701e855f2ef39aa3fd6c71abdc6918a","185.177.124.88","Mozilla/5.0 (Windows NT 10.0; Win64; x64) AppleWebKit/537.36 (KHTML, like Gecko) Chrome/138.0.0.0 Safari/537.36 Edg/138.0.0.0","WebKit","Edge","138.0.0.0","Windows","10.0","https://app.prolific.com/","en-US,en;q=0.9,en-ZA;q=0.8","6820e30a98ebaa472670fd3d","686d226cabeef709c732f8e1","686e46b0522ef6a21b26331a","6820e30a98ebaa472670fd3d","2025-07-09T11:21:59.167Z","","","","","","StressQ","","","","","","","","","","","","","","","","","","","","","","","","","","","","","","","","","","","","","","50",""
"4700","","<div style=""width:500px;"">
  <p>What best describes how you currently feel?</p>
  </div>","90","html-slider-response","55","2542038","0.0-10.0-4.2","269","1","2025-07-09 10:39:30","7701e855f2ef39aa3fd6c71abdc6918a","185.177.124.88","Mozilla/5.0 (Windows NT 10.0; Win64; x64) AppleWebKit/537.36 (KHTML, like Gecko) Chrome/138.0.0.0 Safari/537.36 Edg/138.0.0.0","WebKit","Edge","138.0.0.0","Windows","10.0","https://app.prolific.com/","en-US,en;q=0.9,en-ZA;q=0.8","6820e30a98ebaa472670fd3d","686d226cabeef709c732f8e1","686e46b0522ef6a21b26331a","6820e30a98ebaa472670fd3d","2025-07-09T11:22:03.869Z","","","","","","MotivationQ","","","","","","","","","","","","","","","","","","","","","","","","","","","","","","","","","","","","","","50",""
"","","","","ctl-task-cpt","56","2560236","0.0-10.0-0.3","269","1","2025-07-09 10:39:30","7701e855f2ef39aa3fd6c71abdc6918a","185.177.124.88","Mozilla/5.0 (Windows NT 10.0; Win64; x64) AppleWebKit/537.36 (KHTML, like Gecko) Chrome/138.0.0.0 Safari/537.36 Edg/138.0.0.0","WebKit","Edge","138.0.0.0","Windows","10.0","https://app.prolific.com/","en-US,en;q=0.9,en-ZA;q=0.8","6820e30a98ebaa472670fd3d","686d226cabeef709c732f8e1","686e46b0522ef6a21b26331a","6820e30a98ebaa472670fd3d","2025-07-09T11:22:22.067Z","","","","","","","","","","","","","","","","win-only","2","g1:SE,g2:NW","0.7","4","0","2554201.6","4731.2","9732.5","15173.5","1","4","4","6","1","-1","-1","0","0","0","1693","3000","-2525","[""down"",""right""]","{""num_key_presses"":0,""num_perfect"":0,""num_errors"":0,""num_randdir"":0,""num_randdir_good_moves"":0,""num_whilered"":0,""num_whileblue"":0,""num_blue"":0,""num_good_moves"":0}","[249.63482142857143,243.52544642857143,0.4,249.63482142857143,243.52544642857143,101.3,249.63482142857143,243.52544642857143,209.4,249.63482142857143,243.52544642857143,318.3,249.63482142857143,243.52544642857143,420.9,249.63482142857143,243.52544642857143,527.2,249.63482142857143,243.52544642857143,632.4,295.6348214285714,310.5254464285714,736.1,304.6348214285714,330.5254464285714,840.4,335.6348214285714,352.5254464285714,943,457.6348214285714,437.5254464285714,1043,483.6348214285714,467.5254464285714,1144.1,483.6348214285714,467.5254464285714,1248.6,483.6348214285714,467.5254464285714,1350.1,469.6348214285714,459.5254464285714,1451,452.6348214285714,448.5254464285714,1557.9,452.6348214285714,448.5254464285714,1660,452.6348214285714,448.5254464285714,1760.8,452.6348214285714,448.5254464285714,1867.3,452.6348214285714,448.5254464285714,1968,452.6348214285714,448.5254464285714,2073,556.6348214285714,460.5254464285714,2177.4,819.6348214285714,491.5254464285714,2277.4,922.6348214285714,484.5254464285714,2385.9,892.6348214285714,493.5254464285714,2486,887.6348214285714,495.5254464285714,2592.4,887.6348214285714,495.5254464285714,2692.6,887.6348214285714,495.5254464285714,2794.7,922.6348214285714,5.525446428571421,2895.6,922.6348214285714,-21.47455357142858,2996.4,922.6348214285714,-32.47455357142858,3101.3,922.6348214285714,-32.47455357142858,3206.9,922.6348214285714,-32.47455357142858,3316.8,922.6348214285714,-32.47455357142858,3421.9,922.6348214285714,-32.47455357142858,3523,922.6348214285714,-32.47455357142858,3633,922.6348214285714,-32.47455357142858,3735.8,922.6348214285714,-32.47455357142858,3844.7,922.6348214285714,-32.47455357142858,3946.9,922.6348214285714,-33.47455357142858,4050.2,922.6348214285714,-33.47455357142858,4152,922.6348214285714,-34.47455357142858,4257.2,922.6348214285714,-34.47455357142858,4362,922.6348214285714,-40.47455357142858,4466,922.6348214285714,-48.47455357142858,4567.3,922.6348214285714,-48.47455357142858,4674.2,922.6348214285714,-48.47455357142858,4775.8,922.6348214285714,-48.47455357142858,4878.8,922.6348214285714,-48.47455357142858,4981.3]","[]","","",""
"6085","","<div style=""width:500px;"">
  <p>What determined the result of this run?</p>
  </div>","78","html-slider-response","57","2566324","0.0-10.0-1.3","269","1","2025-07-09 10:39:30","7701e855f2ef39aa3fd6c71abdc6918a","185.177.124.88","Mozilla/5.0 (Windows NT 10.0; Win64; x64) AppleWebKit/537.36 (KHTML, like Gecko) Chrome/138.0.0.0 Safari/537.36 Edg/138.0.0.0","WebKit","Edge","138.0.0.0","Windows","10.0","https://app.prolific.com/","en-US,en;q=0.9,en-ZA;q=0.8","6820e30a98ebaa472670fd3d","686d226cabeef709c732f8e1","686e46b0522ef6a21b26331a","6820e30a98ebaa472670fd3d","2025-07-09T11:22:28.155Z","","","","","","AttribQ","","","","","","","","","","","","","","","","","","","","","","","","","","","","","","","","","","","","","","50",""
"31554","","<div style=""width:500px;"">
  <p>How much control did you have over the ball?</p>
  </div>","35","html-slider-response","58","2597880","0.0-10.0-2.3","269","1","2025-07-09 10:39:30","7701e855f2ef39aa3fd6c71abdc6918a","185.177.124.88","Mozilla/5.0 (Windows NT 10.0; Win64; x64) AppleWebKit/537.36 (KHTML, like Gecko) Chrome/138.0.0.0 Safari/537.36 Edg/138.0.0.0","WebKit","Edge","138.0.0.0","Windows","10.0","https://app.prolific.com/","en-US,en;q=0.9,en-ZA;q=0.8","6820e30a98ebaa472670fd3d","686d226cabeef709c732f8e1","686e46b0522ef6a21b26331a","6820e30a98ebaa472670fd3d","2025-07-09T11:22:59.711Z","","","","","","ControlQ","","","","","","","","","","","","","","","","","","","","","","","","","","","","","","","","","","","","","","50",""
"6459","","<div style=""width:500px;"">
  <p>How would you describe your current emotional state?</p>
  </div>","28","html-slider-response","59","2604343","0.0-10.0-3.3","269","1","2025-07-09 10:39:30","7701e855f2ef39aa3fd6c71abdc6918a","185.177.124.88","Mozilla/5.0 (Windows NT 10.0; Win64; x64) AppleWebKit/537.36 (KHTML, like Gecko) Chrome/138.0.0.0 Safari/537.36 Edg/138.0.0.0","WebKit","Edge","138.0.0.0","Windows","10.0","https://app.prolific.com/","en-US,en;q=0.9,en-ZA;q=0.8","6820e30a98ebaa472670fd3d","686d226cabeef709c732f8e1","686e46b0522ef6a21b26331a","6820e30a98ebaa472670fd3d","2025-07-09T11:23:06.174Z","","","","","","StressQ","","","","","","","","","","","","","","","","","","","","","","","","","","","","","","","","","","","","","","50",""
"4105","","<div style=""width:500px;"">
  <p>What best describes how you currently feel?</p>
  </div>","87","html-slider-response","60","2608449","0.0-10.0-4.3","269","1","2025-07-09 10:39:30","7701e855f2ef39aa3fd6c71abdc6918a","185.177.124.88","Mozilla/5.0 (Windows NT 10.0; Win64; x64) AppleWebKit/537.36 (KHTML, like Gecko) Chrome/138.0.0.0 Safari/537.36 Edg/138.0.0.0","WebKit","Edge","138.0.0.0","Windows","10.0","https://app.prolific.com/","en-US,en;q=0.9,en-ZA;q=0.8","6820e30a98ebaa472670fd3d","686d226cabeef709c732f8e1","686e46b0522ef6a21b26331a","6820e30a98ebaa472670fd3d","2025-07-09T11:23:10.281Z","","","","","","MotivationQ","","","","","","","","","","","","","","","","","","","","","","","","","","","","","","","","","","","","","","50",""
"","","","","ctl-task-cpt","61","2652211","0.0-10.0-0.4","269","1","2025-07-09 10:39:30","7701e855f2ef39aa3fd6c71abdc6918a","185.177.124.88","Mozilla/5.0 (Windows NT 10.0; Win64; x64) AppleWebKit/537.36 (KHTML, like Gecko) Chrome/138.0.0.0 Safari/537.36 Edg/138.0.0.0","WebKit","Edge","138.0.0.0","Windows","10.0","https://app.prolific.com/","en-US,en;q=0.9,en-ZA;q=0.8","6820e30a98ebaa472670fd3d","686d226cabeef709c732f8e1","686e46b0522ef6a21b26331a","6820e30a98ebaa472670fd3d","2025-07-09T11:23:54.042Z","","","","","","","","","","","","","","","","win-only","2","g1:SE,g2:NW","0.6","5","0","2620614","19285.5","24292.4","40738","1","4","4","6","1","1","-1","0","0","0","3801.2","3000","760","[""down"",""right""]","{""num_key_presses"":6,""num_perfect"":3,""num_errors"":2,""num_randdir"":1,""num_randdir_good_moves"":1,""num_whilered"":0,""num_whileblue"":0,""num_blue"":0,""num_good_moves"":4}","[251.63482142857143,251.52544642857143,0.7,251.63482142857143,251.52544642857143,103.6,251.63482142857143,251.52544642857143,207.2,251.63482142857143,251.52544642857143,310,251.63482142857143,251.52544642857143,415.8,392.6348214285714,283.5254464285714,528.9,639.6348214285714,350.5254464285714,631.2,676.6348214285714,366.5254464285714,738.6,677.6348214285714,366.5254464285714,840.9,677.6348214285714,366.5254464285714,945.1,677.6348214285714,366.5254464285714,1045.4,677.6348214285714,366.5254464285714,1149.6,675.6348214285714,340.5254464285714,1250.7,565.6348214285714,137.52544642857143,1351.7,554.6348214285714,118.52544642857143,1452.6,554.6348214285714,118.52544642857143,1554.3,554.6348214285714,118.52544642857143,1655.9,554.6348214285714,118.52544642857143,1758.8,554.6348214285714,118.52544642857143,1859.9,554.6348214285714,118.52544642857143,1960.1,554.6348214285714,118.52544642857143,2060.8,554.6348214285714,118.52544642857143,2168.5,554.6348214285714,118.52544642857143,2277.2,554.6348214285714,118.52544642857143,2378.1,554.6348214285714,118.52544642857143,2480.7,554.6348214285714,118.52544642857143,2588.1,554.6348214285714,118.52544642857143,2693.3,554.6348214285714,118.52544642857143,2795.8,554.6348214285714,118.52544642857143,2896.7,554.6348214285714,118.52544642857143,3004.7,554.6348214285714,118.52544642857143,3106.1,561.6348214285714,123.52544642857143,3210.8,580.6348214285714,219.52544642857143,3314.9,558.6348214285714,276.5254464285714,3415.8,455.6348214285714,428.5254464285714,3520,446.6348214285714,446.5254464285714,3629.8,444.6348214285714,473.5254464285714,3729.9,447.6348214285714,471.5254464285714,3831,447.6348214285714,471.5254464285714,3939.9,447.6348214285714,471.5254464285714,4040,456.6348214285714,464.5254464285714,4140.4,456.6348214285714,464.5254464285714,4241.9,456.6348214285714,464.5254464285714,4346.9,456.6348214285714,464.5254464285714,4451.3,456.6348214285714,464.5254464285714,4557.5,456.6348214285714,464.5254464285714,4659.9,456.6348214285714,464.5254464285714,4760.2,456.6348214285714,464.5254464285714,4860.8,456.6348214285714,464.5254464285714,4970.3]","[308.9,309,1000,0,-691,""error"",""-"",""-"",""no_move"",4397.4,4088.2,2483.9,1310,603.5,""smooth"",""down"",""down"",""good_move"",4902.7,504.6,2513.3,4398.2,-2008.8,""error"",""-"",""-"",""no_move"",9112,4208.9,2591.7,5904.7,615.6,""smooth"",""down"",""down"",""good_move"",12007.1,2894.8,2055.7,9112.3,839.1,""oops"",""right"",""right"",""good_move"",16335.5,4327.8,3614.1,12007.7,713.7,""smooth"",""right"",""right"",""good_move""]","","",""
"7213","","<div style=""width:500px;"">
  <p>What determined the result of this run?</p>
  </div>","81","html-slider-response","62","2659426","0.0-10.0-1.4","269","1","2025-07-09 10:39:30","7701e855f2ef39aa3fd6c71abdc6918a","185.177.124.88","Mozilla/5.0 (Windows NT 10.0; Win64; x64) AppleWebKit/537.36 (KHTML, like Gecko) Chrome/138.0.0.0 Safari/537.36 Edg/138.0.0.0","WebKit","Edge","138.0.0.0","Windows","10.0","https://app.prolific.com/","en-US,en;q=0.9,en-ZA;q=0.8","6820e30a98ebaa472670fd3d","686d226cabeef709c732f8e1","686e46b0522ef6a21b26331a","6820e30a98ebaa472670fd3d","2025-07-09T11:24:01.257Z","","","","","","AttribQ","","","","","","","","","","","","","","","","","","","","","","","","","","","","","","","","","","","","","","50",""
"4195","","<div style=""width:500px;"">
  <p>How much control did you have over the ball?</p>
  </div>","88","html-slider-response","63","2663623","0.0-10.0-2.4","269","1","2025-07-09 10:39:30","7701e855f2ef39aa3fd6c71abdc6918a","185.177.124.88","Mozilla/5.0 (Windows NT 10.0; Win64; x64) AppleWebKit/537.36 (KHTML, like Gecko) Chrome/138.0.0.0 Safari/537.36 Edg/138.0.0.0","WebKit","Edge","138.0.0.0","Windows","10.0","https://app.prolific.com/","en-US,en;q=0.9,en-ZA;q=0.8","6820e30a98ebaa472670fd3d","686d226cabeef709c732f8e1","686e46b0522ef6a21b26331a","6820e30a98ebaa472670fd3d","2025-07-09T11:24:05.454Z","","","","","","ControlQ","","","","","","","","","","","","","","","","","","","","","","","","","","","","","","","","","","","","","","50",""
"4227","","<div style=""width:500px;"">
  <p>How would you describe your current emotional state?</p>
  </div>","8","html-slider-response","64","2667852","0.0-10.0-3.4","269","1","2025-07-09 10:39:30","7701e855f2ef39aa3fd6c71abdc6918a","185.177.124.88","Mozilla/5.0 (Windows NT 10.0; Win64; x64) AppleWebKit/537.36 (KHTML, like Gecko) Chrome/138.0.0.0 Safari/537.36 Edg/138.0.0.0","WebKit","Edge","138.0.0.0","Windows","10.0","https://app.prolific.com/","en-US,en;q=0.9,en-ZA;q=0.8","6820e30a98ebaa472670fd3d","686d226cabeef709c732f8e1","686e46b0522ef6a21b26331a","6820e30a98ebaa472670fd3d","2025-07-09T11:24:09.683Z","","","","","","StressQ","","","","","","","","","","","","","","","","","","","","","","","","","","","","","","","","","","","","","","50",""
"3553","","<div style=""width:500px;"">
  <p>What best describes how you currently feel?</p>
  </div>","89","html-slider-response","65","2671408","0.0-10.0-4.4","269","1","2025-07-09 10:39:30","7701e855f2ef39aa3fd6c71abdc6918a","185.177.124.88","Mozilla/5.0 (Windows NT 10.0; Win64; x64) AppleWebKit/537.36 (KHTML, like Gecko) Chrome/138.0.0.0 Safari/537.36 Edg/138.0.0.0","WebKit","Edge","138.0.0.0","Windows","10.0","https://app.prolific.com/","en-US,en;q=0.9,en-ZA;q=0.8","6820e30a98ebaa472670fd3d","686d226cabeef709c732f8e1","686e46b0522ef6a21b26331a","6820e30a98ebaa472670fd3d","2025-07-09T11:24:13.239Z","","","","","","MotivationQ","","","","","","","","","","","","","","","","","","","","","","","","","","","","","","","","","","","","","","50",""
"","","","","ctl-task-cpt","66","2692450","0.0-10.0-0.5","269","1","2025-07-09 10:39:30","7701e855f2ef39aa3fd6c71abdc6918a","185.177.124.88","Mozilla/5.0 (Windows NT 10.0; Win64; x64) AppleWebKit/537.36 (KHTML, like Gecko) Chrome/138.0.0.0 Safari/537.36 Edg/138.0.0.0","WebKit","Edge","138.0.0.0","Windows","10.0","https://app.prolific.com/","en-US,en;q=0.9,en-ZA;q=0.8","6820e30a98ebaa472670fd3d","686d226cabeef709c732f8e1","686e46b0522ef6a21b26331a","6820e30a98ebaa472670fd3d","2025-07-09T11:24:34.281Z","","","","","","","","","","","","","","","","win-only","3","g1:SW,g2:NE","0.5","6","0","2683572.3","1716.5","6722.9","18018.7","1","4","8","6","1","1","1","1","0","0.007575757575757576","1130.1","3000","550","[""down"",""left""]","{""num_key_presses"":4,""num_perfect"":2,""num_errors"":0,""num_randdir"":2,""num_randdir_good_moves"":2,""num_whilered"":0,""num_whileblue"":0,""num_blue"":0,""num_good_moves"":4}","[253.63482142857143,250.52544642857143,0.3,253.63482142857143,250.52544642857143,100,253.63482142857143,250.52544642857143,201.7,253.63482142857143,250.52544642857143,306.9,239.63482142857143,251.52544642857143,413.7,237.63482142857143,252.52544642857143,516.2,179.63482142857143,302.5254464285714,619.6,48.63482142857142,405.5254464285714,722,11.63482142857142,449.5254464285714,828.5,7.634821428571421,454.5254464285714,934.7,9.63482142857142,455.5254464285714,1036.7,31.63482142857142,453.5254464285714,1141.6,31.63482142857142,453.5254464285714,1244.1,31.63482142857142,453.5254464285714,1352.3,31.63482142857142,453.5254464285714,1455.3,111.63482142857143,451.5254464285714,1556.8,571.6348214285714,451.5254464285714,1659.4,922.6348214285714,386.5254464285714,1763.7,922.6348214285714,311.5254464285714,1864.4,922.6348214285714,305.5254464285714,1966.2,922.6348214285714,305.5254464285714,2069.8,922.6348214285714,305.5254464285714,2171.2,922.6348214285714,305.5254464285714,2273.8,922.6348214285714,305.5254464285714,2390.8,922.6348214285714,305.5254464285714,2501,922.6348214285714,305.5254464285714,2604,922.6348214285714,305.5254464285714,2705.1,922.6348214285714,305.5254464285714,2813.2,922.6348214285714,305.5254464285714,2916.8,922.6348214285714,305.5254464285714,3022.8,922.6348214285714,305.5254464285714,3133.2,922.6348214285714,305.5254464285714,3238.4,922.6348214285714,305.5254464285714,3340.5,922.6348214285714,305.5254464285714,3442.4,922.6348214285714,305.5254464285714,3548,922.6348214285714,305.5254464285714,3649.2,922.6348214285714,305.5254464285714,3750.3,922.6348214285714,305.5254464285714,3851.4,922.6348214285714,305.5254464285714,3955.1,922.6348214285714,305.5254464285714,4056.8,922.6348214285714,305.5254464285714,4161,922.6348214285714,305.5254464285714,4262.2,922.6348214285714,305.5254464285714,4365.4,922.6348214285714,305.5254464285714,4467.9,922.6348214285714,305.5254464285714,4571.8,922.6348214285714,305.5254464285714,4671.9,922.6348214285714,305.5254464285714,4778.5,922.6348214285714,305.5254464285714,4879.8,922.6348214285714,305.5254464285714,4981.7]","[2070.4,2070.5,1000,0,1070.5,""smooth"",""down"",""down"",""good_move"",5361.1,3289.7,2616.4,2071.4,673.3,""smooth"",""down"",""down"",""good_move"",8647.4,3286.1,2534,5361.3,752.1,""oops"",""left"",""left"",""good_move"",11164.2,2515.8,1831.1,8648.4,684.7,""oops"",""left"",""left"",""good_move""]","","",""
"19211","","<div style=""width:500px;"">
  <p>What determined the result of this run?</p>
  </div>","88","html-slider-response","67","2711663","0.0-10.0-1.5","269","1","2025-07-09 10:39:30","7701e855f2ef39aa3fd6c71abdc6918a","185.177.124.88","Mozilla/5.0 (Windows NT 10.0; Win64; x64) AppleWebKit/537.36 (KHTML, like Gecko) Chrome/138.0.0.0 Safari/537.36 Edg/138.0.0.0","WebKit","Edge","138.0.0.0","Windows","10.0","https://app.prolific.com/","en-US,en;q=0.9,en-ZA;q=0.8","6820e30a98ebaa472670fd3d","686d226cabeef709c732f8e1","686e46b0522ef6a21b26331a","6820e30a98ebaa472670fd3d","2025-07-09T11:24:53.494Z","","","","","","AttribQ","","","","","","","","","","","","","","","","","","","","","","","","","","","","","","","","","","","","","","50",""
"3090","","<div style=""width:500px;"">
  <p>How much control did you have over the ball?</p>
  </div>","85","html-slider-response","68","2714755","0.0-10.0-2.5","269","1","2025-07-09 10:39:30","7701e855f2ef39aa3fd6c71abdc6918a","185.177.124.88","Mozilla/5.0 (Windows NT 10.0; Win64; x64) AppleWebKit/537.36 (KHTML, like Gecko) Chrome/138.0.0.0 Safari/537.36 Edg/138.0.0.0","WebKit","Edge","138.0.0.0","Windows","10.0","https://app.prolific.com/","en-US,en;q=0.9,en-ZA;q=0.8","6820e30a98ebaa472670fd3d","686d226cabeef709c732f8e1","686e46b0522ef6a21b26331a","6820e30a98ebaa472670fd3d","2025-07-09T11:24:56.587Z","","","","","","ControlQ","","","","","","","","","","","","","","","","","","","","","","","","","","","","","","","","","","","","","","50",""
"4748","","<div style=""width:500px;"">
  <p>How would you describe your current emotional state?</p>
  </div>","5","html-slider-response","69","2719505","0.0-10.0-3.5","269","1","2025-07-09 10:39:30","7701e855f2ef39aa3fd6c71abdc6918a","185.177.124.88","Mozilla/5.0 (Windows NT 10.0; Win64; x64) AppleWebKit/537.36 (KHTML, like Gecko) Chrome/138.0.0.0 Safari/537.36 Edg/138.0.0.0","WebKit","Edge","138.0.0.0","Windows","10.0","https://app.prolific.com/","en-US,en;q=0.9,en-ZA;q=0.8","6820e30a98ebaa472670fd3d","686d226cabeef709c732f8e1","686e46b0522ef6a21b26331a","6820e30a98ebaa472670fd3d","2025-07-09T11:25:01.337Z","","","","","","StressQ","","","","","","","","","","","","","","","","","","","","","","","","","","","","","","","","","","","","","","50",""
"2859","","<div style=""width:500px;"">
  <p>What best describes how you currently feel?</p>
  </div>","100","html-slider-response","70","2722367","0.0-10.0-4.5","269","1","2025-07-09 10:39:30","7701e855f2ef39aa3fd6c71abdc6918a","185.177.124.88","Mozilla/5.0 (Windows NT 10.0; Win64; x64) AppleWebKit/537.36 (KHTML, like Gecko) Chrome/138.0.0.0 Safari/537.36 Edg/138.0.0.0","WebKit","Edge","138.0.0.0","Windows","10.0","https://app.prolific.com/","en-US,en;q=0.9,en-ZA;q=0.8","6820e30a98ebaa472670fd3d","686d226cabeef709c732f8e1","686e46b0522ef6a21b26331a","6820e30a98ebaa472670fd3d","2025-07-09T11:25:04.198Z","","","","","","MotivationQ","","","","","","","","","","","","","","","","","","","","","","","","","","","","","","","","","","","","","","50",""
"","","","","ctl-task-cpt","71","2809957","0.0-10.0-0.6","269","1","2025-07-09 10:39:30","7701e855f2ef39aa3fd6c71abdc6918a","185.177.124.88","Mozilla/5.0 (Windows NT 10.0; Win64; x64) AppleWebKit/537.36 (KHTML, like Gecko) Chrome/138.0.0.0 Safari/537.36 Edg/138.0.0.0","WebKit","Edge","138.0.0.0","Windows","10.0","https://app.prolific.com/","en-US,en;q=0.9,en-ZA;q=0.8","6820e30a98ebaa472670fd3d","686d226cabeef709c732f8e1","686e46b0522ef6a21b26331a","6820e30a98ebaa472670fd3d","2025-07-09T11:26:31.788Z","","","","","","","","","","","","","","","","win-only","3","g1:SW,g2:NE","0.4","7","0","2734530.8","5973.2","10976.2","84535.9","1","4","8","6","2","-8","-16","0","1","0","2040.6","3000","-450","[""up"",""right""]","{""num_key_presses"":22,""num_perfect"":5,""num_errors"":8,""num_randdir"":7,""num_randdir_good_moves"":4,""num_whilered"":2,""num_whileblue"":0,""num_blue"":2,""num_good_moves"":8}","[247.63482142857143,242.52544642857143,0.4,247.63482142857143,242.52544642857143,101.2,247.63482142857143,242.52544642857143,205.3,247.63482142857143,242.52544642857143,306.6,247.63482142857143,242.52544642857143,407.3,240.63482142857143,246.52544642857143,509.8,237.63482142857143,256.5254464285714,613.3,225.63482142857143,279.5254464285714,713.9,207.63482142857143,290.5254464285714,815.1,151.63482142857143,331.5254464285714,919.5,84.63482142857143,389.5254464285714,1023.4,63.63482142857142,401.5254464285714,1123.3,59.63482142857142,408.5254464285714,1231.5,41.63482142857142,431.5254464285714,1331.7,166.63482142857143,350.5254464285714,1432.8,403.6348214285714,75.52544642857143,1534.1,466.6348214285714,-19.47455357142858,1637.7,468.6348214285714,-24.47455357142858,1741.7,462.6348214285714,31.52544642857142,1849.5,453.6348214285714,54.52544642857142,1952.1,453.6348214285714,54.52544642857142,2053.9,453.6348214285714,54.52544642857142,2154.6,453.6348214285714,54.52544642857142,2260.1,453.6348214285714,54.52544642857142,2367.4,453.6348214285714,54.52544642857142,2467.9,453.6348214285714,54.52544642857142,2569.2,453.6348214285714,54.52544642857142,2674.7,453.6348214285714,54.52544642857142,2783.8,453.6348214285714,54.52544642857142,2889.6,451.6348214285714,167.52544642857143,3005.3,402.6348214285714,197.52544642857143,3107.7,378.6348214285714,203.52544642857143,3207.9,312.6348214285714,231.52544642857143,3309.8,336.6348214285714,268.5254464285714,3416.2,361.6348214285714,334.5254464285714,3519.6,361.6348214285714,334.5254464285714,3624.6,361.6348214285714,334.5254464285714,3729.7,361.6348214285714,334.5254464285714,3829.8,361.6348214285714,334.5254464285714,3931.4,361.6348214285714,334.5254464285714,4034.2,361.6348214285714,334.5254464285714,4135.3,361.6348214285714,334.5254464285714,4238.9,361.6348214285714,334.5254464285714,4343.7,361.6348214285714,334.5254464285714,4446.6,361.6348214285714,334.5254464285714,4550.8,361.6348214285714,334.5254464285714,4652.6,361.6348214285714,334.5254464285714,4763.6,361.6348214285714,334.5254464285714,4873.9,361.6348214285714,334.5254464285714,4974]","[1562.8,1562.8,1000,0,562.8,""oops"",""up"",""right"",""good_move"",6328,4764.3,3928.2,1563.8,836,""smooth"",""right"",""right"",""good_move"",9658.3,3329.9,2615.4,6328.4,714.5,""oops"",""right"",""right"",""good_move"",13192.7,3533.9,2850.6,9658.9,683.2,""oops"",""up"",""left"",""bad_move"",15133.4,1940.3,2805.3,13193.1,-865,""error"",""-"",""-"",""no_move"",20362.2,5228.2,2523.1,19857.4,-2018.3,""error"",""-"",""-"",""no_move"",24489.9,4127.4,1791.4,21363.8,1334.7,""smooth"",""left"",""left"",""bad_move"",28922.1,4431.9,2747.1,24490.2,1684.8,""oops"",""up"",""down"",""bad_move"",30944.7,2021.9,2547.5,28922.8,-525.6,""error"",""-"",""-"",""no_move"",35977.8,5032.8,3149.3,31961.1,867.4,""oops"",""down"",""right"",""good_move"",39362.8,3384.6,1834.1,35978.2,1550.5,""smooth"",""right"",""right"",""good_move"",39465.7,102.6,2006.6,39363.1,-1904,""error"",""-"",""-"",""no_move"",44071.5,4605.5,3046,40466.9,558.6,""oops"",""up"",""down"",""bad_move"",44866.9,795.1,3105.4,44071.8,-2310.3,""error"",""-"",""-"",""no_move"",45904.3,1037,2171.9,45875.6,-2143.2,""error"",""-"",""-"",""no_move"",46611.2,706.6,2171.9,45875.6,-1436.3,""while_red"",""-"",""-"",""no_move"",47593.9,1689.3,1816.8,46920.8,-1143.7,""error"",""-"",""-"",""no_move"",48254,659.9,1816.8,46920.8,-483.6,""while_red"",""-"",""-"",""no_move"",51171.4,3577.3,2480.9,48598.1,92.4,""smooth"",""up"",""up"",""good_move"",55080.6,3908.8,2335.2,51171.9,1573.5,""error"",""-"",""-"",""no_move"",58990.2,3909.4,2614.2,56082.1,293.9,""oops"",""up"",""up"",""good_move"",67382.2,8391.6,1780.2,65081.5,520.5,""smooth"",""up"",""up"",""good_move""]","","",""
"4824","","<div style=""width:500px;"">
  <p>What determined the result of this run?</p>
  </div>","85","html-slider-response","72","2814787","0.0-10.0-1.6","269","1","2025-07-09 10:39:30","7701e855f2ef39aa3fd6c71abdc6918a","185.177.124.88","Mozilla/5.0 (Windows NT 10.0; Win64; x64) AppleWebKit/537.36 (KHTML, like Gecko) Chrome/138.0.0.0 Safari/537.36 Edg/138.0.0.0","WebKit","Edge","138.0.0.0","Windows","10.0","https://app.prolific.com/","en-US,en;q=0.9,en-ZA;q=0.8","6820e30a98ebaa472670fd3d","686d226cabeef709c732f8e1","686e46b0522ef6a21b26331a","6820e30a98ebaa472670fd3d","2025-07-09T11:26:36.618Z","","","","","","AttribQ","","","","","","","","","","","","","","","","","","","","","","","","","","","","","","","","","","","","","","50",""
"2456","","<div style=""width:500px;"">
  <p>How much control did you have over the ball?</p>
  </div>","88","html-slider-response","73","2817249","0.0-10.0-2.6","269","1","2025-07-09 10:39:30","7701e855f2ef39aa3fd6c71abdc6918a","185.177.124.88","Mozilla/5.0 (Windows NT 10.0; Win64; x64) AppleWebKit/537.36 (KHTML, like Gecko) Chrome/138.0.0.0 Safari/537.36 Edg/138.0.0.0","WebKit","Edge","138.0.0.0","Windows","10.0","https://app.prolific.com/","en-US,en;q=0.9,en-ZA;q=0.8","6820e30a98ebaa472670fd3d","686d226cabeef709c732f8e1","686e46b0522ef6a21b26331a","6820e30a98ebaa472670fd3d","2025-07-09T11:26:39.080Z","","","","","","ControlQ","","","","","","","","","","","","","","","","","","","","","","","","","","","","","","","","","","","","","","50",""
"2074","","<div style=""width:500px;"">
  <p>How would you describe your current emotional state?</p>
  </div>","83","html-slider-response","74","2819328","0.0-10.0-3.6","269","1","2025-07-09 10:39:30","7701e855f2ef39aa3fd6c71abdc6918a","185.177.124.88","Mozilla/5.0 (Windows NT 10.0; Win64; x64) AppleWebKit/537.36 (KHTML, like Gecko) Chrome/138.0.0.0 Safari/537.36 Edg/138.0.0.0","WebKit","Edge","138.0.0.0","Windows","10.0","https://app.prolific.com/","en-US,en;q=0.9,en-ZA;q=0.8","6820e30a98ebaa472670fd3d","686d226cabeef709c732f8e1","686e46b0522ef6a21b26331a","6820e30a98ebaa472670fd3d","2025-07-09T11:26:41.159Z","","","","","","StressQ","","","","","","","","","","","","","","","","","","","","","","","","","","","","","","","","","","","","","","50",""
"4913","","<div style=""width:500px;"">
  <p>What best describes how you currently feel?</p>
  </div>","94","html-slider-response","75","2824246","0.0-10.0-4.6","269","1","2025-07-09 10:39:30","7701e855f2ef39aa3fd6c71abdc6918a","185.177.124.88","Mozilla/5.0 (Windows NT 10.0; Win64; x64) AppleWebKit/537.36 (KHTML, like Gecko) Chrome/138.0.0.0 Safari/537.36 Edg/138.0.0.0","WebKit","Edge","138.0.0.0","Windows","10.0","https://app.prolific.com/","en-US,en;q=0.9,en-ZA;q=0.8","6820e30a98ebaa472670fd3d","686d226cabeef709c732f8e1","686e46b0522ef6a21b26331a","6820e30a98ebaa472670fd3d","2025-07-09T11:26:46.077Z","","","","","","MotivationQ","","","","","","","","","","","","","","","","","","","","","","","","","","","","","","","","","","","","","","50",""
"","","","","ctl-task-cpt","76","3171099","0.0-10.0-0.7","269","1","2025-07-09 10:39:30","7701e855f2ef39aa3fd6c71abdc6918a","185.177.124.88","Mozilla/5.0 (Windows NT 10.0; Win64; x64) AppleWebKit/537.36 (KHTML, like Gecko) Chrome/138.0.0.0 Safari/537.36 Edg/138.0.0.0","WebKit","Edge","138.0.0.0","Windows","10.0","https://app.prolific.com/","en-US,en;q=0.9,en-ZA;q=0.8","6820e30a98ebaa472670fd3d","686d226cabeef709c732f8e1","686e46b0522ef6a21b26331a","6820e30a98ebaa472670fd3d","2025-07-09T11:32:32.930Z","","","","","","","","","","","","","","","","win-only","0","g1:NW,g2:SE","0.3","8","0","2836413.1","49413.2","54448.5","343813","1","4","4","6","2","-4","-5","0","0","0","3486.2","3000","-945","[""down"",""right""]","{""num_key_presses"":31,""num_perfect"":9,""num_errors"":1,""num_randdir"":21,""num_randdir_good_moves"":8,""num_whilered"":0,""num_whileblue"":0,""num_blue"":8,""num_good_moves"":17}","[249.63482142857143,245.52544642857143,0.4,249.63482142857143,245.52544642857143,153.3,251.63482142857143,245.52544642857143,277.2,251.63482142857143,245.52544642857143,402.2,251.63482142857143,245.52544642857143,519.6,251.63482142857143,245.52544642857143,638.8,251.63482142857143,245.52544642857143,748.6,251.63482142857143,245.52544642857143,870.4,251.63482142857143,245.52544642857143,994.4,251.63482142857143,245.52544642857143,1114.8,251.63482142857143,245.52544642857143,1246.3,251.63482142857143,245.52544642857143,1370.6,251.63482142857143,245.52544642857143,1490.4,250.63482142857143,260.5254464285714,1607,250.63482142857143,260.5254464285714,1720,250.63482142857143,260.5254464285714,1839.4,249.63482142857143,260.5254464285714,1969.6,249.63482142857143,260.5254464285714,2096.6,249.63482142857143,260.5254464285714,2219.6,247.63482142857143,273.5254464285714,2343.1,286.6348214285714,345.5254464285714,2467.8,291.6348214285714,353.5254464285714,2590.2,351.6348214285714,412.5254464285714,2712.1,392.6348214285714,440.5254464285714,2835.6,406.6348214285714,451.5254464285714,2958.5,419.6348214285714,455.5254464285714,3084.8,438.6348214285714,451.5254464285714,3225.8,446.6348214285714,450.5254464285714,3359.5,446.6348214285714,450.5254464285714,3480.6,445.6348214285714,460.5254464285714,3603.2,445.6348214285714,460.5254464285714,3728.9,445.6348214285714,460.5254464285714,3853.1,445.6348214285714,460.5254464285714,3981.3,445.6348214285714,460.5254464285714,4105.6,445.6348214285714,460.5254464285714,4236.6,445.6348214285714,460.5254464285714,4358.3,445.6348214285714,460.5254464285714,4486.8,445.6348214285714,460.5254464285714,4611.1,470.6348214285714,444.5254464285714,4734,470.6348214285714,444.5254464285714,4857.2,470.6348214285714,444.5254464285714,4974.8]","[10047.8,10047.8,2576.6,6385.7,1085.5,""oops"",""down"",""up"",""bad_move"",21888.9,11840.3,2896.1,10048.6,8944.2,""smooth"",""right"",""right"",""good_move"",26351.2,4461.8,2978.8,21889.4,1483,""oops"",""right"",""left"",""bad_move"",37650.1,11298.4,2857.6,26351.7,8440.8,""oops"",""down"",""down"",""good_move"",42083.5,4433,2648.1,37650.5,1784.9,""smooth"",""down"",""down"",""good_move"",46429.2,4345.3,3125.2,42083.9,1220.1,""oops"",""down"",""up"",""bad_move"",58635.1,12205.5,2077.3,46429.6,10128.2,""oops"",""right"",""down"",""good_move"",68793.9,10158.5,2067.7,65781.2,945,""smooth"",""down"",""down"",""good_move"",73583.6,4789.4,2498.6,68794.2,2290.8,""oops"",""right"",""left"",""bad_move"",86103.2,12519.3,2862.9,73583.9,9656.4,""oops"",""down"",""right"",""good_move"",93507.5,7404,2620.1,89917.6,969.8,""smooth"",""down"",""down"",""good_move"",97257,3749.3,2436.7,93507.7,1312.6,""smooth"",""right"",""right"",""good_move"",101188.7,3931.4,2759.9,97257.3,1171.5,""oops"",""right"",""right"",""good_move"",104826.8,3637.7,2540,101189.1,1097.7,""oops"",""right"",""up"",""bad_move"",121484.1,16657,2509.1,118287.7,687.3,""oops"",""right"",""up"",""bad_move"",135079.1,13594.7,2834.6,121484.4,10760.1,""smooth"",""down"",""down"",""good_move"",142346.5,7267.2,2785.8,138894.9,665.8,""oops"",""down"",""left"",""bad_move"",156922.7,14575.5,2532.4,142347.2,12043.1,""oops"",""down"",""down"",""good_move"",160650.2,3727.2,2739.9,156923,987.3,""oops"",""down"",""right"",""good_move"",165266.2,4615.6,2658.4,160650.6,1957.2,""oops"",""down"",""up"",""bad_move"",179364.7,14098.2,2358.7,165266.6,11739.4,""smooth"",""right"",""right"",""good_move"",183951.7,4586.8,2547.2,179364.9,2039.6,""oops"",""down"",""up"",""bad_move"",205646.9,21694.9,2479,183952,19215.9,""smooth"",""down"",""down"",""good_move"",209482.2,3835.1,2366.1,205647.1,1469,""smooth"",""down"",""down"",""good_move"",214430.8,4948.5,2118.1,209482.4,2830.4,""oops"",""down"",""left"",""bad_move"",232089.1,17658.1,2524.8,214431,15133.3,""oops"",""right"",""right"",""good_move"",236152.1,4062.6,2418.6,232089.5,1644,""oops"",""right"",""up"",""bad_move"",245781.3,9628.9,2863.1,236152.4,6765.8,""error"",""-"",""-"",""no_move"",258915.3,13133.6,2833.8,255204.5,877,""oops"",""down"",""up"",""bad_move"",278238.3,19322.7,2385.8,258915.6,16936.9,""oops"",""down"",""left"",""bad_move"",286544.3,8305.6,2793,278238.7,5512.6,""oops"",""right"",""down"",""good_move""]","","",""
"6034","","<div style=""width:500px;"">
  <p>What determined the result of this run?</p>
  </div>","79","html-slider-response","77","3177135","0.0-10.0-1.7","269","1","2025-07-09 10:39:30","7701e855f2ef39aa3fd6c71abdc6918a","185.177.124.88","Mozilla/5.0 (Windows NT 10.0; Win64; x64) AppleWebKit/537.36 (KHTML, like Gecko) Chrome/138.0.0.0 Safari/537.36 Edg/138.0.0.0","WebKit","Edge","138.0.0.0","Windows","10.0","https://app.prolific.com/","en-US,en;q=0.9,en-ZA;q=0.8","6820e30a98ebaa472670fd3d","686d226cabeef709c732f8e1","686e46b0522ef6a21b26331a","6820e30a98ebaa472670fd3d","2025-07-09T11:32:38.966Z","","","","","","AttribQ","","","","","","","","","","","","","","","","","","","","","","","","","","","","","","","","","","","","","","50",""
"5112","","<div style=""width:500px;"">
  <p>How much control did you have over the ball?</p>
  </div>","71","html-slider-response","78","3182249","0.0-10.0-2.7","269","1","2025-07-09 10:39:30","7701e855f2ef39aa3fd6c71abdc6918a","185.177.124.88","Mozilla/5.0 (Windows NT 10.0; Win64; x64) AppleWebKit/537.36 (KHTML, like Gecko) Chrome/138.0.0.0 Safari/537.36 Edg/138.0.0.0","WebKit","Edge","138.0.0.0","Windows","10.0","https://app.prolific.com/","en-US,en;q=0.9,en-ZA;q=0.8","6820e30a98ebaa472670fd3d","686d226cabeef709c732f8e1","686e46b0522ef6a21b26331a","6820e30a98ebaa472670fd3d","2025-07-09T11:32:44.080Z","","","","","","ControlQ","","","","","","","","","","","","","","","","","","","","","","","","","","","","","","","","","","","","","","50",""
"2824","","<div style=""width:500px;"">
  <p>How would you describe your current emotional state?</p>
  </div>","64","html-slider-response","79","3185075","0.0-10.0-3.7","269","1","2025-07-09 10:39:30","7701e855f2ef39aa3fd6c71abdc6918a","185.177.124.88","Mozilla/5.0 (Windows NT 10.0; Win64; x64) AppleWebKit/537.36 (KHTML, like Gecko) Chrome/138.0.0.0 Safari/537.36 Edg/138.0.0.0","WebKit","Edge","138.0.0.0","Windows","10.0","https://app.prolific.com/","en-US,en;q=0.9,en-ZA;q=0.8","6820e30a98ebaa472670fd3d","686d226cabeef709c732f8e1","686e46b0522ef6a21b26331a","6820e30a98ebaa472670fd3d","2025-07-09T11:32:46.907Z","","","","","","StressQ","","","","","","","","","","","","","","","","","","","","","","","","","","","","","","","","","","","","","","50",""
"4581","","<div style=""width:500px;"">
  <p>What best describes how you currently feel?</p>
  </div>","90","html-slider-response","80","3189659","0.0-10.0-4.7","269","1","2025-07-09 10:39:30","7701e855f2ef39aa3fd6c71abdc6918a","185.177.124.88","Mozilla/5.0 (Windows NT 10.0; Win64; x64) AppleWebKit/537.36 (KHTML, like Gecko) Chrome/138.0.0.0 Safari/537.36 Edg/138.0.0.0","WebKit","Edge","138.0.0.0","Windows","10.0","https://app.prolific.com/","en-US,en;q=0.9,en-ZA;q=0.8","6820e30a98ebaa472670fd3d","686d226cabeef709c732f8e1","686e46b0522ef6a21b26331a","6820e30a98ebaa472670fd3d","2025-07-09T11:32:51.490Z","","","","","","MotivationQ","","","","","","","","","","","","","","","","","","","","","","","","","","","","","","","","","","","","","","50",""
"","","","","ctl-task-cpt","81","3247747","0.0-10.0-0.8","269","1","2025-07-09 10:39:30","7701e855f2ef39aa3fd6c71abdc6918a","185.177.124.88","Mozilla/5.0 (Windows NT 10.0; Win64; x64) AppleWebKit/537.36 (KHTML, like Gecko) Chrome/138.0.0.0 Safari/537.36 Edg/138.0.0.0","WebKit","Edge","138.0.0.0","Windows","10.0","https://app.prolific.com/","en-US,en;q=0.9,en-ZA;q=0.8","6820e30a98ebaa472670fd3d","686d226cabeef709c732f8e1","686e46b0522ef6a21b26331a","6820e30a98ebaa472670fd3d","2025-07-09T11:33:49.578Z","","","","","","","","","","","","","","","","win-only","2","g1:SE,g2:NW","0.2","9","0","3201822.7","3985.3","8987.3","55053.5","1","4","4","6","2","-4","-5","0","0","0","2289","3000","-575","[""left"",""up""]","{""num_key_presses"":10,""num_perfect"":1,""num_errors"":1,""num_randdir"":8,""num_randdir_good_moves"":3,""num_whilered"":0,""num_whileblue"":0,""num_blue"":2,""num_good_moves"":4}","[253.63482142857143,245.52544642857143,0.4,253.63482142857143,245.52544642857143,102.1,253.63482142857143,245.52544642857143,207.2,253.63482142857143,245.52544642857143,307.8,253.63482142857143,245.52544642857143,411.9,253.63482142857143,245.52544642857143,515.1,252.63482142857143,254.52544642857143,620.8,255.63482142857143,336.5254464285714,733.1,257.6348214285714,348.5254464285714,837,259.6348214285714,350.5254464285714,938.4,261.6348214285714,350.5254464285714,1042.7,278.6348214285714,356.5254464285714,1149.5,411.6348214285714,392.5254464285714,1252.5,448.6348214285714,403.5254464285714,1358.2,447.6348214285714,414.5254464285714,1463.9,344.6348214285714,387.5254464285714,1566,201.63482142857143,290.5254464285714,1673.4,98.63482142857143,193.52544642857143,1781.8,105.63482142857143,144.52544642857143,1883.9,91.63482142857143,104.52544642857143,1992,41.63482142857142,62.52544642857142,2101,42.63482142857142,56.52544642857142,2202.1,42.63482142857142,56.52544642857142,2310.7,42.63482142857142,56.52544642857142,2417.2,42.63482142857142,56.52544642857142,2518.6,53.63482142857142,65.52544642857143,2622.6,65.63482142857143,85.52544642857143,2722.9,117.63482142857143,173.52544642857143,2826.3,214.63482142857143,299.5254464285714,2934.4,206.63482142857143,352.5254464285714,3036.9,204.63482142857143,353.5254464285714,3139.9,195.63482142857143,358.5254464285714,3246.4,195.63482142857143,358.5254464285714,3346.8,195.63482142857143,358.5254464285714,3454.1,195.63482142857143,358.5254464285714,3570.2,195.63482142857143,358.5254464285714,3672.8,195.63482142857143,358.5254464285714,3780.6,195.63482142857143,358.5254464285714,3882.6,195.63482142857143,358.5254464285714,3985.2,195.63482142857143,358.5254464285714,4088.5,195.63482142857143,358.5254464285714,4198.4,195.63482142857143,358.5254464285714,4303.3,195.63482142857143,358.5254464285714,4404.3,195.63482142857143,358.5254464285714,4505.2,195.63482142857143,358.5254464285714,4609.5,195.63482142857143,358.5254464285714,4717.7,195.63482142857143,358.5254464285714,4819.7,195.63482142857143,358.5254464285714,4927.7]","[1959.7,1959.7,1000,0,959.7,""oops"",""up"",""right"",""bad_move"",9781,7820.7,2668.2,6618.9,493.9,""smooth"",""left"",""left"",""good_move"",12859.6,3078.1,1941.8,9781.5,1136.3,""oops"",""left"",""right"",""bad_move"",16098,3237.9,2050.6,12860.1,1187.3,""oops"",""up"",""right"",""bad_move"",19633.8,3535.5,2891.3,16098.3,644.2,""oops"",""right"",""up"",""good_move"",20013.9,379.4,3194.3,19634.5,-2814.9,""error"",""-"",""-"",""no_move"",24907.4,4893.1,3035.4,21020.4,851.7,""oops"",""up"",""up"",""good_move"",28285.8,3378.1,2460.8,24907.7,917.3,""oops"",""left"",""down"",""bad_move"",32805.1,4518.6,3820.4,28286.6,698.1,""oops"",""right"",""down"",""bad_move"",37361.4,4555.9,3124.9,32805.5,1431,""oops"",""up"",""up"",""good_move""]","","",""
"20952","","<div style=""width:500px;"">
  <p>What determined the result of this run?</p>
  </div>","91","html-slider-response","82","3268702","0.0-10.0-1.8","269","1","2025-07-09 10:39:30","7701e855f2ef39aa3fd6c71abdc6918a","185.177.124.88","Mozilla/5.0 (Windows NT 10.0; Win64; x64) AppleWebKit/537.36 (KHTML, like Gecko) Chrome/138.0.0.0 Safari/537.36 Edg/138.0.0.0","WebKit","Edge","138.0.0.0","Windows","10.0","https://app.prolific.com/","en-US,en;q=0.9,en-ZA;q=0.8","6820e30a98ebaa472670fd3d","686d226cabeef709c732f8e1","686e46b0522ef6a21b26331a","6820e30a98ebaa472670fd3d","2025-07-09T11:34:10.533Z","","","","","","AttribQ","","","","","","","","","","","","","","","","","","","","","","","","","","","","","","","","","","","","","","50",""
"2975","","<div style=""width:500px;"">
  <p>How much control did you have over the ball?</p>
  </div>","91","html-slider-response","83","3271679","0.0-10.0-2.8","269","1","2025-07-09 10:39:30","7701e855f2ef39aa3fd6c71abdc6918a","185.177.124.88","Mozilla/5.0 (Windows NT 10.0; Win64; x64) AppleWebKit/537.36 (KHTML, like Gecko) Chrome/138.0.0.0 Safari/537.36 Edg/138.0.0.0","WebKit","Edge","138.0.0.0","Windows","10.0","https://app.prolific.com/","en-US,en;q=0.9,en-ZA;q=0.8","6820e30a98ebaa472670fd3d","686d226cabeef709c732f8e1","686e46b0522ef6a21b26331a","6820e30a98ebaa472670fd3d","2025-07-09T11:34:13.510Z","","","","","","ControlQ","","","","","","","","","","","","","","","","","","","","","","","","","","","","","","","","","","","","","","50",""
"4222","","<div style=""width:500px;"">
  <p>How would you describe your current emotional state?</p>
  </div>","26","html-slider-response","84","3275903","0.0-10.0-3.8","269","1","2025-07-09 10:39:30","7701e855f2ef39aa3fd6c71abdc6918a","185.177.124.88","Mozilla/5.0 (Windows NT 10.0; Win64; x64) AppleWebKit/537.36 (KHTML, like Gecko) Chrome/138.0.0.0 Safari/537.36 Edg/138.0.0.0","WebKit","Edge","138.0.0.0","Windows","10.0","https://app.prolific.com/","en-US,en;q=0.9,en-ZA;q=0.8","6820e30a98ebaa472670fd3d","686d226cabeef709c732f8e1","686e46b0522ef6a21b26331a","6820e30a98ebaa472670fd3d","2025-07-09T11:34:17.734Z","","","","","","StressQ","","","","","","","","","","","","","","","","","","","","","","","","","","","","","","","","","","","","","","50",""
