"rt","response_timestamp","stimulus","response","trial_type","trial_index","time_elapsed","internal_node_id","run_id","condition","recorded_at","source_code_version","ip","user_agent","device","browser","browser_version","platform","platform_version","referer","accept_language","PROLIFIC_PID","STUDY_ID","SESSION_ID","prolific_id","realtime","view_history","question_order","consent","success","question_id","eventType","responses","item_order","radio_event_ids","radio_event_times","key_event_times","mouse_event_times","straightlining","zigzagging","honeypot","which_type","canvas_config","goals_layout","control_level","trial_number","tutorial_trial_number","trial_start_time","phase1_start_time","phase2_start_time","phase3_start_time","goal_1_value","goal_1_distance","goal_2_value","goal_2_distance","goal_selected","outcome","outcome_total","participant_final_score","participant_initial_score","participant_final_score_prop","goal_choice_rt","allocated_time","allocated_time_remaining","goal_direction","counts","mouse_movements","key_presses","correct","slider_start","sub_question"
"33859","1752055568395","<p style='font-size:40px;line-height:1.25'><strong>Welcome to the experiment!</strong></p><p style='font-size:1.1em;line-height:1.25'>Thank you for your interest in our experiment! Before you begin, it is important that we obtain your informed consent to participate in the study.</p><p style='font-size:1.1em;line-height:1.25'>On the next screen will be an <strong>information sheet</strong> for you to read. To participate in the study we need you to read this information sheet and the following consent form carefully. If you agree with all the statements, please click the <strong>I agree</strong> button.</p><p style='font-size:1.1em;line-height:1.25'>Press <strong>Next</strong> to read the information sheet.</p>","0","custom-html-button-response","0","33868","0.0-0.0","255","1","2025-07-09 10:05:31","7701e855f2ef39aa3fd6c71abdc6918a","165.16.184.166","Mozilla/5.0 (Linux; Android 10; K) AppleWebKit/537.36 (KHTML, like Gecko) Chrome/130.0.0.0 Mobile Safari/537.36","WebKit","Chrome","130.0.0.0","AndroidOS","10","https://app.prolific.com/","en-ZA,en-GB;q=0.9,en-US;q=0.8,en;q=0.7,ar;q=0.6","669bba2714caa691679bff24","686d226cabeef709c732f8e1","686e311a7e769e8118f579e2","669bba2714caa691679bff24","2025-07-09T10:06:08.401Z","","","","","","","","","","","","","","","","","","","","","","","","","","","","","","","","","","","","","","","","","","","","",""
"3409","","","","instructions","1","37281","0.0-1.0","255","1","2025-07-09 10:05:31","7701e855f2ef39aa3fd6c71abdc6918a","165.16.184.166","Mozilla/5.0 (Linux; Android 10; K) AppleWebKit/537.36 (KHTML, like Gecko) Chrome/130.0.0.0 Mobile Safari/537.36","WebKit","Chrome","130.0.0.0","AndroidOS","10","https://app.prolific.com/","en-ZA,en-GB;q=0.9,en-US;q=0.8,en;q=0.7,ar;q=0.6","669bba2714caa691679bff24","686d226cabeef709c732f8e1","686e311a7e769e8118f579e2","669bba2714caa691679bff24","","[{""page_index"":0,""viewing_time"":2734},{""page_index"":1,""viewing_time"":672}]","","","","","","","","","","","","","","","","","","","","","","","","","","","","","","","","","","","","","","","","","","","",""
"3034","","","{""Q0"":"""",""Q1"":"""",""Q2"":"""",""Q3"":"""",""Q4"":"""",""Q5"":"""",""Q6"":""I agree""}","survey-multi-choice","2","40328","0.0-2.0","255","1","2025-07-09 10:05:31","7701e855f2ef39aa3fd6c71abdc6918a","165.16.184.166","Mozilla/5.0 (Linux; Android 10; K) AppleWebKit/537.36 (KHTML, like Gecko) Chrome/130.0.0.0 Mobile Safari/537.36","WebKit","Chrome","130.0.0.0","AndroidOS","10","https://app.prolific.com/","en-ZA,en-GB;q=0.9,en-US;q=0.8,en;q=0.7,ar;q=0.6","669bba2714caa691679bff24","686d226cabeef709c732f8e1","686e311a7e769e8118f579e2","669bba2714caa691679bff24","","","[0,1,2,3,4,5,6]","true","","","","","","","","","","","","","","","","","","","","","","","","","","","","","","","","","","","","","","","","","",""
"2120","","","","fullscreen","3","43460","0.0-4.0","255","1","2025-07-09 10:05:31","7701e855f2ef39aa3fd6c71abdc6918a","165.16.184.166","Mozilla/5.0 (Linux; Android 10; K) AppleWebKit/537.36 (KHTML, like Gecko) Chrome/130.0.0.0 Mobile Safari/537.36","WebKit","Chrome","130.0.0.0","AndroidOS","10","https://app.prolific.com/","en-ZA,en-GB;q=0.9,en-US;q=0.8,en;q=0.7,ar;q=0.6","669bba2714caa691679bff24","686d226cabeef709c732f8e1","686e311a7e769e8118f579e2","669bba2714caa691679bff24","","","","","true","","","","","","","","","","","","","","","","","","","","","","","","","","","","","","","","","","","","","","","","",""
"9259","1752055587257"," <p style='font-size:1.1em;line-height:1.25'>Thank you for completing the consent form and closing all other tabs.</p><p style='font-size:1.1em;line-height:1.25'>We will now invite you to fill in some demographic information and questionnaires, before starting the game.<br>This will take about 5 minutes.<br></p><p style='font-size:1.1em;line-height:1.25'>Press the <strong>Next</strong> button to continue.</p>","0","custom-html-button-response","4","52727","0.0-5.0","255","1","2025-07-09 10:05:31","7701e855f2ef39aa3fd6c71abdc6918a","165.16.184.166","Mozilla/5.0 (Linux; Android 10; K) AppleWebKit/537.36 (KHTML, like Gecko) Chrome/130.0.0.0 Mobile Safari/537.36","WebKit","Chrome","130.0.0.0","AndroidOS","10","https://app.prolific.com/","en-ZA,en-GB;q=0.9,en-US;q=0.8,en;q=0.7,ar;q=0.6","669bba2714caa691679bff24","686d226cabeef709c732f8e1","686e311a7e769e8118f579e2","669bba2714caa691679bff24","2025-07-09T10:06:27.259Z","","","","","","","","","","","","","","","","","","","","","","","","","","","","","","","","","","","","","","","","","","","","",""
"15577","","","{""age"":""26""}","survey-text","5","68317","0.0-6.0-0.0","255","1","2025-07-09 10:05:31","7701e855f2ef39aa3fd6c71abdc6918a","165.16.184.166","Mozilla/5.0 (Linux; Android 10; K) AppleWebKit/537.36 (KHTML, like Gecko) Chrome/130.0.0.0 Mobile Safari/537.36","WebKit","Chrome","130.0.0.0","AndroidOS","10","https://app.prolific.com/","en-ZA,en-GB;q=0.9,en-US;q=0.8,en;q=0.7,ar;q=0.6","669bba2714caa691679bff24","686d226cabeef709c732f8e1","686e311a7e769e8118f579e2","669bba2714caa691679bff24","","","","","","0","demographics","","","","","","","","","","","","","","","","","","","","","","","","","","","","","","","","","","","","","","",""
"18961","","","{""gender_identity"":""female/woman""}","survey-multi-choice","6","87284","0.0-6.0-1.0","255","1","2025-07-09 10:05:31","7701e855f2ef39aa3fd6c71abdc6918a","165.16.184.166","Mozilla/5.0 (Linux; Android 10; K) AppleWebKit/537.36 (KHTML, like Gecko) Chrome/130.0.0.0 Mobile Safari/537.36","WebKit","Chrome","130.0.0.0","AndroidOS","10","https://app.prolific.com/","en-ZA,en-GB;q=0.9,en-US;q=0.8,en;q=0.7,ar;q=0.6","669bba2714caa691679bff24","686d226cabeef709c732f8e1","686e311a7e769e8118f579e2","669bba2714caa691679bff24","","","[0]","","","1","demographics","","","","","","","","","","","","","","","","","","","","","","","","","","","","","","","","","","","","","","",""
"11059","","","{""assigned_sex"":""female""}","survey-multi-choice","7","98351","0.0-6.0-2.0","255","1","2025-07-09 10:05:31","7701e855f2ef39aa3fd6c71abdc6918a","165.16.184.166","Mozilla/5.0 (Linux; Android 10; K) AppleWebKit/537.36 (KHTML, like Gecko) Chrome/130.0.0.0 Mobile Safari/537.36","WebKit","Chrome","130.0.0.0","AndroidOS","10","https://app.prolific.com/","en-ZA,en-GB;q=0.9,en-US;q=0.8,en;q=0.7,ar;q=0.6","669bba2714caa691679bff24","686d226cabeef709c732f8e1","686e311a7e769e8118f579e2","669bba2714caa691679bff24","","","[0]","","","2","demographics","","","","","","","","","","","","","","","","","","","","","","","","","","","","","","","","","","","","","","",""
"4088","","","{""menstrual_cycle"":""No""}","survey-multi-choice","8","102447","0.0-6.0-3.0","255","1","2025-07-09 10:05:31","7701e855f2ef39aa3fd6c71abdc6918a","165.16.184.166","Mozilla/5.0 (Linux; Android 10; K) AppleWebKit/537.36 (KHTML, like Gecko) Chrome/130.0.0.0 Mobile Safari/537.36","WebKit","Chrome","130.0.0.0","AndroidOS","10","https://app.prolific.com/","en-ZA,en-GB;q=0.9,en-US;q=0.8,en;q=0.7,ar;q=0.6","669bba2714caa691679bff24","686d226cabeef709c732f8e1","686e311a7e769e8118f579e2","669bba2714caa691679bff24","","","[0]","","","4","demographics","","","","","","","","","","","","","","","","","","","","","","","","","","","","","","","","","","","","","","",""
"2734","","","{""education"":""Bachelor's Degree (e.g., BA)""}","survey-multi-choice","9","105189","0.0-6.0-4.0","255","1","2025-07-09 10:05:31","7701e855f2ef39aa3fd6c71abdc6918a","165.16.184.166","Mozilla/5.0 (Linux; Android 10; K) AppleWebKit/537.36 (KHTML, like Gecko) Chrome/130.0.0.0 Mobile Safari/537.36","WebKit","Chrome","130.0.0.0","AndroidOS","10","https://app.prolific.com/","en-ZA,en-GB;q=0.9,en-US;q=0.8,en;q=0.7,ar;q=0.6","669bba2714caa691679bff24","686d226cabeef709c732f8e1","686e311a7e769e8118f579e2","669bba2714caa691679bff24","","","[0]","","","5","demographics","","","","","","","","","","","","","","","","","","","","","","","","","","","","","","","","","","","","","","",""
"41668","","","{""education"":""Bachelor's Degree (e.g., BA)""}","survey-multi-choice","10","146864","0.0-6.0-5.0","255","1","2025-07-09 10:05:31","7701e855f2ef39aa3fd6c71abdc6918a","165.16.184.166","Mozilla/5.0 (Linux; Android 10; K) AppleWebKit/537.36 (KHTML, like Gecko) Chrome/130.0.0.0 Mobile Safari/537.36","WebKit","Chrome","130.0.0.0","AndroidOS","10","https://app.prolific.com/","en-ZA,en-GB;q=0.9,en-US;q=0.8,en;q=0.7,ar;q=0.6","669bba2714caa691679bff24","686d226cabeef709c732f8e1","686e311a7e769e8118f579e2","669bba2714caa691679bff24","2025-07-09T10:08:01.396Z","","[0]","","","6","demographics","","","","","","","","","","","","","","","","","","","","","","","","","","","","","","","","","","","","","","",""
"58716","","","{""mental_health_condition"":""No"",""mental_health_treatment"":""No"",""psychiatric_medication"":""No""}","survey-text","11","205591","0.0-7.0-0.0","255","1","2025-07-09 10:05:31","7701e855f2ef39aa3fd6c71abdc6918a","165.16.184.166","Mozilla/5.0 (Linux; Android 10; K) AppleWebKit/537.36 (KHTML, like Gecko) Chrome/130.0.0.0 Mobile Safari/537.36","WebKit","Chrome","130.0.0.0","AndroidOS","10","https://app.prolific.com/","en-ZA,en-GB;q=0.9,en-US;q=0.8,en;q=0.7,ar;q=0.6","669bba2714caa691679bff24","686d226cabeef709c732f8e1","686e311a7e769e8118f579e2","669bba2714caa691679bff24","2025-07-09T10:09:00.124Z","","","","","1","mental_health","","","","","","","","","","","","","","","","","","","","","","","","","","","","","","","","","","","","","","",""
"30360","","","{""depression_history"":[""Yes""]}","survey-multi-select","12","235963","0.0-7.0-1.0","255","1","2025-07-09 10:05:31","7701e855f2ef39aa3fd6c71abdc6918a","165.16.184.166","Mozilla/5.0 (Linux; Android 10; K) AppleWebKit/537.36 (KHTML, like Gecko) Chrome/130.0.0.0 Mobile Safari/537.36","WebKit","Chrome","130.0.0.0","AndroidOS","10","https://app.prolific.com/","en-ZA,en-GB;q=0.9,en-US;q=0.8,en;q=0.7,ar;q=0.6","669bba2714caa691679bff24","686d226cabeef709c732f8e1","686e311a7e769e8118f579e2","669bba2714caa691679bff24","","","[0]","","","","mental_health","","","","","","","","","","","","","","","","","","","","","","","","","","","","","","","","","","","","","","",""
"5770","","","{""depression_episodes"":""1-2"",""depression_recent"":""Within the past year""}","survey-multi-choice","13","241740","0.0-7.0-2.0-0.0","255","1","2025-07-09 10:05:31","7701e855f2ef39aa3fd6c71abdc6918a","165.16.184.166","Mozilla/5.0 (Linux; Android 10; K) AppleWebKit/537.36 (KHTML, like Gecko) Chrome/130.0.0.0 Mobile Safari/537.36","WebKit","Chrome","130.0.0.0","AndroidOS","10","https://app.prolific.com/","en-ZA,en-GB;q=0.9,en-US;q=0.8,en;q=0.7,ar;q=0.6","669bba2714caa691679bff24","686d226cabeef709c732f8e1","686e311a7e769e8118f579e2","669bba2714caa691679bff24","2025-07-09T10:09:36.273Z","","[0,1]","","","3","mental_health","","","","","","","","","","","","","","","","","","","","","","","","","","","","","","","","","","","","","","",""
"81857.09999996424","","","","survey-template","14","323620","0.0-7.0-3.0","255","1","2025-07-09 10:05:31","7701e855f2ef39aa3fd6c71abdc6918a","165.16.184.166","Mozilla/5.0 (Linux; Android 10; K) AppleWebKit/537.36 (KHTML, like Gecko) Chrome/130.0.0.0 Mobile Safari/537.36","WebKit","Chrome","130.0.0.0","AndroidOS","10","https://app.prolific.com/","en-ZA,en-GB;q=0.9,en-US;q=0.8,en;q=0.7,ar;q=0.6","669bba2714caa691679bff24","686d226cabeef709c732f8e1","686e311a7e769e8118f579e2","669bba2714caa691679bff24","2025-07-09T10:10:58.153Z","","","","","","ius","{""Q01"":""0"",""Q02"":""0"",""Q03"":""0"",""Q04"":""0"",""Q05"":""0"",""Q06"":""1"",""Q07"":""1"",""Q08"":""0"",""Q09"":""1"",""Q10"":""1"",""Q11"":""1"",""Q12"":""1"",""Q13"":""1""}","[0,1,2,3,4,5,6,7,8,9,10,11,12]","[""Q01"",""Q02"",""Q03"",""Q04"",""Q05"",""Q06"",""Q07"",""Q09"",""Q10"",""Q11"",""Q12"",""Q13"",""Q08""]","[5695.300000011921,14206.300000011921,14907.800000011921,18867.099999964237,20735.69999998808,21827.599999964237,23037.5,26795.69999998808,27877.899999976158,29546.80000001192,30190.5,31459.599999964237,77969.19999998808]","[]","[5695.300000011921,14206.300000011921,14907.800000011921,18867.099999964237,20735.69999998808,21827.599999964237,23037.5,24188.099999964237,26093.399999976158,26795.69999998808,27877.899999976158,29546.80000001192,30190.5,31459.599999964237,77969.19999998808,81849]","0.5384615384615384","0.25","0","","","","","","","","","","","","","","","","","","","","","","","","","","","","","",""
"1051","1752055859209","<p style='font-size:1.1em;line-height:1.25'>In the following, we will ask you a few questions relating to your experiences over the past month.<br></p><p style='font-size:1.1em;line-height:1.25'>Press the <strong>Next</strong> button to continue.</p>","0","custom-html-button-response","15","324680","0.0-7.0-4.0","255","1","2025-07-09 10:05:31","7701e855f2ef39aa3fd6c71abdc6918a","165.16.184.166","Mozilla/5.0 (Linux; Android 10; K) AppleWebKit/537.36 (KHTML, like Gecko) Chrome/130.0.0.0 Mobile Safari/537.36","WebKit","Chrome","130.0.0.0","AndroidOS","10","https://app.prolific.com/","en-ZA,en-GB;q=0.9,en-US;q=0.8,en;q=0.7,ar;q=0.6","669bba2714caa691679bff24","686d226cabeef709c732f8e1","686e311a7e769e8118f579e2","669bba2714caa691679bff24","2025-07-09T10:10:59.212Z","","","","","","","","","","","","","","","","","","","","","","","","","","","","","","","","","","","","","","","","","","","","",""
"45021.19999998808","","","","survey-template","16","369713","0.0-7.0-5.0","255","1","2025-07-09 10:05:31","7701e855f2ef39aa3fd6c71abdc6918a","165.16.184.166","Mozilla/5.0 (Linux; Android 10; K) AppleWebKit/537.36 (KHTML, like Gecko) Chrome/130.0.0.0 Mobile Safari/537.36","WebKit","Chrome","130.0.0.0","AndroidOS","10","https://app.prolific.com/","en-ZA,en-GB;q=0.9,en-US;q=0.8,en;q=0.7,ar;q=0.6","669bba2714caa691679bff24","686d226cabeef709c732f8e1","686e311a7e769e8118f579e2","669bba2714caa691679bff24","2025-07-09T10:11:44.245Z","","","","","","pss","{""Q01"":""0"",""Q02"":""0"",""Q03"":""0"",""Q04"":""4"",""Q05"":""4"",""Q06"":""0"",""Q07"":""3"",""Q08"":""4"",""Q09"":""0"",""Q10"":""0""}","[0,1,2,3,4,5,6,7,8,9]","[""Q01"",""Q02"",""Q03"",""Q04"",""Q05"",""Q06"",""Q07"",""Q08"",""Q09"",""Q10"",""Q10"",""Q10"",""Q10"",""Q10"",""Q10"",""Q07""]","[1283,1845.5,2929.099999964237,3346.599999964237,4285.799999952316,4669.5,5691.599999964237,6165.299999952316,7186.299999952316,7736.899999976158,29530.19999998808,29922.799999952316,29966.299999952316,30422.19999998808,30442.799999952316,43400.299999952316]","[29530.19999998808,29922.799999952316,29966.299999952316,30422.19999998808,30442.799999952316]","[0.09999996423721313,1283,1845.5,2929.099999964237,3346.599999964237,4285.799999952316,4669.5,5691.599999964237,6165.299999952316,7186.299999952316,7736.899999976158,43400.299999952316,45014.59999996424]","0.9","0.2222222222222222","0","","","","","","","","","","","","","","","","","","","","","","","","","","","","","",""
"1277","1752055905524","<p style='font-size:1.1em;line-height:1.25'>Thank you for your answers! Now we will ask you a few more questions relating to your feelings in the last 24 hours.<br></p><p style='font-size:1.1em;line-height:1.25'>Press the <strong>Next</strong> button to continue.</p>","0","custom-html-button-response","17","370995","0.0-7.0-6.0","255","1","2025-07-09 10:05:31","7701e855f2ef39aa3fd6c71abdc6918a","165.16.184.166","Mozilla/5.0 (Linux; Android 10; K) AppleWebKit/537.36 (KHTML, like Gecko) Chrome/130.0.0.0 Mobile Safari/537.36","WebKit","Chrome","130.0.0.0","AndroidOS","10","https://app.prolific.com/","en-ZA,en-GB;q=0.9,en-US;q=0.8,en;q=0.7,ar;q=0.6","669bba2714caa691679bff24","686d226cabeef709c732f8e1","686e311a7e769e8118f579e2","669bba2714caa691679bff24","2025-07-09T10:11:45.527Z","","","","","","","","","","","","","","","","","","","","","","","","","","","","","","","","","","","","","","","","","","","","",""
"51141.80000001192","","","","survey-template","18","422157","0.0-7.0-7.0","255","1","2025-07-09 10:05:31","7701e855f2ef39aa3fd6c71abdc6918a","165.16.184.166","Mozilla/5.0 (Linux; Android 10; K) AppleWebKit/537.36 (KHTML, like Gecko) Chrome/130.0.0.0 Mobile Safari/537.36","WebKit","Chrome","130.0.0.0","AndroidOS","10","https://app.prolific.com/","en-ZA,en-GB;q=0.9,en-US;q=0.8,en;q=0.7,ar;q=0.6","669bba2714caa691679bff24","686d226cabeef709c732f8e1","686e311a7e769e8118f579e2","669bba2714caa691679bff24","2025-07-09T10:12:36.689Z","","","","","","drsp","{""Q01"":""0"",""Q02"":""0"",""Q03"":""1"",""Q04"":""1"",""Q05"":""2"",""Q06"":""2"",""Q07"":""2"",""Q08"":""1"",""Q09"":""0"",""Q10"":""0"",""Q11"":""0"",""Q12"":""0"",""Q13"":""0"",""Q14"":""0"",""Q15"":""0"",""Q16"":""0"",""Q17"":""1"",""Q18"":""0"",""Q19"":""0"",""Q20"":""0"",""Q21"":""1""}","[0,1,2,3,4,5,6,7,8,9,10,11,12,13,14,15,16,17,18,19,20]","[""Q02"",""Q01"",""Q03"",""Q04"",""Q08"",""Q09"",""Q10"",""Q11"",""Q12"",""Q13"",""Q14"",""Q15"",""Q16"",""Q20"",""Q19"",""Q18"",""Q17"",""Q17"",""Q06"",""Q05"",""Q07"",""Q21""]","[1544.9000000357628,1918.1000000238419,3935.300000011921,7001.300000011921,9217,10292.300000011921,10587.300000011921,11688.200000047684,12154.300000011921,13780.300000011921,14892.400000035763,15216.800000011921,15536,17564.400000035763,17895,18212.400000035763,18684.400000035763,19277.200000047684,25853.30000001192,27778.600000023842,29269,48721.200000047684]","[]","[0.20000004768371582,1544.9000000357628,1918.1000000238419,3935.300000011921,5866.400000035763,7001.300000011921,8736.600000023842,9217,10292.300000011921,10587.300000011921,11688.200000047684,12154.300000011921,13780.300000011921,14892.400000035763,15216.800000011921,15536,17564.400000035763,17895,18212.400000035763,18684.400000035763,19277.200000047684,23981,25853.30000001192,26248.900000035763,27778.600000023842,29269,33564.90000003576,48721.200000047684,51135.700000047684]","0.6190476190476191","0.35","0","","","","","","","","","","","","","","","","","","","","","","","","","","","","","",""
"12063.799999952316","","","","survey-template","19","434227","0.0-7.0-8.0","255","1","2025-07-09 10:05:31","7701e855f2ef39aa3fd6c71abdc6918a","165.16.184.166","Mozilla/5.0 (Linux; Android 10; K) AppleWebKit/537.36 (KHTML, like Gecko) Chrome/130.0.0.0 Mobile Safari/537.36","WebKit","Chrome","130.0.0.0","AndroidOS","10","https://app.prolific.com/","en-ZA,en-GB;q=0.9,en-US;q=0.8,en;q=0.7,ar;q=0.6","669bba2714caa691679bff24","686d226cabeef709c732f8e1","686e311a7e769e8118f579e2","669bba2714caa691679bff24","2025-07-09T10:12:48.759Z","","","","","","stress","{""Q01"":""2"",""Q02"":""3"",""Q03"":""1""}","[0,1,2]","[""Q01"",""Q02"",""Q03""]","[5243.299999952316,7578,8921.799999952316]","[]","[5243.299999952316,5632.199999988079,6019.299999952316,7578,8921.799999952316,12060.599999964237]","0.6666666666666666","0.5","0","","","","","","","","","","","","","","","","","","","","","","","","","","","","","",""
"95480","","","","instructions","20","529709","0.0-8.0-0.0","255","1","2025-07-09 10:05:31","7701e855f2ef39aa3fd6c71abdc6918a","165.16.184.166","Mozilla/5.0 (Linux; Android 10; K) AppleWebKit/537.36 (KHTML, like Gecko) Chrome/130.0.0.0 Mobile Safari/537.36","WebKit","Chrome","130.0.0.0","AndroidOS","10","https://app.prolific.com/","en-ZA,en-GB;q=0.9,en-US;q=0.8,en;q=0.7,ar;q=0.6","669bba2714caa691679bff24","686d226cabeef709c732f8e1","686e311a7e769e8118f579e2","669bba2714caa691679bff24","","[{""page_index"":0,""viewing_time"":28307},{""page_index"":1,""viewing_time"":25688},{""page_index"":2,""viewing_time"":12118},{""page_index"":3,""viewing_time"":29366}]","","","","","","","","","","","","","","","","","","","","","","","","","","","","","","","","","","","","","","","","","","","",""
"","","","","ctl-task-cpt","21","691538","0.0-8.0-1.0","255","1","2025-07-09 10:05:31","7701e855f2ef39aa3fd6c71abdc6918a","165.16.184.166","Mozilla/5.0 (Linux; Android 10; K) AppleWebKit/537.36 (KHTML, like Gecko) Chrome/130.0.0.0 Mobile Safari/537.36","WebKit","Chrome","130.0.0.0","AndroidOS","10","https://app.prolific.com/","en-ZA,en-GB;q=0.9,en-US;q=0.8,en;q=0.7,ar;q=0.6","669bba2714caa691679bff24","686d226cabeef709c732f8e1","686e311a7e769e8118f579e2","669bba2714caa691679bff24","","","","","","","","","","","","","","","","","win-only","3","g1:SW,g2:NE","1","0","1","533753.6","144623.7","148633.4","158774.5","2","4","4","6","2","-4","-4","0","0","0","4009.5","4000","-1960","[""up"",""right""]","{""num_key_presses"":0,""num_perfect"":0,""num_errors"":0,""num_randdir"":0,""num_randdir_good_moves"":0,""num_whilered"":0,""num_whileblue"":0,""num_blue"":1,""num_good_moves"":0}","[338.6730581972062,336.6484905489926,6,338.6730581972062,336.6484905489926,329,338.6730581972062,336.6484905489926,432.5,338.6730581972062,336.6484905489926,533.5,338.6730581972062,336.6484905489926,638.5,338.6730581972062,336.6484905489926,743.3,338.6730581972062,336.6484905489926,845.5,338.6730581972062,336.6484905489926,948.5,338.6730581972062,336.6484905489926,1053.8,338.6730581972062,336.6484905489926,1158.3,338.6730581972062,336.6484905489926,1262.8,338.6730581972062,336.6484905489926,1363.2,338.6730581972062,336.6484905489926,1464,338.6730581972062,336.6484905489926,1568.3,338.6730581972062,336.6484905489926,1668.5,338.6730581972062,336.6484905489926,1779,338.6730581972062,336.6484905489926,1891.7,338.6730581972062,336.6484905489926,1993.1,338.6730581972062,336.6484905489926,2094.6,338.6730581972062,336.6484905489926,2198.4,338.6730581972062,336.6484905489926,2311.4,338.6730581972062,336.6484905489926,2413.3,338.6730581972062,336.6484905489926,2518.6,338.6730581972062,336.6484905489926,2626.8,338.6730581972062,336.6484905489926,2728.3,338.6730581972062,336.6484905489926,2839.5,338.6730581972062,336.6484905489926,2955.1,338.6730581972062,336.6484905489926,3058.4,338.6730581972062,336.6484905489926,3164,338.6730581972062,336.6484905489926,3272.2,338.6730581972062,336.6484905489926,3374.8,338.6730581972062,336.6484905489926,3478.2,338.6730581972062,336.6484905489926,3578.3,338.6730581972062,336.6484905489926,3679.7,338.6730581972062,336.6484905489926,3783.9,338.6730581972062,336.6484905489926,3889.4,338.6730581972062,336.6484905489926,3991]","[]","","",""
"17906","","","","instructions","22","709451","0.0-8.0-2.0","255","1","2025-07-09 10:05:31","7701e855f2ef39aa3fd6c71abdc6918a","165.16.184.166","Mozilla/5.0 (Linux; Android 10; K) AppleWebKit/537.36 (KHTML, like Gecko) Chrome/130.0.0.0 Mobile Safari/537.36","WebKit","Chrome","130.0.0.0","AndroidOS","10","https://app.prolific.com/","en-ZA,en-GB;q=0.9,en-US;q=0.8,en;q=0.7,ar;q=0.6","669bba2714caa691679bff24","686d226cabeef709c732f8e1","686e311a7e769e8118f579e2","669bba2714caa691679bff24","","[{""page_index"":0,""viewing_time"":17905}]","","","","","","","","","","","","","","","","","","","","","","","","","","","","","","","","","","","","","","","","","","","",""
"","","","","ctl-task-cpt","23","756710","0.0-8.0-3.0","255","1","2025-07-09 10:05:31","7701e855f2ef39aa3fd6c71abdc6918a","165.16.184.166","Mozilla/5.0 (Linux; Android 10; K) AppleWebKit/537.36 (KHTML, like Gecko) Chrome/130.0.0.0 Mobile Safari/537.36","WebKit","Chrome","130.0.0.0","AndroidOS","10","https://app.prolific.com/","en-ZA,en-GB;q=0.9,en-US;q=0.8,en;q=0.7,ar;q=0.6","669bba2714caa691679bff24","686d226cabeef709c732f8e1","686e311a7e769e8118f579e2","669bba2714caa691679bff24","","","","","","","","","","","","","","","","","win-only","3","g1:SW,g2:NE","0.35","0","3","713481.9","9562.4","13564.3","44236.8","2","4","8","6","2","-8","-11","0","0","0","4001.8","4000","-2160","[""up"",""right""]","{""num_key_presses"":7,""num_perfect"":3,""num_errors"":3,""num_randdir"":0,""num_randdir_good_moves"":0,""num_whilered"":1,""num_whileblue"":0,""num_blue"":3,""num_good_moves"":2}","[344.74071995944377,336.6484905489926,0.6,344.74071995944377,336.6484905489926,114.7,334.6279503557145,354.85147583570523,216.4,334.6279503557145,354.85147583570523,316.8,334.6279503557145,354.85147583570523,420.1,334.6279503557145,354.85147583570523,523.7,334.6279503557145,354.85147583570523,633,334.6279503557145,354.85147583570523,734.3,334.6279503557145,354.85147583570523,842.4,334.6279503557145,354.85147583570523,944.6,334.6279503557145,354.85147583570523,1049,334.6279503557145,354.85147583570523,1152.4,334.6279503557145,354.85147583570523,1256.4,334.6279503557145,354.85147583570523,1359.2,334.6279503557145,354.85147583570523,1464.1,334.6279503557145,354.85147583570523,1567.6,334.6279503557145,354.85147583570523,1680.3,334.6279503557145,354.85147583570523,1792.6,334.6279503557145,354.85147583570523,1902.2,334.6279503557145,354.85147583570523,2004.1,334.6279503557145,354.85147583570523,2110.7,334.6279503557145,354.85147583570523,2223.9,334.6279503557145,354.85147583570523,2325.3,334.6279503557145,354.85147583570523,2433.3,334.6279503557145,354.85147583570523,2538.4,334.6279503557145,354.85147583570523,2642.5,334.6279503557145,354.85147583570523,2744.4,334.6279503557145,354.85147583570523,2852.7,334.6279503557145,354.85147583570523,2953.7,334.6279503557145,354.85147583570523,3053.7,334.6279503557145,354.85147583570523,3154.5,334.6279503557145,354.85147583570523,3263.3,334.6279503557145,354.85147583570523,3368.8,334.6279503557145,354.85147583570523,3469.3,334.6279503557145,354.85147583570523,3581.7,334.6279503557145,354.85147583570523,3685.2,334.6279503557145,354.85147583570523,3789.7,334.6279503557145,354.85147583570523,3902.4]","[183.7,183.7,1000,0,-816.3,""error"",""-"",""-"",""no_move"",631.7,447.2,1000,0,-368.3,""while_red"",""-"",""-"",""no_move"",5135.7,4951.2,2280.5,1186,1669.2,""smooth"",""left"",""left"",""bad_move"",6046.9,909.7,2469.2,5137.2,-1559.5,""error"",""-"",""-"",""no_move"",8283.7,2235.5,2323.3,7057,-1096.6,""error"",""-"",""-"",""no_move"",13235.8,4951.4,2731.5,9287,1217.3,""smooth"",""up"",""up"",""good_move"",26292.7,13055.7,2839.4,22450.2,1003.1,""smooth"",""right"",""right"",""good_move""]","","",""
"31221","","","","instructions","24","787934","0.0-8.0-4.0","255","1","2025-07-09 10:05:31","7701e855f2ef39aa3fd6c71abdc6918a","165.16.184.166","Mozilla/5.0 (Linux; Android 10; K) AppleWebKit/537.36 (KHTML, like Gecko) Chrome/130.0.0.0 Mobile Safari/537.36","WebKit","Chrome","130.0.0.0","AndroidOS","10","https://app.prolific.com/","en-ZA,en-GB;q=0.9,en-US;q=0.8,en;q=0.7,ar;q=0.6","669bba2714caa691679bff24","686d226cabeef709c732f8e1","686e311a7e769e8118f579e2","669bba2714caa691679bff24","","[{""page_index"":0,""viewing_time"":21402},{""page_index"":1,""viewing_time"":9818}]","","","","","","","","","","","","","","","","","","","","","","","","","","","","","","","","","","","","","","","","","","","",""
"19871","","","{""green_ball"":[""Ball always moves in the direction I press""]}","survey-multi-select","25","807820","0.0-8.0-5.0-0.0","255","1","2025-07-09 10:05:31","7701e855f2ef39aa3fd6c71abdc6918a","165.16.184.166","Mozilla/5.0 (Linux; Android 10; K) AppleWebKit/537.36 (KHTML, like Gecko) Chrome/130.0.0.0 Mobile Safari/537.36","WebKit","Chrome","130.0.0.0","AndroidOS","10","https://app.prolific.com/","en-ZA,en-GB;q=0.9,en-US;q=0.8,en;q=0.7,ar;q=0.6","669bba2714caa691679bff24","686d226cabeef709c732f8e1","686e311a7e769e8118f579e2","669bba2714caa691679bff24","","","[0]","","","","quiz","","","","","","","","","","","","","","","","","","","","","","","","","","","","","","","","","","","","","false","",""
"5679","","<p align='center'><b>INCORRECT.</b> Usually the green ball moves in the indicated direction, but sometimes it shakes and moves randomly. </p>","0","html-button-response","26","813505","0.0-8.0-5.0-1.0","255","1","2025-07-09 10:05:31","7701e855f2ef39aa3fd6c71abdc6918a","165.16.184.166","Mozilla/5.0 (Linux; Android 10; K) AppleWebKit/537.36 (KHTML, like Gecko) Chrome/130.0.0.0 Mobile Safari/537.36","WebKit","Chrome","130.0.0.0","AndroidOS","10","https://app.prolific.com/","en-ZA,en-GB;q=0.9,en-US;q=0.8,en;q=0.7,ar;q=0.6","669bba2714caa691679bff24","686d226cabeef709c732f8e1","686e311a7e769e8118f579e2","669bba2714caa691679bff24","","","","","","","","","","","","","","","","","","","","","","","","","","","","","","","","","","","","","","","","","","","","","",""
"15671","","","{""green_ball"":[""Ball sometimes shakes and moves in a random direction""]}","survey-multi-select","27","829186","0.0-8.0-5.1-0.1","255","1","2025-07-09 10:05:31","7701e855f2ef39aa3fd6c71abdc6918a","165.16.184.166","Mozilla/5.0 (Linux; Android 10; K) AppleWebKit/537.36 (KHTML, like Gecko) Chrome/130.0.0.0 Mobile Safari/537.36","WebKit","Chrome","130.0.0.0","AndroidOS","10","https://app.prolific.com/","en-ZA,en-GB;q=0.9,en-US;q=0.8,en;q=0.7,ar;q=0.6","669bba2714caa691679bff24","686d226cabeef709c732f8e1","686e311a7e769e8118f579e2","669bba2714caa691679bff24","","","[0]","","","","quiz","","","","","","","","","","","","","","","","","","","","","","","","","","","","","","","","","","","","","true","",""
"3125","","<p align='center'><b>CORRECT!</b> Indeed, the green ball may sometimes shake and move in a random direction.</p>","0","html-button-response","28","832314","0.0-8.0-5.1-1.1","255","1","2025-07-09 10:05:31","7701e855f2ef39aa3fd6c71abdc6918a","165.16.184.166","Mozilla/5.0 (Linux; Android 10; K) AppleWebKit/537.36 (KHTML, like Gecko) Chrome/130.0.0.0 Mobile Safari/537.36","WebKit","Chrome","130.0.0.0","AndroidOS","10","https://app.prolific.com/","en-ZA,en-GB;q=0.9,en-US;q=0.8,en;q=0.7,ar;q=0.6","669bba2714caa691679bff24","686d226cabeef709c732f8e1","686e311a7e769e8118f579e2","669bba2714caa691679bff24","","","","","","","","","","","","","","","","","","","","","","","","","","","","","","","","","","","","","","","","","","","","","",""
"61145","","","{""yellow_ball"":[""Ball doesn‘t move and I get -1 penalty point""]}","survey-multi-select","29","893466","0.0-8.0-6.0-0.0","255","1","2025-07-09 10:05:31","7701e855f2ef39aa3fd6c71abdc6918a","165.16.184.166","Mozilla/5.0 (Linux; Android 10; K) AppleWebKit/537.36 (KHTML, like Gecko) Chrome/130.0.0.0 Mobile Safari/537.36","WebKit","Chrome","130.0.0.0","AndroidOS","10","https://app.prolific.com/","en-ZA,en-GB;q=0.9,en-US;q=0.8,en;q=0.7,ar;q=0.6","669bba2714caa691679bff24","686d226cabeef709c732f8e1","686e311a7e769e8118f579e2","669bba2714caa691679bff24","","","[0]","","","","quiz","","","","","","","","","","","","","","","","","","","","","","","","","","","","","","","","","","","","","true","",""
"1504","","<p align='center'><b>CORRECT!</b> Indeed, the yellow ball never moves and you receive a penalty.</p>","0","html-button-response","30","894975","0.0-8.0-6.0-1.0","255","1","2025-07-09 10:05:31","7701e855f2ef39aa3fd6c71abdc6918a","165.16.184.166","Mozilla/5.0 (Linux; Android 10; K) AppleWebKit/537.36 (KHTML, like Gecko) Chrome/130.0.0.0 Mobile Safari/537.36","WebKit","Chrome","130.0.0.0","AndroidOS","10","https://app.prolific.com/","en-ZA,en-GB;q=0.9,en-US;q=0.8,en;q=0.7,ar;q=0.6","669bba2714caa691679bff24","686d226cabeef709c732f8e1","686e311a7e769e8118f579e2","669bba2714caa691679bff24","","","","","","","","","","","","","","","","","","","","","","","","","","","","","","","","","","","","","","","","","","","","","",""
"12017","","","{""blue_ball"":[""Ball always shakes and moves in a random direction""]}","survey-multi-select","31","907000","0.0-8.0-7.0-0.0","255","1","2025-07-09 10:05:31","7701e855f2ef39aa3fd6c71abdc6918a","165.16.184.166","Mozilla/5.0 (Linux; Android 10; K) AppleWebKit/537.36 (KHTML, like Gecko) Chrome/130.0.0.0 Mobile Safari/537.36","WebKit","Chrome","130.0.0.0","AndroidOS","10","https://app.prolific.com/","en-ZA,en-GB;q=0.9,en-US;q=0.8,en;q=0.7,ar;q=0.6","669bba2714caa691679bff24","686d226cabeef709c732f8e1","686e311a7e769e8118f579e2","669bba2714caa691679bff24","","","[0]","","","","quiz","","","","","","","","","","","","","","","","","","","","","","","","","","","","","","","","","","","","","true","",""
"1447","","<p align='center'><b>CORRECT!</b> Indeed, the blue ball always shakes and moves in a random direction. Also there is a penalty of -1 point.</p>","0","html-button-response","32","908450","0.0-8.0-7.0-1.0","255","1","2025-07-09 10:05:31","7701e855f2ef39aa3fd6c71abdc6918a","165.16.184.166","Mozilla/5.0 (Linux; Android 10; K) AppleWebKit/537.36 (KHTML, like Gecko) Chrome/130.0.0.0 Mobile Safari/537.36","WebKit","Chrome","130.0.0.0","AndroidOS","10","https://app.prolific.com/","en-ZA,en-GB;q=0.9,en-US;q=0.8,en;q=0.7,ar;q=0.6","669bba2714caa691679bff24","686d226cabeef709c732f8e1","686e311a7e769e8118f579e2","669bba2714caa691679bff24","","","","","","","","","","","","","","","","","","","","","","","","","","","","","","","","","","","","","","","","","","","","","",""
"7074","","","{""bonus"":[""When I reach 50% of points""]}","survey-multi-select","33","915532","0.0-8.0-8.0-0.0","255","1","2025-07-09 10:05:31","7701e855f2ef39aa3fd6c71abdc6918a","165.16.184.166","Mozilla/5.0 (Linux; Android 10; K) AppleWebKit/537.36 (KHTML, like Gecko) Chrome/130.0.0.0 Mobile Safari/537.36","WebKit","Chrome","130.0.0.0","AndroidOS","10","https://app.prolific.com/","en-ZA,en-GB;q=0.9,en-US;q=0.8,en;q=0.7,ar;q=0.6","669bba2714caa691679bff24","686d226cabeef709c732f8e1","686e311a7e769e8118f579e2","669bba2714caa691679bff24","","","[0]","","","","quiz","","","","","","","","","","","","","","","","","","","","","","","","","","","","","","","","","","","","","true","",""
"1436","","<p align='center'><b>CORRECT!</b> Indeed, you receive 2 pounds extra when you reach 50% of points.</p>","0","html-button-response","34","916973","0.0-8.0-8.0-1.0","255","1","2025-07-09 10:05:31","7701e855f2ef39aa3fd6c71abdc6918a","165.16.184.166","Mozilla/5.0 (Linux; Android 10; K) AppleWebKit/537.36 (KHTML, like Gecko) Chrome/130.0.0.0 Mobile Safari/537.36","WebKit","Chrome","130.0.0.0","AndroidOS","10","https://app.prolific.com/","en-ZA,en-GB;q=0.9,en-US;q=0.8,en;q=0.7,ar;q=0.6","669bba2714caa691679bff24","686d226cabeef709c732f8e1","686e311a7e769e8118f579e2","669bba2714caa691679bff24","","","","","","","","","","","","","","","","","","","","","","","","","","","","","","","","","","","","","","","","","","","","","",""
"27568","","","","instructions","35","944543","0.0-8.0-9.0","255","1","2025-07-09 10:05:31","7701e855f2ef39aa3fd6c71abdc6918a","165.16.184.166","Mozilla/5.0 (Linux; Android 10; K) AppleWebKit/537.36 (KHTML, like Gecko) Chrome/130.0.0.0 Mobile Safari/537.36","WebKit","Chrome","130.0.0.0","AndroidOS","10","https://app.prolific.com/","en-ZA,en-GB;q=0.9,en-US;q=0.8,en;q=0.7,ar;q=0.6","669bba2714caa691679bff24","686d226cabeef709c732f8e1","686e311a7e769e8118f579e2","669bba2714caa691679bff24","","[{""page_index"":0,""viewing_time"":27568}]","","","","","","","","","","","","","","","","","","","","","","","","","","","","","","","","","","","","","","","","","","","",""
"44641","","<p>Before you start with this game please answer the following three questions yourself. </p>
  <p>Through this game, we measure several aspects of your cognitive performance, such as reaction times, multi-tasking capabilities </p>
  <p>and the ability to assess the situation you are in.</p>
  <p></p>
  <p><b>How good do you usually are in such tasks?</b></p>","75","html-slider-response","36","989191","0.0-9.0-0.0","255","1","2025-07-09 10:05:31","7701e855f2ef39aa3fd6c71abdc6918a","165.16.184.166","Mozilla/5.0 (Linux; Android 10; K) AppleWebKit/537.36 (KHTML, like Gecko) Chrome/130.0.0.0 Mobile Safari/537.36","WebKit","Chrome","130.0.0.0","AndroidOS","10","https://app.prolific.com/","en-ZA,en-GB;q=0.9,en-US;q=0.8,en;q=0.7,ar;q=0.6","669bba2714caa691679bff24","686d226cabeef709c732f8e1","686e311a7e769e8118f579e2","669bba2714caa691679bff24","2025-07-09T10:22:03.723Z","","","","","","PreSkillQ","","","","","","","","","","","","","","","","","","","","","","","","","","","","","","","","","","","","","","50",""
"4487","","<div style=""width:500px;"">
  <p>How well do you think you will perform in this task compared to other participants?</p>
  </div>","71","html-slider-response","37","993682","0.0-9.0-1.0","255","1","2025-07-09 10:05:31","7701e855f2ef39aa3fd6c71abdc6918a","165.16.184.166","Mozilla/5.0 (Linux; Android 10; K) AppleWebKit/537.36 (KHTML, like Gecko) Chrome/130.0.0.0 Mobile Safari/537.36","WebKit","Chrome","130.0.0.0","AndroidOS","10","https://app.prolific.com/","en-ZA,en-GB;q=0.9,en-US;q=0.8,en;q=0.7,ar;q=0.6","669bba2714caa691679bff24","686d226cabeef709c732f8e1","686e311a7e769e8118f579e2","669bba2714caa691679bff24","2025-07-09T10:22:08.214Z","","","","","","PrePerfQ","","","","","","","","","","","","","","","","","","","","","","","","","","","","","","","","","","","","","","50",""
"6796","","<div style=""width:500px;"">
  <p>What best describes how you currently feel?</p>
  </div>","61","html-slider-response","38","1000482","0.0-9.0-2.0","255","1","2025-07-09 10:05:31","7701e855f2ef39aa3fd6c71abdc6918a","165.16.184.166","Mozilla/5.0 (Linux; Android 10; K) AppleWebKit/537.36 (KHTML, like Gecko) Chrome/130.0.0.0 Mobile Safari/537.36","WebKit","Chrome","130.0.0.0","AndroidOS","10","https://app.prolific.com/","en-ZA,en-GB;q=0.9,en-US;q=0.8,en;q=0.7,ar;q=0.6","669bba2714caa691679bff24","686d226cabeef709c732f8e1","686e311a7e769e8118f579e2","669bba2714caa691679bff24","2025-07-09T10:22:15.014Z","","","","","","PreMotivationQ","","","","","","","","","","","","","","","","","","","","","","","","","","","","","","","","","","","","","","50",""
"","","","","ctl-task-cpt","39","1062382","0.0-10.0-0.0","255","1","2025-07-09 10:05:31","7701e855f2ef39aa3fd6c71abdc6918a","165.16.184.166","Mozilla/5.0 (Linux; Android 10; K) AppleWebKit/537.36 (KHTML, like Gecko) Chrome/130.0.0.0 Mobile Safari/537.36","WebKit","Chrome","130.0.0.0","AndroidOS","10","https://app.prolific.com/","en-ZA,en-GB;q=0.9,en-US;q=0.8,en;q=0.7,ar;q=0.6","669bba2714caa691679bff24","686d226cabeef709c732f8e1","686e311a7e769e8118f579e2","669bba2714caa691679bff24","2025-07-09T10:23:16.914Z","","","","","","","","","","","","","","","","win-only","1","g1:NE,g2:SW","1","1","0","1004511.4","20297.8","25312.2","58868.6","1","4","8","6","1","-1","-3","0","0","0","5014.3","3000","-2020","[""up"",""right""]","{""num_key_presses"":7,""num_perfect"":5,""num_errors"":2,""num_randdir"":0,""num_randdir_good_moves"":0,""num_whilered"":0,""num_whileblue"":0,""num_blue"":4,""num_good_moves"":4}","[344.74071995944377,338.67104446973843,0.9,344.74071995944377,338.67104446973843,111.8,344.74071995944377,338.67104446973843,215.6,344.74071995944377,338.67104446973843,323.1,344.74071995944377,338.67104446973843,424.1,344.74071995944377,338.67104446973843,528.5,344.74071995944377,338.67104446973843,633.2,344.74071995944377,338.67104446973843,733.5,344.74071995944377,338.67104446973843,838.5,344.74071995944377,338.67104446973843,938.7,344.74071995944377,338.67104446973843,1038.7,344.74071995944377,338.67104446973843,1138.9,344.74071995944377,338.67104446973843,1243.5,344.74071995944377,338.67104446973843,1348.8,344.74071995944377,338.67104446973843,1453.4,344.74071995944377,338.67104446973843,1553.5,344.74071995944377,338.67104446973843,1654.6,344.74071995944377,338.67104446973843,1758.5,344.74071995944377,338.67104446973843,1858.6,344.74071995944377,338.67104446973843,1973.1,344.74071995944377,338.67104446973843,2084.5,344.74071995944377,338.67104446973843,2184.9,344.74071995944377,338.67104446973843,2304.9,344.74071995944377,338.67104446973843,2408.6,344.74071995944377,338.67104446973843,2513.4,344.74071995944377,338.67104446973843,2616.7,344.74071995944377,338.67104446973843,2718.3,344.74071995944377,338.67104446973843,2826.8,344.74071995944377,338.67104446973843,2928.5,344.74071995944377,338.67104446973843,3042.1,344.74071995944377,338.67104446973843,3143.3,344.74071995944377,338.67104446973843,3243.5,344.74071995944377,338.67104446973843,3365.1,344.74071995944377,338.67104446973843,3468.6,344.74071995944377,338.67104446973843,3574,344.74071995944377,338.67104446973843,3680.6,344.74071995944377,338.67104446973843,3783.3,344.74071995944377,338.67104446973843,3884.1,344.74071995944377,338.67104446973843,3984.2,344.74071995944377,338.67104446973843,4084.6,344.74071995944377,338.67104446973843,4188.6,344.74071995944377,338.67104446973843,4295.5,344.74071995944377,338.67104446973843,4398.6,344.74071995944377,338.67104446973843,4511.7,344.74071995944377,338.67104446973843,4618,344.74071995944377,338.67104446973843,4718.7,344.74071995944377,338.67104446973843,4818.8,344.74071995944377,338.67104446973843,4923.4]","[1612.3,1612.4,1000,0,612.4,""smooth"",""down"",""down"",""bad_move"",5212.3,3598.6,2270.6,1613.9,1327.8,""smooth"",""right"",""right"",""good_move"",11060,5846.1,2325.7,8205.8,528.5,""smooth"",""up"",""up"",""good_move"",14214.1,3153.1,2733.1,14190.8,-2709.8,""error"",""-"",""-"",""no_move"",18712.9,4497.2,2657.8,15219.2,835.9,""smooth"",""up"",""up"",""good_move"",19164.9,451.5,2217.8,18713.4,-1766.3,""error"",""-"",""-"",""no_move"",31307.8,12142.2,2812.4,27271,1224.4,""smooth"",""right"",""right"",""good_move""]","","",""
"6733","","<div style=""width:500px;"">
  <p>What determined the result of this run?</p>
  </div>","24","html-slider-response","40","1069121","0.0-10.0-1.0","255","1","2025-07-09 10:05:31","7701e855f2ef39aa3fd6c71abdc6918a","165.16.184.166","Mozilla/5.0 (Linux; Android 10; K) AppleWebKit/537.36 (KHTML, like Gecko) Chrome/130.0.0.0 Mobile Safari/537.36","WebKit","Chrome","130.0.0.0","AndroidOS","10","https://app.prolific.com/","en-ZA,en-GB;q=0.9,en-US;q=0.8,en;q=0.7,ar;q=0.6","669bba2714caa691679bff24","686d226cabeef709c732f8e1","686e311a7e769e8118f579e2","669bba2714caa691679bff24","2025-07-09T10:23:23.653Z","","","","","","AttribQ","","","","","","","","","","","","","","","","","","","","","","","","","","","","","","","","","","","","","","50",""
"6335","","<div style=""width:500px;"">
  <p>How much control did you have over the ball?</p>
  </div>","71","html-slider-response","41","1075459","0.0-10.0-2.0","255","1","2025-07-09 10:05:31","7701e855f2ef39aa3fd6c71abdc6918a","165.16.184.166","Mozilla/5.0 (Linux; Android 10; K) AppleWebKit/537.36 (KHTML, like Gecko) Chrome/130.0.0.0 Mobile Safari/537.36","WebKit","Chrome","130.0.0.0","AndroidOS","10","https://app.prolific.com/","en-ZA,en-GB;q=0.9,en-US;q=0.8,en;q=0.7,ar;q=0.6","669bba2714caa691679bff24","686d226cabeef709c732f8e1","686e311a7e769e8118f579e2","669bba2714caa691679bff24","2025-07-09T10:23:29.992Z","","","","","","ControlQ","","","","","","","","","","","","","","","","","","","","","","","","","","","","","","","","","","","","","","50",""
"2944","","<div style=""width:500px;"">
  <p>How would you describe your current emotional state?</p>
  </div>","70","html-slider-response","42","1078407","0.0-10.0-3.0","255","1","2025-07-09 10:05:31","7701e855f2ef39aa3fd6c71abdc6918a","165.16.184.166","Mozilla/5.0 (Linux; Android 10; K) AppleWebKit/537.36 (KHTML, like Gecko) Chrome/130.0.0.0 Mobile Safari/537.36","WebKit","Chrome","130.0.0.0","AndroidOS","10","https://app.prolific.com/","en-ZA,en-GB;q=0.9,en-US;q=0.8,en;q=0.7,ar;q=0.6","669bba2714caa691679bff24","686d226cabeef709c732f8e1","686e311a7e769e8118f579e2","669bba2714caa691679bff24","2025-07-09T10:23:32.939Z","","","","","","StressQ","","","","","","","","","","","","","","","","","","","","","","","","","","","","","","","","","","","","","","50",""
"8226","","<div style=""width:500px;"">
  <p>What best describes how you currently feel?</p>
  </div>","67","html-slider-response","43","1086637","0.0-10.0-4.0","255","1","2025-07-09 10:05:31","7701e855f2ef39aa3fd6c71abdc6918a","165.16.184.166","Mozilla/5.0 (Linux; Android 10; K) AppleWebKit/537.36 (KHTML, like Gecko) Chrome/130.0.0.0 Mobile Safari/537.36","WebKit","Chrome","130.0.0.0","AndroidOS","10","https://app.prolific.com/","en-ZA,en-GB;q=0.9,en-US;q=0.8,en;q=0.7,ar;q=0.6","669bba2714caa691679bff24","686d226cabeef709c732f8e1","686e311a7e769e8118f579e2","669bba2714caa691679bff24","2025-07-09T10:23:41.169Z","","","","","","MotivationQ","","","","","","","","","","","","","","","","","","","","","","","","","","","","","","","","","","","","","","50",""
"","","","","ctl-task-cpt","44","1112906","0.0-10.0-0.1","255","1","2025-07-09 10:05:31","7701e855f2ef39aa3fd6c71abdc6918a","165.16.184.166","Mozilla/5.0 (Linux; Android 10; K) AppleWebKit/537.36 (KHTML, like Gecko) Chrome/130.0.0.0 Mobile Safari/537.36","WebKit","Chrome","130.0.0.0","AndroidOS","10","https://app.prolific.com/","en-ZA,en-GB;q=0.9,en-US;q=0.8,en;q=0.7,ar;q=0.6","669bba2714caa691679bff24","686d226cabeef709c732f8e1","686e311a7e769e8118f579e2","669bba2714caa691679bff24","2025-07-09T10:24:07.438Z","","","","","","","","","","","","","","","","win-only","3","g1:SW,g2:NE","0.9","2","0","1090665.6","6016.7","11029.4","23253.7","1","4","4","6","1","1","1","1","0","0.007575757575757576","5012.7","3000","1285","[""down"",""left""]","{""num_key_presses"":4,""num_perfect"":4,""num_errors"":0,""num_randdir"":0,""num_randdir_good_moves"":0,""num_whilered"":0,""num_whileblue"":0,""num_blue"":0,""num_good_moves"":4}","[330.5828425142228,330.58082878675503,0.9,330.5828425142228,330.58082878675503,113.9,330.5828425142228,330.58082878675503,215.1,330.5828425142228,330.58082878675503,329.6,330.5828425142228,330.58082878675503,446.6,330.5828425142228,330.58082878675503,549.2,330.5828425142228,330.58082878675503,651.6,330.5828425142228,330.58082878675503,774.6,330.5828425142228,330.58082878675503,884.2,330.5828425142228,330.58082878675503,987.8,330.5828425142228,330.58082878675503,1093.2,330.5828425142228,330.58082878675503,1194.4,330.5828425142228,330.58082878675503,1296.4,330.5828425142228,330.58082878675503,1404.4,330.5828425142228,330.58082878675503,1520.9,330.5828425142228,330.58082878675503,1627.7,330.5828425142228,330.58082878675503,1730.1,330.5828425142228,330.58082878675503,1830.3,330.5828425142228,330.58082878675503,1933.6,330.5828425142228,330.58082878675503,2037.1,330.5828425142228,330.58082878675503,2140.4,330.5828425142228,330.58082878675503,2244.5,330.5828425142228,330.58082878675503,2364.9,330.5828425142228,330.58082878675503,2473.7,330.5828425142228,330.58082878675503,2576.1,330.5828425142228,330.58082878675503,2679.3,330.5828425142228,330.58082878675503,2787.7,330.5828425142228,330.58082878675503,2889.9,330.5828425142228,330.58082878675503,2992.8,330.5828425142228,330.58082878675503,3094.2,330.5828425142228,330.58082878675503,3194.7,330.5828425142228,330.58082878675503,3314.3,330.5828425142228,330.58082878675503,3414.6,330.5828425142228,330.58082878675503,3516.3,330.5828425142228,330.58082878675503,3623.3,330.5828425142228,330.58082878675503,3724.5,330.5828425142228,330.58082878675503,3824.6,330.5828425142228,330.58082878675503,3926.4,330.5828425142228,330.58082878675503,4030.3,330.5828425142228,330.58082878675503,4146.6,330.5828425142228,330.58082878675503,4249.9,330.5828425142228,330.58082878675503,4350.1,330.5828425142228,330.58082878675503,4468.9,330.5828425142228,330.58082878675503,4582.6,330.5828425142228,330.58082878675503,4686.6,330.5828425142228,330.58082878675503,4789.3,330.5828425142228,330.58082878675503,4889.7,330.5828425142228,330.58082878675503,4990.9]","[1741.2,1741.2,1000,0,741.2,""smooth"",""down"",""down"",""good_move"",4889.7,3147.4,2294.1,1742.3,853.3,""smooth"",""left"",""left"",""good_move"",8040.1,3148.1,2487.2,4892,660.9,""smooth"",""down"",""down"",""good_move"",12092.1,4051.4,3413.8,8040.7,637.6,""smooth"",""left"",""left"",""good_move""]","","",""
"4358","","<div style=""width:500px;"">
  <p>What determined the result of this run?</p>
  </div>","72","html-slider-response","45","1117268","0.0-10.0-1.1","255","1","2025-07-09 10:05:31","7701e855f2ef39aa3fd6c71abdc6918a","165.16.184.166","Mozilla/5.0 (Linux; Android 10; K) AppleWebKit/537.36 (KHTML, like Gecko) Chrome/130.0.0.0 Mobile Safari/537.36","WebKit","Chrome","130.0.0.0","AndroidOS","10","https://app.prolific.com/","en-ZA,en-GB;q=0.9,en-US;q=0.8,en;q=0.7,ar;q=0.6","669bba2714caa691679bff24","686d226cabeef709c732f8e1","686e311a7e769e8118f579e2","669bba2714caa691679bff24","2025-07-09T10:24:11.800Z","","","","","","AttribQ","","","","","","","","","","","","","","","","","","","","","","","","","","","","","","","","","","","","","","50",""
"2003","","<div style=""width:500px;"">
  <p>How much control did you have over the ball?</p>
  </div>","64","html-slider-response","46","1119274","0.0-10.0-2.1","255","1","2025-07-09 10:05:31","7701e855f2ef39aa3fd6c71abdc6918a","165.16.184.166","Mozilla/5.0 (Linux; Android 10; K) AppleWebKit/537.36 (KHTML, like Gecko) Chrome/130.0.0.0 Mobile Safari/537.36","WebKit","Chrome","130.0.0.0","AndroidOS","10","https://app.prolific.com/","en-ZA,en-GB;q=0.9,en-US;q=0.8,en;q=0.7,ar;q=0.6","669bba2714caa691679bff24","686d226cabeef709c732f8e1","686e311a7e769e8118f579e2","669bba2714caa691679bff24","2025-07-09T10:24:13.807Z","","","","","","ControlQ","","","","","","","","","","","","","","","","","","","","","","","","","","","","","","","","","","","","","","50",""
"5837","","<div style=""width:500px;"">
  <p>How would you describe your current emotional state?</p>
  </div>","60","html-slider-response","47","1125115","0.0-10.0-3.1","255","1","2025-07-09 10:05:31","7701e855f2ef39aa3fd6c71abdc6918a","165.16.184.166","Mozilla/5.0 (Linux; Android 10; K) AppleWebKit/537.36 (KHTML, like Gecko) Chrome/130.0.0.0 Mobile Safari/537.36","WebKit","Chrome","130.0.0.0","AndroidOS","10","https://app.prolific.com/","en-ZA,en-GB;q=0.9,en-US;q=0.8,en;q=0.7,ar;q=0.6","669bba2714caa691679bff24","686d226cabeef709c732f8e1","686e311a7e769e8118f579e2","669bba2714caa691679bff24","2025-07-09T10:24:19.647Z","","","","","","StressQ","","","","","","","","","","","","","","","","","","","","","","","","","","","","","","","","","","","","","","50",""
"7143","","<div style=""width:500px;"">
  <p>What best describes how you currently feel?</p>
  </div>","70","html-slider-response","48","1132261","0.0-10.0-4.1","255","1","2025-07-09 10:05:31","7701e855f2ef39aa3fd6c71abdc6918a","165.16.184.166","Mozilla/5.0 (Linux; Android 10; K) AppleWebKit/537.36 (KHTML, like Gecko) Chrome/130.0.0.0 Mobile Safari/537.36","WebKit","Chrome","130.0.0.0","AndroidOS","10","https://app.prolific.com/","en-ZA,en-GB;q=0.9,en-US;q=0.8,en;q=0.7,ar;q=0.6","669bba2714caa691679bff24","686d226cabeef709c732f8e1","686e311a7e769e8118f579e2","669bba2714caa691679bff24","2025-07-09T10:24:26.793Z","","","","","","MotivationQ","","","","","","","","","","","","","","","","","","","","","","","","","","","","","","","","","","","","","","50",""
"","","","","ctl-task-cpt","49","1183561","0.0-10.0-0.2","255","1","2025-07-09 10:05:31","7701e855f2ef39aa3fd6c71abdc6918a","165.16.184.166","Mozilla/5.0 (Linux; Android 10; K) AppleWebKit/537.36 (KHTML, like Gecko) Chrome/130.0.0.0 Mobile Safari/537.36","WebKit","Chrome","130.0.0.0","AndroidOS","10","https://app.prolific.com/","en-ZA,en-GB;q=0.9,en-US;q=0.8,en;q=0.7,ar;q=0.6","669bba2714caa691679bff24","686d226cabeef709c732f8e1","686e311a7e769e8118f579e2","669bba2714caa691679bff24","2025-07-09T10:25:18.094Z","","","","","","","","","","","","","","","","win-only","3","g1:SW,g2:NE","0.8","3","0","1136290.3","23310.5","28312.3","48277.9","1","4","8","6","1","1","1","2","1","0.015151515151515152","5001.8","3000","1230","[""down"",""left""]","{""num_key_presses"":4,""num_perfect"":3,""num_errors"":0,""num_randdir"":1,""num_randdir_good_moves"":1,""num_whilered"":0,""num_whileblue"":0,""num_blue"":2,""num_good_moves"":4}","[342.7181660386979,342.71615231123013,0.6,342.7181660386979,342.71615231123013,101.4,342.7181660386979,342.71615231123013,213.7,342.7181660386979,342.71615231123013,313.9,342.7181660386979,342.71615231123013,417.6,342.7181660386979,342.71615231123013,518.4,342.7181660386979,342.71615231123013,631.7,342.7181660386979,342.71615231123013,733.9,342.7181660386979,342.71615231123013,835.7,342.7181660386979,342.71615231123013,938.8,342.7181660386979,342.71615231123013,1040.6,342.7181660386979,342.71615231123013,1153.6,342.7181660386979,342.71615231123013,1261.4,342.7181660386979,342.71615231123013,1367.7,342.7181660386979,342.71615231123013,1472.6,342.7181660386979,342.71615231123013,1575,342.7181660386979,342.71615231123013,1675.4,342.7181660386979,342.71615231123013,1787.3,342.7181660386979,342.71615231123013,1907.4,342.7181660386979,342.71615231123013,2030.6,342.7181660386979,342.71615231123013,2130.6,342.7181660386979,342.71615231123013,2241.4,342.7181660386979,342.71615231123013,2350.9,342.7181660386979,342.71615231123013,2467.6,342.7181660386979,342.71615231123013,2586.4,342.7181660386979,342.71615231123013,2691.1,342.7181660386979,342.71615231123013,2792.9,342.7181660386979,342.71615231123013,2896,342.7181660386979,342.71615231123013,2996.5,342.7181660386979,342.71615231123013,3098.8,342.7181660386979,342.71615231123013,3198.8,342.7181660386979,342.71615231123013,3320.1,342.7181660386979,342.71615231123013,3422.4,342.7181660386979,342.71615231123013,3535.3,342.7181660386979,342.71615231123013,3636.7,342.7181660386979,342.71615231123013,3742.3,342.7181660386979,342.71615231123013,3860.7,342.7181660386979,342.71615231123013,3961.3,342.7181660386979,342.71615231123013,4061.4,342.7181660386979,342.71615231123013,4164.3,342.7181660386979,342.71615231123013,4283.1,342.7181660386979,342.71615231123013,4384.3,342.7181660386979,342.71615231123013,4500.1,342.7181660386979,342.71615231123013,4616.2,342.7181660386979,342.71615231123013,4720.4,342.7181660386979,342.71615231123013,4823.3,342.7181660386979,342.71615231123013,4924.9]","[1830.7,1830.7,1000,0,830.7,""smooth"",""down"",""down"",""good_move"",5433,3601.3,2746.4,1831.7,854.9,""oops"",""left"",""down"",""good_move"",9031.2,3596.3,2809.8,5434.9,786.6,""smooth"",""left"",""left"",""good_move"",19829.5,10797.3,2437.8,16726.2,665.5,""smooth"",""left"",""left"",""good_move""]","","",""
"3694","","<div style=""width:500px;"">
  <p>What determined the result of this run?</p>
  </div>","66","html-slider-response","50","1187259","0.0-10.0-1.2","255","1","2025-07-09 10:05:31","7701e855f2ef39aa3fd6c71abdc6918a","165.16.184.166","Mozilla/5.0 (Linux; Android 10; K) AppleWebKit/537.36 (KHTML, like Gecko) Chrome/130.0.0.0 Mobile Safari/537.36","WebKit","Chrome","130.0.0.0","AndroidOS","10","https://app.prolific.com/","en-ZA,en-GB;q=0.9,en-US;q=0.8,en;q=0.7,ar;q=0.6","669bba2714caa691679bff24","686d226cabeef709c732f8e1","686e311a7e769e8118f579e2","669bba2714caa691679bff24","2025-07-09T10:25:21.791Z","","","","","","AttribQ","","","","","","","","","","","","","","","","","","","","","","","","","","","","","","","","","","","","","","50",""
"6579","","<div style=""width:500px;"">
  <p>How much control did you have over the ball?</p>
  </div>","73","html-slider-response","51","1193841","0.0-10.0-2.2","255","1","2025-07-09 10:05:31","7701e855f2ef39aa3fd6c71abdc6918a","165.16.184.166","Mozilla/5.0 (Linux; Android 10; K) AppleWebKit/537.36 (KHTML, like Gecko) Chrome/130.0.0.0 Mobile Safari/537.36","WebKit","Chrome","130.0.0.0","AndroidOS","10","https://app.prolific.com/","en-ZA,en-GB;q=0.9,en-US;q=0.8,en;q=0.7,ar;q=0.6","669bba2714caa691679bff24","686d226cabeef709c732f8e1","686e311a7e769e8118f579e2","669bba2714caa691679bff24","2025-07-09T10:25:28.373Z","","","","","","ControlQ","","","","","","","","","","","","","","","","","","","","","","","","","","","","","","","","","","","","","","50",""
"8676","","<div style=""width:500px;"">
  <p>How would you describe your current emotional state?</p>
  </div>","55","html-slider-response","52","1202519","0.0-10.0-3.2","255","1","2025-07-09 10:05:31","7701e855f2ef39aa3fd6c71abdc6918a","165.16.184.166","Mozilla/5.0 (Linux; Android 10; K) AppleWebKit/537.36 (KHTML, like Gecko) Chrome/130.0.0.0 Mobile Safari/537.36","WebKit","Chrome","130.0.0.0","AndroidOS","10","https://app.prolific.com/","en-ZA,en-GB;q=0.9,en-US;q=0.8,en;q=0.7,ar;q=0.6","669bba2714caa691679bff24","686d226cabeef709c732f8e1","686e311a7e769e8118f579e2","669bba2714caa691679bff24","2025-07-09T10:25:37.051Z","","","","","","StressQ","","","","","","","","","","","","","","","","","","","","","","","","","","","","","","","","","","","","","","50",""
"5423","","<div style=""width:500px;"">
  <p>What best describes how you currently feel?</p>
  </div>","64","html-slider-response","53","1207946","0.0-10.0-4.2","255","1","2025-07-09 10:05:31","7701e855f2ef39aa3fd6c71abdc6918a","165.16.184.166","Mozilla/5.0 (Linux; Android 10; K) AppleWebKit/537.36 (KHTML, like Gecko) Chrome/130.0.0.0 Mobile Safari/537.36","WebKit","Chrome","130.0.0.0","AndroidOS","10","https://app.prolific.com/","en-ZA,en-GB;q=0.9,en-US;q=0.8,en;q=0.7,ar;q=0.6","669bba2714caa691679bff24","686d226cabeef709c732f8e1","686e311a7e769e8118f579e2","669bba2714caa691679bff24","2025-07-09T10:25:42.478Z","","","","","","MotivationQ","","","","","","","","","","","","","","","","","","","","","","","","","","","","","","","","","","","","","","50",""
"","","","","ctl-task-cpt","54","1236686","0.0-10.0-0.3","255","1","2025-07-09 10:05:31","7701e855f2ef39aa3fd6c71abdc6918a","165.16.184.166","Mozilla/5.0 (Linux; Android 10; K) AppleWebKit/537.36 (KHTML, like Gecko) Chrome/130.0.0.0 Mobile Safari/537.36","WebKit","Chrome","130.0.0.0","AndroidOS","10","https://app.prolific.com/","en-ZA,en-GB;q=0.9,en-US;q=0.8,en;q=0.7,ar;q=0.6","669bba2714caa691679bff24","686d226cabeef709c732f8e1","686e311a7e769e8118f579e2","669bba2714caa691679bff24","2025-07-09T10:26:11.219Z","","","","","","","","","","","","","","","","win-only","3","g1:SW,g2:NE","0.7","4","0","1211973.8","8271.1","13278","25727.6","1","4","4","6","1","1","1","3","2","0.022727272727272728","5006.9","3000","1215","[""down"",""left""]","{""num_key_presses"":4,""num_perfect"":4,""num_errors"":0,""num_randdir"":0,""num_randdir_good_moves"":0,""num_whilered"":0,""num_whileblue"":0,""num_blue"":0,""num_good_moves"":4}","[332.60539643496867,340.6935983904843,1.1,332.60539643496867,340.6935983904843,107.7,332.60539643496867,340.6935983904843,210.4,332.60539643496867,340.6935983904843,318.1,332.60539643496867,340.6935983904843,424.6,332.60539643496867,340.6935983904843,539,332.60539643496867,340.6935983904843,642.3,332.60539643496867,340.6935983904843,750.3,332.60539643496867,340.6935983904843,856.2,332.60539643496867,340.6935983904843,960.2,332.60539643496867,340.6935983904843,1076.6,332.60539643496867,340.6935983904843,1193,332.60539643496867,340.6935983904843,1313.8,332.60539643496867,340.6935983904843,1420.5,332.60539643496867,340.6935983904843,1526.6,332.60539643496867,340.6935983904843,1637.8,332.60539643496867,340.6935983904843,1738.6,332.60539643496867,340.6935983904843,1844.4,332.60539643496867,340.6935983904843,1945.5,332.60539643496867,340.6935983904843,2052.6,332.60539643496867,340.6935983904843,2158.3,332.60539643496867,340.6935983904843,2263.1,332.60539643496867,340.6935983904843,2364.5,332.60539643496867,340.6935983904843,2469.1,332.60539643496867,340.6935983904843,2575.7,332.60539643496867,340.6935983904843,2680.4,332.60539643496867,340.6935983904843,2786.9,332.60539643496867,340.6935983904843,2891.2,332.60539643496867,340.6935983904843,2996.4,332.60539643496867,340.6935983904843,3096.8,332.60539643496867,340.6935983904843,3204.4,332.60539643496867,340.6935983904843,3305.7,332.60539643496867,340.6935983904843,3406.8,332.60539643496867,340.6935983904843,3509.9,332.60539643496867,340.6935983904843,3611.5,332.60539643496867,340.6935983904843,3719.7,332.60539643496867,340.6935983904843,3825.9,332.60539643496867,340.6935983904843,3928.3,332.60539643496867,340.6935983904843,4036,332.60539643496867,340.6935983904843,4143.5,332.60539643496867,340.6935983904843,4253.5,332.60539643496867,340.6935983904843,4361,332.60539643496867,340.6935983904843,4462.3,332.60539643496867,340.6935983904843,4571.9,332.60539643496867,340.6935983904843,4679,332.60539643496867,340.6935983904843,4781.7,332.60539643496867,340.6935983904843,4891.3,332.60539643496867,340.6935983904843,4997]","[2383.1,2383.1,1000,0,1383.2,""smooth"",""down"",""down"",""good_move"",5532.6,3148.5,2316.4,2384.1,832.1,""smooth"",""left"",""left"",""good_move"",8681.4,3148,2489.3,5533.4,658.7,""smooth"",""down"",""down"",""good_move"",12283.9,3601.5,2751.9,8682.4,849.6,""smooth"",""left"",""left"",""good_move""]","","",""
"2518","","<div style=""width:500px;"">
  <p>What determined the result of this run?</p>
  </div>","58","html-slider-response","55","1239208","0.0-10.0-1.3","255","1","2025-07-09 10:05:31","7701e855f2ef39aa3fd6c71abdc6918a","165.16.184.166","Mozilla/5.0 (Linux; Android 10; K) AppleWebKit/537.36 (KHTML, like Gecko) Chrome/130.0.0.0 Mobile Safari/537.36","WebKit","Chrome","130.0.0.0","AndroidOS","10","https://app.prolific.com/","en-ZA,en-GB;q=0.9,en-US;q=0.8,en;q=0.7,ar;q=0.6","669bba2714caa691679bff24","686d226cabeef709c732f8e1","686e311a7e769e8118f579e2","669bba2714caa691679bff24","2025-07-09T10:26:13.740Z","","","","","","AttribQ","","","","","","","","","","","","","","","","","","","","","","","","","","","","","","","","","","","","","","50",""
"2868","","<div style=""width:500px;"">
  <p>How much control did you have over the ball?</p>
  </div>","60","html-slider-response","56","1242078","0.0-10.0-2.3","255","1","2025-07-09 10:05:31","7701e855f2ef39aa3fd6c71abdc6918a","165.16.184.166","Mozilla/5.0 (Linux; Android 10; K) AppleWebKit/537.36 (KHTML, like Gecko) Chrome/130.0.0.0 Mobile Safari/537.36","WebKit","Chrome","130.0.0.0","AndroidOS","10","https://app.prolific.com/","en-ZA,en-GB;q=0.9,en-US;q=0.8,en;q=0.7,ar;q=0.6","669bba2714caa691679bff24","686d226cabeef709c732f8e1","686e311a7e769e8118f579e2","669bba2714caa691679bff24","2025-07-09T10:26:16.611Z","","","","","","ControlQ","","","","","","","","","","","","","","","","","","","","","","","","","","","","","","","","","","","","","","50",""
"9962","","<div style=""width:500px;"">
  <p>How would you describe your current emotional state?</p>
  </div>","58","html-slider-response","57","1252044","0.0-10.0-3.3","255","1","2025-07-09 10:05:31","7701e855f2ef39aa3fd6c71abdc6918a","165.16.184.166","Mozilla/5.0 (Linux; Android 10; K) AppleWebKit/537.36 (KHTML, like Gecko) Chrome/130.0.0.0 Mobile Safari/537.36","WebKit","Chrome","130.0.0.0","AndroidOS","10","https://app.prolific.com/","en-ZA,en-GB;q=0.9,en-US;q=0.8,en;q=0.7,ar;q=0.6","669bba2714caa691679bff24","686d226cabeef709c732f8e1","686e311a7e769e8118f579e2","669bba2714caa691679bff24","2025-07-09T10:26:26.576Z","","","","","","StressQ","","","","","","","","","","","","","","","","","","","","","","","","","","","","","","","","","","","","","","50",""
"5231","","<div style=""width:500px;"">
  <p>What best describes how you currently feel?</p>
  </div>","63","html-slider-response","58","1257278","0.0-10.0-4.3","255","1","2025-07-09 10:05:31","7701e855f2ef39aa3fd6c71abdc6918a","165.16.184.166","Mozilla/5.0 (Linux; Android 10; K) AppleWebKit/537.36 (KHTML, like Gecko) Chrome/130.0.0.0 Mobile Safari/537.36","WebKit","Chrome","130.0.0.0","AndroidOS","10","https://app.prolific.com/","en-ZA,en-GB;q=0.9,en-US;q=0.8,en;q=0.7,ar;q=0.6","669bba2714caa691679bff24","686d226cabeef709c732f8e1","686e311a7e769e8118f579e2","669bba2714caa691679bff24","2025-07-09T10:26:31.811Z","","","","","","MotivationQ","","","","","","","","","","","","","","","","","","","","","","","","","","","","","","","","","","","","","","50",""
"","","","","ctl-task-cpt","59","1296546","0.0-10.0-0.4","255","1","2025-07-09 10:05:31","7701e855f2ef39aa3fd6c71abdc6918a","165.16.184.166","Mozilla/5.0 (Linux; Android 10; K) AppleWebKit/537.36 (KHTML, like Gecko) Chrome/130.0.0.0 Mobile Safari/537.36","WebKit","Chrome","130.0.0.0","AndroidOS","10","https://app.prolific.com/","en-ZA,en-GB;q=0.9,en-US;q=0.8,en;q=0.7,ar;q=0.6","669bba2714caa691679bff24","686d226cabeef709c732f8e1","686e311a7e769e8118f579e2","669bba2714caa691679bff24","2025-07-09T10:27:11.078Z","","","","","","","","","","","","","","","","win-only","3","g1:SW,g2:NE","0.6","5","0","1261306.8","6853.4","11855.7","36249.2","1","4","8","6","2","8","7","10","3","0.07575757575757576","5002.3","3000","630","[""up"",""right""]","{""num_key_presses"":8,""num_perfect"":4,""num_errors"":1,""num_randdir"":3,""num_randdir_good_moves"":2,""num_whilered"":0,""num_whileblue"":1,""num_blue"":1,""num_good_moves"":7}","[338.6730581972062,336.6484905489926,0.7,338.6730581972062,336.6484905489926,106.4,338.6730581972062,336.6484905489926,212.8,338.6730581972062,336.6484905489926,318.1,338.6730581972062,336.6484905489926,418.6,338.6730581972062,336.6484905489926,519,338.6730581972062,336.6484905489926,619.8,338.6730581972062,336.6484905489926,721.3,338.6730581972062,336.6484905489926,821.6,338.6730581972062,336.6484905489926,921.9,338.6730581972062,336.6484905489926,1027.6,338.6730581972062,336.6484905489926,1131.6,338.6730581972062,336.6484905489926,1236.2,338.6730581972062,336.6484905489926,1336.2,338.6730581972062,336.6484905489926,1439.2,338.6730581972062,336.6484905489926,1567.2,338.6730581972062,336.6484905489926,1673.4,338.6730581972062,336.6484905489926,1778.5,338.6730581972062,336.6484905489926,1881.7,338.6730581972062,336.6484905489926,1985.2,338.6730581972062,336.6484905489926,2090,338.6730581972062,336.6484905489926,2206.9,338.6730581972062,336.6484905489926,2330.2,338.6730581972062,336.6484905489926,2433.7,338.6730581972062,336.6484905489926,2537,338.6730581972062,336.6484905489926,2637.4,338.6730581972062,336.6484905489926,2738.1,338.6730581972062,336.6484905489926,2840.9,338.6730581972062,336.6484905489926,2956,338.6730581972062,336.6484905489926,3061,338.6730581972062,336.6484905489926,3179.4,338.6730581972062,336.6484905489926,3286.5,338.6730581972062,336.6484905489926,3392.3,338.6730581972062,336.6484905489926,3496.2,338.6730581972062,336.6484905489926,3600.7,338.6730581972062,336.6484905489926,3704,338.6730581972062,336.6484905489926,3808.2,338.6730581972062,336.6484905489926,3914.1,338.6730581972062,336.6484905489926,4016.4,338.6730581972062,336.6484905489926,4142.5,338.6730581972062,336.6484905489926,4245.2,338.6730581972062,336.6484905489926,4345.2,338.6730581972062,336.6484905489926,4455.9,338.6730581972062,336.6484905489926,4557.7,338.6730581972062,336.6484905489926,4664.8,338.6730581972062,336.6484905489926,4769.1,338.6730581972062,336.6484905489926,4869.7,338.6730581972062,336.6484905489926,4976.3]","[1723.3,1723.3,1000,0,723.3,""oops"",""up"",""down"",""bad_move"",5321.1,3596.6,3048,1724.5,548.6,""smooth"",""up"",""up"",""good_move"",8469.6,3142.1,2576,5327.5,566.1,""smooth"",""right"",""right"",""good_move"",11631.6,3161.1,2562.5,8470.5,598.6,""smooth"",""up"",""up"",""good_move"",14770.7,3138.4,2688,11632.3,450.4,""while_blue"",""right"",""right"",""good_move"",17921.5,3150.2,2347.6,14771.4,802.6,""oops"",""up"",""up"",""good_move"",21522.4,3600.5,2796.8,17922,803.7,""smooth"",""up"",""up"",""good_move"",24220.3,2696.4,2006.9,21523.9,689.5,""oops"",""right"",""right"",""good_move""]","","",""
"2942","","<div style=""width:500px;"">
  <p>What determined the result of this run?</p>
  </div>","66","html-slider-response","60","1299491","0.0-10.0-1.4","255","1","2025-07-09 10:05:31","7701e855f2ef39aa3fd6c71abdc6918a","165.16.184.166","Mozilla/5.0 (Linux; Android 10; K) AppleWebKit/537.36 (KHTML, like Gecko) Chrome/130.0.0.0 Mobile Safari/537.36","WebKit","Chrome","130.0.0.0","AndroidOS","10","https://app.prolific.com/","en-ZA,en-GB;q=0.9,en-US;q=0.8,en;q=0.7,ar;q=0.6","669bba2714caa691679bff24","686d226cabeef709c732f8e1","686e311a7e769e8118f579e2","669bba2714caa691679bff24","2025-07-09T10:27:14.024Z","","","","","","AttribQ","","","","","","","","","","","","","","","","","","","","","","","","","","","","","","","","","","","","","","50",""
"6142","","<div style=""width:500px;"">
  <p>How much control did you have over the ball?</p>
  </div>","66","html-slider-response","61","1305637","0.0-10.0-2.4","255","1","2025-07-09 10:05:31","7701e855f2ef39aa3fd6c71abdc6918a","165.16.184.166","Mozilla/5.0 (Linux; Android 10; K) AppleWebKit/537.36 (KHTML, like Gecko) Chrome/130.0.0.0 Mobile Safari/537.36","WebKit","Chrome","130.0.0.0","AndroidOS","10","https://app.prolific.com/","en-ZA,en-GB;q=0.9,en-US;q=0.8,en;q=0.7,ar;q=0.6","669bba2714caa691679bff24","686d226cabeef709c732f8e1","686e311a7e769e8118f579e2","669bba2714caa691679bff24","2025-07-09T10:27:20.169Z","","","","","","ControlQ","","","","","","","","","","","","","","","","","","","","","","","","","","","","","","","","","","","","","","50",""
"5514","","<div style=""width:500px;"">
  <p>How would you describe your current emotional state?</p>
  </div>","69","html-slider-response","62","1311153","0.0-10.0-3.4","255","1","2025-07-09 10:05:31","7701e855f2ef39aa3fd6c71abdc6918a","165.16.184.166","Mozilla/5.0 (Linux; Android 10; K) AppleWebKit/537.36 (KHTML, like Gecko) Chrome/130.0.0.0 Mobile Safari/537.36","WebKit","Chrome","130.0.0.0","AndroidOS","10","https://app.prolific.com/","en-ZA,en-GB;q=0.9,en-US;q=0.8,en;q=0.7,ar;q=0.6","669bba2714caa691679bff24","686d226cabeef709c732f8e1","686e311a7e769e8118f579e2","669bba2714caa691679bff24","2025-07-09T10:27:25.686Z","","","","","","StressQ","","","","","","","","","","","","","","","","","","","","","","","","","","","","","","","","","","","","","","50",""
"5532","","<div style=""width:500px;"">
  <p>What best describes how you currently feel?</p>
  </div>","68","html-slider-response","63","1316688","0.0-10.0-4.4","255","1","2025-07-09 10:05:31","7701e855f2ef39aa3fd6c71abdc6918a","165.16.184.166","Mozilla/5.0 (Linux; Android 10; K) AppleWebKit/537.36 (KHTML, like Gecko) Chrome/130.0.0.0 Mobile Safari/537.36","WebKit","Chrome","130.0.0.0","AndroidOS","10","https://app.prolific.com/","en-ZA,en-GB;q=0.9,en-US;q=0.8,en;q=0.7,ar;q=0.6","669bba2714caa691679bff24","686d226cabeef709c732f8e1","686e311a7e769e8118f579e2","669bba2714caa691679bff24","2025-07-09T10:27:31.220Z","","","","","","MotivationQ","","","","","","","","","","","","","","","","","","","","","","","","","","","","","","","","","","","","","","50",""
"","","","","ctl-task-cpt","64","1373515","0.0-10.0-0.5","255","1","2025-07-09 10:05:31","7701e855f2ef39aa3fd6c71abdc6918a","165.16.184.166","Mozilla/5.0 (Linux; Android 10; K) AppleWebKit/537.36 (KHTML, like Gecko) Chrome/130.0.0.0 Mobile Safari/537.36","WebKit","Chrome","130.0.0.0","AndroidOS","10","https://app.prolific.com/","en-ZA,en-GB;q=0.9,en-US;q=0.8,en;q=0.7,ar;q=0.6","669bba2714caa691679bff24","686d226cabeef709c732f8e1","686e311a7e769e8118f579e2","669bba2714caa691679bff24","2025-07-09T10:28:28.047Z","","","","","","","","","","","","","","","","win-only","1","g1:NE,g2:SW","0.5","6","0","1320716","17030.5","22033.7","53805.8","1","4","4","6","2","-4","-4","6","10","0.045454545454545456","5003.2","3000","-1540","[""down"",""left""]","{""num_key_presses"":7,""num_perfect"":3,""num_errors"":0,""num_randdir"":4,""num_randdir_good_moves"":2,""num_whilered"":0,""num_whileblue"":0,""num_blue"":2,""num_good_moves"":5}","[346.7632738801896,334.62593662824673,0.7,346.7632738801896,334.62593662824673,101.7,346.7632738801896,334.62593662824673,204.9,348.78582780093546,356.8740297564511,309.5,348.78582780093546,356.8740297564511,409.8,348.78582780093546,356.8740297564511,515.1,348.78582780093546,356.8740297564511,616.5,348.78582780093546,356.8740297564511,719,348.78582780093546,356.8740297564511,827.5,348.78582780093546,356.8740297564511,932.7,348.78582780093546,356.8740297564511,1037.3,348.78582780093546,356.8740297564511,1146.3,348.78582780093546,356.8740297564511,1250.6,348.78582780093546,356.8740297564511,1357.8,348.78582780093546,356.8740297564511,1461.3,348.78582780093546,356.8740297564511,1561.8,348.78582780093546,356.8740297564511,1669.1,348.78582780093546,356.8740297564511,1772.1,348.78582780093546,356.8740297564511,1877.3,348.78582780093546,356.8740297564511,1979.5,348.78582780093546,356.8740297564511,2080.2,348.78582780093546,356.8740297564511,2181.3,348.78582780093546,356.8740297564511,2285.1,348.78582780093546,356.8740297564511,2402.9,348.78582780093546,356.8740297564511,2505.2,348.78582780093546,356.8740297564511,2625.5,348.78582780093546,356.8740297564511,2728.8,348.78582780093546,356.8740297564511,2833.2,348.78582780093546,356.8740297564511,2940.3,348.78582780093546,356.8740297564511,3044.4,348.78582780093546,356.8740297564511,3159.6,348.78582780093546,356.8740297564511,3266.4,348.78582780093546,356.8740297564511,3372.6,348.78582780093546,356.8740297564511,3477.4,348.78582780093546,356.8740297564511,3585.1,348.78582780093546,356.8740297564511,3692.2,348.78582780093546,356.8740297564511,3798.1,348.78582780093546,356.8740297564511,3907,348.78582780093546,356.8740297564511,4011.6,348.78582780093546,356.8740297564511,4114.6,348.78582780093546,356.8740297564511,4219.2,348.78582780093546,356.8740297564511,4321.9,348.78582780093546,356.8740297564511,4424.3,348.78582780093546,356.8740297564511,4528.9,348.78582780093546,356.8740297564511,4634.8,348.78582780093546,356.8740297564511,4763.3,348.78582780093546,356.8740297564511,4866,348.78582780093546,356.8740297564511,4969.7]","[5039,5039,2356.7,2009.9,672.4,""smooth"",""down"",""down"",""good_move"",9082.9,4042.8,3095.7,5040.1,947.1,""oops"",""left"",""left"",""good_move"",12687,3603,2719.2,9084,883.9,""smooth"",""down"",""down"",""good_move"",15832.8,3144.9,2664.3,12687.9,480.6,""oops"",""left"",""right"",""bad_move"",18982.9,3149.1,2398.4,15833.8,750.7,""oops"",""down"",""up"",""bad_move"",25732.7,6748.9,2511.2,22107.4,1114.1,""smooth"",""down"",""down"",""good_move"",28882.4,3148.9,2530.8,25733.5,618.1,""oops"",""down"",""left"",""good_move""]","","",""
"9200","","<div style=""width:500px;"">
  <p>What determined the result of this run?</p>
  </div>","81","html-slider-response","65","1382719","0.0-10.0-1.5","255","1","2025-07-09 10:05:31","7701e855f2ef39aa3fd6c71abdc6918a","165.16.184.166","Mozilla/5.0 (Linux; Android 10; K) AppleWebKit/537.36 (KHTML, like Gecko) Chrome/130.0.0.0 Mobile Safari/537.36","WebKit","Chrome","130.0.0.0","AndroidOS","10","https://app.prolific.com/","en-ZA,en-GB;q=0.9,en-US;q=0.8,en;q=0.7,ar;q=0.6","669bba2714caa691679bff24","686d226cabeef709c732f8e1","686e311a7e769e8118f579e2","669bba2714caa691679bff24","2025-07-09T10:28:37.251Z","","","","","","AttribQ","","","","","","","","","","","","","","","","","","","","","","","","","","","","","","","","","","","","","","50",""
"10384","","<div style=""width:500px;"">
  <p>How much control did you have over the ball?</p>
  </div>","69","html-slider-response","66","1393106","0.0-10.0-2.5","255","1","2025-07-09 10:05:31","7701e855f2ef39aa3fd6c71abdc6918a","165.16.184.166","Mozilla/5.0 (Linux; Android 10; K) AppleWebKit/537.36 (KHTML, like Gecko) Chrome/130.0.0.0 Mobile Safari/537.36","WebKit","Chrome","130.0.0.0","AndroidOS","10","https://app.prolific.com/","en-ZA,en-GB;q=0.9,en-US;q=0.8,en;q=0.7,ar;q=0.6","669bba2714caa691679bff24","686d226cabeef709c732f8e1","686e311a7e769e8118f579e2","669bba2714caa691679bff24","2025-07-09T10:28:47.638Z","","","","","","ControlQ","","","","","","","","","","","","","","","","","","","","","","","","","","","","","","","","","","","","","","50",""
"10128","","<div style=""width:500px;"">
  <p>How would you describe your current emotional state?</p>
  </div>","63","html-slider-response","67","1403237","0.0-10.0-3.5","255","1","2025-07-09 10:05:31","7701e855f2ef39aa3fd6c71abdc6918a","165.16.184.166","Mozilla/5.0 (Linux; Android 10; K) AppleWebKit/537.36 (KHTML, like Gecko) Chrome/130.0.0.0 Mobile Safari/537.36","WebKit","Chrome","130.0.0.0","AndroidOS","10","https://app.prolific.com/","en-ZA,en-GB;q=0.9,en-US;q=0.8,en;q=0.7,ar;q=0.6","669bba2714caa691679bff24","686d226cabeef709c732f8e1","686e311a7e769e8118f579e2","669bba2714caa691679bff24","2025-07-09T10:28:57.770Z","","","","","","StressQ","","","","","","","","","","","","","","","","","","","","","","","","","","","","","","","","","","","","","","50",""
"14252","","<div style=""width:500px;"">
  <p>What best describes how you currently feel?</p>
  </div>","64","html-slider-response","68","1417493","0.0-10.0-4.5","255","1","2025-07-09 10:05:31","7701e855f2ef39aa3fd6c71abdc6918a","165.16.184.166","Mozilla/5.0 (Linux; Android 10; K) AppleWebKit/537.36 (KHTML, like Gecko) Chrome/130.0.0.0 Mobile Safari/537.36","WebKit","Chrome","130.0.0.0","AndroidOS","10","https://app.prolific.com/","en-ZA,en-GB;q=0.9,en-US;q=0.8,en;q=0.7,ar;q=0.6","669bba2714caa691679bff24","686d226cabeef709c732f8e1","686e311a7e769e8118f579e2","669bba2714caa691679bff24","2025-07-09T10:29:12.026Z","","","","","","MotivationQ","","","","","","","","","","","","","","","","","","","","","","","","","","","","","","","","","","","","","","50",""
"","","","","ctl-task-cpt","69","1477850","0.0-10.0-0.6","255","1","2025-07-09 10:05:31","7701e855f2ef39aa3fd6c71abdc6918a","165.16.184.166","Mozilla/5.0 (Linux; Android 10; K) AppleWebKit/537.36 (KHTML, like Gecko) Chrome/130.0.0.0 Mobile Safari/537.36","WebKit","Chrome","130.0.0.0","AndroidOS","10","https://app.prolific.com/","en-ZA,en-GB;q=0.9,en-US;q=0.8,en;q=0.7,ar;q=0.6","669bba2714caa691679bff24","686d226cabeef709c732f8e1","686e311a7e769e8118f579e2","669bba2714caa691679bff24","2025-07-09T10:30:12.382Z","","","","","","","","","","","","","","","","win-only","1","g1:NE,g2:SW","0.4","7","0","1421521.6","9839.2","14841.4","57333.8","1","4","8","6","1","-1","-2","4","6","0.030303030303030304","5002.2","3000","-1435","[""up"",""right""]","{""num_key_presses"":9,""num_perfect"":4,""num_errors"":1,""num_randdir"":4,""num_randdir_good_moves"":1,""num_whilered"":0,""num_whileblue"":0,""num_blue"":4,""num_good_moves"":5}","[326.5377346727311,334.62593662824673,0.6,326.5377346727311,334.62593662824673,104,326.5377346727311,334.62593662824673,206.5,326.5377346727311,334.62593662824673,319.3,326.5377346727311,334.62593662824673,419.3,326.5377346727311,334.62593662824673,526.5,326.5377346727311,334.62593662824673,630.8,326.5377346727311,334.62593662824673,737.6,326.5377346727311,334.62593662824673,840.3,326.5377346727311,334.62593662824673,947.9,326.5377346727311,334.62593662824673,1051.1,326.5377346727311,334.62593662824673,1160.2,326.5377346727311,334.62593662824673,1270.3,326.5377346727311,334.62593662824673,1380.1,326.5377346727311,334.62593662824673,1490.9,326.5377346727311,334.62593662824673,1601.4,326.5377346727311,334.62593662824673,1704.2,326.5377346727311,334.62593662824673,1812.9,326.5377346727311,334.62593662824673,1916.7,326.5377346727311,334.62593662824673,2026.5,326.5377346727311,334.62593662824673,2136.7,326.5377346727311,334.62593662824673,2245.8,326.5377346727311,334.62593662824673,2346.1,326.5377346727311,334.62593662824673,2460.2,326.5377346727311,334.62593662824673,2566.6,326.5377346727311,334.62593662824673,2674.5,326.5377346727311,334.62593662824673,2775.5,326.5377346727311,334.62593662824673,2881.2,326.5377346727311,334.62593662824673,2986,326.5377346727311,334.62593662824673,3088.9,326.5377346727311,334.62593662824673,3195.3,326.5377346727311,334.62593662824673,3299.6,326.5377346727311,334.62593662824673,3404.1,326.5377346727311,334.62593662824673,3509.1,326.5377346727311,334.62593662824673,3615.7,326.5377346727311,334.62593662824673,3717.6,326.5377346727311,334.62593662824673,3826.4,326.5377346727311,334.62593662824673,3937.5,326.5377346727311,334.62593662824673,4041,326.5377346727311,334.62593662824673,4142,326.5377346727311,334.62593662824673,4279.3,326.5377346727311,334.62593662824673,4383.7,326.5377346727311,334.62593662824673,4483.9,326.5377346727311,334.62593662824673,4585.6,326.5377346727311,334.62593662824673,4687.2,326.5377346727311,334.62593662824673,4803.2,326.5377346727311,334.62593662824673,4908.3]","[1424.3,1424.3,1000,0,424.3,""smooth"",""up"",""up"",""good_move"",5468.7,4043,2562.1,1425.7,1480.9,""smooth"",""up"",""up"",""good_move"",5918.1,448.8,2627.7,5469.3,-2178.9,""error"",""-"",""-"",""no_move"",17172.5,11253.2,2127.1,14310.8,734.7,""smooth"",""right"",""right"",""good_move"",20318.8,3145.4,2241.7,17173.4,903.7,""oops"",""right"",""left"",""bad_move"",23468.6,3147.1,2551.8,20321.6,595.3,""oops"",""right"",""right"",""good_move"",26619.7,3150.6,2411.8,23469.2,738.8,""oops"",""right"",""down"",""bad_move"",33819.1,7198.5,2296.8,30824,698.3,""smooth"",""right"",""right"",""good_move"",39671.4,5851.8,2147.3,36902.4,621.7,""oops"",""up"",""left"",""bad_move""]","","",""
"4677","","<div style=""width:500px;"">
  <p>What determined the result of this run?</p>
  </div>","72","html-slider-response","70","1482530","0.0-10.0-1.6","255","1","2025-07-09 10:05:31","7701e855f2ef39aa3fd6c71abdc6918a","165.16.184.166","Mozilla/5.0 (Linux; Android 10; K) AppleWebKit/537.36 (KHTML, like Gecko) Chrome/130.0.0.0 Mobile Safari/537.36","WebKit","Chrome","130.0.0.0","AndroidOS","10","https://app.prolific.com/","en-ZA,en-GB;q=0.9,en-US;q=0.8,en;q=0.7,ar;q=0.6","669bba2714caa691679bff24","686d226cabeef709c732f8e1","686e311a7e769e8118f579e2","669bba2714caa691679bff24","2025-07-09T10:30:17.062Z","","","","","","AttribQ","","","","","","","","","","","","","","","","","","","","","","","","","","","","","","","","","","","","","","50",""
"7161","","<div style=""width:500px;"">
  <p>How much control did you have over the ball?</p>
  </div>","75","html-slider-response","71","1489693","0.0-10.0-2.6","255","1","2025-07-09 10:05:31","7701e855f2ef39aa3fd6c71abdc6918a","165.16.184.166","Mozilla/5.0 (Linux; Android 10; K) AppleWebKit/537.36 (KHTML, like Gecko) Chrome/130.0.0.0 Mobile Safari/537.36","WebKit","Chrome","130.0.0.0","AndroidOS","10","https://app.prolific.com/","en-ZA,en-GB;q=0.9,en-US;q=0.8,en;q=0.7,ar;q=0.6","669bba2714caa691679bff24","686d226cabeef709c732f8e1","686e311a7e769e8118f579e2","669bba2714caa691679bff24","2025-07-09T10:30:24.225Z","","","","","","ControlQ","","","","","","","","","","","","","","","","","","","","","","","","","","","","","","","","","","","","","","50",""
"8576","","<div style=""width:500px;"">
  <p>How would you describe your current emotional state?</p>
  </div>","66","html-slider-response","72","1498272","0.0-10.0-3.6","255","1","2025-07-09 10:05:31","7701e855f2ef39aa3fd6c71abdc6918a","165.16.184.166","Mozilla/5.0 (Linux; Android 10; K) AppleWebKit/537.36 (KHTML, like Gecko) Chrome/130.0.0.0 Mobile Safari/537.36","WebKit","Chrome","130.0.0.0","AndroidOS","10","https://app.prolific.com/","en-ZA,en-GB;q=0.9,en-US;q=0.8,en;q=0.7,ar;q=0.6","669bba2714caa691679bff24","686d226cabeef709c732f8e1","686e311a7e769e8118f579e2","669bba2714caa691679bff24","2025-07-09T10:30:32.805Z","","","","","","StressQ","","","","","","","","","","","","","","","","","","","","","","","","","","","","","","","","","","","","","","50",""
"8706","","<div style=""width:500px;"">
  <p>What best describes how you currently feel?</p>
  </div>","71","html-slider-response","73","1506981","0.0-10.0-4.6","255","1","2025-07-09 10:05:31","7701e855f2ef39aa3fd6c71abdc6918a","165.16.184.166","Mozilla/5.0 (Linux; Android 10; K) AppleWebKit/537.36 (KHTML, like Gecko) Chrome/130.0.0.0 Mobile Safari/537.36","WebKit","Chrome","130.0.0.0","AndroidOS","10","https://app.prolific.com/","en-ZA,en-GB;q=0.9,en-US;q=0.8,en;q=0.7,ar;q=0.6","669bba2714caa691679bff24","686d226cabeef709c732f8e1","686e311a7e769e8118f579e2","669bba2714caa691679bff24","2025-07-09T10:30:41.513Z","","","","","","MotivationQ","","","","","","","","","","","","","","","","","","","","","","","","","","","","","","","","","","","","","","50",""
"","","","","ctl-task-cpt","74","1558862","0.0-10.0-0.7","255","1","2025-07-09 10:05:31","7701e855f2ef39aa3fd6c71abdc6918a","165.16.184.166","Mozilla/5.0 (Linux; Android 10; K) AppleWebKit/537.36 (KHTML, like Gecko) Chrome/130.0.0.0 Mobile Safari/537.36","WebKit","Chrome","130.0.0.0","AndroidOS","10","https://app.prolific.com/","en-ZA,en-GB;q=0.9,en-US;q=0.8,en;q=0.7,ar;q=0.6","669bba2714caa691679bff24","686d226cabeef709c732f8e1","686e311a7e769e8118f579e2","669bba2714caa691679bff24","2025-07-09T10:31:33.394Z","","","","","","","","","","","","","","","","win-only","3","g1:SW,g2:NE","0.3","8","0","1511008.9","18535.1","23536.1","48856","1","4","4","6","2","-4","-4","0","4","0","5001","3000","-1265","[""up"",""right""]","{""num_key_presses"":7,""num_perfect"":3,""num_errors"":0,""num_randdir"":4,""num_randdir_good_moves"":1,""num_whilered"":0,""num_whileblue"":0,""num_blue"":0,""num_good_moves"":4}","[336.65050427646037,342.71615231123013,0.7,336.65050427646037,342.71615231123013,105.2,336.65050427646037,342.71615231123013,213.7,336.65050427646037,342.71615231123013,320,336.65050427646037,342.71615231123013,427.7,336.65050427646037,342.71615231123013,531.3,336.65050427646037,342.71615231123013,639.3,336.65050427646037,342.71615231123013,743.4,336.65050427646037,342.71615231123013,850.9,336.65050427646037,342.71615231123013,960.7,336.65050427646037,342.71615231123013,1064.3,336.65050427646037,342.71615231123013,1173.5,336.65050427646037,342.71615231123013,1289.3,336.65050427646037,342.71615231123013,1390.5,336.65050427646037,342.71615231123013,1498.8,336.65050427646037,342.71615231123013,1599.1,336.65050427646037,342.71615231123013,1706.8,336.65050427646037,342.71615231123013,1809.8,336.65050427646037,342.71615231123013,1913.2,336.65050427646037,342.71615231123013,2016.7,336.65050427646037,342.71615231123013,2123.4,336.65050427646037,342.71615231123013,2232.5,336.65050427646037,342.71615231123013,2343.7,336.65050427646037,342.71615231123013,2445.2,336.65050427646037,342.71615231123013,2552.9,336.65050427646037,342.71615231123013,2658.1,336.65050427646037,342.71615231123013,2766.2,336.65050427646037,342.71615231123013,2876.8,336.65050427646037,342.71615231123013,2982.3,336.65050427646037,342.71615231123013,3091.3,336.65050427646037,342.71615231123013,3200.7,336.65050427646037,342.71615231123013,3306.2,336.65050427646037,342.71615231123013,3417.8,336.65050427646037,342.71615231123013,3518.6,336.65050427646037,342.71615231123013,3620.9,336.65050427646037,342.71615231123013,3721.2,336.65050427646037,342.71615231123013,3829.2,336.65050427646037,342.71615231123013,3939.6,336.65050427646037,342.71615231123013,4042.7,336.65050427646037,342.71615231123013,4153,336.65050427646037,342.71615231123013,4255.4,336.65050427646037,342.71615231123013,4356,336.65050427646037,342.71615231123013,4460.5,336.65050427646037,342.71615231123013,4568.5,336.65050427646037,342.71615231123013,4670.2,336.65050427646037,342.71615231123013,4774.5,336.65050427646037,342.71615231123013,4878.8,336.65050427646037,342.71615231123013,4988.5]","[1791.6,1791.6,1000,0,791.6,""smooth"",""up"",""up"",""good_move"",4488.2,2695.3,2014.7,1792.9,680.6,""oops"",""right"",""left"",""bad_move"",8537.5,4048.6,2921.1,4488.9,1127.5,""smooth"",""right"",""right"",""good_move"",12138.8,3600.5,2498.3,8538.4,1102.1,""oops"",""up"",""right"",""good_move"",15292.6,3153.2,2219.3,12139.4,933.9,""oops"",""up"",""left"",""bad_move"",18887.8,3594.6,2799,15293.2,795.6,""smooth"",""right"",""right"",""good_move"",22037.4,3149.1,2603.4,18888.3,545.7,""oops"",""up"",""down"",""bad_move""]","","",""
"4323","","<div style=""width:500px;"">
  <p>What determined the result of this run?</p>
  </div>","83","html-slider-response","75","1563189","0.0-10.0-1.7","255","1","2025-07-09 10:05:31","7701e855f2ef39aa3fd6c71abdc6918a","165.16.184.166","Mozilla/5.0 (Linux; Android 10; K) AppleWebKit/537.36 (KHTML, like Gecko) Chrome/130.0.0.0 Mobile Safari/537.36","WebKit","Chrome","130.0.0.0","AndroidOS","10","https://app.prolific.com/","en-ZA,en-GB;q=0.9,en-US;q=0.8,en;q=0.7,ar;q=0.6","669bba2714caa691679bff24","686d226cabeef709c732f8e1","686e311a7e769e8118f579e2","669bba2714caa691679bff24","2025-07-09T10:31:37.721Z","","","","","","AttribQ","","","","","","","","","","","","","","","","","","","","","","","","","","","","","","","","","","","","","","50",""
"5142","","<div style=""width:500px;"">
  <p>How much control did you have over the ball?</p>
  </div>","76","html-slider-response","76","1568334","0.0-10.0-2.7","255","1","2025-07-09 10:05:31","7701e855f2ef39aa3fd6c71abdc6918a","165.16.184.166","Mozilla/5.0 (Linux; Android 10; K) AppleWebKit/537.36 (KHTML, like Gecko) Chrome/130.0.0.0 Mobile Safari/537.36","WebKit","Chrome","130.0.0.0","AndroidOS","10","https://app.prolific.com/","en-ZA,en-GB;q=0.9,en-US;q=0.8,en;q=0.7,ar;q=0.6","669bba2714caa691679bff24","686d226cabeef709c732f8e1","686e311a7e769e8118f579e2","669bba2714caa691679bff24","2025-07-09T10:31:42.866Z","","","","","","ControlQ","","","","","","","","","","","","","","","","","","","","","","","","","","","","","","","","","","","","","","50",""
"10865","","<div style=""width:500px;"">
  <p>How would you describe your current emotional state?</p>
  </div>","65","html-slider-response","77","1579202","0.0-10.0-3.7","255","1","2025-07-09 10:05:31","7701e855f2ef39aa3fd6c71abdc6918a","165.16.184.166","Mozilla/5.0 (Linux; Android 10; K) AppleWebKit/537.36 (KHTML, like Gecko) Chrome/130.0.0.0 Mobile Safari/537.36","WebKit","Chrome","130.0.0.0","AndroidOS","10","https://app.prolific.com/","en-ZA,en-GB;q=0.9,en-US;q=0.8,en;q=0.7,ar;q=0.6","669bba2714caa691679bff24","686d226cabeef709c732f8e1","686e311a7e769e8118f579e2","669bba2714caa691679bff24","2025-07-09T10:31:53.734Z","","","","","","StressQ","","","","","","","","","","","","","","","","","","","","","","","","","","","","","","","","","","","","","","50",""
"2673","","<div style=""width:500px;"">
  <p>What best describes how you currently feel?</p>
  </div>","78","html-slider-response","78","1581878","0.0-10.0-4.7","255","1","2025-07-09 10:05:31","7701e855f2ef39aa3fd6c71abdc6918a","165.16.184.166","Mozilla/5.0 (Linux; Android 10; K) AppleWebKit/537.36 (KHTML, like Gecko) Chrome/130.0.0.0 Mobile Safari/537.36","WebKit","Chrome","130.0.0.0","AndroidOS","10","https://app.prolific.com/","en-ZA,en-GB;q=0.9,en-US;q=0.8,en;q=0.7,ar;q=0.6","669bba2714caa691679bff24","686d226cabeef709c732f8e1","686e311a7e769e8118f579e2","669bba2714caa691679bff24","2025-07-09T10:31:56.411Z","","","","","","MotivationQ","","","","","","","","","","","","","","","","","","","","","","","","","","","","","","","","","","","","","","50",""
"","","","","ctl-task-cpt","79","1614649","0.0-10.0-0.8","255","1","2025-07-09 10:05:31","7701e855f2ef39aa3fd6c71abdc6918a","165.16.184.166","Mozilla/5.0 (Linux; Android 10; K) AppleWebKit/537.36 (KHTML, like Gecko) Chrome/130.0.0.0 Mobile Safari/537.36","WebKit","Chrome","130.0.0.0","AndroidOS","10","https://app.prolific.com/","en-ZA,en-GB;q=0.9,en-US;q=0.8,en;q=0.7,ar;q=0.6","669bba2714caa691679bff24","686d226cabeef709c732f8e1","686e311a7e769e8118f579e2","669bba2714caa691679bff24","2025-07-09T10:32:29.181Z","","","","","","","","","","","","","","","","win-only","0","g1:NW,g2:SE","0.2","9","0","1585906.9","12321.6","17332.4","29747.8","1","4","8","6","2","-8","-8","0","0","0","5010.8","3000","-1175","[""down"",""right""]","{""num_key_presses"":2,""num_perfect"":0,""num_errors"":0,""num_randdir"":2,""num_randdir_good_moves"":1,""num_whilered"":0,""num_whileblue"":0,""num_blue"":0,""num_good_moves"":1}","[330.5828425142228,332.6033827075009,0.6,330.5828425142228,332.6033827075009,107.2,330.5828425142228,332.6033827075009,212.1,330.5828425142228,332.6033827075009,315.6,330.5828425142228,332.6033827075009,420.2,330.5828425142228,332.6033827075009,531.7,330.5828425142228,332.6033827075009,638,330.5828425142228,332.6033827075009,742,330.5828425142228,332.6033827075009,847.2,330.5828425142228,332.6033827075009,952.7,330.5828425142228,332.6033827075009,1060.1,330.5828425142228,332.6033827075009,1167.3,330.5828425142228,332.6033827075009,1274.3,330.5828425142228,332.6033827075009,1385.7,330.5828425142228,332.6033827075009,1495.5,330.5828425142228,332.6033827075009,1604.1,330.5828425142228,332.6033827075009,1711.4,330.5828425142228,332.6033827075009,1821.7,330.5828425142228,332.6033827075009,1931.8,330.5828425142228,332.6033827075009,2037.5,330.5828425142228,332.6033827075009,2144.8,330.5828425142228,332.6033827075009,2246.3,330.5828425142228,332.6033827075009,2353.5,330.5828425142228,332.6033827075009,2463.9,330.5828425142228,332.6033827075009,2572.3,330.5828425142228,332.6033827075009,2677,330.5828425142228,332.6033827075009,2777.4,330.5828425142228,332.6033827075009,2887.5,330.5828425142228,332.6033827075009,2998,330.5828425142228,332.6033827075009,3107.7,330.5828425142228,332.6033827075009,3208.2,330.5828425142228,332.6033827075009,3319.3,330.5828425142228,332.6033827075009,3431.3,330.5828425142228,332.6033827075009,3536.4,330.5828425142228,332.6033827075009,3642,330.5828425142228,332.6033827075009,3754.3,330.5828425142228,332.6033827075009,3862.3,330.5828425142228,332.6033827075009,3971.5,330.5828425142228,332.6033827075009,4082.1,330.5828425142228,332.6033827075009,4188.1,330.5828425142228,332.6033827075009,4294,330.5828425142228,332.6033827075009,4395.5,330.5828425142228,332.6033827075009,4496.1,330.5828425142228,332.6033827075009,4596.2,330.5828425142228,332.6033827075009,4702.7,330.5828425142228,332.6033827075009,4803.3,330.5828425142228,332.6033827075009,4903.9]","[2396.2,2396.2,1000,0,1396.2,""oops"",""down"",""down"",""good_move"",7794.2,5396.9,1827.1,2397.4,3569.7,""oops"",""down"",""up"",""bad_move""]","","",""
"3261","","<div style=""width:500px;"">
  <p>What determined the result of this run?</p>
  </div>","79","html-slider-response","80","1617914","0.0-10.0-1.8","255","1","2025-07-09 10:05:31","7701e855f2ef39aa3fd6c71abdc6918a","165.16.184.166","Mozilla/5.0 (Linux; Android 10; K) AppleWebKit/537.36 (KHTML, like Gecko) Chrome/130.0.0.0 Mobile Safari/537.36","WebKit","Chrome","130.0.0.0","AndroidOS","10","https://app.prolific.com/","en-ZA,en-GB;q=0.9,en-US;q=0.8,en;q=0.7,ar;q=0.6","669bba2714caa691679bff24","686d226cabeef709c732f8e1","686e311a7e769e8118f579e2","669bba2714caa691679bff24","2025-07-09T10:32:32.446Z","","","","","","AttribQ","","","","","","","","","","","","","","","","","","","","","","","","","","","","","","","","","","","","","","50",""
"5923","","<div style=""width:500px;"">
  <p>How much control did you have over the ball?</p>
  </div>","71","html-slider-response","81","1623839","0.0-10.0-2.8","255","1","2025-07-09 10:05:31","7701e855f2ef39aa3fd6c71abdc6918a","165.16.184.166","Mozilla/5.0 (Linux; Android 10; K) AppleWebKit/537.36 (KHTML, like Gecko) Chrome/130.0.0.0 Mobile Safari/537.36","WebKit","Chrome","130.0.0.0","AndroidOS","10","https://app.prolific.com/","en-ZA,en-GB;q=0.9,en-US;q=0.8,en;q=0.7,ar;q=0.6","669bba2714caa691679bff24","686d226cabeef709c732f8e1","686e311a7e769e8118f579e2","669bba2714caa691679bff24","2025-07-09T10:32:38.372Z","","","","","","ControlQ","","","","","","","","","","","","","","","","","","","","","","","","","","","","","","","","","","","","","","50",""
"5475","","<div style=""width:500px;"">
  <p>How would you describe your current emotional state?</p>
  </div>","75","html-slider-response","82","1629317","0.0-10.0-3.8","255","1","2025-07-09 10:05:31","7701e855f2ef39aa3fd6c71abdc6918a","165.16.184.166","Mozilla/5.0 (Linux; Android 10; K) AppleWebKit/537.36 (KHTML, like Gecko) Chrome/130.0.0.0 Mobile Safari/537.36","WebKit","Chrome","130.0.0.0","AndroidOS","10","https://app.prolific.com/","en-ZA,en-GB;q=0.9,en-US;q=0.8,en;q=0.7,ar;q=0.6","669bba2714caa691679bff24","686d226cabeef709c732f8e1","686e311a7e769e8118f579e2","669bba2714caa691679bff24","2025-07-09T10:32:43.850Z","","","","","","StressQ","","","","","","","","","","","","","","","","","","","","","","","","","","","","","","","","","","","","","","50",""
"5848","","<div style=""width:500px;"">
  <p>What best describes how you currently feel?</p>
  </div>","71","html-slider-response","83","1635168","0.0-10.0-4.8","255","1","2025-07-09 10:05:31","7701e855f2ef39aa3fd6c71abdc6918a","165.16.184.166","Mozilla/5.0 (Linux; Android 10; K) AppleWebKit/537.36 (KHTML, like Gecko) Chrome/130.0.0.0 Mobile Safari/537.36","WebKit","Chrome","130.0.0.0","AndroidOS","10","https://app.prolific.com/","en-ZA,en-GB;q=0.9,en-US;q=0.8,en;q=0.7,ar;q=0.6","669bba2714caa691679bff24","686d226cabeef709c732f8e1","686e311a7e769e8118f579e2","669bba2714caa691679bff24","2025-07-09T10:32:49.700Z","","","","","","MotivationQ","","","","","","","","","","","","","","","","","","","","","","","","","","","","","","","","","","","","","","50",""
