"rt","response_timestamp","stimulus","response","trial_type","trial_index","time_elapsed","internal_node_id","run_id","condition","recorded_at","source_code_version","ip","user_agent","device","browser","browser_version","platform","platform_version","referer","accept_language","PROLIFIC_PID","STUDY_ID","SESSION_ID","prolific_id","realtime","view_history","question_order","consent","success","question_id","eventType","responses","item_order","radio_event_ids","radio_event_times","key_event_times","mouse_event_times","straightlining","zigzagging","honeypot","which_type","canvas_config","goals_layout","control_level","trial_number","tutorial_trial_number","trial_start_time","phase1_start_time","phase2_start_time","phase3_start_time","goal_1_value","goal_1_distance","goal_2_value","goal_2_distance","goal_selected","outcome","outcome_total","participant_final_score","participant_initial_score","participant_final_score_prop","goal_choice_rt","allocated_time","allocated_time_remaining","goal_direction","counts","mouse_movements","key_presses","correct","slider_start","sub_question"
"2519","1752062023540","<p style='font-size:40px;line-height:1.25'><strong>Welcome to the experiment!</strong></p><p style='font-size:1.1em;line-height:1.25'>Thank you for your interest in our experiment! Before you begin, it is important that we obtain your informed consent to participate in the study.</p><p style='font-size:1.1em;line-height:1.25'>On the next screen will be an <strong>information sheet</strong> for you to read. To participate in the study we need you to read this information sheet and the following consent form carefully. If you agree with all the statements, please click the <strong>I agree</strong> button.</p><p style='font-size:1.1em;line-height:1.25'>Press <strong>Next</strong> to read the information sheet.</p>","0","custom-html-button-response","0","2525","0.0-0.0","290","1","2025-07-09 11:55:22","7701e855f2ef39aa3fd6c71abdc6918a","194.50.144.71","Mozilla/5.0 (Windows NT 10.0; Win64; x64) AppleWebKit/537.36 (KHTML, like Gecko) Chrome/134.0.0.0 Safari/537.36","WebKit","Chrome","134.0.0.0","Windows","10.0","https://app.prolific.com/","en-US,en;q=0.9","67882f09d81a89e769f8f51f","686d226cabeef709c732f8e1","686e4efd129a93e64bdf3ca1","67882f09d81a89e769f8f51f","2025-07-09T11:53:43.543Z","","","","","","","","","","","","","","","","","","","","","","","","","","","","","","","","","","","","","","","","","","","","",""
"6961","","","","instructions","1","9489","0.0-1.0","290","1","2025-07-09 11:55:22","7701e855f2ef39aa3fd6c71abdc6918a","194.50.144.71","Mozilla/5.0 (Windows NT 10.0; Win64; x64) AppleWebKit/537.36 (KHTML, like Gecko) Chrome/134.0.0.0 Safari/537.36","WebKit","Chrome","134.0.0.0","Windows","10.0","https://app.prolific.com/","en-US,en;q=0.9","67882f09d81a89e769f8f51f","686d226cabeef709c732f8e1","686e4efd129a93e64bdf3ca1","67882f09d81a89e769f8f51f","","[{""page_index"":0,""viewing_time"":5919},{""page_index"":1,""viewing_time"":1041}]","","","","","","","","","","","","","","","","","","","","","","","","","","","","","","","","","","","","","","","","","","","",""
"6490","","","{""Q0"":"""",""Q1"":"""",""Q2"":"""",""Q3"":"""",""Q4"":"""",""Q5"":"""",""Q6"":""I agree""}","survey-multi-choice","2","15987","0.0-2.0","290","1","2025-07-09 11:55:22","7701e855f2ef39aa3fd6c71abdc6918a","194.50.144.71","Mozilla/5.0 (Windows NT 10.0; Win64; x64) AppleWebKit/537.36 (KHTML, like Gecko) Chrome/134.0.0.0 Safari/537.36","WebKit","Chrome","134.0.0.0","Windows","10.0","https://app.prolific.com/","en-US,en;q=0.9","67882f09d81a89e769f8f51f","686d226cabeef709c732f8e1","686e4efd129a93e64bdf3ca1","67882f09d81a89e769f8f51f","","","[0,1,2,3,4,5,6]","true","","","","","","","","","","","","","","","","","","","","","","","","","","","","","","","","","","","","","","","","","",""
"2234","","","","fullscreen","3","19234","0.0-4.0","290","1","2025-07-09 11:55:22","7701e855f2ef39aa3fd6c71abdc6918a","194.50.144.71","Mozilla/5.0 (Windows NT 10.0; Win64; x64) AppleWebKit/537.36 (KHTML, like Gecko) Chrome/134.0.0.0 Safari/537.36","WebKit","Chrome","134.0.0.0","Windows","10.0","https://app.prolific.com/","en-US,en;q=0.9","67882f09d81a89e769f8f51f","686d226cabeef709c732f8e1","686e4efd129a93e64bdf3ca1","67882f09d81a89e769f8f51f","","","","","true","","","","","","","","","","","","","","","","","","","","","","","","","","","","","","","","","","","","","","","","",""
"2449","1752062042700"," <p style='font-size:1.1em;line-height:1.25'>Thank you for completing the consent form and closing all other tabs.</p><p style='font-size:1.1em;line-height:1.25'>We will now invite you to fill in some demographic information and questionnaires, before starting the game.<br>This will take about 5 minutes.<br></p><p style='font-size:1.1em;line-height:1.25'>Press the <strong>Next</strong> button to continue.</p>","0","custom-html-button-response","4","21685","0.0-5.0","290","1","2025-07-09 11:55:22","7701e855f2ef39aa3fd6c71abdc6918a","194.50.144.71","Mozilla/5.0 (Windows NT 10.0; Win64; x64) AppleWebKit/537.36 (KHTML, like Gecko) Chrome/134.0.0.0 Safari/537.36","WebKit","Chrome","134.0.0.0","Windows","10.0","https://app.prolific.com/","en-US,en;q=0.9","67882f09d81a89e769f8f51f","686d226cabeef709c732f8e1","686e4efd129a93e64bdf3ca1","67882f09d81a89e769f8f51f","2025-07-09T11:54:02.702Z","","","","","","","","","","","","","","","","","","","","","","","","","","","","","","","","","","","","","","","","","","","","",""
"4652","","","{""age"":""31""}","survey-text","5","26348","0.0-6.0-0.0","290","1","2025-07-09 11:55:22","7701e855f2ef39aa3fd6c71abdc6918a","194.50.144.71","Mozilla/5.0 (Windows NT 10.0; Win64; x64) AppleWebKit/537.36 (KHTML, like Gecko) Chrome/134.0.0.0 Safari/537.36","WebKit","Chrome","134.0.0.0","Windows","10.0","https://app.prolific.com/","en-US,en;q=0.9","67882f09d81a89e769f8f51f","686d226cabeef709c732f8e1","686e4efd129a93e64bdf3ca1","67882f09d81a89e769f8f51f","","","","","","0","demographics","","","","","","","","","","","","","","","","","","","","","","","","","","","","","","","","","","","","","","",""
"4751","","","{""gender_identity"":""female/woman""}","survey-multi-choice","6","31102","0.0-6.0-1.0","290","1","2025-07-09 11:55:22","7701e855f2ef39aa3fd6c71abdc6918a","194.50.144.71","Mozilla/5.0 (Windows NT 10.0; Win64; x64) AppleWebKit/537.36 (KHTML, like Gecko) Chrome/134.0.0.0 Safari/537.36","WebKit","Chrome","134.0.0.0","Windows","10.0","https://app.prolific.com/","en-US,en;q=0.9","67882f09d81a89e769f8f51f","686d226cabeef709c732f8e1","686e4efd129a93e64bdf3ca1","67882f09d81a89e769f8f51f","","","[0]","","","1","demographics","","","","","","","","","","","","","","","","","","","","","","","","","","","","","","","","","","","","","","",""
"2660","","","{""assigned_sex"":""female""}","survey-multi-choice","7","33774","0.0-6.0-2.0","290","1","2025-07-09 11:55:22","7701e855f2ef39aa3fd6c71abdc6918a","194.50.144.71","Mozilla/5.0 (Windows NT 10.0; Win64; x64) AppleWebKit/537.36 (KHTML, like Gecko) Chrome/134.0.0.0 Safari/537.36","WebKit","Chrome","134.0.0.0","Windows","10.0","https://app.prolific.com/","en-US,en;q=0.9","67882f09d81a89e769f8f51f","686d226cabeef709c732f8e1","686e4efd129a93e64bdf3ca1","67882f09d81a89e769f8f51f","","","[0]","","","2","demographics","","","","","","","","","","","","","","","","","","","","","","","","","","","","","","","","","","","","","","",""
"4114","","","{""menstrual_cycle"":""Yes""}","survey-multi-choice","8","37892","0.0-6.0-3.0","290","1","2025-07-09 11:55:22","7701e855f2ef39aa3fd6c71abdc6918a","194.50.144.71","Mozilla/5.0 (Windows NT 10.0; Win64; x64) AppleWebKit/537.36 (KHTML, like Gecko) Chrome/134.0.0.0 Safari/537.36","WebKit","Chrome","134.0.0.0","Windows","10.0","https://app.prolific.com/","en-US,en;q=0.9","67882f09d81a89e769f8f51f","686d226cabeef709c732f8e1","686e4efd129a93e64bdf3ca1","67882f09d81a89e769f8f51f","","","[0]","","","4","demographics","","","","","","","","","","","","","","","","","","","","","","","","","","","","","","","","","","","","","","",""
"9338","","","{""education"":""Doctoral Degree (e.g., PhD)""}","survey-multi-choice","9","47233","0.0-6.0-4.0","290","1","2025-07-09 11:55:22","7701e855f2ef39aa3fd6c71abdc6918a","194.50.144.71","Mozilla/5.0 (Windows NT 10.0; Win64; x64) AppleWebKit/537.36 (KHTML, like Gecko) Chrome/134.0.0.0 Safari/537.36","WebKit","Chrome","134.0.0.0","Windows","10.0","https://app.prolific.com/","en-US,en;q=0.9","67882f09d81a89e769f8f51f","686d226cabeef709c732f8e1","686e4efd129a93e64bdf3ca1","67882f09d81a89e769f8f51f","","","[0]","","","5","demographics","","","","","","","","","","","","","","","","","","","","","","","","","","","","","","","","","","","","","","",""
"6757","","","{""education"":""Master's Degree (e.g., MSc)""}","survey-multi-choice","10","53994","0.0-6.0-5.0","290","1","2025-07-09 11:55:22","7701e855f2ef39aa3fd6c71abdc6918a","194.50.144.71","Mozilla/5.0 (Windows NT 10.0; Win64; x64) AppleWebKit/537.36 (KHTML, like Gecko) Chrome/134.0.0.0 Safari/537.36","WebKit","Chrome","134.0.0.0","Windows","10.0","https://app.prolific.com/","en-US,en;q=0.9","67882f09d81a89e769f8f51f","686d226cabeef709c732f8e1","686e4efd129a93e64bdf3ca1","67882f09d81a89e769f8f51f","2025-07-09T11:54:35.011Z","","[0]","","","6","demographics","","","","","","","","","","","","","","","","","","","","","","","","","","","","","","","","","","","","","","",""
"107224","","","{""mental_health_condition"":""Post Traumatic stress disorder"",""mental_health_treatment"":""Medication"",""psychiatric_medication"":""sertraline""}","survey-text","11","161226","0.0-7.0-0.0","290","1","2025-07-09 11:55:22","7701e855f2ef39aa3fd6c71abdc6918a","194.50.144.71","Mozilla/5.0 (Windows NT 10.0; Win64; x64) AppleWebKit/537.36 (KHTML, like Gecko) Chrome/134.0.0.0 Safari/537.36","WebKit","Chrome","134.0.0.0","Windows","10.0","https://app.prolific.com/","en-US,en;q=0.9","67882f09d81a89e769f8f51f","686d226cabeef709c732f8e1","686e4efd129a93e64bdf3ca1","67882f09d81a89e769f8f51f","2025-07-09T11:56:22.243Z","","","","","1","mental_health","","","","","","","","","","","","","","","","","","","","","","","","","","","","","","","","","","","","","","",""
"22964","","","{""depression_history"":[""Yes""]}","survey-multi-select","12","184196","0.0-7.0-1.0","290","1","2025-07-09 11:55:22","7701e855f2ef39aa3fd6c71abdc6918a","194.50.144.71","Mozilla/5.0 (Windows NT 10.0; Win64; x64) AppleWebKit/537.36 (KHTML, like Gecko) Chrome/134.0.0.0 Safari/537.36","WebKit","Chrome","134.0.0.0","Windows","10.0","https://app.prolific.com/","en-US,en;q=0.9","67882f09d81a89e769f8f51f","686d226cabeef709c732f8e1","686e4efd129a93e64bdf3ca1","67882f09d81a89e769f8f51f","","","[0]","","","","mental_health","","","","","","","","","","","","","","","","","","","","","","","","","","","","","","","","","","","","","","",""
"27910","","","{""depression_episodes"":""1-2"",""depression_recent"":""Within the past year""}","survey-multi-choice","13","212110","0.0-7.0-2.0-0.0","290","1","2025-07-09 11:55:22","7701e855f2ef39aa3fd6c71abdc6918a","194.50.144.71","Mozilla/5.0 (Windows NT 10.0; Win64; x64) AppleWebKit/537.36 (KHTML, like Gecko) Chrome/134.0.0.0 Safari/537.36","WebKit","Chrome","134.0.0.0","Windows","10.0","https://app.prolific.com/","en-US,en;q=0.9","67882f09d81a89e769f8f51f","686d226cabeef709c732f8e1","686e4efd129a93e64bdf3ca1","67882f09d81a89e769f8f51f","2025-07-09T11:57:13.127Z","","[0,1]","","","3","mental_health","","","","","","","","","","","","","","","","","","","","","","","","","","","","","","","","","","","","","","",""
"244192.2","","","","survey-template","14","456318","0.0-7.0-3.0","290","1","2025-07-09 11:55:22","7701e855f2ef39aa3fd6c71abdc6918a","194.50.144.71","Mozilla/5.0 (Windows NT 10.0; Win64; x64) AppleWebKit/537.36 (KHTML, like Gecko) Chrome/134.0.0.0 Safari/537.36","WebKit","Chrome","134.0.0.0","Windows","10.0","https://app.prolific.com/","en-US,en;q=0.9","67882f09d81a89e769f8f51f","686d226cabeef709c732f8e1","686e4efd129a93e64bdf3ca1","67882f09d81a89e769f8f51f","2025-07-09T12:01:17.336Z","","","","","","ius","{""Q01"":""3"",""Q02"":""4"",""Q03"":""1"",""Q04"":""2"",""Q05"":""2"",""Q06"":""0"",""Q07"":""1"",""Q08"":""0"",""Q09"":""3"",""Q10"":""4"",""Q11"":""0"",""Q12"":""3"",""Q13"":""2""}","[0,1,2,3,4,5,6,7,8,9,10,11,12]","[""Q01"",""Q02"",""Q03"",""Q03"",""Q04"",""Q05"",""Q05"",""Q06"",""Q06"",""Q07"",""Q08"",""Q09"",""Q10"",""Q10"",""Q11"",""Q12"",""Q13""]","[26567.20000000001,36947.49999999994,54152.100000000035,57545.20000000001,59424.49999999994,75767.39999999997,77704.99999999994,79295.79999999999,87223.29999999999,92870.60000000003,104380.29999999999,113841.29999999999,128272.49999999994,128420.49999999994,141105.8,185946.49999999994,187271.7]","[]","[25560.399999999965,26567.20000000001,36947.49999999994,54152.100000000035,56331.399999999965,57545.20000000001,59424.49999999994,75767.39999999997,76792.79999999999,77704.99999999994,79295.79999999999,86149.29999999999,87223.29999999999,92870.60000000003,104380.29999999999,113841.29999999999,128272.49999999994,128420.49999999994,140202.8,141105.8,184959.99999999994,185946.49999999994,187271.7,244186.10000000003]","0.23076923076923078","0.5833333333333334","0","","","","","","","","","","","","","","","","","","","","","","","","","","","","","",""
"10189","1752062487527","<p style='font-size:1.1em;line-height:1.25'>In the following, we will ask you a few questions relating to your experiences over the past month.<br></p><p style='font-size:1.1em;line-height:1.25'>Press the <strong>Next</strong> button to continue.</p>","0","custom-html-button-response","15","466511","0.0-7.0-4.0","290","1","2025-07-09 11:55:22","7701e855f2ef39aa3fd6c71abdc6918a","194.50.144.71","Mozilla/5.0 (Windows NT 10.0; Win64; x64) AppleWebKit/537.36 (KHTML, like Gecko) Chrome/134.0.0.0 Safari/537.36","WebKit","Chrome","134.0.0.0","Windows","10.0","https://app.prolific.com/","en-US,en;q=0.9","67882f09d81a89e769f8f51f","686d226cabeef709c732f8e1","686e4efd129a93e64bdf3ca1","67882f09d81a89e769f8f51f","2025-07-09T12:01:27.528Z","","","","","","","","","","","","","","","","","","","","","","","","","","","","","","","","","","","","","","","","","","","","",""
"342754.1","","","","survey-template","16","809273","0.0-7.0-5.0","290","1","2025-07-09 11:55:22","7701e855f2ef39aa3fd6c71abdc6918a","194.50.144.71","Mozilla/5.0 (Windows NT 10.0; Win64; x64) AppleWebKit/537.36 (KHTML, like Gecko) Chrome/134.0.0.0 Safari/537.36","WebKit","Chrome","134.0.0.0","Windows","10.0","https://app.prolific.com/","en-US,en;q=0.9","67882f09d81a89e769f8f51f","686d226cabeef709c732f8e1","686e4efd129a93e64bdf3ca1","67882f09d81a89e769f8f51f","2025-07-09T12:07:10.290Z","","","","","","pss","{""Q01"":""2"",""Q02"":""3"",""Q03"":""2"",""Q04"":""1"",""Q05"":""2"",""Q06"":""3"",""Q07"":""2"",""Q08"":""0"",""Q09"":""2"",""Q10"":""3""}","[0,1,2,3,4,5,6,7,8,9]","[""Q01"",""Q01"",""Q02"",""Q03"",""Q04"",""Q05"",""Q05"",""Q06"",""Q07"",""Q08"",""Q09"",""Q10""]","[166928,167085.80000000005,172581.09999999998,211433.70000000007,227418.80000000005,235210.20000000007,235358.90000000002,237116.5,261617.70000000007,315477.6,318701.4,334575.29999999993]","[]","[0.09999999997671694,166187.09999999998,166928,167085.80000000005,172581.09999999998,211433.70000000007,227418.80000000005,235210.20000000007,235358.90000000002,237116.5,261617.70000000007,313572.70000000007,315477.6,318701.4,333625.4,334575.29999999993,342751.5000000001]","0.5","0.7777777777777778","0","","","","","","","","","","","","","","","","","","","","","","","","","","","","","",""
"15141","1752062845432","<p style='font-size:1.1em;line-height:1.25'>Thank you for your answers! Now we will ask you a few more questions relating to your feelings in the last 24 hours.<br></p><p style='font-size:1.1em;line-height:1.25'>Press the <strong>Next</strong> button to continue.</p>","0","custom-html-button-response","17","824416","0.0-7.0-6.0","290","1","2025-07-09 11:55:22","7701e855f2ef39aa3fd6c71abdc6918a","194.50.144.71","Mozilla/5.0 (Windows NT 10.0; Win64; x64) AppleWebKit/537.36 (KHTML, like Gecko) Chrome/134.0.0.0 Safari/537.36","WebKit","Chrome","134.0.0.0","Windows","10.0","https://app.prolific.com/","en-US,en;q=0.9","67882f09d81a89e769f8f51f","686d226cabeef709c732f8e1","686e4efd129a93e64bdf3ca1","67882f09d81a89e769f8f51f","2025-07-09T12:07:25.433Z","","","","","","","","","","","","","","","","","","","","","","","","","","","","","","","","","","","","","","","","","","","","",""
"209074.30000000005","","","","survey-template","18","1033506","0.0-7.0-7.0","290","1","2025-07-09 11:55:22","7701e855f2ef39aa3fd6c71abdc6918a","194.50.144.71","Mozilla/5.0 (Windows NT 10.0; Win64; x64) AppleWebKit/537.36 (KHTML, like Gecko) Chrome/134.0.0.0 Safari/537.36","WebKit","Chrome","134.0.0.0","Windows","10.0","https://app.prolific.com/","en-US,en;q=0.9","67882f09d81a89e769f8f51f","686d226cabeef709c732f8e1","686e4efd129a93e64bdf3ca1","67882f09d81a89e769f8f51f","2025-07-09T12:10:54.523Z","","","","","","drsp","{""Q01"":""1"",""Q02"":""2"",""Q03"":""1"",""Q04"":""2"",""Q05"":""2"",""Q06"":""3"",""Q07"":""2"",""Q08"":""3"",""Q09"":""2"",""Q10"":""3"",""Q11"":""2"",""Q12"":""4"",""Q13"":""3"",""Q14"":""3"",""Q15"":""4"",""Q16"":""3"",""Q17"":""4"",""Q18"":""1"",""Q19"":""3"",""Q20"":""1"",""Q21"":""3""}","[0,1,2,3,4,5,6,7,8,9,10,11,12,13,14,15,16,17,18,19,20]","[""Q01"",""Q02"",""Q03"",""Q04"",""Q05"",""Q06"",""Q07"",""Q07"",""Q08"",""Q09"",""Q10"",""Q10"",""Q11"",""Q12"",""Q12"",""Q13"",""Q14"",""Q15"",""Q16"",""Q17"",""Q18"",""Q19"",""Q20"",""Q20"",""Q21""]","[26916.699999999953,29892.199999999953,47014.69999999995,49838,53168.10000000009,55279,57867.30000000005,60453.5,62572.69999999995,67485.80000000005,134811.8999999999,134814.3999999999,136541.8999999999,140248.19999999995,141957.69999999995,145710.8999999999,152518.8999999999,154735.6000000001,157377.5,164732.6000000001,171313.3999999999,193868.5,199039,201340.6000000001,203093.6000000001]","[]","[0.10000000009313226,26916.699999999953,29892.199999999953,45997.19999999995,47014.69999999995,49838,53168.10000000009,55279,57867.30000000005,59236.80000000005,60453.5,62572.69999999995,67485.80000000005,134811.8999999999,134814.3999999999,136541.8999999999,140248.19999999995,141632.19999999995,141957.69999999995,142924.3999999999,145710.8999999999,152518.8999999999,154735.6000000001,157377.5,164732.6000000001,171313.3999999999,192686.80000000005,193868.5,199039,201340.6000000001,203093.6000000001,209067.1000000001]","0.38095238095238093","0.65","0","","","","","","","","","","","","","","","","","","","","","","","","","","","","","",""
"21637.79999999993","","","","survey-template","19","1055148","0.0-7.0-8.0","290","1","2025-07-09 11:55:22","7701e855f2ef39aa3fd6c71abdc6918a","194.50.144.71","Mozilla/5.0 (Windows NT 10.0; Win64; x64) AppleWebKit/537.36 (KHTML, like Gecko) Chrome/134.0.0.0 Safari/537.36","WebKit","Chrome","134.0.0.0","Windows","10.0","https://app.prolific.com/","en-US,en;q=0.9","67882f09d81a89e769f8f51f","686d226cabeef709c732f8e1","686e4efd129a93e64bdf3ca1","67882f09d81a89e769f8f51f","2025-07-09T12:11:16.166Z","","","","","","stress","{""Q01"":""2"",""Q02"":""1"",""Q03"":""3""}","[0,1,2]","[""Q01"",""Q02"",""Q02"",""Q03""]","[12003.60000000021,14443.000000000116,18358.200000000303,19281.700000000303]","[]","[11658.500000000116,12003.60000000021,14443.000000000116,18358.200000000303,19281.700000000303,21636.400000000023]","0.3333333333333333","0.5","0","","","","","","","","","","","","","","","","","","","","","","","","","","","","","",""
"286979","","","","instructions","20","1342130","0.0-8.0-0.0","290","1","2025-07-09 11:55:22","7701e855f2ef39aa3fd6c71abdc6918a","194.50.144.71","Mozilla/5.0 (Windows NT 10.0; Win64; x64) AppleWebKit/537.36 (KHTML, like Gecko) Chrome/134.0.0.0 Safari/537.36","WebKit","Chrome","134.0.0.0","Windows","10.0","https://app.prolific.com/","en-US,en;q=0.9","67882f09d81a89e769f8f51f","686d226cabeef709c732f8e1","686e4efd129a93e64bdf3ca1","67882f09d81a89e769f8f51f","","[{""page_index"":0,""viewing_time"":50799},{""page_index"":1,""viewing_time"":112458},{""page_index"":2,""viewing_time"":49309},{""page_index"":3,""viewing_time"":74413}]","","","","","","","","","","","","","","","","","","","","","","","","","","","","","","","","","","","","","","","","","","","",""
"","","","","ctl-task-cpt","21","1367461","0.0-8.0-1.0","290","1","2025-07-09 11:55:22","7701e855f2ef39aa3fd6c71abdc6918a","194.50.144.71","Mozilla/5.0 (Windows NT 10.0; Win64; x64) AppleWebKit/537.36 (KHTML, like Gecko) Chrome/134.0.0.0 Safari/537.36","WebKit","Chrome","134.0.0.0","Windows","10.0","https://app.prolific.com/","en-US,en;q=0.9","67882f09d81a89e769f8f51f","686d226cabeef709c732f8e1","686e4efd129a93e64bdf3ca1","67882f09d81a89e769f8f51f","","","","","","","","","","","","","","","","","win-only","3","g1:SW,g2:NE","1","0","1","1351254.7","9189.8","13192.5","22300.9","2","4","4","6","2","-4","-4","0","0","0","4002.6","4000","-2225","[""up"",""right""]","{""num_key_presses"":0,""num_perfect"":0,""num_errors"":0,""num_randdir"":0,""num_randdir_good_moves"":0,""num_whilered"":0,""num_whileblue"":0,""num_blue"":1,""num_good_moves"":0}","[294.22232142857143,293.12857142857143,0.7,294.22232142857143,293.12857142857143,102.5,294.22232142857143,293.12857142857143,207,294.22232142857143,293.12857142857143,312.2,294.22232142857143,293.12857142857143,418.3,294.22232142857143,293.12857142857143,522.2,294.22232142857143,293.12857142857143,626.2,294.22232142857143,293.12857142857143,726.5,294.22232142857143,293.12857142857143,831.6,294.22232142857143,293.12857142857143,932.4,294.22232142857143,293.12857142857143,1037.9,294.22232142857143,293.12857142857143,1142.2,294.22232142857143,293.12857142857143,1243.8,294.22232142857143,293.12857142857143,1346.5,294.22232142857143,293.12857142857143,1447.4,294.22232142857143,293.12857142857143,1548,294.22232142857143,293.12857142857143,1652.7,294.22232142857143,293.12857142857143,1756.6,294.22232142857143,293.12857142857143,1861.3,294.22232142857143,293.12857142857143,1962.7,294.22232142857143,293.12857142857143,2066.6,294.22232142857143,293.12857142857143,2166.6,294.22232142857143,293.12857142857143,2266.8,294.22232142857143,293.12857142857143,2366.8,294.22232142857143,293.12857142857143,2466.8,294.22232142857143,293.12857142857143,2567.7,294.22232142857143,293.12857142857143,2672.7,298.22232142857143,271.12857142857143,2777.1,404.22232142857143,140.12857142857143,2880.9,416.22232142857143,127.12857142857143,2983.1,416.22232142857143,127.12857142857143,3087.4,443.22232142857143,87.12857142857143,3191.5,470.22232142857143,81.12857142857143,3291.7,430.22232142857143,168.12857142857143,3397.5,394.22232142857143,212.12857142857143,3501.5,394.22232142857143,212.12857142857143,3601.8,394.22232142857143,214.12857142857143,3703.1,166.22232142857143,476.12857142857143,3806.5,151.22232142857143,489.12857142857143,3907]","[]","","",""
"3470","","","","instructions","22","1370932","0.0-8.0-2.0","290","1","2025-07-09 11:55:22","7701e855f2ef39aa3fd6c71abdc6918a","194.50.144.71","Mozilla/5.0 (Windows NT 10.0; Win64; x64) AppleWebKit/537.36 (KHTML, like Gecko) Chrome/134.0.0.0 Safari/537.36","WebKit","Chrome","134.0.0.0","Windows","10.0","https://app.prolific.com/","en-US,en;q=0.9","67882f09d81a89e769f8f51f","686d226cabeef709c732f8e1","686e4efd129a93e64bdf3ca1","67882f09d81a89e769f8f51f","","[{""page_index"":0,""viewing_time"":3468}]","","","","","","","","","","","","","","","","","","","","","","","","","","","","","","","","","","","","","","","","","","","",""
"","","","","ctl-task-cpt","23","1385236","0.0-8.0-3.0","290","1","2025-07-09 11:55:22","7701e855f2ef39aa3fd6c71abdc6918a","194.50.144.71","Mozilla/5.0 (Windows NT 10.0; Win64; x64) AppleWebKit/537.36 (KHTML, like Gecko) Chrome/134.0.0.0 Safari/537.36","WebKit","Chrome","134.0.0.0","Windows","10.0","https://app.prolific.com/","en-US,en;q=0.9","67882f09d81a89e769f8f51f","686d226cabeef709c732f8e1","686e4efd129a93e64bdf3ca1","67882f09d81a89e769f8f51f","","","","","","","","","","","","","","","","","win-only","3","g1:SW,g2:NE","0.35","0","3","1380040.9","2243.7","6247.5","11299.5","2","4","8","6","1","-2","-2","0","0","0","4003.8","4000","-3005","[""down"",""left""]","{""num_key_presses"":0,""num_perfect"":0,""num_errors"":0,""num_randdir"":0,""num_randdir_good_moves"":0,""num_whilered"":0,""num_whileblue"":0,""num_blue"":0,""num_good_moves"":0}","[290.22232142857143,289.12857142857143,0.4,290.22232142857143,289.12857142857143,102.8,290.22232142857143,289.12857142857143,203.5,290.22232142857143,289.12857142857143,303.5,290.22232142857143,289.12857142857143,407.1,290.22232142857143,289.12857142857143,514.7,290.22232142857143,289.12857142857143,617.1,290.22232142857143,289.12857142857143,717.7,290.22232142857143,289.12857142857143,818.6,290.22232142857143,289.12857142857143,924,290.22232142857143,289.12857142857143,1024.1,290.22232142857143,289.12857142857143,1124.7,290.22232142857143,289.12857142857143,1227.6,290.22232142857143,289.12857142857143,1330.6,290.22232142857143,289.12857142857143,1432.3,290.22232142857143,289.12857142857143,1536.9,290.22232142857143,289.12857142857143,1642.8,290.22232142857143,289.12857142857143,1744.5,290.22232142857143,289.12857142857143,1844.5,290.22232142857143,289.12857142857143,1948.9,290.22232142857143,289.12857142857143,2050.2,290.22232142857143,289.12857142857143,2154.7,290.22232142857143,289.12857142857143,2257.6,290.22232142857143,289.12857142857143,2362.3,290.22232142857143,289.12857142857143,2467.7,290.22232142857143,289.12857142857143,2568.3,290.22232142857143,289.12857142857143,2674.2,290.22232142857143,289.12857142857143,2777.2,290.22232142857143,289.12857142857143,2877.6,290.22232142857143,289.12857142857143,2978.6,290.22232142857143,289.12857142857143,3085.1,290.22232142857143,289.12857142857143,3187,290.22232142857143,289.12857142857143,3288.6,290.22232142857143,289.12857142857143,3391.7,290.22232142857143,289.12857142857143,3492.5,290.22232142857143,289.12857142857143,3593.4,290.22232142857143,289.12857142857143,3697.9,290.22232142857143,289.12857142857143,3803,290.22232142857143,289.12857142857143,3903.1]","[]","","",""
"99281","","","","instructions","24","1484518","0.0-8.0-4.0","290","1","2025-07-09 11:55:22","7701e855f2ef39aa3fd6c71abdc6918a","194.50.144.71","Mozilla/5.0 (Windows NT 10.0; Win64; x64) AppleWebKit/537.36 (KHTML, like Gecko) Chrome/134.0.0.0 Safari/537.36","WebKit","Chrome","134.0.0.0","Windows","10.0","https://app.prolific.com/","en-US,en;q=0.9","67882f09d81a89e769f8f51f","686d226cabeef709c732f8e1","686e4efd129a93e64bdf3ca1","67882f09d81a89e769f8f51f","","[{""page_index"":0,""viewing_time"":3487},{""page_index"":1,""viewing_time"":95794}]","","","","","","","","","","","","","","","","","","","","","","","","","","","","","","","","","","","","","","","","","","","",""
"34225","","","{""green_ball"":[""Ball always moves in the direction I press""]}","survey-multi-select","25","1518748","0.0-8.0-5.0-0.0","290","1","2025-07-09 11:55:22","7701e855f2ef39aa3fd6c71abdc6918a","194.50.144.71","Mozilla/5.0 (Windows NT 10.0; Win64; x64) AppleWebKit/537.36 (KHTML, like Gecko) Chrome/134.0.0.0 Safari/537.36","WebKit","Chrome","134.0.0.0","Windows","10.0","https://app.prolific.com/","en-US,en;q=0.9","67882f09d81a89e769f8f51f","686d226cabeef709c732f8e1","686e4efd129a93e64bdf3ca1","67882f09d81a89e769f8f51f","","","[0]","","","","quiz","","","","","","","","","","","","","","","","","","","","","","","","","","","","","","","","","","","","","false","",""
"22779","","<p align='center'><b>INCORRECT.</b> Usually the green ball moves in the indicated direction, but sometimes it shakes and moves randomly. </p>","0","html-button-response","26","1541535","0.0-8.0-5.0-1.0","290","1","2025-07-09 11:55:22","7701e855f2ef39aa3fd6c71abdc6918a","194.50.144.71","Mozilla/5.0 (Windows NT 10.0; Win64; x64) AppleWebKit/537.36 (KHTML, like Gecko) Chrome/134.0.0.0 Safari/537.36","WebKit","Chrome","134.0.0.0","Windows","10.0","https://app.prolific.com/","en-US,en;q=0.9","67882f09d81a89e769f8f51f","686d226cabeef709c732f8e1","686e4efd129a93e64bdf3ca1","67882f09d81a89e769f8f51f","","","","","","","","","","","","","","","","","","","","","","","","","","","","","","","","","","","","","","","","","","","","","",""
"19625","","","{""green_ball"":[""Ball always moves in the direction I press"",""Ball sometimes shakes and moves in a random direction""]}","survey-multi-select","27","1561167","0.0-8.0-5.1-0.1","290","1","2025-07-09 11:55:22","7701e855f2ef39aa3fd6c71abdc6918a","194.50.144.71","Mozilla/5.0 (Windows NT 10.0; Win64; x64) AppleWebKit/537.36 (KHTML, like Gecko) Chrome/134.0.0.0 Safari/537.36","WebKit","Chrome","134.0.0.0","Windows","10.0","https://app.prolific.com/","en-US,en;q=0.9","67882f09d81a89e769f8f51f","686d226cabeef709c732f8e1","686e4efd129a93e64bdf3ca1","67882f09d81a89e769f8f51f","","","[0]","","","","quiz","","","","","","","","","","","","","","","","","","","","","","","","","","","","","","","","","","","","","false","",""
"9644","","<p align='center'><b>INCORRECT.</b> Usually the green ball moves in the indicated direction, but sometimes it shakes and moves randomly. </p>","0","html-button-response","28","1570815","0.0-8.0-5.1-1.1","290","1","2025-07-09 11:55:22","7701e855f2ef39aa3fd6c71abdc6918a","194.50.144.71","Mozilla/5.0 (Windows NT 10.0; Win64; x64) AppleWebKit/537.36 (KHTML, like Gecko) Chrome/134.0.0.0 Safari/537.36","WebKit","Chrome","134.0.0.0","Windows","10.0","https://app.prolific.com/","en-US,en;q=0.9","67882f09d81a89e769f8f51f","686d226cabeef709c732f8e1","686e4efd129a93e64bdf3ca1","67882f09d81a89e769f8f51f","","","","","","","","","","","","","","","","","","","","","","","","","","","","","","","","","","","","","","","","","","","","","",""
"27284","","","{""green_ball"":[""Ball always shakes and moves in a random direction"",""Ball always moves in the direction I press"",""Ball sometimes shakes and moves in a random direction""]}","survey-multi-select","29","1598104","0.0-8.0-5.2-0.2","290","1","2025-07-09 11:55:22","7701e855f2ef39aa3fd6c71abdc6918a","194.50.144.71","Mozilla/5.0 (Windows NT 10.0; Win64; x64) AppleWebKit/537.36 (KHTML, like Gecko) Chrome/134.0.0.0 Safari/537.36","WebKit","Chrome","134.0.0.0","Windows","10.0","https://app.prolific.com/","en-US,en;q=0.9","67882f09d81a89e769f8f51f","686d226cabeef709c732f8e1","686e4efd129a93e64bdf3ca1","67882f09d81a89e769f8f51f","","","[0]","","","","quiz","","","","","","","","","","","","","","","","","","","","","","","","","","","","","","","","","","","","","false","",""
"9046","","<p align='center'><b>INCORRECT.</b> Usually the green ball moves in the indicated direction, but sometimes it shakes and moves randomly. </p>","0","html-button-response","30","1607153","0.0-8.0-5.2-1.2","290","1","2025-07-09 11:55:22","7701e855f2ef39aa3fd6c71abdc6918a","194.50.144.71","Mozilla/5.0 (Windows NT 10.0; Win64; x64) AppleWebKit/537.36 (KHTML, like Gecko) Chrome/134.0.0.0 Safari/537.36","WebKit","Chrome","134.0.0.0","Windows","10.0","https://app.prolific.com/","en-US,en;q=0.9","67882f09d81a89e769f8f51f","686d226cabeef709c732f8e1","686e4efd129a93e64bdf3ca1","67882f09d81a89e769f8f51f","","","","","","","","","","","","","","","","","","","","","","","","","","","","","","","","","","","","","","","","","","","","","",""
"8140","","","{""green_ball"":[""Ball always moves in the direction I press""]}","survey-multi-select","31","1615298","0.0-8.0-5.3-0.3","290","1","2025-07-09 11:55:22","7701e855f2ef39aa3fd6c71abdc6918a","194.50.144.71","Mozilla/5.0 (Windows NT 10.0; Win64; x64) AppleWebKit/537.36 (KHTML, like Gecko) Chrome/134.0.0.0 Safari/537.36","WebKit","Chrome","134.0.0.0","Windows","10.0","https://app.prolific.com/","en-US,en;q=0.9","67882f09d81a89e769f8f51f","686d226cabeef709c732f8e1","686e4efd129a93e64bdf3ca1","67882f09d81a89e769f8f51f","","","[0]","","","","quiz","","","","","","","","","","","","","","","","","","","","","","","","","","","","","","","","","","","","","false","",""
"3725","","<p align='center'><b>INCORRECT.</b> Usually the green ball moves in the indicated direction, but sometimes it shakes and moves randomly. </p>","0","html-button-response","32","1619026","0.0-8.0-5.3-1.3","290","1","2025-07-09 11:55:22","7701e855f2ef39aa3fd6c71abdc6918a","194.50.144.71","Mozilla/5.0 (Windows NT 10.0; Win64; x64) AppleWebKit/537.36 (KHTML, like Gecko) Chrome/134.0.0.0 Safari/537.36","WebKit","Chrome","134.0.0.0","Windows","10.0","https://app.prolific.com/","en-US,en;q=0.9","67882f09d81a89e769f8f51f","686d226cabeef709c732f8e1","686e4efd129a93e64bdf3ca1","67882f09d81a89e769f8f51f","","","","","","","","","","","","","","","","","","","","","","","","","","","","","","","","","","","","","","","","","","","","","",""
"4264","","","{""green_ball"":[""Ball always moves in the direction I press""]}","survey-multi-select","33","1623293","0.0-8.0-5.4-0.4","290","1","2025-07-09 11:55:22","7701e855f2ef39aa3fd6c71abdc6918a","194.50.144.71","Mozilla/5.0 (Windows NT 10.0; Win64; x64) AppleWebKit/537.36 (KHTML, like Gecko) Chrome/134.0.0.0 Safari/537.36","WebKit","Chrome","134.0.0.0","Windows","10.0","https://app.prolific.com/","en-US,en;q=0.9","67882f09d81a89e769f8f51f","686d226cabeef709c732f8e1","686e4efd129a93e64bdf3ca1","67882f09d81a89e769f8f51f","","","[0]","","","","quiz","","","","","","","","","","","","","","","","","","","","","","","","","","","","","","","","","","","","","false","",""
"1807","","<p align='center'><b>INCORRECT.</b> Usually the green ball moves in the indicated direction, but sometimes it shakes and moves randomly. </p>","0","html-button-response","34","1625102","0.0-8.0-5.4-1.4","290","1","2025-07-09 11:55:22","7701e855f2ef39aa3fd6c71abdc6918a","194.50.144.71","Mozilla/5.0 (Windows NT 10.0; Win64; x64) AppleWebKit/537.36 (KHTML, like Gecko) Chrome/134.0.0.0 Safari/537.36","WebKit","Chrome","134.0.0.0","Windows","10.0","https://app.prolific.com/","en-US,en;q=0.9","67882f09d81a89e769f8f51f","686d226cabeef709c732f8e1","686e4efd129a93e64bdf3ca1","67882f09d81a89e769f8f51f","","","","","","","","","","","","","","","","","","","","","","","","","","","","","","","","","","","","","","","","","","","","","",""
"18302","","","{""green_ball"":[""Ball always moves in the direction I press"",""Ball sometimes shakes and moves in a random direction""]}","survey-multi-select","35","1643408","0.0-8.0-5.5-0.5","290","1","2025-07-09 11:55:22","7701e855f2ef39aa3fd6c71abdc6918a","194.50.144.71","Mozilla/5.0 (Windows NT 10.0; Win64; x64) AppleWebKit/537.36 (KHTML, like Gecko) Chrome/134.0.0.0 Safari/537.36","WebKit","Chrome","134.0.0.0","Windows","10.0","https://app.prolific.com/","en-US,en;q=0.9","67882f09d81a89e769f8f51f","686d226cabeef709c732f8e1","686e4efd129a93e64bdf3ca1","67882f09d81a89e769f8f51f","","","[0]","","","","quiz","","","","","","","","","","","","","","","","","","","","","","","","","","","","","","","","","","","","","false","",""
"7772","","<p align='center'><b>INCORRECT.</b> Usually the green ball moves in the indicated direction, but sometimes it shakes and moves randomly. </p>","0","html-button-response","36","1651183","0.0-8.0-5.5-1.5","290","1","2025-07-09 11:55:22","7701e855f2ef39aa3fd6c71abdc6918a","194.50.144.71","Mozilla/5.0 (Windows NT 10.0; Win64; x64) AppleWebKit/537.36 (KHTML, like Gecko) Chrome/134.0.0.0 Safari/537.36","WebKit","Chrome","134.0.0.0","Windows","10.0","https://app.prolific.com/","en-US,en;q=0.9","67882f09d81a89e769f8f51f","686d226cabeef709c732f8e1","686e4efd129a93e64bdf3ca1","67882f09d81a89e769f8f51f","","","","","","","","","","","","","","","","","","","","","","","","","","","","","","","","","","","","","","","","","","","","","",""
"4462","","","{""green_ball"":[""Ball sometimes shakes and moves in a random direction""]}","survey-multi-select","37","1655650","0.0-8.0-5.6-0.6","290","1","2025-07-09 11:55:22","7701e855f2ef39aa3fd6c71abdc6918a","194.50.144.71","Mozilla/5.0 (Windows NT 10.0; Win64; x64) AppleWebKit/537.36 (KHTML, like Gecko) Chrome/134.0.0.0 Safari/537.36","WebKit","Chrome","134.0.0.0","Windows","10.0","https://app.prolific.com/","en-US,en;q=0.9","67882f09d81a89e769f8f51f","686d226cabeef709c732f8e1","686e4efd129a93e64bdf3ca1","67882f09d81a89e769f8f51f","","","[0]","","","","quiz","","","","","","","","","","","","","","","","","","","","","","","","","","","","","","","","","","","","","true","",""
"18069","","<p align='center'><b>CORRECT!</b> Indeed, the green ball may sometimes shake and move in a random direction.</p>","0","html-button-response","38","1673721","0.0-8.0-5.6-1.6","290","1","2025-07-09 11:55:22","7701e855f2ef39aa3fd6c71abdc6918a","194.50.144.71","Mozilla/5.0 (Windows NT 10.0; Win64; x64) AppleWebKit/537.36 (KHTML, like Gecko) Chrome/134.0.0.0 Safari/537.36","WebKit","Chrome","134.0.0.0","Windows","10.0","https://app.prolific.com/","en-US,en;q=0.9","67882f09d81a89e769f8f51f","686d226cabeef709c732f8e1","686e4efd129a93e64bdf3ca1","67882f09d81a89e769f8f51f","","","","","","","","","","","","","","","","","","","","","","","","","","","","","","","","","","","","","","","","","","","","","",""
"17360","","","{""yellow_ball"":[""Ball doesn‘t move and I get -1 penalty point""]}","survey-multi-select","39","1691084","0.0-8.0-6.0-0.0","290","1","2025-07-09 11:55:22","7701e855f2ef39aa3fd6c71abdc6918a","194.50.144.71","Mozilla/5.0 (Windows NT 10.0; Win64; x64) AppleWebKit/537.36 (KHTML, like Gecko) Chrome/134.0.0.0 Safari/537.36","WebKit","Chrome","134.0.0.0","Windows","10.0","https://app.prolific.com/","en-US,en;q=0.9","67882f09d81a89e769f8f51f","686d226cabeef709c732f8e1","686e4efd129a93e64bdf3ca1","67882f09d81a89e769f8f51f","","","[0]","","","","quiz","","","","","","","","","","","","","","","","","","","","","","","","","","","","","","","","","","","","","true","",""
"5931","","<p align='center'><b>CORRECT!</b> Indeed, the yellow ball never moves and you receive a penalty.</p>","0","html-button-response","40","1697019","0.0-8.0-6.0-1.0","290","1","2025-07-09 11:55:22","7701e855f2ef39aa3fd6c71abdc6918a","194.50.144.71","Mozilla/5.0 (Windows NT 10.0; Win64; x64) AppleWebKit/537.36 (KHTML, like Gecko) Chrome/134.0.0.0 Safari/537.36","WebKit","Chrome","134.0.0.0","Windows","10.0","https://app.prolific.com/","en-US,en;q=0.9","67882f09d81a89e769f8f51f","686d226cabeef709c732f8e1","686e4efd129a93e64bdf3ca1","67882f09d81a89e769f8f51f","","","","","","","","","","","","","","","","","","","","","","","","","","","","","","","","","","","","","","","","","","","","","",""
"9663","","","{""blue_ball"":[""Ball doesn‘t move and I get -1 penalty point""]}","survey-multi-select","41","1706688","0.0-8.0-7.0-0.0","290","1","2025-07-09 11:55:22","7701e855f2ef39aa3fd6c71abdc6918a","194.50.144.71","Mozilla/5.0 (Windows NT 10.0; Win64; x64) AppleWebKit/537.36 (KHTML, like Gecko) Chrome/134.0.0.0 Safari/537.36","WebKit","Chrome","134.0.0.0","Windows","10.0","https://app.prolific.com/","en-US,en;q=0.9","67882f09d81a89e769f8f51f","686d226cabeef709c732f8e1","686e4efd129a93e64bdf3ca1","67882f09d81a89e769f8f51f","","","[0]","","","","quiz","","","","","","","","","","","","","","","","","","","","","","","","","","","","","","","","","","","","","false","",""
"5317","","<p align='center'><b>INCORRECT.</b> The blue ball always shakes and moves randomly.</p>","0","html-button-response","42","1712008","0.0-8.0-7.0-1.0","290","1","2025-07-09 11:55:22","7701e855f2ef39aa3fd6c71abdc6918a","194.50.144.71","Mozilla/5.0 (Windows NT 10.0; Win64; x64) AppleWebKit/537.36 (KHTML, like Gecko) Chrome/134.0.0.0 Safari/537.36","WebKit","Chrome","134.0.0.0","Windows","10.0","https://app.prolific.com/","en-US,en;q=0.9","67882f09d81a89e769f8f51f","686d226cabeef709c732f8e1","686e4efd129a93e64bdf3ca1","67882f09d81a89e769f8f51f","","","","","","","","","","","","","","","","","","","","","","","","","","","","","","","","","","","","","","","","","","","","","",""
"9480","","","{""blue_ball"":[""Ball always shakes and moves in a random direction""]}","survey-multi-select","43","1721492","0.0-8.0-7.1-0.1","290","1","2025-07-09 11:55:22","7701e855f2ef39aa3fd6c71abdc6918a","194.50.144.71","Mozilla/5.0 (Windows NT 10.0; Win64; x64) AppleWebKit/537.36 (KHTML, like Gecko) Chrome/134.0.0.0 Safari/537.36","WebKit","Chrome","134.0.0.0","Windows","10.0","https://app.prolific.com/","en-US,en;q=0.9","67882f09d81a89e769f8f51f","686d226cabeef709c732f8e1","686e4efd129a93e64bdf3ca1","67882f09d81a89e769f8f51f","","","[0]","","","","quiz","","","","","","","","","","","","","","","","","","","","","","","","","","","","","","","","","","","","","true","",""
"10561","","<p align='center'><b>CORRECT!</b> Indeed, the blue ball always shakes and moves in a random direction. Also there is a penalty of -1 point.</p>","0","html-button-response","44","1732056","0.0-8.0-7.1-1.1","290","1","2025-07-09 11:55:22","7701e855f2ef39aa3fd6c71abdc6918a","194.50.144.71","Mozilla/5.0 (Windows NT 10.0; Win64; x64) AppleWebKit/537.36 (KHTML, like Gecko) Chrome/134.0.0.0 Safari/537.36","WebKit","Chrome","134.0.0.0","Windows","10.0","https://app.prolific.com/","en-US,en;q=0.9","67882f09d81a89e769f8f51f","686d226cabeef709c732f8e1","686e4efd129a93e64bdf3ca1","67882f09d81a89e769f8f51f","","","","","","","","","","","","","","","","","","","","","","","","","","","","","","","","","","","","","","","","","","","","","",""
"6736","","","{""bonus"":[""When I reach 50% of points""]}","survey-multi-select","45","1738796","0.0-8.0-8.0-0.0","290","1","2025-07-09 11:55:22","7701e855f2ef39aa3fd6c71abdc6918a","194.50.144.71","Mozilla/5.0 (Windows NT 10.0; Win64; x64) AppleWebKit/537.36 (KHTML, like Gecko) Chrome/134.0.0.0 Safari/537.36","WebKit","Chrome","134.0.0.0","Windows","10.0","https://app.prolific.com/","en-US,en;q=0.9","67882f09d81a89e769f8f51f","686d226cabeef709c732f8e1","686e4efd129a93e64bdf3ca1","67882f09d81a89e769f8f51f","","","[0]","","","","quiz","","","","","","","","","","","","","","","","","","","","","","","","","","","","","","","","","","","","","true","",""
"1945","","<p align='center'><b>CORRECT!</b> Indeed, you receive 2 pounds extra when you reach 50% of points.</p>","0","html-button-response","46","1740743","0.0-8.0-8.0-1.0","290","1","2025-07-09 11:55:22","7701e855f2ef39aa3fd6c71abdc6918a","194.50.144.71","Mozilla/5.0 (Windows NT 10.0; Win64; x64) AppleWebKit/537.36 (KHTML, like Gecko) Chrome/134.0.0.0 Safari/537.36","WebKit","Chrome","134.0.0.0","Windows","10.0","https://app.prolific.com/","en-US,en;q=0.9","67882f09d81a89e769f8f51f","686d226cabeef709c732f8e1","686e4efd129a93e64bdf3ca1","67882f09d81a89e769f8f51f","","","","","","","","","","","","","","","","","","","","","","","","","","","","","","","","","","","","","","","","","","","","","",""
"7362","","","","instructions","47","1748107","0.0-8.0-9.0","290","1","2025-07-09 11:55:22","7701e855f2ef39aa3fd6c71abdc6918a","194.50.144.71","Mozilla/5.0 (Windows NT 10.0; Win64; x64) AppleWebKit/537.36 (KHTML, like Gecko) Chrome/134.0.0.0 Safari/537.36","WebKit","Chrome","134.0.0.0","Windows","10.0","https://app.prolific.com/","en-US,en;q=0.9","67882f09d81a89e769f8f51f","686d226cabeef709c732f8e1","686e4efd129a93e64bdf3ca1","67882f09d81a89e769f8f51f","","[{""page_index"":0,""viewing_time"":7361}]","","","","","","","","","","","","","","","","","","","","","","","","","","","","","","","","","","","","","","","","","","","",""
"34478","","<p>Before you start with this game please answer the following three questions yourself. </p>
  <p>Through this game, we measure several aspects of your cognitive performance, such as reaction times, multi-tasking capabilities </p>
  <p>and the ability to assess the situation you are in.</p>
  <p></p>
  <p><b>How good do you usually are in such tasks?</b></p>","100","html-slider-response","48","1782590","0.0-9.0-0.0","290","1","2025-07-09 11:55:22","7701e855f2ef39aa3fd6c71abdc6918a","194.50.144.71","Mozilla/5.0 (Windows NT 10.0; Win64; x64) AppleWebKit/537.36 (KHTML, like Gecko) Chrome/134.0.0.0 Safari/537.36","WebKit","Chrome","134.0.0.0","Windows","10.0","https://app.prolific.com/","en-US,en;q=0.9","67882f09d81a89e769f8f51f","686d226cabeef709c732f8e1","686e4efd129a93e64bdf3ca1","67882f09d81a89e769f8f51f","2025-07-09T12:23:23.607Z","","","","","","PreSkillQ","","","","","","","","","","","","","","","","","","","","","","","","","","","","","","","","","","","","","","50",""
"9969","","<div style=""width:500px;"">
  <p>How well do you think you will perform in this task compared to other participants?</p>
  </div>","100","html-slider-response","49","1792563","0.0-9.0-1.0","290","1","2025-07-09 11:55:22","7701e855f2ef39aa3fd6c71abdc6918a","194.50.144.71","Mozilla/5.0 (Windows NT 10.0; Win64; x64) AppleWebKit/537.36 (KHTML, like Gecko) Chrome/134.0.0.0 Safari/537.36","WebKit","Chrome","134.0.0.0","Windows","10.0","https://app.prolific.com/","en-US,en;q=0.9","67882f09d81a89e769f8f51f","686d226cabeef709c732f8e1","686e4efd129a93e64bdf3ca1","67882f09d81a89e769f8f51f","2025-07-09T12:23:33.580Z","","","","","","PrePerfQ","","","","","","","","","","","","","","","","","","","","","","","","","","","","","","","","","","","","","","50",""
"7387","","<div style=""width:500px;"">
  <p>What best describes how you currently feel?</p>
  </div>","100","html-slider-response","50","1799953","0.0-9.0-2.0","290","1","2025-07-09 11:55:22","7701e855f2ef39aa3fd6c71abdc6918a","194.50.144.71","Mozilla/5.0 (Windows NT 10.0; Win64; x64) AppleWebKit/537.36 (KHTML, like Gecko) Chrome/134.0.0.0 Safari/537.36","WebKit","Chrome","134.0.0.0","Windows","10.0","https://app.prolific.com/","en-US,en;q=0.9","67882f09d81a89e769f8f51f","686d226cabeef709c732f8e1","686e4efd129a93e64bdf3ca1","67882f09d81a89e769f8f51f","2025-07-09T12:23:40.970Z","","","","","","PreMotivationQ","","","","","","","","","","","","","","","","","","","","","","","","","","","","","","","","","","","","","","50",""
"","","","","ctl-task-cpt","51","1852667","0.0-10.0-0.0","290","1","2025-07-09 11:55:22","7701e855f2ef39aa3fd6c71abdc6918a","194.50.144.71","Mozilla/5.0 (Windows NT 10.0; Win64; x64) AppleWebKit/537.36 (KHTML, like Gecko) Chrome/134.0.0.0 Safari/537.36","WebKit","Chrome","134.0.0.0","Windows","10.0","https://app.prolific.com/","en-US,en;q=0.9","67882f09d81a89e769f8f51f","686d226cabeef709c732f8e1","686e4efd129a93e64bdf3ca1","67882f09d81a89e769f8f51f","2025-07-09T12:24:33.684Z","","","","","","","","","","","","","","","","win-only","1","g1:NE,g2:SW","1","1","0","1809063.6","9153.7","14163.6","49692","1","4","4","6","2","-4","-6","0","0","0","5009.8","3000","-2845","[""down"",""left""]","{""num_key_presses"":7,""num_perfect"":5,""num_errors"":2,""num_randdir"":0,""num_randdir_good_moves"":0,""num_whilered"":0,""num_whileblue"":0,""num_blue"":4,""num_good_moves"":5}","[293.22232142857143,293.12857142857143,0.5,293.22232142857143,293.12857142857143,106.5,293.22232142857143,293.12857142857143,207.4,293.22232142857143,293.12857142857143,307.7,293.22232142857143,293.12857142857143,412.2,293.22232142857143,293.12857142857143,512.5,293.22232142857143,293.12857142857143,617.4,293.22232142857143,293.12857142857143,717.6,293.22232142857143,293.12857142857143,829.9,293.22232142857143,293.12857142857143,931,293.22232142857143,293.12857142857143,1032.6,293.22232142857143,293.12857142857143,1134.1,293.22232142857143,293.12857142857143,1235,293.22232142857143,293.12857142857143,1338.3,293.22232142857143,293.12857142857143,1438.8,293.22232142857143,293.12857142857143,1542.6,293.22232142857143,293.12857142857143,1647.5,293.22232142857143,293.12857142857143,1747.7,293.22232142857143,293.12857142857143,1861.3,293.22232142857143,293.12857142857143,1961.9,293.22232142857143,293.12857142857143,2062,293.22232142857143,293.12857142857143,2162.2,293.22232142857143,293.12857142857143,2264.4,293.22232142857143,293.12857142857143,2367.6,293.22232142857143,293.12857142857143,2467.8,293.22232142857143,293.12857142857143,2572.4,293.22232142857143,293.12857142857143,2673.1,293.22232142857143,293.12857142857143,2788.3,293.22232142857143,293.12857142857143,2890.5,293.22232142857143,293.12857142857143,2992.7,293.22232142857143,293.12857142857143,3096.1,293.22232142857143,293.12857142857143,3197,293.22232142857143,293.12857142857143,3297.4,293.22232142857143,293.12857142857143,3413.1,293.22232142857143,293.12857142857143,3515.5,293.22232142857143,293.12857142857143,3617.2,293.22232142857143,293.12857142857143,3717.8,293.22232142857143,293.12857142857143,3817.9,293.22232142857143,293.12857142857143,3918.8,293.22232142857143,293.12857142857143,4018.8,293.22232142857143,293.12857142857143,4120.9,293.22232142857143,293.12857142857143,4223.4,293.22232142857143,293.12857142857143,4328.1,293.22232142857143,293.12857142857143,4432.7,293.22232142857143,293.12857142857143,4533.6,293.22232142857143,293.12857142857143,4633.6,293.22232142857143,293.12857142857143,4738.7,293.22232142857143,293.12857142857143,4845.3,293.22232142857143,293.12857142857143,4949]","[12295.6,12295.6,2702.5,8939.1,654,""smooth"",""down"",""down"",""good_move"",13652.3,1356,1804.9,12296.5,-449,""error"",""-"",""-"",""no_move"",18326.6,4673,2868.5,14657,801.1,""smooth"",""down"",""down"",""good_move"",24664.1,6337.3,2480.5,21613.1,570.5,""smooth"",""down"",""down"",""good_move"",27590.7,2926.4,2162.4,24664.3,764,""smooth"",""left"",""left"",""good_move"",31143.3,3552.1,3063.2,27591.2,488.9,""smooth"",""left"",""left"",""good_move"",31565.3,421.6,2753.5,31143.7,-2331.9,""error"",""-"",""-"",""no_move""]","","",""
"16363","","<div style=""width:500px;"">
  <p>What determined the result of this run?</p>
  </div>","77","html-slider-response","52","1869033","0.0-10.0-1.0","290","1","2025-07-09 11:55:22","7701e855f2ef39aa3fd6c71abdc6918a","194.50.144.71","Mozilla/5.0 (Windows NT 10.0; Win64; x64) AppleWebKit/537.36 (KHTML, like Gecko) Chrome/134.0.0.0 Safari/537.36","WebKit","Chrome","134.0.0.0","Windows","10.0","https://app.prolific.com/","en-US,en;q=0.9","67882f09d81a89e769f8f51f","686d226cabeef709c732f8e1","686e4efd129a93e64bdf3ca1","67882f09d81a89e769f8f51f","2025-07-09T12:24:50.050Z","","","","","","AttribQ","","","","","","","","","","","","","","","","","","","","","","","","","","","","","","","","","","","","","","50",""
"5627","","<div style=""width:500px;"">
  <p>How much control did you have over the ball?</p>
  </div>","69","html-slider-response","53","1874668","0.0-10.0-2.0","290","1","2025-07-09 11:55:22","7701e855f2ef39aa3fd6c71abdc6918a","194.50.144.71","Mozilla/5.0 (Windows NT 10.0; Win64; x64) AppleWebKit/537.36 (KHTML, like Gecko) Chrome/134.0.0.0 Safari/537.36","WebKit","Chrome","134.0.0.0","Windows","10.0","https://app.prolific.com/","en-US,en;q=0.9","67882f09d81a89e769f8f51f","686d226cabeef709c732f8e1","686e4efd129a93e64bdf3ca1","67882f09d81a89e769f8f51f","2025-07-09T12:24:55.687Z","","","","","","ControlQ","","","","","","","","","","","","","","","","","","","","","","","","","","","","","","","","","","","","","","50",""
"7849","","<div style=""width:500px;"">
  <p>How would you describe your current emotional state?</p>
  </div>","63","html-slider-response","54","1882525","0.0-10.0-3.0","290","1","2025-07-09 11:55:22","7701e855f2ef39aa3fd6c71abdc6918a","194.50.144.71","Mozilla/5.0 (Windows NT 10.0; Win64; x64) AppleWebKit/537.36 (KHTML, like Gecko) Chrome/134.0.0.0 Safari/537.36","WebKit","Chrome","134.0.0.0","Windows","10.0","https://app.prolific.com/","en-US,en;q=0.9","67882f09d81a89e769f8f51f","686d226cabeef709c732f8e1","686e4efd129a93e64bdf3ca1","67882f09d81a89e769f8f51f","2025-07-09T12:25:03.542Z","","","","","","StressQ","","","","","","","","","","","","","","","","","","","","","","","","","","","","","","","","","","","","","","50",""
"10819","","<div style=""width:500px;"">
  <p>What best describes how you currently feel?</p>
  </div>","71","html-slider-response","55","1893348","0.0-10.0-4.0","290","1","2025-07-09 11:55:22","7701e855f2ef39aa3fd6c71abdc6918a","194.50.144.71","Mozilla/5.0 (Windows NT 10.0; Win64; x64) AppleWebKit/537.36 (KHTML, like Gecko) Chrome/134.0.0.0 Safari/537.36","WebKit","Chrome","134.0.0.0","Windows","10.0","https://app.prolific.com/","en-US,en;q=0.9","67882f09d81a89e769f8f51f","686d226cabeef709c732f8e1","686e4efd129a93e64bdf3ca1","67882f09d81a89e769f8f51f","2025-07-09T12:25:14.365Z","","","","","","MotivationQ","","","","","","","","","","","","","","","","","","","","","","","","","","","","","","","","","","","","","","50",""
"","","","","ctl-task-cpt","56","1923217","0.0-10.0-0.1","290","1","2025-07-09 11:55:22","7701e855f2ef39aa3fd6c71abdc6918a","194.50.144.71","Mozilla/5.0 (Windows NT 10.0; Win64; x64) AppleWebKit/537.36 (KHTML, like Gecko) Chrome/134.0.0.0 Safari/537.36","WebKit","Chrome","134.0.0.0","Windows","10.0","https://app.prolific.com/","en-US,en;q=0.9","67882f09d81a89e769f8f51f","686d226cabeef709c732f8e1","686e4efd129a93e64bdf3ca1","67882f09d81a89e769f8f51f","2025-07-09T12:25:44.234Z","","","","","","","","","","","","","","","","win-only","1","g1:NE,g2:SW","0.9","2","0","1902459","1766.1","6774.3","26857.1","1","4","8","6","2","8","7","7","0","0.05303030303030303","5008.2","3000","1195","[""down"",""left""]","{""num_key_presses"":6,""num_perfect"":5,""num_errors"":1,""num_randdir"":0,""num_randdir_good_moves"":0,""num_whilered"":0,""num_whileblue"":1,""num_blue"":2,""num_good_moves"":6}","[294.22232142857143,297.12857142857143,0.2,294.22232142857143,297.12857142857143,103.1,294.22232142857143,297.12857142857143,205,294.22232142857143,297.12857142857143,310.5,294.22232142857143,297.12857142857143,423.6,294.22232142857143,297.12857142857143,525.9,294.22232142857143,297.12857142857143,626.1,294.22232142857143,297.12857142857143,729.8,294.22232142857143,297.12857142857143,834.3,296.22232142857143,311.12857142857143,935,295.22232142857143,375.12857142857143,1035.9,303.22232142857143,402.12857142857143,1141.7,303.22232142857143,402.12857142857143,1245.3,303.22232142857143,402.12857142857143,1345.7,303.22232142857143,402.12857142857143,1453.8,303.22232142857143,402.12857142857143,1555,303.22232142857143,402.12857142857143,1658.1,303.22232142857143,402.12857142857143,1758.4,303.22232142857143,402.12857142857143,1860.9,303.22232142857143,402.12857142857143,1964.8,303.22232142857143,402.12857142857143,2079.7,303.22232142857143,402.12857142857143,2179.7,303.22232142857143,402.12857142857143,2283.4,303.22232142857143,402.12857142857143,2385,303.22232142857143,402.12857142857143,2490.6,303.22232142857143,402.12857142857143,2604.7,303.22232142857143,402.12857142857143,2706.5,303.22232142857143,402.12857142857143,2806.5,303.22232142857143,402.12857142857143,2906.6,303.22232142857143,402.12857142857143,3008.3,303.22232142857143,402.12857142857143,3110.5,303.22232142857143,402.12857142857143,3210.6,303.22232142857143,402.12857142857143,3314.6,303.22232142857143,402.12857142857143,3414.9,303.22232142857143,402.12857142857143,3520,303.22232142857143,402.12857142857143,3625.9,303.22232142857143,402.12857142857143,3735.2,303.22232142857143,402.12857142857143,3836.2,303.22232142857143,402.12857142857143,3937,303.22232142857143,402.12857142857143,4041.4,303.22232142857143,402.12857142857143,4160.7,303.22232142857143,402.12857142857143,4265.7,303.22232142857143,402.12857142857143,4381.4,303.22232142857143,402.12857142857143,4482.8,303.22232142857143,402.12857142857143,4585.2,303.22232142857143,402.12857142857143,4690.4,303.22232142857143,402.12857142857143,4790.4,303.22232142857143,402.12857142857143,4896]","[4714.2,4714.3,2137.5,2017.1,559.7,""while_blue"",""left"",""left"",""good_move"",7464.4,2748.6,2126.2,4715.8,622.4,""smooth"",""left"",""left"",""good_move"",11078.4,3613.1,2954.1,7465.4,658.9,""smooth"",""down"",""down"",""good_move"",14262.8,3183.6,2663.7,11079.3,519.9,""smooth"",""down"",""down"",""good_move"",17073.7,2810,2362.7,14263.9,447.1,""smooth"",""down"",""down"",""good_move"",19951.2,2876.8,2415.1,17074.5,461.6,""smooth"",""left"",""left"",""good_move""]","","",""
"4493","","<div style=""width:500px;"">
  <p>What determined the result of this run?</p>
  </div>","98","html-slider-response","57","1927712","0.0-10.0-1.1","290","1","2025-07-09 11:55:22","7701e855f2ef39aa3fd6c71abdc6918a","194.50.144.71","Mozilla/5.0 (Windows NT 10.0; Win64; x64) AppleWebKit/537.36 (KHTML, like Gecko) Chrome/134.0.0.0 Safari/537.36","WebKit","Chrome","134.0.0.0","Windows","10.0","https://app.prolific.com/","en-US,en;q=0.9","67882f09d81a89e769f8f51f","686d226cabeef709c732f8e1","686e4efd129a93e64bdf3ca1","67882f09d81a89e769f8f51f","2025-07-09T12:25:48.729Z","","","","","","AttribQ","","","","","","","","","","","","","","","","","","","","","","","","","","","","","","","","","","","","","","50",""
"3439","","<div style=""width:500px;"">
  <p>How much control did you have over the ball?</p>
  </div>","98","html-slider-response","58","1931153","0.0-10.0-2.1","290","1","2025-07-09 11:55:22","7701e855f2ef39aa3fd6c71abdc6918a","194.50.144.71","Mozilla/5.0 (Windows NT 10.0; Win64; x64) AppleWebKit/537.36 (KHTML, like Gecko) Chrome/134.0.0.0 Safari/537.36","WebKit","Chrome","134.0.0.0","Windows","10.0","https://app.prolific.com/","en-US,en;q=0.9","67882f09d81a89e769f8f51f","686d226cabeef709c732f8e1","686e4efd129a93e64bdf3ca1","67882f09d81a89e769f8f51f","2025-07-09T12:25:52.170Z","","","","","","ControlQ","","","","","","","","","","","","","","","","","","","","","","","","","","","","","","","","","","","","","","50",""
"2262","","<div style=""width:500px;"">
  <p>How would you describe your current emotional state?</p>
  </div>","98","html-slider-response","59","1933417","0.0-10.0-3.1","290","1","2025-07-09 11:55:22","7701e855f2ef39aa3fd6c71abdc6918a","194.50.144.71","Mozilla/5.0 (Windows NT 10.0; Win64; x64) AppleWebKit/537.36 (KHTML, like Gecko) Chrome/134.0.0.0 Safari/537.36","WebKit","Chrome","134.0.0.0","Windows","10.0","https://app.prolific.com/","en-US,en;q=0.9","67882f09d81a89e769f8f51f","686d226cabeef709c732f8e1","686e4efd129a93e64bdf3ca1","67882f09d81a89e769f8f51f","2025-07-09T12:25:54.435Z","","","","","","StressQ","","","","","","","","","","","","","","","","","","","","","","","","","","","","","","","","","","","","","","50",""
"3179","","<div style=""width:500px;"">
  <p>What best describes how you currently feel?</p>
  </div>","93","html-slider-response","60","1936599","0.0-10.0-4.1","290","1","2025-07-09 11:55:22","7701e855f2ef39aa3fd6c71abdc6918a","194.50.144.71","Mozilla/5.0 (Windows NT 10.0; Win64; x64) AppleWebKit/537.36 (KHTML, like Gecko) Chrome/134.0.0.0 Safari/537.36","WebKit","Chrome","134.0.0.0","Windows","10.0","https://app.prolific.com/","en-US,en;q=0.9","67882f09d81a89e769f8f51f","686d226cabeef709c732f8e1","686e4efd129a93e64bdf3ca1","67882f09d81a89e769f8f51f","2025-07-09T12:25:57.616Z","","","","","","MotivationQ","","","","","","","","","","","","","","","","","","","","","","","","","","","","","","","","","","","","","","50",""
"","","","","ctl-task-cpt","61","1963933","0.0-10.0-0.2","290","1","2025-07-09 11:55:22","7701e855f2ef39aa3fd6c71abdc6918a","194.50.144.71","Mozilla/5.0 (Windows NT 10.0; Win64; x64) AppleWebKit/537.36 (KHTML, like Gecko) Chrome/134.0.0.0 Safari/537.36","WebKit","Chrome","134.0.0.0","Windows","10.0","https://app.prolific.com/","en-US,en;q=0.9","67882f09d81a89e769f8f51f","686d226cabeef709c732f8e1","686e4efd129a93e64bdf3ca1","67882f09d81a89e769f8f51f","2025-07-09T12:26:24.950Z","","","","","","","","","","","","","","","","win-only","2","g1:SE,g2:NW","0.8","3","0","1945710.1","2736.1","7750.1","24312.8","1","4","8","6","1","1","0","7","7","0.05303030303030303","5013.9","3000","1270","[""down"",""right""]","{""num_key_presses"":6,""num_perfect"":5,""num_errors"":1,""num_randdir"":0,""num_randdir_good_moves"":0,""num_whilered"":0,""num_whileblue"":1,""num_blue"":1,""num_good_moves"":5}","[295.22232142857143,293.12857142857143,1.4,295.22232142857143,293.12857142857143,110.1,295.22232142857143,293.12857142857143,216.5,295.22232142857143,293.12857142857143,323.3,295.22232142857143,293.12857142857143,429.3,295.22232142857143,293.12857142857143,530.1,295.22232142857143,293.12857142857143,635.5,295.22232142857143,293.12857142857143,752.5,295.22232142857143,293.12857142857143,854.8,295.22232142857143,293.12857142857143,955.3,295.22232142857143,293.12857142857143,1055.4,295.22232142857143,293.12857142857143,1156.7,295.22232142857143,293.12857142857143,1260.3,295.22232142857143,293.12857142857143,1367.5,295.22232142857143,293.12857142857143,1475.2,295.22232142857143,293.12857142857143,1579.5,295.22232142857143,293.12857142857143,1681.5,295.22232142857143,293.12857142857143,1783,295.22232142857143,293.12857142857143,1885.3,295.22232142857143,293.12857142857143,1986.1,295.22232142857143,293.12857142857143,2089.4,295.22232142857143,293.12857142857143,2206.9,295.22232142857143,293.12857142857143,2307.8,295.22232142857143,293.12857142857143,2426.5,295.22232142857143,293.12857142857143,2526.5,295.22232142857143,293.12857142857143,2629.5,295.22232142857143,293.12857142857143,2741.2,295.22232142857143,293.12857142857143,2849.3,295.22232142857143,293.12857142857143,2951.1,295.22232142857143,293.12857142857143,3057.2,295.22232142857143,293.12857142857143,3175.1,295.22232142857143,293.12857142857143,3275.7,295.22232142857143,293.12857142857143,3375.9,295.22232142857143,293.12857142857143,3480,295.22232142857143,293.12857142857143,3580.7,295.22232142857143,293.12857142857143,3684.3,295.22232142857143,293.12857142857143,3785.1,295.22232142857143,293.12857142857143,3900.6,295.22232142857143,293.12857142857143,4001.9,295.22232142857143,293.12857142857143,4105.1,295.22232142857143,293.12857142857143,4206.1,295.22232142857143,293.12857142857143,4309.9,295.22232142857143,293.12857142857143,4410.9,295.22232142857143,293.12857142857143,4523.9,295.22232142857143,293.12857142857143,4626.4,295.22232142857143,293.12857142857143,4728.7,295.22232142857143,293.12857142857143,4830.9,295.22232142857143,293.12857142857143,4936]","[1549.6,1549.6,1000,0,549.7,""smooth"",""down"",""down"",""good_move"",4759.1,3208.7,2744.5,1550.4,464.2,""smooth"",""down"",""down"",""good_move"",7946.5,3186.9,2737.5,4759.7,449.4,""while_blue"",""right"",""up"",""bad_move"",10823.8,2875.7,2263.5,7948.1,612.3,""smooth"",""right"",""right"",""good_move"",13412.9,2588,1937.1,10824.9,650.9,""smooth"",""right"",""right"",""good_move"",16424.1,3010.6,2589.8,13413.5,420.8,""smooth"",""down"",""down"",""good_move""]","","",""
"3034","","<div style=""width:500px;"">
  <p>What determined the result of this run?</p>
  </div>","84","html-slider-response","62","1966970","0.0-10.0-1.2","290","1","2025-07-09 11:55:22","7701e855f2ef39aa3fd6c71abdc6918a","194.50.144.71","Mozilla/5.0 (Windows NT 10.0; Win64; x64) AppleWebKit/537.36 (KHTML, like Gecko) Chrome/134.0.0.0 Safari/537.36","WebKit","Chrome","134.0.0.0","Windows","10.0","https://app.prolific.com/","en-US,en;q=0.9","67882f09d81a89e769f8f51f","686d226cabeef709c732f8e1","686e4efd129a93e64bdf3ca1","67882f09d81a89e769f8f51f","2025-07-09T12:26:27.987Z","","","","","","AttribQ","","","","","","","","","","","","","","","","","","","","","","","","","","","","","","","","","","","","","","50",""
"1996","","<div style=""width:500px;"">
  <p>How much control did you have over the ball?</p>
  </div>","95","html-slider-response","63","1968968","0.0-10.0-2.2","290","1","2025-07-09 11:55:22","7701e855f2ef39aa3fd6c71abdc6918a","194.50.144.71","Mozilla/5.0 (Windows NT 10.0; Win64; x64) AppleWebKit/537.36 (KHTML, like Gecko) Chrome/134.0.0.0 Safari/537.36","WebKit","Chrome","134.0.0.0","Windows","10.0","https://app.prolific.com/","en-US,en;q=0.9","67882f09d81a89e769f8f51f","686d226cabeef709c732f8e1","686e4efd129a93e64bdf3ca1","67882f09d81a89e769f8f51f","2025-07-09T12:26:29.985Z","","","","","","ControlQ","","","","","","","","","","","","","","","","","","","","","","","","","","","","","","","","","","","","","","50",""
"5369","","<div style=""width:500px;"">
  <p>How would you describe your current emotional state?</p>
  </div>","98","html-slider-response","64","1974340","0.0-10.0-3.2","290","1","2025-07-09 11:55:22","7701e855f2ef39aa3fd6c71abdc6918a","194.50.144.71","Mozilla/5.0 (Windows NT 10.0; Win64; x64) AppleWebKit/537.36 (KHTML, like Gecko) Chrome/134.0.0.0 Safari/537.36","WebKit","Chrome","134.0.0.0","Windows","10.0","https://app.prolific.com/","en-US,en;q=0.9","67882f09d81a89e769f8f51f","686d226cabeef709c732f8e1","686e4efd129a93e64bdf3ca1","67882f09d81a89e769f8f51f","2025-07-09T12:26:35.357Z","","","","","","StressQ","","","","","","","","","","","","","","","","","","","","","","","","","","","","","","","","","","","","","","50",""
"2831","","<div style=""width:500px;"">
  <p>What best describes how you currently feel?</p>
  </div>","92","html-slider-response","65","1977174","0.0-10.0-4.2","290","1","2025-07-09 11:55:22","7701e855f2ef39aa3fd6c71abdc6918a","194.50.144.71","Mozilla/5.0 (Windows NT 10.0; Win64; x64) AppleWebKit/537.36 (KHTML, like Gecko) Chrome/134.0.0.0 Safari/537.36","WebKit","Chrome","134.0.0.0","Windows","10.0","https://app.prolific.com/","en-US,en;q=0.9","67882f09d81a89e769f8f51f","686d226cabeef709c732f8e1","686e4efd129a93e64bdf3ca1","67882f09d81a89e769f8f51f","2025-07-09T12:26:38.191Z","","","","","","MotivationQ","","","","","","","","","","","","","","","","","","","","","","","","","","","","","","","","","","","","","","50",""
"","","","","ctl-task-cpt","66","1998008","0.0-10.0-0.3","290","1","2025-07-09 11:55:22","7701e855f2ef39aa3fd6c71abdc6918a","194.50.144.71","Mozilla/5.0 (Windows NT 10.0; Win64; x64) AppleWebKit/537.36 (KHTML, like Gecko) Chrome/134.0.0.0 Safari/537.36","WebKit","Chrome","134.0.0.0","Windows","10.0","https://app.prolific.com/","en-US,en;q=0.9","67882f09d81a89e769f8f51f","686d226cabeef709c732f8e1","686e4efd129a93e64bdf3ca1","67882f09d81a89e769f8f51f","2025-07-09T12:26:59.025Z","","","","","","","","","","","","","","","","win-only","3","g1:SW,g2:NE","0.7","4","0","1986286","1019.4","6028","17815","1","4","4","6","1","1","1","8","7","0.06060606060606061","2943.5","3000","1610","[""down"",""left""]","{""num_key_presses"":4,""num_perfect"":4,""num_errors"":0,""num_randdir"":0,""num_randdir_good_moves"":0,""num_whilered"":0,""num_whileblue"":0,""num_blue"":1,""num_good_moves"":4}","[294.22232142857143,293.12857142857143,0.6,294.22232142857143,293.12857142857143,104.1,294.22232142857143,293.12857142857143,204.4,294.22232142857143,293.12857142857143,308.3,294.22232142857143,293.12857142857143,425.4,294.22232142857143,293.12857142857143,527.9,294.22232142857143,293.12857142857143,630.5,294.22232142857143,293.12857142857143,744.6,294.22232142857143,293.12857142857143,851.1,294.22232142857143,293.12857142857143,954.3,294.22232142857143,293.12857142857143,1071.1,294.22232142857143,293.12857142857143,1173.3,294.22232142857143,293.12857142857143,1277.5,294.22232142857143,293.12857142857143,1391.3,294.22232142857143,293.12857142857143,1494.3,294.22232142857143,293.12857142857143,1599.6,293.22232142857143,293.12857142857143,1719.2,214.22232142857143,324.12857142857143,1820.1,124.22232142857143,392.12857142857143,1925,88.22232142857143,420.12857142857143,2039.2,88.22232142857143,420.12857142857143,2141.5,87.22232142857143,420.12857142857143,2243.4,80.22232142857143,449.12857142857143,2344.7,63.222321428571426,489.12857142857143,2447.9,61.222321428571426,500.12857142857143,2548.7,55.222321428571426,520.1285714285714,2653.8,55.222321428571426,520.1285714285714,2765.4,55.222321428571426,520.1285714285714,2871.5,54.222321428571426,520.1285714285714,2972.5,54.222321428571426,520.1285714285714,3076.8,54.222321428571426,520.1285714285714,3188.1,54.222321428571426,520.1285714285714,3289.8,54.222321428571426,520.1285714285714,3395.9,54.222321428571426,520.1285714285714,3500.3,103.22232142857143,441.12857142857143,3612.9,192.22232142857143,397.12857142857143,3716.4,230.22232142857143,388.12857142857143,3825.3,237.22232142857143,384.12857142857143,3928.1,243.22232142857143,377.12857142857143,4041.4,247.22232142857143,369.12857142857143,4144.9,249.22232142857143,366.12857142857143,4263.1,255.22232142857143,357.12857142857143,4365,255.22232142857143,357.12857142857143,4470.4,255.22232142857143,357.12857142857143,4586.6,255.22232142857143,357.12857142857143,4687.5,255.22232142857143,357.12857142857143,4793.7,255.22232142857143,357.12857142857143,4895.7]","[1834.5,1834.5,1000,0,834.6,""smooth"",""down"",""down"",""good_move"",4335.9,2500.4,1935.5,1835.7,564.8,""smooth"",""down"",""down"",""good_move"",9649.8,5313.5,2348.8,6813.3,487.7,""smooth"",""left"",""left"",""good_move"",11623.4,1973.2,1102.5,9650.2,870.7,""smooth"",""left"",""left"",""good_move""]","","",""
"3347","","<div style=""width:500px;"">
  <p>What determined the result of this run?</p>
  </div>","94","html-slider-response","67","2001359","0.0-10.0-1.3","290","1","2025-07-09 11:55:22","7701e855f2ef39aa3fd6c71abdc6918a","194.50.144.71","Mozilla/5.0 (Windows NT 10.0; Win64; x64) AppleWebKit/537.36 (KHTML, like Gecko) Chrome/134.0.0.0 Safari/537.36","WebKit","Chrome","134.0.0.0","Windows","10.0","https://app.prolific.com/","en-US,en;q=0.9","67882f09d81a89e769f8f51f","686d226cabeef709c732f8e1","686e4efd129a93e64bdf3ca1","67882f09d81a89e769f8f51f","2025-07-09T12:27:02.376Z","","","","","","AttribQ","","","","","","","","","","","","","","","","","","","","","","","","","","","","","","","","","","","","","","50",""
"2153","","<div style=""width:500px;"">
  <p>How much control did you have over the ball?</p>
  </div>","98","html-slider-response","68","2003516","0.0-10.0-2.3","290","1","2025-07-09 11:55:22","7701e855f2ef39aa3fd6c71abdc6918a","194.50.144.71","Mozilla/5.0 (Windows NT 10.0; Win64; x64) AppleWebKit/537.36 (KHTML, like Gecko) Chrome/134.0.0.0 Safari/537.36","WebKit","Chrome","134.0.0.0","Windows","10.0","https://app.prolific.com/","en-US,en;q=0.9","67882f09d81a89e769f8f51f","686d226cabeef709c732f8e1","686e4efd129a93e64bdf3ca1","67882f09d81a89e769f8f51f","2025-07-09T12:27:04.533Z","","","","","","ControlQ","","","","","","","","","","","","","","","","","","","","","","","","","","","","","","","","","","","","","","50",""
"2709","","<div style=""width:500px;"">
  <p>How would you describe your current emotional state?</p>
  </div>","100","html-slider-response","69","2006228","0.0-10.0-3.3","290","1","2025-07-09 11:55:22","7701e855f2ef39aa3fd6c71abdc6918a","194.50.144.71","Mozilla/5.0 (Windows NT 10.0; Win64; x64) AppleWebKit/537.36 (KHTML, like Gecko) Chrome/134.0.0.0 Safari/537.36","WebKit","Chrome","134.0.0.0","Windows","10.0","https://app.prolific.com/","en-US,en;q=0.9","67882f09d81a89e769f8f51f","686d226cabeef709c732f8e1","686e4efd129a93e64bdf3ca1","67882f09d81a89e769f8f51f","2025-07-09T12:27:07.245Z","","","","","","StressQ","","","","","","","","","","","","","","","","","","","","","","","","","","","","","","","","","","","","","","50",""
"2511","","<div style=""width:500px;"">
  <p>What best describes how you currently feel?</p>
  </div>","93","html-slider-response","70","2008742","0.0-10.0-4.3","290","1","2025-07-09 11:55:22","7701e855f2ef39aa3fd6c71abdc6918a","194.50.144.71","Mozilla/5.0 (Windows NT 10.0; Win64; x64) AppleWebKit/537.36 (KHTML, like Gecko) Chrome/134.0.0.0 Safari/537.36","WebKit","Chrome","134.0.0.0","Windows","10.0","https://app.prolific.com/","en-US,en;q=0.9","67882f09d81a89e769f8f51f","686d226cabeef709c732f8e1","686e4efd129a93e64bdf3ca1","67882f09d81a89e769f8f51f","2025-07-09T12:27:09.759Z","","","","","","MotivationQ","","","","","","","","","","","","","","","","","","","","","","","","","","","","","","","","","","","","","","50",""
"","","","","ctl-task-cpt","71","2054099","0.0-10.0-0.4","290","1","2025-07-09 11:55:22","7701e855f2ef39aa3fd6c71abdc6918a","194.50.144.71","Mozilla/5.0 (Windows NT 10.0; Win64; x64) AppleWebKit/537.36 (KHTML, like Gecko) Chrome/134.0.0.0 Safari/537.36","WebKit","Chrome","134.0.0.0","Windows","10.0","https://app.prolific.com/","en-US,en;q=0.9","67882f09d81a89e769f8f51f","686d226cabeef709c732f8e1","686e4efd129a93e64bdf3ca1","67882f09d81a89e769f8f51f","2025-07-09T12:27:55.117Z","","","","","","","","","","","","","","","","win-only","1","g1:NE,g2:SW","0.6","5","0","2017854.6","2546.1","7554.7","42338.1","1","4","4","6","2","4","4","12","8","0.09090909090909091","1685.8","3000","530","[""down"",""left""]","{""num_key_presses"":8,""num_perfect"":6,""num_errors"":0,""num_randdir"":2,""num_randdir_good_moves"":1,""num_whilered"":0,""num_whileblue"":0,""num_blue"":3,""num_good_moves"":7}","[294.22232142857143,293.12857142857143,0.8,294.22232142857143,293.12857142857143,100.2,294.22232142857143,293.12857142857143,201.1,294.22232142857143,293.12857142857143,313.8,294.22232142857143,292.12857142857143,433,283.22232142857143,295.12857142857143,535,261.22232142857143,312.12857142857143,637.5,259.22232142857143,313.12857142857143,741.5,243.22232142857143,333.12857142857143,846.9,170.22232142857143,472.12857142857143,953.7,170.22232142857143,472.12857142857143,1054.5,157.22232142857143,479.12857142857143,1158,110.22232142857143,503.12857142857143,1260.3,74.22232142857143,526.1285714285714,1369.6,53.222321428571426,531.1285714285714,1489,48.222321428571426,531.1285714285714,1603.8,48.222321428571426,531.1285714285714,1704.2,48.222321428571426,531.1285714285714,1814.9,48.222321428571426,531.1285714285714,1926.9,48.222321428571426,531.1285714285714,2027.9,48.222321428571426,531.1285714285714,2130.4,48.222321428571426,531.1285714285714,2230.8,48.222321428571426,531.1285714285714,2332.2,48.222321428571426,531.1285714285714,2432.2,48.222321428571426,531.1285714285714,2546.5,48.222321428571426,531.1285714285714,2667.2,48.222321428571426,531.1285714285714,2772,48.222321428571426,531.1285714285714,2881.5,48.222321428571426,531.1285714285714,2982.5,48.222321428571426,531.1285714285714,3096.9,48.222321428571426,531.1285714285714,3198,48.222321428571426,531.1285714285714,3300.2,48.222321428571426,531.1285714285714,3402.8,48.222321428571426,531.1285714285714,3506.9,48.222321428571426,531.1285714285714,3609.8,48.222321428571426,531.1285714285714,3720.8,48.222321428571426,531.1285714285714,3825.7,48.222321428571426,531.1285714285714,3927.6,48.222321428571426,531.1285714285714,4051.2,48.222321428571426,531.1285714285714,4154.1,48.222321428571426,531.1285714285714,4267,48.222321428571426,531.1285714285714,4368.8,48.222321428571426,531.1285714285714,4469.5,48.222321428571426,531.1285714285714,4571.5,48.222321428571426,531.1285714285714,4674.7,48.222321428571426,531.1285714285714,4775.7,48.222321428571426,531.1285714285714,4875.8,48.222321428571426,531.1285714285714,4976]","[1508.2,1508.2,1000,0,508.2,""smooth"",""down"",""down"",""good_move"",8378.9,6869.8,2376.4,5532.8,469.7,""smooth"",""down"",""down"",""good_move"",11047,2667.8,2137.6,8379.2,530.2,""oops"",""down"",""up"",""bad_move"",18926.8,7877.7,3353.3,15026.7,546.9,""smooth"",""down"",""down"",""good_move"",22088.9,3161.7,2337.4,18927.2,824.3,""smooth"",""down"",""down"",""good_move"",25549.1,3459,2922.6,22090.3,536.3,""smooth"",""left"",""left"",""good_move"",28304.3,2754.3,2283.1,25550.1,471.2,""oops"",""left"",""left"",""good_move"",34617.7,6312.9,2519,31605.7,493,""smooth"",""left"",""left"",""good_move""]","","",""
"3448","","<div style=""width:500px;"">
  <p>What determined the result of this run?</p>
  </div>","100","html-slider-response","72","2057551","0.0-10.0-1.4","290","1","2025-07-09 11:55:22","7701e855f2ef39aa3fd6c71abdc6918a","194.50.144.71","Mozilla/5.0 (Windows NT 10.0; Win64; x64) AppleWebKit/537.36 (KHTML, like Gecko) Chrome/134.0.0.0 Safari/537.36","WebKit","Chrome","134.0.0.0","Windows","10.0","https://app.prolific.com/","en-US,en;q=0.9","67882f09d81a89e769f8f51f","686d226cabeef709c732f8e1","686e4efd129a93e64bdf3ca1","67882f09d81a89e769f8f51f","2025-07-09T12:27:58.568Z","","","","","","AttribQ","","","","","","","","","","","","","","","","","","","","","","","","","","","","","","","","","","","","","","50",""
"2240","","<div style=""width:500px;"">
  <p>How much control did you have over the ball?</p>
  </div>","98","html-slider-response","73","2059794","0.0-10.0-2.4","290","1","2025-07-09 11:55:22","7701e855f2ef39aa3fd6c71abdc6918a","194.50.144.71","Mozilla/5.0 (Windows NT 10.0; Win64; x64) AppleWebKit/537.36 (KHTML, like Gecko) Chrome/134.0.0.0 Safari/537.36","WebKit","Chrome","134.0.0.0","Windows","10.0","https://app.prolific.com/","en-US,en;q=0.9","67882f09d81a89e769f8f51f","686d226cabeef709c732f8e1","686e4efd129a93e64bdf3ca1","67882f09d81a89e769f8f51f","2025-07-09T12:28:00.811Z","","","","","","ControlQ","","","","","","","","","","","","","","","","","","","","","","","","","","","","","","","","","","","","","","50",""
"3091","","<div style=""width:500px;"">
  <p>How would you describe your current emotional state?</p>
  </div>","96","html-slider-response","74","2062887","0.0-10.0-3.4","290","1","2025-07-09 11:55:22","7701e855f2ef39aa3fd6c71abdc6918a","194.50.144.71","Mozilla/5.0 (Windows NT 10.0; Win64; x64) AppleWebKit/537.36 (KHTML, like Gecko) Chrome/134.0.0.0 Safari/537.36","WebKit","Chrome","134.0.0.0","Windows","10.0","https://app.prolific.com/","en-US,en;q=0.9","67882f09d81a89e769f8f51f","686d226cabeef709c732f8e1","686e4efd129a93e64bdf3ca1","67882f09d81a89e769f8f51f","2025-07-09T12:28:03.905Z","","","","","","StressQ","","","","","","","","","","","","","","","","","","","","","","","","","","","","","","","","","","","","","","50",""
"2177","","<div style=""width:500px;"">
  <p>What best describes how you currently feel?</p>
  </div>","91","html-slider-response","75","2065069","0.0-10.0-4.4","290","1","2025-07-09 11:55:22","7701e855f2ef39aa3fd6c71abdc6918a","194.50.144.71","Mozilla/5.0 (Windows NT 10.0; Win64; x64) AppleWebKit/537.36 (KHTML, like Gecko) Chrome/134.0.0.0 Safari/537.36","WebKit","Chrome","134.0.0.0","Windows","10.0","https://app.prolific.com/","en-US,en;q=0.9","67882f09d81a89e769f8f51f","686d226cabeef709c732f8e1","686e4efd129a93e64bdf3ca1","67882f09d81a89e769f8f51f","2025-07-09T12:28:06.086Z","","","","","","MotivationQ","","","","","","","","","","","","","","","","","","","","","","","","","","","","","","","","","","","","","","50",""
"","","","","ctl-task-cpt","76","2097781","0.0-10.0-0.5","290","1","2025-07-09 11:55:22","7701e855f2ef39aa3fd6c71abdc6918a","194.50.144.71","Mozilla/5.0 (Windows NT 10.0; Win64; x64) AppleWebKit/537.36 (KHTML, like Gecko) Chrome/134.0.0.0 Safari/537.36","WebKit","Chrome","134.0.0.0","Windows","10.0","https://app.prolific.com/","en-US,en;q=0.9","67882f09d81a89e769f8f51f","686d226cabeef709c732f8e1","686e4efd129a93e64bdf3ca1","67882f09d81a89e769f8f51f","2025-07-09T12:28:38.798Z","","","","","","","","","","","","","","","","win-only","1","g1:NE,g2:SW","0.5","6","0","2074188.6","1048.2","6049","29675.5","1","4","8","6","1","1","1","13","12","0.09848484848484848","2402.4","3000","1205","[""up"",""right""]","{""num_key_presses"":6,""num_perfect"":3,""num_errors"":0,""num_randdir"":3,""num_randdir_good_moves"":2,""num_whilered"":0,""num_whileblue"":0,""num_blue"":2,""num_good_moves"":5}","[289.22232142857143,292.12857142857143,0.3,289.22232142857143,292.12857142857143,114.5,289.22232142857143,292.12857142857143,216.2,289.22232142857143,292.12857142857143,319.7,275.22232142857143,303.12857142857143,439,202.22232142857143,385.12857142857143,540,154.22232142857143,445.12857142857143,645.8,154.22232142857143,445.12857142857143,760,154.22232142857143,445.12857142857143,863.8,124.22232142857143,467.12857142857143,977.2,92.22232142857143,493.12857142857143,1082.9,80.22232142857143,502.12857142857143,1185.2,72.22232142857143,506.12857142857143,1291,59.222321428571426,514.1285714285714,1394.3,60.222321428571426,512.1285714285714,1503.7,173.22232142857143,395.12857142857143,1608.6,464.22232142857143,189.12857142857143,1713.1,464.22232142857143,192.12857142857143,1816.1,467.22232142857143,179.12857142857143,1920.7,510.22232142857143,122.12857142857143,2028,536.2223214285714,95.12857142857143,2133.9,548.2223214285714,80.12857142857143,2259,548.2223214285714,80.12857142857143,2382.3,548.2223214285714,78.12857142857143,2484.1,548.2223214285714,78.12857142857143,2586,548.2223214285714,78.12857142857143,2694.4,548.2223214285714,78.12857142857143,2801.6,548.2223214285714,78.12857142857143,2906.3,541.2223214285714,111.12857142857143,3029.1,516.2223214285714,207.12857142857143,3144.6,511.22232142857143,212.12857142857143,3252,508.22232142857143,192.12857142857143,3354.7,519.2223214285714,161.12857142857143,3465.5,530.2223214285714,159.12857142857143,3567.8,536.2223214285714,179.12857142857143,3672.4,532.2223214285714,203.12857142857143,3774.2,514.2223214285714,220.12857142857143,3878.8,462.22232142857143,231.12857142857143,3991.7,421.22232142857143,256.12857142857143,4097.9,421.22232142857143,256.12857142857143,4198.8,421.22232142857143,256.12857142857143,4301.8,421.22232142857143,256.12857142857143,4407,421.22232142857143,256.12857142857143,4514.9,421.22232142857143,256.12857142857143,4615.6,421.22232142857143,256.12857142857143,4718.6,421.22232142857143,256.12857142857143,4840.5,421.22232142857143,256.12857142857143,4941.6]","[4688.4,4688.4,2167.5,2009.6,511.3,""oops"",""right"",""up"",""good_move"",7889.3,3199.2,2528.2,4690.1,671,""smooth"",""right"",""right"",""good_move"",10430.3,2539.4,1967.8,7891,571.5,""oops"",""right"",""right"",""good_move"",17335.1,6903.7,2866.4,13955.4,513.4,""oops"",""up"",""left"",""bad_move"",20605.8,3270.1,2629.5,17335.7,640.6,""smooth"",""up"",""up"",""good_move"",23428.5,2822.2,2339.3,20606.4,482.9,""smooth"",""right"",""right"",""good_move""]","","",""
"2663","","<div style=""width:500px;"">
  <p>What determined the result of this run?</p>
  </div>","98","html-slider-response","77","2100447","0.0-10.0-1.5","290","1","2025-07-09 11:55:22","7701e855f2ef39aa3fd6c71abdc6918a","194.50.144.71","Mozilla/5.0 (Windows NT 10.0; Win64; x64) AppleWebKit/537.36 (KHTML, like Gecko) Chrome/134.0.0.0 Safari/537.36","WebKit","Chrome","134.0.0.0","Windows","10.0","https://app.prolific.com/","en-US,en;q=0.9","67882f09d81a89e769f8f51f","686d226cabeef709c732f8e1","686e4efd129a93e64bdf3ca1","67882f09d81a89e769f8f51f","2025-07-09T12:28:41.464Z","","","","","","AttribQ","","","","","","","","","","","","","","","","","","","","","","","","","","","","","","","","","","","","","","50",""
"2084","","<div style=""width:500px;"">
  <p>How much control did you have over the ball?</p>
  </div>","99","html-slider-response","78","2102533","0.0-10.0-2.5","290","1","2025-07-09 11:55:22","7701e855f2ef39aa3fd6c71abdc6918a","194.50.144.71","Mozilla/5.0 (Windows NT 10.0; Win64; x64) AppleWebKit/537.36 (KHTML, like Gecko) Chrome/134.0.0.0 Safari/537.36","WebKit","Chrome","134.0.0.0","Windows","10.0","https://app.prolific.com/","en-US,en;q=0.9","67882f09d81a89e769f8f51f","686d226cabeef709c732f8e1","686e4efd129a93e64bdf3ca1","67882f09d81a89e769f8f51f","2025-07-09T12:28:43.551Z","","","","","","ControlQ","","","","","","","","","","","","","","","","","","","","","","","","","","","","","","","","","","","","","","50",""
"3113","","<div style=""width:500px;"">
  <p>How would you describe your current emotional state?</p>
  </div>","100","html-slider-response","79","2105650","0.0-10.0-3.5","290","1","2025-07-09 11:55:22","7701e855f2ef39aa3fd6c71abdc6918a","194.50.144.71","Mozilla/5.0 (Windows NT 10.0; Win64; x64) AppleWebKit/537.36 (KHTML, like Gecko) Chrome/134.0.0.0 Safari/537.36","WebKit","Chrome","134.0.0.0","Windows","10.0","https://app.prolific.com/","en-US,en;q=0.9","67882f09d81a89e769f8f51f","686d226cabeef709c732f8e1","686e4efd129a93e64bdf3ca1","67882f09d81a89e769f8f51f","2025-07-09T12:28:46.667Z","","","","","","StressQ","","","","","","","","","","","","","","","","","","","","","","","","","","","","","","","","","","","","","","50",""
"2570","","<div style=""width:500px;"">
  <p>What best describes how you currently feel?</p>
  </div>","93","html-slider-response","80","2108222","0.0-10.0-4.5","290","1","2025-07-09 11:55:22","7701e855f2ef39aa3fd6c71abdc6918a","194.50.144.71","Mozilla/5.0 (Windows NT 10.0; Win64; x64) AppleWebKit/537.36 (KHTML, like Gecko) Chrome/134.0.0.0 Safari/537.36","WebKit","Chrome","134.0.0.0","Windows","10.0","https://app.prolific.com/","en-US,en;q=0.9","67882f09d81a89e769f8f51f","686d226cabeef709c732f8e1","686e4efd129a93e64bdf3ca1","67882f09d81a89e769f8f51f","2025-07-09T12:28:49.239Z","","","","","","MotivationQ","","","","","","","","","","","","","","","","","","","","","","","","","","","","","","","","","","","","","","50",""
"","","","","ctl-task-cpt","81","2153938","0.0-10.0-0.6","290","1","2025-07-09 11:55:22","7701e855f2ef39aa3fd6c71abdc6918a","194.50.144.71","Mozilla/5.0 (Windows NT 10.0; Win64; x64) AppleWebKit/537.36 (KHTML, like Gecko) Chrome/134.0.0.0 Safari/537.36","WebKit","Chrome","134.0.0.0","Windows","10.0","https://app.prolific.com/","en-US,en;q=0.9","67882f09d81a89e769f8f51f","686d226cabeef709c732f8e1","686e4efd129a93e64bdf3ca1","67882f09d81a89e769f8f51f","2025-07-09T12:29:34.955Z","","","","","","","","","","","","","","","","win-only","1","g1:NE,g2:SW","0.4","7","0","2117333.1","982.6","5990.2","42693.1","1","4","4","6","2","4","4","17","13","0.12878787878787878","2071.4","3000","715","[""down"",""left""]","{""num_key_presses"":8,""num_perfect"":4,""num_errors"":0,""num_randdir"":4,""num_randdir_good_moves"":3,""num_whilered"":0,""num_whileblue"":0,""num_blue"":4,""num_good_moves"":7}","[296.22232142857143,297.12857142857143,0.5,296.22232142857143,297.12857142857143,108.3,296.22232142857143,297.12857142857143,215,296.22232142857143,297.12857142857143,321.1,288.22232142857143,303.12857142857143,428.9,209.22232142857143,377.12857142857143,532.3,166.22232142857143,398.12857142857143,637.4,166.22232142857143,398.12857142857143,740.3,145.22232142857143,421.12857142857143,852.4,111.22232142857143,466.12857142857143,957.8,88.22232142857143,497.12857142857143,1059.1,68.22232142857143,516.1285714285714,1159.7,52.222321428571426,525.1285714285714,1272.9,44.222321428571426,528.1285714285714,1390.3,43.222321428571426,528.1285714285714,1497.4,43.222321428571426,528.1285714285714,1604.2,42.222321428571426,524.1285714285714,1721.3,42.222321428571426,524.1285714285714,1821.3,42.222321428571426,524.1285714285714,1926.4,42.222321428571426,524.1285714285714,2037.8,42.222321428571426,524.1285714285714,2143.5,42.222321428571426,524.1285714285714,2245.4,42.222321428571426,524.1285714285714,2348.8,42.222321428571426,524.1285714285714,2459.1,42.222321428571426,524.1285714285714,2562.1,42.222321428571426,524.1285714285714,2662.2,42.222321428571426,524.1285714285714,2774,42.222321428571426,524.1285714285714,2881.7,42.222321428571426,524.1285714285714,2991.6,42.222321428571426,524.1285714285714,3100.1,42.222321428571426,524.1285714285714,3203.3,42.222321428571426,524.1285714285714,3307.6,42.222321428571426,524.1285714285714,3413.2,42.222321428571426,524.1285714285714,3515.9,42.222321428571426,524.1285714285714,3629.6,42.222321428571426,524.1285714285714,3730.4,42.222321428571426,524.1285714285714,3836.8,42.222321428571426,524.1285714285714,3944.8,42.222321428571426,524.1285714285714,4059.6,42.222321428571426,524.1285714285714,4167.2,42.222321428571426,524.1285714285714,4270.9,42.222321428571426,524.1285714285714,4379.4,42.222321428571426,524.1285714285714,4481,42.222321428571426,524.1285714285714,4582.6,42.222321428571426,524.1285714285714,4692.2,42.222321428571426,524.1285714285714,4800.9,42.222321428571426,524.1285714285714,4906.5]","[1518.1,1518.1,1000,0,518.2,""smooth"",""down"",""down"",""good_move"",4480.7,2961.6,2344.4,1519.1,617.2,""smooth"",""left"",""left"",""good_move"",7603.3,3121.7,2622.8,4481.7,498.8,""smooth"",""down"",""down"",""good_move"",17418.7,9814.8,1899,15022.9,496.8,""oops"",""left"",""up"",""bad_move"",27531.4,10111,2770.7,24264.3,496.4,""smooth"",""left"",""left"",""good_move"",29908.7,2374.1,1234.6,27534.6,1139.5,""oops"",""left"",""down"",""good_move"",33243,3333.3,2710,29909.7,623.3,""oops"",""left"",""left"",""good_move"",36474.9,3231.4,2720.3,33243.5,511.1,""oops"",""down"",""down"",""good_move""]","","",""
"2590","","<div style=""width:500px;"">
  <p>What determined the result of this run?</p>
  </div>","98","html-slider-response","82","2156531","0.0-10.0-1.6","290","1","2025-07-09 11:55:22","7701e855f2ef39aa3fd6c71abdc6918a","194.50.144.71","Mozilla/5.0 (Windows NT 10.0; Win64; x64) AppleWebKit/537.36 (KHTML, like Gecko) Chrome/134.0.0.0 Safari/537.36","WebKit","Chrome","134.0.0.0","Windows","10.0","https://app.prolific.com/","en-US,en;q=0.9","67882f09d81a89e769f8f51f","686d226cabeef709c732f8e1","686e4efd129a93e64bdf3ca1","67882f09d81a89e769f8f51f","2025-07-09T12:29:37.549Z","","","","","","AttribQ","","","","","","","","","","","","","","","","","","","","","","","","","","","","","","","","","","","","","","50",""
"3452","","<div style=""width:500px;"">
  <p>How much control did you have over the ball?</p>
  </div>","96","html-slider-response","83","2159989","0.0-10.0-2.6","290","1","2025-07-09 11:55:22","7701e855f2ef39aa3fd6c71abdc6918a","194.50.144.71","Mozilla/5.0 (Windows NT 10.0; Win64; x64) AppleWebKit/537.36 (KHTML, like Gecko) Chrome/134.0.0.0 Safari/537.36","WebKit","Chrome","134.0.0.0","Windows","10.0","https://app.prolific.com/","en-US,en;q=0.9","67882f09d81a89e769f8f51f","686d226cabeef709c732f8e1","686e4efd129a93e64bdf3ca1","67882f09d81a89e769f8f51f","2025-07-09T12:29:41.006Z","","","","","","ControlQ","","","","","","","","","","","","","","","","","","","","","","","","","","","","","","","","","","","","","","50",""
"3922","","<div style=""width:500px;"">
  <p>How would you describe your current emotional state?</p>
  </div>","96","html-slider-response","84","2163915","0.0-10.0-3.6","290","1","2025-07-09 11:55:22","7701e855f2ef39aa3fd6c71abdc6918a","194.50.144.71","Mozilla/5.0 (Windows NT 10.0; Win64; x64) AppleWebKit/537.36 (KHTML, like Gecko) Chrome/134.0.0.0 Safari/537.36","WebKit","Chrome","134.0.0.0","Windows","10.0","https://app.prolific.com/","en-US,en;q=0.9","67882f09d81a89e769f8f51f","686d226cabeef709c732f8e1","686e4efd129a93e64bdf3ca1","67882f09d81a89e769f8f51f","2025-07-09T12:29:44.932Z","","","","","","StressQ","","","","","","","","","","","","","","","","","","","","","","","","","","","","","","","","","","","","","","50",""
"2530","","<div style=""width:500px;"">
  <p>What best describes how you currently feel?</p>
  </div>","94","html-slider-response","85","2166449","0.0-10.0-4.6","290","1","2025-07-09 11:55:22","7701e855f2ef39aa3fd6c71abdc6918a","194.50.144.71","Mozilla/5.0 (Windows NT 10.0; Win64; x64) AppleWebKit/537.36 (KHTML, like Gecko) Chrome/134.0.0.0 Safari/537.36","WebKit","Chrome","134.0.0.0","Windows","10.0","https://app.prolific.com/","en-US,en;q=0.9","67882f09d81a89e769f8f51f","686d226cabeef709c732f8e1","686e4efd129a93e64bdf3ca1","67882f09d81a89e769f8f51f","2025-07-09T12:29:47.466Z","","","","","","MotivationQ","","","","","","","","","","","","","","","","","","","","","","","","","","","","","","","","","","","","","","50",""
"","","","","ctl-task-cpt","86","2209058","0.0-10.0-0.7","290","1","2025-07-09 11:55:22","7701e855f2ef39aa3fd6c71abdc6918a","194.50.144.71","Mozilla/5.0 (Windows NT 10.0; Win64; x64) AppleWebKit/537.36 (KHTML, like Gecko) Chrome/134.0.0.0 Safari/537.36","WebKit","Chrome","134.0.0.0","Windows","10.0","https://app.prolific.com/","en-US,en;q=0.9","67882f09d81a89e769f8f51f","686d226cabeef709c732f8e1","686e4efd129a93e64bdf3ca1","67882f09d81a89e769f8f51f","2025-07-09T12:30:30.075Z","","","","","","","","","","","","","","","","win-only","0","g1:NW,g2:SE","0.3","8","0","2175559.2","1266.8","6276.9","39581.6","1","4","8","6","2","-8","-8","9","17","0.06818181818181818","2862.6","3000","-1065","[""down"",""right""]","{""num_key_presses"":8,""num_perfect"":3,""num_errors"":0,""num_randdir"":5,""num_randdir_good_moves"":2,""num_whilered"":0,""num_whileblue"":0,""num_blue"":1,""num_good_moves"":5}","[293.22232142857143,296.12857142857143,0.2,293.22232142857143,296.12857142857143,107.8,293.22232142857143,296.12857142857143,214.8,293.22232142857143,296.12857142857143,315.5,293.22232142857143,296.12857142857143,420.9,293.22232142857143,296.12857142857143,526.4,283.22232142857143,304.12857142857143,630.4,267.22232142857143,318.12857142857143,735.2,255.22232142857143,327.12857142857143,840.1,237.22232142857143,334.12857142857143,949.4,230.22232142857143,336.12857142857143,1058.4,226.22232142857143,335.12857142857143,1160.2,219.22232142857143,333.12857142857143,1261.5,218.22232142857143,330.12857142857143,1370.1,256.22232142857143,315.12857142857143,1470.4,353.22232142857143,382.12857142857143,1572.1,393.22232142857143,451.12857142857143,1674.4,393.22232142857143,451.12857142857143,1791.3,449.22232142857143,449.12857142857143,1908.8,507.22232142857143,484.12857142857143,2016.4,527.2223214285714,502.12857142857143,2122.1,530.2223214285714,506.12857142857143,2223.6,532.2223214285714,515.1285714285714,2324.6,535.2223214285714,522.1285714285714,2430.1,535.2223214285714,527.1285714285714,2532.2,535.2223214285714,528.1285714285714,2633,535.2223214285714,528.1285714285714,2739.2,535.2223214285714,528.1285714285714,2846.3,536.2223214285714,528.1285714285714,2950.5,536.2223214285714,528.1285714285714,3050.9,536.2223214285714,528.1285714285714,3152.6,536.2223214285714,528.1285714285714,3257.5,536.2223214285714,528.1285714285714,3360.7,536.2223214285714,528.1285714285714,3469.4,536.2223214285714,528.1285714285714,3569.8,520.2223214285714,513.1285714285714,3676.4,393.22232142857143,469.12857142857143,3785.1,294.22232142857143,465.12857142857143,3897.5,294.22232142857143,465.12857142857143,4001.2,294.22232142857143,465.12857142857143,4107.9,294.22232142857143,465.12857142857143,4208.2,294.22232142857143,465.12857142857143,4310.5,294.22232142857143,465.12857142857143,4413.8,294.22232142857143,465.12857142857143,4520.4,294.22232142857143,465.12857142857143,4622.3,294.22232142857143,465.12857142857143,4727,294.22232142857143,465.12857142857143,4829.4,294.22232142857143,465.12857142857143,4938.9]","[1700.4,1700.5,1000,0,700.5,""smooth"",""down"",""down"",""good_move"",4016.5,2315.1,1660.5,1701.5,654.6,""smooth"",""down"",""down"",""good_move"",9673.9,5656.9,2354.4,4017,3302.5,""smooth"",""down"",""down"",""good_move"",12796.3,3122,2626.1,9674.4,495.8,""oops"",""right"",""left"",""bad_move"",19580.5,6782.8,2492.7,16613.3,474.5,""oops"",""right"",""left"",""bad_move"",23359.7,3778.9,3209.7,19580.8,569.3,""oops"",""right"",""up"",""bad_move"",27148.5,3787.9,3334.6,23360.7,453.2,""oops"",""right"",""down"",""good_move"",29687.3,2538.2,2075.8,27149.1,462.4,""oops"",""right"",""right"",""good_move""]","","",""
"2821","","<div style=""width:500px;"">
  <p>What determined the result of this run?</p>
  </div>","75","html-slider-response","87","2211882","0.0-10.0-1.7","290","1","2025-07-09 11:55:22","7701e855f2ef39aa3fd6c71abdc6918a","194.50.144.71","Mozilla/5.0 (Windows NT 10.0; Win64; x64) AppleWebKit/537.36 (KHTML, like Gecko) Chrome/134.0.0.0 Safari/537.36","WebKit","Chrome","134.0.0.0","Windows","10.0","https://app.prolific.com/","en-US,en;q=0.9","67882f09d81a89e769f8f51f","686d226cabeef709c732f8e1","686e4efd129a93e64bdf3ca1","67882f09d81a89e769f8f51f","2025-07-09T12:30:32.899Z","","","","","","AttribQ","","","","","","","","","","","","","","","","","","","","","","","","","","","","","","","","","","","","","","50",""
"4101","","<div style=""width:500px;"">
  <p>How much control did you have over the ball?</p>
  </div>","74","html-slider-response","88","2215986","0.0-10.0-2.7","290","1","2025-07-09 11:55:22","7701e855f2ef39aa3fd6c71abdc6918a","194.50.144.71","Mozilla/5.0 (Windows NT 10.0; Win64; x64) AppleWebKit/537.36 (KHTML, like Gecko) Chrome/134.0.0.0 Safari/537.36","WebKit","Chrome","134.0.0.0","Windows","10.0","https://app.prolific.com/","en-US,en;q=0.9","67882f09d81a89e769f8f51f","686d226cabeef709c732f8e1","686e4efd129a93e64bdf3ca1","67882f09d81a89e769f8f51f","2025-07-09T12:30:37.003Z","","","","","","ControlQ","","","","","","","","","","","","","","","","","","","","","","","","","","","","","","","","","","","","","","50",""
"3768","","<div style=""width:500px;"">
  <p>How would you describe your current emotional state?</p>
  </div>","73","html-slider-response","89","2219757","0.0-10.0-3.7","290","1","2025-07-09 11:55:22","7701e855f2ef39aa3fd6c71abdc6918a","194.50.144.71","Mozilla/5.0 (Windows NT 10.0; Win64; x64) AppleWebKit/537.36 (KHTML, like Gecko) Chrome/134.0.0.0 Safari/537.36","WebKit","Chrome","134.0.0.0","Windows","10.0","https://app.prolific.com/","en-US,en;q=0.9","67882f09d81a89e769f8f51f","686d226cabeef709c732f8e1","686e4efd129a93e64bdf3ca1","67882f09d81a89e769f8f51f","2025-07-09T12:30:40.775Z","","","","","","StressQ","","","","","","","","","","","","","","","","","","","","","","","","","","","","","","","","","","","","","","50",""
"3933","","<div style=""width:500px;"">
  <p>What best describes how you currently feel?</p>
  </div>","63","html-slider-response","90","2223700","0.0-10.0-4.7","290","1","2025-07-09 11:55:22","7701e855f2ef39aa3fd6c71abdc6918a","194.50.144.71","Mozilla/5.0 (Windows NT 10.0; Win64; x64) AppleWebKit/537.36 (KHTML, like Gecko) Chrome/134.0.0.0 Safari/537.36","WebKit","Chrome","134.0.0.0","Windows","10.0","https://app.prolific.com/","en-US,en;q=0.9","67882f09d81a89e769f8f51f","686d226cabeef709c732f8e1","686e4efd129a93e64bdf3ca1","67882f09d81a89e769f8f51f","2025-07-09T12:30:44.717Z","","","","","","MotivationQ","","","","","","","","","","","","","","","","","","","","","","","","","","","","","","","","","","","","","","50",""
