"rt","response_timestamp","stimulus","response","trial_type","trial_index","time_elapsed","internal_node_id","run_id","condition","recorded_at","source_code_version","ip","user_agent","device","browser","browser_version","platform","platform_version","referer","accept_language","PROLIFIC_PID","STUDY_ID","SESSION_ID","prolific_id","realtime","view_history","question_order","consent","success","question_id","eventType","responses","item_order","radio_event_ids","radio_event_times","key_event_times","mouse_event_times","straightlining","zigzagging","honeypot","which_type","canvas_config","goals_layout","control_level","trial_number","tutorial_trial_number","trial_start_time","phase1_start_time","phase2_start_time","phase3_start_time","goal_1_value","goal_1_distance","goal_2_value","goal_2_distance","goal_selected","outcome","outcome_total","participant_final_score","participant_initial_score","participant_final_score_prop","goal_choice_rt","allocated_time","allocated_time_remaining","goal_direction","counts","mouse_movements","key_presses","correct","slider_start","sub_question"
"11095","1752052079312","<p style='font-size:40px;line-height:1.25'><strong>Welcome to the experiment!</strong></p><p style='font-size:1.1em;line-height:1.25'>Thank you for your interest in our experiment! Before you begin, it is important that we obtain your informed consent to participate in the study.</p><p style='font-size:1.1em;line-height:1.25'>On the next screen will be an <strong>information sheet</strong> for you to read. To participate in the study we need you to read this information sheet and the following consent form carefully. If you agree with all the statements, please click the <strong>I agree</strong> button.</p><p style='font-size:1.1em;line-height:1.25'>Press <strong>Next</strong> to read the information sheet.</p>","0","custom-html-button-response","0","11096","0.0-0.0","91","1","2025-07-09 09:07:46","7701e855f2ef39aa3fd6c71abdc6918a","41.164.82.138","Mozilla/5.0 (Windows NT 10.0; Win64; x64) AppleWebKit/537.36 (KHTML, like Gecko) Chrome/138.0.0.0 Safari/537.36","WebKit","Chrome","138.0.0.0","Windows","10.0","https://app.prolific.com/","en-US,en;q=0.9","611e2d4ad083c861391122b2","686d226cabeef709c732f8e1","686e312efb867144fa78513a","611e2d4ad083c861391122b2","2025-07-09T09:07:59.313Z","","","","","","","","","","","","","","","","","","","","","","","","","","","","","","","","","","","","","","","","","","","","",""
"59991","","","","instructions","1","71086","0.0-1.0","91","1","2025-07-09 09:07:46","7701e855f2ef39aa3fd6c71abdc6918a","41.164.82.138","Mozilla/5.0 (Windows NT 10.0; Win64; x64) AppleWebKit/537.36 (KHTML, like Gecko) Chrome/138.0.0.0 Safari/537.36","WebKit","Chrome","138.0.0.0","Windows","10.0","https://app.prolific.com/","en-US,en;q=0.9","611e2d4ad083c861391122b2","686d226cabeef709c732f8e1","686e312efb867144fa78513a","611e2d4ad083c861391122b2","","[{""page_index"":0,""viewing_time"":45879},{""page_index"":1,""viewing_time"":14112}]","","","","","","","","","","","","","","","","","","","","","","","","","","","","","","","","","","","","","","","","","","","",""
"7641","","","{""Q0"":"""",""Q1"":"""",""Q2"":"""",""Q3"":"""",""Q4"":"""",""Q5"":"""",""Q6"":""I agree""}","survey-multi-choice","2","78729","0.0-2.0","91","1","2025-07-09 09:07:46","7701e855f2ef39aa3fd6c71abdc6918a","41.164.82.138","Mozilla/5.0 (Windows NT 10.0; Win64; x64) AppleWebKit/537.36 (KHTML, like Gecko) Chrome/138.0.0.0 Safari/537.36","WebKit","Chrome","138.0.0.0","Windows","10.0","https://app.prolific.com/","en-US,en;q=0.9","611e2d4ad083c861391122b2","686d226cabeef709c732f8e1","686e312efb867144fa78513a","611e2d4ad083c861391122b2","","","[0,1,2,3,4,5,6]","true","","","","","","","","","","","","","","","","","","","","","","","","","","","","","","","","","","","","","","","","","",""
"18518","","","","fullscreen","3","98252","0.0-4.0","91","1","2025-07-09 09:07:46","7701e855f2ef39aa3fd6c71abdc6918a","41.164.82.138","Mozilla/5.0 (Windows NT 10.0; Win64; x64) AppleWebKit/537.36 (KHTML, like Gecko) Chrome/138.0.0.0 Safari/537.36","WebKit","Chrome","138.0.0.0","Windows","10.0","https://app.prolific.com/","en-US,en;q=0.9","611e2d4ad083c861391122b2","686d226cabeef709c732f8e1","686e312efb867144fa78513a","611e2d4ad083c861391122b2","","","","","true","","","","","","","","","","","","","","","","","","","","","","","","","","","","","","","","","","","","","","","","",""
"9195","1752052175665"," <p style='font-size:1.1em;line-height:1.25'>Thank you for completing the consent form and closing all other tabs.</p><p style='font-size:1.1em;line-height:1.25'>We will now invite you to fill in some demographic information and questionnaires, before starting the game.<br>This will take about 5 minutes.<br></p><p style='font-size:1.1em;line-height:1.25'>Press the <strong>Next</strong> button to continue.</p>","0","custom-html-button-response","4","107449","0.0-5.0","91","1","2025-07-09 09:07:46","7701e855f2ef39aa3fd6c71abdc6918a","41.164.82.138","Mozilla/5.0 (Windows NT 10.0; Win64; x64) AppleWebKit/537.36 (KHTML, like Gecko) Chrome/138.0.0.0 Safari/537.36","WebKit","Chrome","138.0.0.0","Windows","10.0","https://app.prolific.com/","en-US,en;q=0.9","611e2d4ad083c861391122b2","686d226cabeef709c732f8e1","686e312efb867144fa78513a","611e2d4ad083c861391122b2","2025-07-09T09:09:35.666Z","","","","","","","","","","","","","","","","","","","","","","","","","","","","","","","","","","","","","","","","","","","","",""
"4022","","","{""age"":""34""}","survey-text","5","111471","0.0-6.0-0.0","91","1","2025-07-09 09:07:46","7701e855f2ef39aa3fd6c71abdc6918a","41.164.82.138","Mozilla/5.0 (Windows NT 10.0; Win64; x64) AppleWebKit/537.36 (KHTML, like Gecko) Chrome/138.0.0.0 Safari/537.36","WebKit","Chrome","138.0.0.0","Windows","10.0","https://app.prolific.com/","en-US,en;q=0.9","611e2d4ad083c861391122b2","686d226cabeef709c732f8e1","686e312efb867144fa78513a","611e2d4ad083c861391122b2","","","","","","0","demographics","","","","","","","","","","","","","","","","","","","","","","","","","","","","","","","","","","","","","","",""
"4374","","","{""gender_identity"":""female/woman""}","survey-multi-choice","6","115847","0.0-6.0-1.0","91","1","2025-07-09 09:07:46","7701e855f2ef39aa3fd6c71abdc6918a","41.164.82.138","Mozilla/5.0 (Windows NT 10.0; Win64; x64) AppleWebKit/537.36 (KHTML, like Gecko) Chrome/138.0.0.0 Safari/537.36","WebKit","Chrome","138.0.0.0","Windows","10.0","https://app.prolific.com/","en-US,en;q=0.9","611e2d4ad083c861391122b2","686d226cabeef709c732f8e1","686e312efb867144fa78513a","611e2d4ad083c861391122b2","","","[0]","","","1","demographics","","","","","","","","","","","","","","","","","","","","","","","","","","","","","","","","","","","","","","",""
"3319","","","{""assigned_sex"":""female""}","survey-multi-choice","7","119167","0.0-6.0-2.0","91","1","2025-07-09 09:07:46","7701e855f2ef39aa3fd6c71abdc6918a","41.164.82.138","Mozilla/5.0 (Windows NT 10.0; Win64; x64) AppleWebKit/537.36 (KHTML, like Gecko) Chrome/138.0.0.0 Safari/537.36","WebKit","Chrome","138.0.0.0","Windows","10.0","https://app.prolific.com/","en-US,en;q=0.9","611e2d4ad083c861391122b2","686d226cabeef709c732f8e1","686e312efb867144fa78513a","611e2d4ad083c861391122b2","","","[0]","","","2","demographics","","","","","","","","","","","","","","","","","","","","","","","","","","","","","","","","","","","","","","",""
"4305","","","{""menstrual_cycle"":""Yes""}","survey-multi-choice","8","123472","0.0-6.0-3.0","91","1","2025-07-09 09:07:46","7701e855f2ef39aa3fd6c71abdc6918a","41.164.82.138","Mozilla/5.0 (Windows NT 10.0; Win64; x64) AppleWebKit/537.36 (KHTML, like Gecko) Chrome/138.0.0.0 Safari/537.36","WebKit","Chrome","138.0.0.0","Windows","10.0","https://app.prolific.com/","en-US,en;q=0.9","611e2d4ad083c861391122b2","686d226cabeef709c732f8e1","686e312efb867144fa78513a","611e2d4ad083c861391122b2","","","[0]","","","4","demographics","","","","","","","","","","","","","","","","","","","","","","","","","","","","","","","","","","","","","","",""
"6032","","","{""education"":""Higher National Diploma""}","survey-multi-choice","9","129505","0.0-6.0-4.0","91","1","2025-07-09 09:07:46","7701e855f2ef39aa3fd6c71abdc6918a","41.164.82.138","Mozilla/5.0 (Windows NT 10.0; Win64; x64) AppleWebKit/537.36 (KHTML, like Gecko) Chrome/138.0.0.0 Safari/537.36","WebKit","Chrome","138.0.0.0","Windows","10.0","https://app.prolific.com/","en-US,en;q=0.9","611e2d4ad083c861391122b2","686d226cabeef709c732f8e1","686e312efb867144fa78513a","611e2d4ad083c861391122b2","","","[0]","","","5","demographics","","","","","","","","","","","","","","","","","","","","","","","","","","","","","","","","","","","","","","",""
"9759","","","{""education"":""Master's Degree (e.g., MSc)""}","survey-multi-choice","10","139264","0.0-6.0-5.0","91","1","2025-07-09 09:07:46","7701e855f2ef39aa3fd6c71abdc6918a","41.164.82.138","Mozilla/5.0 (Windows NT 10.0; Win64; x64) AppleWebKit/537.36 (KHTML, like Gecko) Chrome/138.0.0.0 Safari/537.36","WebKit","Chrome","138.0.0.0","Windows","10.0","https://app.prolific.com/","en-US,en;q=0.9","611e2d4ad083c861391122b2","686d226cabeef709c732f8e1","686e312efb867144fa78513a","611e2d4ad083c861391122b2","2025-07-09T09:10:07.482Z","","[0]","","","6","demographics","","","","","","","","","","","","","","","","","","","","","","","","","","","","","","","","","","","","","","",""
"14662","","","{""mental_health_condition"":""NO"",""mental_health_treatment"":""NO"",""psychiatric_medication"":""NONE""}","survey-text","11","153929","0.0-7.0-0.0","91","1","2025-07-09 09:07:46","7701e855f2ef39aa3fd6c71abdc6918a","41.164.82.138","Mozilla/5.0 (Windows NT 10.0; Win64; x64) AppleWebKit/537.36 (KHTML, like Gecko) Chrome/138.0.0.0 Safari/537.36","WebKit","Chrome","138.0.0.0","Windows","10.0","https://app.prolific.com/","en-US,en;q=0.9","611e2d4ad083c861391122b2","686d226cabeef709c732f8e1","686e312efb867144fa78513a","611e2d4ad083c861391122b2","2025-07-09T09:10:22.146Z","","","","","1","mental_health","","","","","","","","","","","","","","","","","","","","","","","","","","","","","","","","","","","","","","",""
"10549","","","{""depression_history"":[""Yes""]}","survey-multi-select","12","164481","0.0-7.0-1.0","91","1","2025-07-09 09:07:46","7701e855f2ef39aa3fd6c71abdc6918a","41.164.82.138","Mozilla/5.0 (Windows NT 10.0; Win64; x64) AppleWebKit/537.36 (KHTML, like Gecko) Chrome/138.0.0.0 Safari/537.36","WebKit","Chrome","138.0.0.0","Windows","10.0","https://app.prolific.com/","en-US,en;q=0.9","611e2d4ad083c861391122b2","686d226cabeef709c732f8e1","686e312efb867144fa78513a","611e2d4ad083c861391122b2","","","[0]","","","","mental_health","","","","","","","","","","","","","","","","","","","","","","","","","","","","","","","","","","","","","","",""
"13687","","","{""depression_episodes"":""1-2"",""depression_recent"":""Within the past year""}","survey-multi-choice","13","178167","0.0-7.0-2.0-0.0","91","1","2025-07-09 09:07:46","7701e855f2ef39aa3fd6c71abdc6918a","41.164.82.138","Mozilla/5.0 (Windows NT 10.0; Win64; x64) AppleWebKit/537.36 (KHTML, like Gecko) Chrome/138.0.0.0 Safari/537.36","WebKit","Chrome","138.0.0.0","Windows","10.0","https://app.prolific.com/","en-US,en;q=0.9","611e2d4ad083c861391122b2","686d226cabeef709c732f8e1","686e312efb867144fa78513a","611e2d4ad083c861391122b2","2025-07-09T09:10:46.384Z","","[0,1]","","","3","mental_health","","","","","","","","","","","","","","","","","","","","","","","","","","","","","","","","","","","","","","",""
"70267.59999999963","","","","survey-template","14","248436","0.0-7.0-3.0","91","1","2025-07-09 09:07:46","7701e855f2ef39aa3fd6c71abdc6918a","41.164.82.138","Mozilla/5.0 (Windows NT 10.0; Win64; x64) AppleWebKit/537.36 (KHTML, like Gecko) Chrome/138.0.0.0 Safari/537.36","WebKit","Chrome","138.0.0.0","Windows","10.0","https://app.prolific.com/","en-US,en;q=0.9","611e2d4ad083c861391122b2","686d226cabeef709c732f8e1","686e312efb867144fa78513a","611e2d4ad083c861391122b2","2025-07-09T09:11:56.653Z","","","","","","ius","{""Q01"":""3"",""Q02"":""3"",""Q03"":""2"",""Q04"":""3"",""Q05"":""3"",""Q06"":""3"",""Q07"":""2"",""Q08"":""0"",""Q09"":""3"",""Q10"":""2"",""Q11"":""4"",""Q12"":""4"",""Q13"":""3""}","[0,1,2,3,4,5,6,7,8,9,10,11,12]","[""Q01"",""Q02"",""Q03"",""Q04"",""Q05"",""Q06"",""Q07"",""Q08"",""Q09"",""Q10"",""Q11"",""Q12"",""Q13""]","[9549.800000000745,14101.5,21063,26494.5,30781.599999999627,37278.699999999255,41086.5,48662.699999999255,52870.59999999963,56174.59999999963,61983.40000000037,66319.19999999925,69199.19999999925]","[]","[9549.800000000745,14101.5,21063,26494.5,30781.599999999627,37278.699999999255,41086.5,48662.699999999255,52870.59999999963,56174.59999999963,61983.40000000037,66319.19999999925,69199.19999999925,70263.69999999925]","0.5384615384615384","0.4166666666666667","0","","","","","","","","","","","","","","","","","","","","","","","","","","","","","",""
"5643","1752052322296","<p style='font-size:1.1em;line-height:1.25'>In the following, we will ask you a few questions relating to your experiences over the past month.<br></p><p style='font-size:1.1em;line-height:1.25'>Press the <strong>Next</strong> button to continue.</p>","0","custom-html-button-response","15","254079","0.0-7.0-4.0","91","1","2025-07-09 09:07:46","7701e855f2ef39aa3fd6c71abdc6918a","41.164.82.138","Mozilla/5.0 (Windows NT 10.0; Win64; x64) AppleWebKit/537.36 (KHTML, like Gecko) Chrome/138.0.0.0 Safari/537.36","WebKit","Chrome","138.0.0.0","Windows","10.0","https://app.prolific.com/","en-US,en;q=0.9","611e2d4ad083c861391122b2","686d226cabeef709c732f8e1","686e312efb867144fa78513a","611e2d4ad083c861391122b2","2025-07-09T09:12:02.296Z","","","","","","","","","","","","","","","","","","","","","","","","","","","","","","","","","","","","","","","","","","","","",""
"74609.80000000075","","","","survey-template","16","328689","0.0-7.0-5.0","91","1","2025-07-09 09:07:46","7701e855f2ef39aa3fd6c71abdc6918a","41.164.82.138","Mozilla/5.0 (Windows NT 10.0; Win64; x64) AppleWebKit/537.36 (KHTML, like Gecko) Chrome/138.0.0.0 Safari/537.36","WebKit","Chrome","138.0.0.0","Windows","10.0","https://app.prolific.com/","en-US,en;q=0.9","611e2d4ad083c861391122b2","686d226cabeef709c732f8e1","686e312efb867144fa78513a","611e2d4ad083c861391122b2","2025-07-09T09:13:16.906Z","","","","","","pss","{""Q01"":""2"",""Q02"":""3"",""Q03"":""2"",""Q04"":""1"",""Q05"":""2"",""Q06"":""1"",""Q07"":""2"",""Q08"":""2"",""Q09"":""2"",""Q10"":""2""}","[0,1,2,3,4,5,6,7,8,9]","[""Q01"",""Q01"",""Q02"",""Q03"",""Q04"",""Q05"",""Q05"",""Q06"",""Q07"",""Q08"",""Q09"",""Q10""]","[7615.200000001118,11542.200000001118,17959.60000000149,23055.700000001118,31967.10000000149,39431.40000000037,43015.90000000037,49680.20000000112,54415.90000000037,58888.20000000112,72192.70000000112,72983.60000000149]","[]","[0.10000000149011612,7615.200000001118,11542.200000001118,17959.60000000149,22439.10000000149,23055.700000001118,31967.10000000149,39431.40000000037,42328.300000000745,43015.90000000037,49680.20000000112,53815.800000000745,54415.90000000037,58888.20000000112,65816.70000000112,72192.70000000112,72983.60000000149,74608.80000000075]","0.7","0.6666666666666666","0","","","","","","","","","","","","","","","","","","","","","","","","","","","","","",""
"4453","1752052401360","<p style='font-size:1.1em;line-height:1.25'>Thank you for your answers! Now we will ask you a few more questions relating to your feelings in the last 24 hours.<br></p><p style='font-size:1.1em;line-height:1.25'>Press the <strong>Next</strong> button to continue.</p>","0","custom-html-button-response","17","333143","0.0-7.0-6.0","91","1","2025-07-09 09:07:46","7701e855f2ef39aa3fd6c71abdc6918a","41.164.82.138","Mozilla/5.0 (Windows NT 10.0; Win64; x64) AppleWebKit/537.36 (KHTML, like Gecko) Chrome/138.0.0.0 Safari/537.36","WebKit","Chrome","138.0.0.0","Windows","10.0","https://app.prolific.com/","en-US,en;q=0.9","611e2d4ad083c861391122b2","686d226cabeef709c732f8e1","686e312efb867144fa78513a","611e2d4ad083c861391122b2","2025-07-09T09:13:21.360Z","","","","","","","","","","","","","","","","","","","","","","","","","","","","","","","","","","","","","","","","","","","","",""
"88993.40000000037","","","","survey-template","18","422137","0.0-7.0-7.0","91","1","2025-07-09 09:07:46","7701e855f2ef39aa3fd6c71abdc6918a","41.164.82.138","Mozilla/5.0 (Windows NT 10.0; Win64; x64) AppleWebKit/537.36 (KHTML, like Gecko) Chrome/138.0.0.0 Safari/537.36","WebKit","Chrome","138.0.0.0","Windows","10.0","https://app.prolific.com/","en-US,en;q=0.9","611e2d4ad083c861391122b2","686d226cabeef709c732f8e1","686e312efb867144fa78513a","611e2d4ad083c861391122b2","2025-07-09T09:14:50.354Z","","","","","","drsp","{""Q01"":""2"",""Q02"":""2"",""Q03"":""1"",""Q04"":""3"",""Q05"":""3"",""Q06"":""4"",""Q07"":""3"",""Q08"":""1"",""Q09"":""2"",""Q10"":""1"",""Q11"":""2"",""Q12"":""4"",""Q13"":""4"",""Q14"":""3"",""Q15"":""1"",""Q16"":""4"",""Q17"":""0"",""Q18"":""2"",""Q19"":""1"",""Q20"":""3"",""Q21"":""4""}","[0,1,2,3,4,5,6,7,8,9,10,11,12,13,14,15,16,17,18,19,20]","[""Q01"",""Q02"",""Q03"",""Q04"",""Q05"",""Q06"",""Q07"",""Q08"",""Q09"",""Q10"",""Q11"",""Q12"",""Q13"",""Q14"",""Q15"",""Q15"",""Q16"",""Q16"",""Q17"",""Q18"",""Q19"",""Q20"",""Q21""]","[3382.5,6165.5,11542.900000000373,14374.599999999627,17278.800000000745,21982.400000000373,25031.900000000373,28911.400000000373,32462.800000000745,38111,40511.59999999963,43623.20000000112,45735.800000000745,49544,54263.59999999963,55296,58031,58070.70000000112,60903.5,70152.20000000112,77136.40000000037,83185.09999999963,87728.09999999963]","[]","[0,3382.5,6165.5,9935,11542.900000000373,14374.599999999627,17278.800000000745,21982.400000000373,25031.900000000373,28911.400000000373,32462.800000000745,38111,40511.59999999963,43623.20000000112,45735.800000000745,49544,54263.59999999963,55296,58031,58070.70000000112,60903.5,70152.20000000112,77136.40000000037,83185.09999999963,87728.09999999963,88991.70000000112]","0.23809523809523808","0.45","0","","","","","","","","","","","","","","","","","","","","","","","","","","","","","",""
"12541.299999998882","","","","survey-template","19","434679","0.0-7.0-8.0","91","1","2025-07-09 09:07:46","7701e855f2ef39aa3fd6c71abdc6918a","41.164.82.138","Mozilla/5.0 (Windows NT 10.0; Win64; x64) AppleWebKit/537.36 (KHTML, like Gecko) Chrome/138.0.0.0 Safari/537.36","WebKit","Chrome","138.0.0.0","Windows","10.0","https://app.prolific.com/","en-US,en;q=0.9","611e2d4ad083c861391122b2","686d226cabeef709c732f8e1","686e312efb867144fa78513a","611e2d4ad083c861391122b2","2025-07-09T09:15:02.896Z","","","","","","stress","{""Q01"":""3"",""Q02"":""1"",""Q03"":""4""}","[0,1,2]","[""Q01"",""Q02"",""Q03""]","[3365.199999999255,10133.599999999627,11613.699999999255]","[]","[3365.199999999255,6396.199999999255,10133.599999999627,10893.5,11613.699999999255,12029.699999999255,12540.799999998882]","0.6666666666666666","0.5","0","","","","","","","","","","","","","","","","","","","","","","","","","","","","","",""
"161980","","","","instructions","20","596656","0.0-8.0-0.0","91","1","2025-07-09 09:07:46","7701e855f2ef39aa3fd6c71abdc6918a","41.164.82.138","Mozilla/5.0 (Windows NT 10.0; Win64; x64) AppleWebKit/537.36 (KHTML, like Gecko) Chrome/138.0.0.0 Safari/537.36","WebKit","Chrome","138.0.0.0","Windows","10.0","https://app.prolific.com/","en-US,en;q=0.9","611e2d4ad083c861391122b2","686d226cabeef709c732f8e1","686e312efb867144fa78513a","611e2d4ad083c861391122b2","","[{""page_index"":0,""viewing_time"":81984},{""page_index"":1,""viewing_time"":29794},{""page_index"":2,""viewing_time"":25456},{""page_index"":3,""viewing_time"":24745}]","","","","","","","","","","","","","","","","","","","","","","","","","","","","","","","","","","","","","","","","","","","",""
"","","","","ctl-task-cpt","21","627606","0.0-8.0-1.0","91","1","2025-07-09 09:07:46","7701e855f2ef39aa3fd6c71abdc6918a","41.164.82.138","Mozilla/5.0 (Windows NT 10.0; Win64; x64) AppleWebKit/537.36 (KHTML, like Gecko) Chrome/138.0.0.0 Safari/537.36","WebKit","Chrome","138.0.0.0","Windows","10.0","https://app.prolific.com/","en-US,en;q=0.9","611e2d4ad083c861391122b2","686d226cabeef709c732f8e1","686e312efb867144fa78513a","611e2d4ad083c861391122b2","","","","","","","","","","","","","","","","","win-only","1","g1:NE,g2:SW","1","0","1","599366.4","3986.7","7989","27938","2","4","4","6","2","4","2","2","0","0.015151515151515152","2218.1","4000","975","[""down"",""left""]","{""num_key_presses"":11,""num_perfect"":6,""num_errors"":2,""num_randdir"":0,""num_randdir_good_moves"":0,""num_whilered"":3,""num_whileblue"":0,""num_blue"":0,""num_good_moves"":6}","[419.0714133126395,416.57142761775424,0.1,419.0714133126395,416.57142761775424,100.1,425.3214133126395,420.32142761775424,200.6,426.5714133126395,420.32142761775424,300.6,431.5714133126395,407.82142761775424,402.3,432.8214133126395,341.57142761775424,503.2,331.5714133126395,201.57142761775424,604,315.3214133126395,186.57142761775424,704.4,311.5714133126395,186.57142761775424,810,239.0714133126395,182.82142761775424,917.6,239.0714133126395,182.82142761775424,1017.9,240.3214133126395,181.57142761775424,1119.8,240.3214133126395,181.57142761775424,1219.9,240.3214133126395,181.57142761775424,1323.9,240.3214133126395,181.57142761775424,1424.6,279.0714133126395,181.57142761775424,1524.6,534.0714133126395,376.57142761775424,1634.6,161.5714133126395,681.5714276177542,1735,27.821413312639507,871.5714276177542,1840.5,26.571413312639507,870.3214276177542,1944,75.3214133126395,792.8214276177542,2044.8,76.5714133126395,791.5714276177542,2145.5,76.5714133126395,791.5714276177542,2251.3,76.5714133126395,791.5714276177542,2352.9,281.5714133126395,695.3214276177542,2454.1,416.5714133126395,502.82142761775424,2559.9,461.5714133126395,431.57142761775424,2668.3,466.5714133126395,426.57142761775424,2768.3,471.5714133126395,412.82142761775424,2869.3,481.5714133126395,351.57142761775424,2974,477.8214133126395,347.82142761775424,3084.8,466.5714133126395,451.57142761775424,3185.2,490.3214133126395,409.07142761775424,3290.1,487.8214133126395,416.57142761775424,3395,472.8214133126395,446.57142761775424,3501.7,466.5714133126395,456.57142761775424,3604.2,466.5714133126395,457.82142761775424,3709.6,464.0714133126395,457.82142761775424,3818.9,454.0714133126395,405.32142761775424,3919]","[1784.9,1784.9,1000,0,784.9,""smooth"",""down"",""down"",""good_move"",2068.6,283.4,2440.2,1785.2,-2156.8,""error"",""-"",""-"",""no_move"",2500,431.3,2440.2,1785.2,-1725.4,""while_red"",""-"",""-"",""no_move"",3509.1,1440.5,2442.7,3071.4,-2004.9,""error"",""-"",""-"",""no_move"",3761.4,252.1,2442.7,3071.4,-1752.7,""while_red"",""-"",""-"",""no_move"",4371.4,862.1,2442.7,3071.4,-1142.6,""while_red"",""-"",""-"",""no_move"",8119.2,4609.9,3042.9,4511.9,564.4,""smooth"",""down"",""down"",""good_move"",11576.8,3457.5,2839.2,8119.3,618.3,""smooth"",""down"",""down"",""good_move"",14071.8,2495,2097.8,11576.9,397.2,""smooth"",""left"",""left"",""good_move"",16691.2,2619.1,2030.4,14072.2,588.6,""smooth"",""left"",""left"",""good_move"",19850.2,3158.8,2674.8,16691.4,484,""smooth"",""left"",""left"",""good_move""]","","",""
"34075","","","","instructions","22","661680","0.0-8.0-2.0","91","1","2025-07-09 09:07:46","7701e855f2ef39aa3fd6c71abdc6918a","41.164.82.138","Mozilla/5.0 (Windows NT 10.0; Win64; x64) AppleWebKit/537.36 (KHTML, like Gecko) Chrome/138.0.0.0 Safari/537.36","WebKit","Chrome","138.0.0.0","Windows","10.0","https://app.prolific.com/","en-US,en;q=0.9","611e2d4ad083c861391122b2","686d226cabeef709c732f8e1","686e312efb867144fa78513a","611e2d4ad083c861391122b2","","[{""page_index"":0,""viewing_time"":34074}]","","","","","","","","","","","","","","","","","","","","","","","","","","","","","","","","","","","","","","","","","","","",""
"","","","","ctl-task-cpt","23","706822","0.0-8.0-3.0","91","1","2025-07-09 09:07:46","7701e855f2ef39aa3fd6c71abdc6918a","41.164.82.138","Mozilla/5.0 (Windows NT 10.0; Win64; x64) AppleWebKit/537.36 (KHTML, like Gecko) Chrome/138.0.0.0 Safari/537.36","WebKit","Chrome","138.0.0.0","Windows","10.0","https://app.prolific.com/","en-US,en;q=0.9","611e2d4ad083c861391122b2","686d226cabeef709c732f8e1","686e312efb867144fa78513a","611e2d4ad083c861391122b2","","","","","","","","","","","","","","","","","win-only","1","g1:NE,g2:SW","0.35","0","3","664390.2","1189.3","5190.9","42123","2","4","8","6","1","-2","-2","0","0","0","4001.6","4000","-2715","[""up"",""right""]","{""num_key_presses"":8,""num_perfect"":3,""num_errors"":0,""num_randdir"":5,""num_randdir_good_moves"":1,""num_whilered"":0,""num_whileblue"":0,""num_blue"":3,""num_good_moves"":4}","[422.8214133126395,416.57142761775424,0.2,422.8214133126395,416.57142761775424,100.9,422.8214133126395,416.57142761775424,201.4,422.8214133126395,416.57142761775424,301.4,422.8214133126395,416.57142761775424,402.5,422.8214133126395,416.57142761775424,506.7,439.0714133126395,401.57142761775424,606.9,472.8214133126395,370.32142761775424,711.9,472.8214133126395,370.32142761775424,816.8,472.8214133126395,376.57142761775424,917.1,472.8214133126395,379.07142761775424,1017.4,481.5714133126395,371.57142761775424,1118,485.3214133126395,366.57142761775424,1221.2,486.5714133126395,362.82142761775424,1322.8,486.5714133126395,362.82142761775424,1422.8,487.8214133126395,361.57142761775424,1527,489.0714133126395,360.32142761775424,1635,489.0714133126395,359.07142761775424,1737.2,489.0714133126395,356.57142761775424,1841.9,495.3214133126395,345.32142761775424,1941.9,495.3214133126395,345.32142761775424,2051.5,495.3214133126395,345.32142761775424,2157.1,492.8214133126395,349.07142761775424,2267.2,492.8214133126395,349.07142761775424,2369.6,492.8214133126395,349.07142761775424,2472.4,492.8214133126395,349.07142761775424,2576.5,492.8214133126395,349.07142761775424,2677.7,492.8214133126395,349.07142761775424,2785,492.8214133126395,349.07142761775424,2886.9,492.8214133126395,349.07142761775424,2992.4,492.8214133126395,349.07142761775424,3100.8,492.8214133126395,349.07142761775424,3201.5,492.8214133126395,349.07142761775424,3307.1,492.8214133126395,349.07142761775424,3411.4,492.8214133126395,349.07142761775424,3511.9,492.8214133126395,349.07142761775424,3618.7,492.8214133126395,349.07142761775424,3721.8,492.8214133126395,349.07142761775424,3821.9,492.8214133126395,349.07142761775424,3922.2]","[8802.3,8802.3,2647.7,5490,664.6,""oops"",""right"",""right"",""good_move"",12254,3451.2,2530.2,8802.8,921,""smooth"",""up"",""up"",""good_move"",15697.2,3442.9,3003.5,12254.3,439.4,""oops"",""up"",""left"",""bad_move"",21908,6210.5,2491.6,19000.3,416.1,""smooth"",""right"",""right"",""good_move"",24725.6,2817.5,2359,21908.1,458.5,""smooth"",""right"",""right"",""good_move"",27676.9,2951.1,2563.9,24725.8,387.2,""oops"",""up"",""left"",""bad_move"",30694.7,3017.4,2601.4,27677.3,416,""oops"",""up"",""left"",""bad_move"",34197.9,3503,2849.7,30694.9,653.3,""oops"",""right"",""down"",""bad_move""]","","",""
"49180","","","","instructions","24","756002","0.0-8.0-4.0","91","1","2025-07-09 09:07:46","7701e855f2ef39aa3fd6c71abdc6918a","41.164.82.138","Mozilla/5.0 (Windows NT 10.0; Win64; x64) AppleWebKit/537.36 (KHTML, like Gecko) Chrome/138.0.0.0 Safari/537.36","WebKit","Chrome","138.0.0.0","Windows","10.0","https://app.prolific.com/","en-US,en;q=0.9","611e2d4ad083c861391122b2","686d226cabeef709c732f8e1","686e312efb867144fa78513a","611e2d4ad083c861391122b2","","[{""page_index"":0,""viewing_time"":14482},{""page_index"":1,""viewing_time"":34698}]","","","","","","","","","","","","","","","","","","","","","","","","","","","","","","","","","","","","","","","","","","","",""
"14000","","","{""green_ball"":[""Ball always moves in the direction I press""]}","survey-multi-select","25","770003","0.0-8.0-5.0-0.0","91","1","2025-07-09 09:07:46","7701e855f2ef39aa3fd6c71abdc6918a","41.164.82.138","Mozilla/5.0 (Windows NT 10.0; Win64; x64) AppleWebKit/537.36 (KHTML, like Gecko) Chrome/138.0.0.0 Safari/537.36","WebKit","Chrome","138.0.0.0","Windows","10.0","https://app.prolific.com/","en-US,en;q=0.9","611e2d4ad083c861391122b2","686d226cabeef709c732f8e1","686e312efb867144fa78513a","611e2d4ad083c861391122b2","","","[0]","","","","quiz","","","","","","","","","","","","","","","","","","","","","","","","","","","","","","","","","","","","","false","",""
"5750","","<p align='center'><b>INCORRECT.</b> Usually the green ball moves in the indicated direction, but sometimes it shakes and moves randomly. </p>","0","html-button-response","26","775754","0.0-8.0-5.0-1.0","91","1","2025-07-09 09:07:46","7701e855f2ef39aa3fd6c71abdc6918a","41.164.82.138","Mozilla/5.0 (Windows NT 10.0; Win64; x64) AppleWebKit/537.36 (KHTML, like Gecko) Chrome/138.0.0.0 Safari/537.36","WebKit","Chrome","138.0.0.0","Windows","10.0","https://app.prolific.com/","en-US,en;q=0.9","611e2d4ad083c861391122b2","686d226cabeef709c732f8e1","686e312efb867144fa78513a","611e2d4ad083c861391122b2","","","","","","","","","","","","","","","","","","","","","","","","","","","","","","","","","","","","","","","","","","","","","",""
"5007","","","{""green_ball"":[""Ball sometimes shakes and moves in a random direction""]}","survey-multi-select","27","780762","0.0-8.0-5.1-0.1","91","1","2025-07-09 09:07:46","7701e855f2ef39aa3fd6c71abdc6918a","41.164.82.138","Mozilla/5.0 (Windows NT 10.0; Win64; x64) AppleWebKit/537.36 (KHTML, like Gecko) Chrome/138.0.0.0 Safari/537.36","WebKit","Chrome","138.0.0.0","Windows","10.0","https://app.prolific.com/","en-US,en;q=0.9","611e2d4ad083c861391122b2","686d226cabeef709c732f8e1","686e312efb867144fa78513a","611e2d4ad083c861391122b2","","","[0]","","","","quiz","","","","","","","","","","","","","","","","","","","","","","","","","","","","","","","","","","","","","true","",""
"4031","","<p align='center'><b>CORRECT!</b> Indeed, the green ball may sometimes shake and move in a random direction.</p>","0","html-button-response","28","784793","0.0-8.0-5.1-1.1","91","1","2025-07-09 09:07:46","7701e855f2ef39aa3fd6c71abdc6918a","41.164.82.138","Mozilla/5.0 (Windows NT 10.0; Win64; x64) AppleWebKit/537.36 (KHTML, like Gecko) Chrome/138.0.0.0 Safari/537.36","WebKit","Chrome","138.0.0.0","Windows","10.0","https://app.prolific.com/","en-US,en;q=0.9","611e2d4ad083c861391122b2","686d226cabeef709c732f8e1","686e312efb867144fa78513a","611e2d4ad083c861391122b2","","","","","","","","","","","","","","","","","","","","","","","","","","","","","","","","","","","","","","","","","","","","","",""
"9233","","","{""yellow_ball"":[""Ball doesn‘t move and I get -1 penalty point""]}","survey-multi-select","29","794027","0.0-8.0-6.0-0.0","91","1","2025-07-09 09:07:46","7701e855f2ef39aa3fd6c71abdc6918a","41.164.82.138","Mozilla/5.0 (Windows NT 10.0; Win64; x64) AppleWebKit/537.36 (KHTML, like Gecko) Chrome/138.0.0.0 Safari/537.36","WebKit","Chrome","138.0.0.0","Windows","10.0","https://app.prolific.com/","en-US,en;q=0.9","611e2d4ad083c861391122b2","686d226cabeef709c732f8e1","686e312efb867144fa78513a","611e2d4ad083c861391122b2","","","[0]","","","","quiz","","","","","","","","","","","","","","","","","","","","","","","","","","","","","","","","","","","","","true","",""
"1542","","<p align='center'><b>CORRECT!</b> Indeed, the yellow ball never moves and you receive a penalty.</p>","0","html-button-response","30","795570","0.0-8.0-6.0-1.0","91","1","2025-07-09 09:07:46","7701e855f2ef39aa3fd6c71abdc6918a","41.164.82.138","Mozilla/5.0 (Windows NT 10.0; Win64; x64) AppleWebKit/537.36 (KHTML, like Gecko) Chrome/138.0.0.0 Safari/537.36","WebKit","Chrome","138.0.0.0","Windows","10.0","https://app.prolific.com/","en-US,en;q=0.9","611e2d4ad083c861391122b2","686d226cabeef709c732f8e1","686e312efb867144fa78513a","611e2d4ad083c861391122b2","","","","","","","","","","","","","","","","","","","","","","","","","","","","","","","","","","","","","","","","","","","","","",""
"7391","","","{""blue_ball"":[""Ball doesn‘t move and I get -1 penalty point""]}","survey-multi-select","31","802963","0.0-8.0-7.0-0.0","91","1","2025-07-09 09:07:46","7701e855f2ef39aa3fd6c71abdc6918a","41.164.82.138","Mozilla/5.0 (Windows NT 10.0; Win64; x64) AppleWebKit/537.36 (KHTML, like Gecko) Chrome/138.0.0.0 Safari/537.36","WebKit","Chrome","138.0.0.0","Windows","10.0","https://app.prolific.com/","en-US,en;q=0.9","611e2d4ad083c861391122b2","686d226cabeef709c732f8e1","686e312efb867144fa78513a","611e2d4ad083c861391122b2","","","[0]","","","","quiz","","","","","","","","","","","","","","","","","","","","","","","","","","","","","","","","","","","","","false","",""
"2654","","<p align='center'><b>INCORRECT.</b> The blue ball always shakes and moves randomly.</p>","0","html-button-response","32","805618","0.0-8.0-7.0-1.0","91","1","2025-07-09 09:07:46","7701e855f2ef39aa3fd6c71abdc6918a","41.164.82.138","Mozilla/5.0 (Windows NT 10.0; Win64; x64) AppleWebKit/537.36 (KHTML, like Gecko) Chrome/138.0.0.0 Safari/537.36","WebKit","Chrome","138.0.0.0","Windows","10.0","https://app.prolific.com/","en-US,en;q=0.9","611e2d4ad083c861391122b2","686d226cabeef709c732f8e1","686e312efb867144fa78513a","611e2d4ad083c861391122b2","","","","","","","","","","","","","","","","","","","","","","","","","","","","","","","","","","","","","","","","","","","","","",""
"6208","","","{""blue_ball"":[""Ball sometimes shakes and moves in a random direction""]}","survey-multi-select","33","811827","0.0-8.0-7.1-0.1","91","1","2025-07-09 09:07:46","7701e855f2ef39aa3fd6c71abdc6918a","41.164.82.138","Mozilla/5.0 (Windows NT 10.0; Win64; x64) AppleWebKit/537.36 (KHTML, like Gecko) Chrome/138.0.0.0 Safari/537.36","WebKit","Chrome","138.0.0.0","Windows","10.0","https://app.prolific.com/","en-US,en;q=0.9","611e2d4ad083c861391122b2","686d226cabeef709c732f8e1","686e312efb867144fa78513a","611e2d4ad083c861391122b2","","","[0]","","","","quiz","","","","","","","","","","","","","","","","","","","","","","","","","","","","","","","","","","","","","false","",""
"3014","","<p align='center'><b>INCORRECT.</b> The blue ball always shakes and moves randomly.</p>","0","html-button-response","34","814842","0.0-8.0-7.1-1.1","91","1","2025-07-09 09:07:46","7701e855f2ef39aa3fd6c71abdc6918a","41.164.82.138","Mozilla/5.0 (Windows NT 10.0; Win64; x64) AppleWebKit/537.36 (KHTML, like Gecko) Chrome/138.0.0.0 Safari/537.36","WebKit","Chrome","138.0.0.0","Windows","10.0","https://app.prolific.com/","en-US,en;q=0.9","611e2d4ad083c861391122b2","686d226cabeef709c732f8e1","686e312efb867144fa78513a","611e2d4ad083c861391122b2","","","","","","","","","","","","","","","","","","","","","","","","","","","","","","","","","","","","","","","","","","","","","",""
"3712","","","{""blue_ball"":[""Ball always shakes and moves in a random direction""]}","survey-multi-select","35","818555","0.0-8.0-7.2-0.2","91","1","2025-07-09 09:07:46","7701e855f2ef39aa3fd6c71abdc6918a","41.164.82.138","Mozilla/5.0 (Windows NT 10.0; Win64; x64) AppleWebKit/537.36 (KHTML, like Gecko) Chrome/138.0.0.0 Safari/537.36","WebKit","Chrome","138.0.0.0","Windows","10.0","https://app.prolific.com/","en-US,en;q=0.9","611e2d4ad083c861391122b2","686d226cabeef709c732f8e1","686e312efb867144fa78513a","611e2d4ad083c861391122b2","","","[0]","","","","quiz","","","","","","","","","","","","","","","","","","","","","","","","","","","","","","","","","","","","","true","",""
"1360","","<p align='center'><b>CORRECT!</b> Indeed, the blue ball always shakes and moves in a random direction. Also there is a penalty of -1 point.</p>","0","html-button-response","36","819915","0.0-8.0-7.2-1.2","91","1","2025-07-09 09:07:46","7701e855f2ef39aa3fd6c71abdc6918a","41.164.82.138","Mozilla/5.0 (Windows NT 10.0; Win64; x64) AppleWebKit/537.36 (KHTML, like Gecko) Chrome/138.0.0.0 Safari/537.36","WebKit","Chrome","138.0.0.0","Windows","10.0","https://app.prolific.com/","en-US,en;q=0.9","611e2d4ad083c861391122b2","686d226cabeef709c732f8e1","686e312efb867144fa78513a","611e2d4ad083c861391122b2","","","","","","","","","","","","","","","","","","","","","","","","","","","","","","","","","","","","","","","","","","","","","",""
"18216","","","{""bonus"":[""When I reach 50% of points""]}","survey-multi-select","37","838131","0.0-8.0-8.0-0.0","91","1","2025-07-09 09:07:46","7701e855f2ef39aa3fd6c71abdc6918a","41.164.82.138","Mozilla/5.0 (Windows NT 10.0; Win64; x64) AppleWebKit/537.36 (KHTML, like Gecko) Chrome/138.0.0.0 Safari/537.36","WebKit","Chrome","138.0.0.0","Windows","10.0","https://app.prolific.com/","en-US,en;q=0.9","611e2d4ad083c861391122b2","686d226cabeef709c732f8e1","686e312efb867144fa78513a","611e2d4ad083c861391122b2","","","[0]","","","","quiz","","","","","","","","","","","","","","","","","","","","","","","","","","","","","","","","","","","","","true","",""
"998","","<p align='center'><b>CORRECT!</b> Indeed, you receive 2 pounds extra when you reach 50% of points.</p>","0","html-button-response","38","839131","0.0-8.0-8.0-1.0","91","1","2025-07-09 09:07:46","7701e855f2ef39aa3fd6c71abdc6918a","41.164.82.138","Mozilla/5.0 (Windows NT 10.0; Win64; x64) AppleWebKit/537.36 (KHTML, like Gecko) Chrome/138.0.0.0 Safari/537.36","WebKit","Chrome","138.0.0.0","Windows","10.0","https://app.prolific.com/","en-US,en;q=0.9","611e2d4ad083c861391122b2","686d226cabeef709c732f8e1","686e312efb867144fa78513a","611e2d4ad083c861391122b2","","","","","","","","","","","","","","","","","","","","","","","","","","","","","","","","","","","","","","","","","","","","","",""
"3512","","","","instructions","39","842643","0.0-8.0-9.0","91","1","2025-07-09 09:07:46","7701e855f2ef39aa3fd6c71abdc6918a","41.164.82.138","Mozilla/5.0 (Windows NT 10.0; Win64; x64) AppleWebKit/537.36 (KHTML, like Gecko) Chrome/138.0.0.0 Safari/537.36","WebKit","Chrome","138.0.0.0","Windows","10.0","https://app.prolific.com/","en-US,en;q=0.9","611e2d4ad083c861391122b2","686d226cabeef709c732f8e1","686e312efb867144fa78513a","611e2d4ad083c861391122b2","","[{""page_index"":0,""viewing_time"":3511}]","","","","","","","","","","","","","","","","","","","","","","","","","","","","","","","","","","","","","","","","","","","",""
"15526","","<p>Before you start with this game please answer the following three questions yourself. </p>
  <p>Through this game, we measure several aspects of your cognitive performance, such as reaction times, multi-tasking capabilities </p>
  <p>and the ability to assess the situation you are in.</p>
  <p></p>
  <p><b>How good do you usually are in such tasks?</b></p>","100","html-slider-response","40","858172","0.0-9.0-0.0","91","1","2025-07-09 09:07:46","7701e855f2ef39aa3fd6c71abdc6918a","41.164.82.138","Mozilla/5.0 (Windows NT 10.0; Win64; x64) AppleWebKit/537.36 (KHTML, like Gecko) Chrome/138.0.0.0 Safari/537.36","WebKit","Chrome","138.0.0.0","Windows","10.0","https://app.prolific.com/","en-US,en;q=0.9","611e2d4ad083c861391122b2","686d226cabeef709c732f8e1","686e312efb867144fa78513a","611e2d4ad083c861391122b2","2025-07-09T09:22:06.389Z","","","","","","PreSkillQ","","","","","","","","","","","","","","","","","","","","","","","","","","","","","","","","","","","","","","50",""
"4526","","<div style=""width:500px;"">
  <p>How well do you think you will perform in this task compared to other participants?</p>
  </div>","100","html-slider-response","41","862699","0.0-9.0-1.0","91","1","2025-07-09 09:07:46","7701e855f2ef39aa3fd6c71abdc6918a","41.164.82.138","Mozilla/5.0 (Windows NT 10.0; Win64; x64) AppleWebKit/537.36 (KHTML, like Gecko) Chrome/138.0.0.0 Safari/537.36","WebKit","Chrome","138.0.0.0","Windows","10.0","https://app.prolific.com/","en-US,en;q=0.9","611e2d4ad083c861391122b2","686d226cabeef709c732f8e1","686e312efb867144fa78513a","611e2d4ad083c861391122b2","2025-07-09T09:22:10.916Z","","","","","","PrePerfQ","","","","","","","","","","","","","","","","","","","","","","","","","","","","","","","","","","","","","","50",""
"4992","","<div style=""width:500px;"">
  <p>What best describes how you currently feel?</p>
  </div>","100","html-slider-response","42","867692","0.0-9.0-2.0","91","1","2025-07-09 09:07:46","7701e855f2ef39aa3fd6c71abdc6918a","41.164.82.138","Mozilla/5.0 (Windows NT 10.0; Win64; x64) AppleWebKit/537.36 (KHTML, like Gecko) Chrome/138.0.0.0 Safari/537.36","WebKit","Chrome","138.0.0.0","Windows","10.0","https://app.prolific.com/","en-US,en;q=0.9","611e2d4ad083c861391122b2","686d226cabeef709c732f8e1","686e312efb867144fa78513a","611e2d4ad083c861391122b2","2025-07-09T09:22:15.909Z","","","","","","PreMotivationQ","","","","","","","","","","","","","","","","","","","","","","","","","","","","","","","","","","","","","","50",""
"","","","","ctl-task-cpt","43","896346","0.0-10.0-0.0","91","1","2025-07-09 09:07:46","7701e855f2ef39aa3fd6c71abdc6918a","41.164.82.138","Mozilla/5.0 (Windows NT 10.0; Win64; x64) AppleWebKit/537.36 (KHTML, like Gecko) Chrome/138.0.0.0 Safari/537.36","WebKit","Chrome","138.0.0.0","Windows","10.0","https://app.prolific.com/","en-US,en;q=0.9","611e2d4ad083c861391122b2","686d226cabeef709c732f8e1","686e312efb867144fa78513a","611e2d4ad083c861391122b2","2025-07-09T09:22:44.563Z","","","","","","","","","","","","","","","","win-only","3","g1:SW,g2:NE","1","1","0","870403.7","1245.8","6251.3","25645.3","1","4","8","6","2","8","8","8","0","0.06060606060606061","1115","3000","280","[""up"",""right""]","{""num_key_presses"":6,""num_perfect"":6,""num_errors"":0,""num_randdir"":0,""num_randdir_good_moves"":0,""num_whilered"":0,""num_whileblue"":0,""num_blue"":1,""num_good_moves"":6}","[419.0714133126395,415.32142761775424,0.1,419.0714133126395,415.32142761775424,104.8,440.3214133126395,416.57142761775424,205.2,440.3214133126395,416.57142761775424,313.9,436.5714133126395,421.57142761775424,414.8,429.0714133126395,454.07142761775424,514.8,467.8214133126395,404.07142761775424,615.3,676.5714133126395,197.82142761775424,715.4,711.5714133126395,141.57142761775424,820.9,715.3214133126395,126.57142761775425,925.3,735.3214133126395,109.07142761775425,1032.5,736.5714133126395,107.82142761775425,1135.5,736.5714133126395,107.82142761775425,1240,716.5714133126395,129.07142761775424,1347.7,679.0714133126395,156.57142761775424,1447.9,679.0714133126395,156.57142761775424,1549.9,679.0714133126395,156.57142761775424,1650.6,679.0714133126395,156.57142761775424,1754.6,679.0714133126395,156.57142761775424,1855.5,679.0714133126395,156.57142761775424,1963.7,679.0714133126395,156.57142761775424,2064.5,679.0714133126395,156.57142761775424,2166.9,679.0714133126395,156.57142761775424,2270.1,679.0714133126395,156.57142761775424,2370.7,679.0714133126395,156.57142761775424,2475.2,679.0714133126395,156.57142761775424,2582.2,679.0714133126395,156.57142761775424,2684.7,679.0714133126395,156.57142761775424,2785.4,679.0714133126395,156.57142761775424,2890.2,679.0714133126395,156.57142761775424,2999.3,679.0714133126395,156.57142761775424,3099.6,679.0714133126395,156.57142761775424,3201,679.0714133126395,156.57142761775424,3306.2,679.0714133126395,156.57142761775424,3414.5,679.0714133126395,156.57142761775424,3514.7,679.0714133126395,156.57142761775424,3615.3,679.0714133126395,156.57142761775424,3720.1,679.0714133126395,156.57142761775424,3820.3,679.0714133126395,156.57142761775424,3920.9,679.0714133126395,156.57142761775424,4025.7,679.0714133126395,156.57142761775424,4131.7,679.0714133126395,156.57142761775424,4234.8,679.0714133126395,156.57142761775424,4339.6,679.0714133126395,156.57142761775424,4440.2,679.0714133126395,156.57142761775424,4548.6,679.0714133126395,156.57142761775424,4648.7,679.0714133126395,156.57142761775424,4749.3,679.0714133126395,156.57142761775424,4850,679.0714133126395,156.57142761775424,4955.1]","[1518.1,1518.1,1000,0,518.1,""smooth"",""right"",""right"",""good_move"",8450.1,6931.8,2030.3,5979.9,439.9,""smooth"",""right"",""right"",""good_move"",11730.8,3280.6,2713.5,8450.2,567.1,""smooth"",""up"",""up"",""good_move"",14498.5,2767.5,2235.4,11731,532.1,""smooth"",""up"",""up"",""good_move"",17416.9,2918.3,2323.2,14498.6,595.1,""smooth"",""up"",""up"",""good_move"",19300.5,1883.4,1467.1,17417.1,416.3,""smooth"",""right"",""right"",""good_move""]","","",""
"5064","","<div style=""width:500px;"">
  <p>What determined the result of this run?</p>
  </div>","100","html-slider-response","44","901411","0.0-10.0-1.0","91","1","2025-07-09 09:07:46","7701e855f2ef39aa3fd6c71abdc6918a","41.164.82.138","Mozilla/5.0 (Windows NT 10.0; Win64; x64) AppleWebKit/537.36 (KHTML, like Gecko) Chrome/138.0.0.0 Safari/537.36","WebKit","Chrome","138.0.0.0","Windows","10.0","https://app.prolific.com/","en-US,en;q=0.9","611e2d4ad083c861391122b2","686d226cabeef709c732f8e1","686e312efb867144fa78513a","611e2d4ad083c861391122b2","2025-07-09T09:22:49.628Z","","","","","","AttribQ","","","","","","","","","","","","","","","","","","","","","","","","","","","","","","","","","","","","","","50",""
"3408","","<div style=""width:500px;"">
  <p>How much control did you have over the ball?</p>
  </div>","100","html-slider-response","45","904819","0.0-10.0-2.0","91","1","2025-07-09 09:07:46","7701e855f2ef39aa3fd6c71abdc6918a","41.164.82.138","Mozilla/5.0 (Windows NT 10.0; Win64; x64) AppleWebKit/537.36 (KHTML, like Gecko) Chrome/138.0.0.0 Safari/537.36","WebKit","Chrome","138.0.0.0","Windows","10.0","https://app.prolific.com/","en-US,en;q=0.9","611e2d4ad083c861391122b2","686d226cabeef709c732f8e1","686e312efb867144fa78513a","611e2d4ad083c861391122b2","2025-07-09T09:22:53.037Z","","","","","","ControlQ","","","","","","","","","","","","","","","","","","","","","","","","","","","","","","","","","","","","","","50",""
"4024","","<div style=""width:500px;"">
  <p>How would you describe your current emotional state?</p>
  </div>","0","html-slider-response","46","908844","0.0-10.0-3.0","91","1","2025-07-09 09:07:46","7701e855f2ef39aa3fd6c71abdc6918a","41.164.82.138","Mozilla/5.0 (Windows NT 10.0; Win64; x64) AppleWebKit/537.36 (KHTML, like Gecko) Chrome/138.0.0.0 Safari/537.36","WebKit","Chrome","138.0.0.0","Windows","10.0","https://app.prolific.com/","en-US,en;q=0.9","611e2d4ad083c861391122b2","686d226cabeef709c732f8e1","686e312efb867144fa78513a","611e2d4ad083c861391122b2","2025-07-09T09:22:57.061Z","","","","","","StressQ","","","","","","","","","","","","","","","","","","","","","","","","","","","","","","","","","","","","","","50",""
"4335","","<div style=""width:500px;"">
  <p>What best describes how you currently feel?</p>
  </div>","100","html-slider-response","47","913180","0.0-10.0-4.0","91","1","2025-07-09 09:07:46","7701e855f2ef39aa3fd6c71abdc6918a","41.164.82.138","Mozilla/5.0 (Windows NT 10.0; Win64; x64) AppleWebKit/537.36 (KHTML, like Gecko) Chrome/138.0.0.0 Safari/537.36","WebKit","Chrome","138.0.0.0","Windows","10.0","https://app.prolific.com/","en-US,en;q=0.9","611e2d4ad083c861391122b2","686d226cabeef709c732f8e1","686e312efb867144fa78513a","611e2d4ad083c861391122b2","2025-07-09T09:23:01.397Z","","","","","","MotivationQ","","","","","","","","","","","","","","","","","","","","","","","","","","","","","","","","","","","","","","50",""
"","","","","ctl-task-cpt","48","941833","0.0-10.0-0.1","91","1","2025-07-09 09:07:46","7701e855f2ef39aa3fd6c71abdc6918a","41.164.82.138","Mozilla/5.0 (Windows NT 10.0; Win64; x64) AppleWebKit/537.36 (KHTML, like Gecko) Chrome/138.0.0.0 Safari/537.36","WebKit","Chrome","138.0.0.0","Windows","10.0","https://app.prolific.com/","en-US,en;q=0.9","611e2d4ad083c861391122b2","686d226cabeef709c732f8e1","686e312efb867144fa78513a","611e2d4ad083c861391122b2","2025-07-09T09:23:30.050Z","","","","","","","","","","","","","","","","win-only","3","g1:SW,g2:NE","0.9","2","0","915892.3","862.7","5866.5","25640.3","1","4","4","6","1","1","1","9","8","0.06818181818181818","1126.4","3000","380","[""down"",""left""]","{""num_key_presses"":6,""num_perfect"":5,""num_errors"":0,""num_randdir"":1,""num_randdir_good_moves"":0,""num_whilered"":0,""num_whileblue"":0,""num_blue"":1,""num_good_moves"":5}","[416.5714133126395,411.57142761775424,0.2,416.5714133126395,411.57142761775424,102.9,431.5714133126395,402.82142761775424,208.1,600.3214133126395,304.07142761775424,308.6,690.3214133126395,246.57142761775424,413.2,664.0714133126395,272.82142761775424,517.9,412.8214133126395,525.3214276177542,618.7,222.8214133126395,721.5714276177542,726.9,196.5714133126395,770.3214276177542,827.9,144.0714133126395,791.5714276177542,928.5,85.3214133126395,771.5714276177542,1033.5,81.5714133126395,771.5714276177542,1134.2,81.5714133126395,769.0714276177542,1238,162.8214133126395,752.8214276177542,1338.5,186.5714133126395,742.8214276177542,1444.8,186.5714133126395,742.8214276177542,1548.2,186.5714133126395,742.8214276177542,1652.9,186.5714133126395,742.8214276177542,1753.1,186.5714133126395,742.8214276177542,1861.6,186.5714133126395,742.8214276177542,1963.6,186.5714133126395,742.8214276177542,2068.5,186.5714133126395,742.8214276177542,2177.3,186.5714133126395,742.8214276177542,2279.5,186.5714133126395,742.8214276177542,2383.3,186.5714133126395,742.8214276177542,2494.9,186.5714133126395,742.8214276177542,2598,186.5714133126395,742.8214276177542,2703,186.5714133126395,742.8214276177542,2811.3,186.5714133126395,742.8214276177542,2911.5,186.5714133126395,742.8214276177542,3011.9,186.5714133126395,742.8214276177542,3112.2,186.5714133126395,742.8214276177542,3213,186.5714133126395,742.8214276177542,3317.7,186.5714133126395,742.8214276177542,3418.1,186.5714133126395,742.8214276177542,3528,186.5714133126395,742.8214276177542,3628.5,186.5714133126395,742.8214276177542,3733.1,186.5714133126395,742.8214276177542,3838.5,186.5714133126395,742.8214276177542,3945,186.5714133126395,742.8214276177542,4047.9,186.5714133126395,742.8214276177542,4148.6,186.5714133126395,742.8214276177542,4253.4,186.5714133126395,742.8214276177542,4362,186.5714133126395,742.8214276177542,4463,186.5714133126395,742.8214276177542,4563.3,186.5714133126395,742.8214276177542,4667.9,186.5714133126395,742.8214276177542,4773.2,186.5714133126395,742.8214276177542,4878.8,186.5714133126395,742.8214276177542,4982.7]","[1557.8,1557.8,1000,0,557.8,""oops"",""left"",""right"",""bad_move"",4715.7,3157.4,2509.5,1558.3,647.9,""smooth"",""down"",""down"",""good_move"",7678.6,2962.6,2484.4,4716,478.2,""smooth"",""left"",""left"",""good_move"",10406.8,2728,2290.3,7678.9,437.6,""smooth"",""left"",""left"",""good_move"",13462.2,3055.3,2627.3,10406.9,428,""smooth"",""down"",""down"",""good_move"",19671.9,6209.6,2487.5,16764.6,419.8,""smooth"",""left"",""left"",""good_move""]","","",""
"5419","","<div style=""width:500px;"">
  <p>What determined the result of this run?</p>
  </div>","100","html-slider-response","49","947253","0.0-10.0-1.1","91","1","2025-07-09 09:07:46","7701e855f2ef39aa3fd6c71abdc6918a","41.164.82.138","Mozilla/5.0 (Windows NT 10.0; Win64; x64) AppleWebKit/537.36 (KHTML, like Gecko) Chrome/138.0.0.0 Safari/537.36","WebKit","Chrome","138.0.0.0","Windows","10.0","https://app.prolific.com/","en-US,en;q=0.9","611e2d4ad083c861391122b2","686d226cabeef709c732f8e1","686e312efb867144fa78513a","611e2d4ad083c861391122b2","2025-07-09T09:23:35.470Z","","","","","","AttribQ","","","","","","","","","","","","","","","","","","","","","","","","","","","","","","","","","","","","","","50",""
"2351","","<div style=""width:500px;"">
  <p>How much control did you have over the ball?</p>
  </div>","100","html-slider-response","50","949605","0.0-10.0-2.1","91","1","2025-07-09 09:07:46","7701e855f2ef39aa3fd6c71abdc6918a","41.164.82.138","Mozilla/5.0 (Windows NT 10.0; Win64; x64) AppleWebKit/537.36 (KHTML, like Gecko) Chrome/138.0.0.0 Safari/537.36","WebKit","Chrome","138.0.0.0","Windows","10.0","https://app.prolific.com/","en-US,en;q=0.9","611e2d4ad083c861391122b2","686d226cabeef709c732f8e1","686e312efb867144fa78513a","611e2d4ad083c861391122b2","2025-07-09T09:23:37.822Z","","","","","","ControlQ","","","","","","","","","","","","","","","","","","","","","","","","","","","","","","","","","","","","","","50",""
"3927","","<div style=""width:500px;"">
  <p>How would you describe your current emotional state?</p>
  </div>","0","html-slider-response","51","953533","0.0-10.0-3.1","91","1","2025-07-09 09:07:46","7701e855f2ef39aa3fd6c71abdc6918a","41.164.82.138","Mozilla/5.0 (Windows NT 10.0; Win64; x64) AppleWebKit/537.36 (KHTML, like Gecko) Chrome/138.0.0.0 Safari/537.36","WebKit","Chrome","138.0.0.0","Windows","10.0","https://app.prolific.com/","en-US,en;q=0.9","611e2d4ad083c861391122b2","686d226cabeef709c732f8e1","686e312efb867144fa78513a","611e2d4ad083c861391122b2","2025-07-09T09:23:41.750Z","","","","","","StressQ","","","","","","","","","","","","","","","","","","","","","","","","","","","","","","","","","","","","","","50",""
"3455","","<div style=""width:500px;"">
  <p>What best describes how you currently feel?</p>
  </div>","100","html-slider-response","52","956988","0.0-10.0-4.1","91","1","2025-07-09 09:07:46","7701e855f2ef39aa3fd6c71abdc6918a","41.164.82.138","Mozilla/5.0 (Windows NT 10.0; Win64; x64) AppleWebKit/537.36 (KHTML, like Gecko) Chrome/138.0.0.0 Safari/537.36","WebKit","Chrome","138.0.0.0","Windows","10.0","https://app.prolific.com/","en-US,en;q=0.9","611e2d4ad083c861391122b2","686d226cabeef709c732f8e1","686e312efb867144fa78513a","611e2d4ad083c861391122b2","2025-07-09T09:23:45.205Z","","","","","","MotivationQ","","","","","","","","","","","","","","","","","","","","","","","","","","","","","","","","","","","","","","50",""
"","","","","ctl-task-cpt","53","983397","0.0-10.0-0.2","91","1","2025-07-09 09:07:46","7701e855f2ef39aa3fd6c71abdc6918a","41.164.82.138","Mozilla/5.0 (Windows NT 10.0; Win64; x64) AppleWebKit/537.36 (KHTML, like Gecko) Chrome/138.0.0.0 Safari/537.36","WebKit","Chrome","138.0.0.0","Windows","10.0","https://app.prolific.com/","en-US,en;q=0.9","611e2d4ad083c861391122b2","686d226cabeef709c732f8e1","686e312efb867144fa78513a","611e2d4ad083c861391122b2","2025-07-09T09:24:11.614Z","","","","","","","","","","","","","","","","win-only","2","g1:SE,g2:NW","0.8","3","0","959702","894.5","5897","23390.4","1","4","8","6","2","8","8","17","9","0.12878787878787878","1087.3","3000","555","[""left"",""up""]","{""num_key_presses"":6,""num_perfect"":5,""num_errors"":0,""num_randdir"":1,""num_randdir_good_moves"":1,""num_whilered"":0,""num_whileblue"":0,""num_blue"":0,""num_good_moves"":6}","[411.5714133126395,416.57142761775424,0.2,411.5714133126395,416.57142761775424,101.5,410.3214133126395,417.82142761775424,201.8,421.5714133126395,506.57142761775424,306.2,445.3214133126395,507.82142761775424,407.3,471.5714133126395,516.5714276177542,511.5,484.0714133126395,516.5714276177542,611.5,284.0714133126395,386.57142761775424,711.7,51.57141331263951,202.82142761775424,812.2,17.821413312639507,126.57142761775425,916,39.07141331263951,74.07142761775425,1016.3,44.07141331263951,59.07142761775425,1116.5,42.82141331263951,61.57142761775425,1218,226.5714133126395,319.07142761775424,1321.1,427.8214133126395,476.57142761775424,1427.2,579.0714133126395,537.8214276177542,1527.2,675.3214133126395,546.5714276177542,1631.4,706.5714133126395,526.5714276177542,1731.4,706.5714133126395,526.5714276177542,1836.3,706.5714133126395,526.5714276177542,1937.3,706.5714133126395,526.5714276177542,2038.2,706.5714133126395,526.5714276177542,2142.3,706.5714133126395,526.5714276177542,2246.6,706.5714133126395,526.5714276177542,2351,706.5714133126395,526.5714276177542,2452.6,706.5714133126395,526.5714276177542,2556.3,706.5714133126395,526.5714276177542,2656.5,706.5714133126395,526.5714276177542,2757.2,706.5714133126395,526.5714276177542,2860.8,706.5714133126395,526.5714276177542,2966.6,706.5714133126395,526.5714276177542,3071.2,706.5714133126395,526.5714276177542,3176.7,706.5714133126395,526.5714276177542,3282.1,706.5714133126395,526.5714276177542,3386.6,706.5714133126395,526.5714276177542,3491.3,706.5714133126395,526.5714276177542,3596.6,706.5714133126395,526.5714276177542,3702.4,706.5714133126395,526.5714276177542,3806.2,706.5714133126395,526.5714276177542,3907.2,706.5714133126395,526.5714276177542,4011.2,706.5714133126395,526.5714276177542,4116.1,706.5714133126395,526.5714276177542,4216.9,706.5714133126395,526.5714276177542,4317.7,706.5714133126395,526.5714276177542,4421.7,706.5714133126395,526.5714276177542,4521.8,706.5714133126395,526.5714276177542,4622,706.5714133126395,526.5714276177542,4726.2,706.5714133126395,526.5714276177542,4826.2,706.5714133126395,526.5714276177542,4926.4]","[1522.2,1522.2,1000,0,522.2,""smooth"",""left"",""left"",""good_move"",4571.8,3049.2,2625.5,1522.6,423.7,""smooth"",""left"",""left"",""good_move"",8102.1,3530.1,3146.3,4572.1,383.8,""smooth"",""up"",""up"",""good_move"",10951.4,2848.9,2475.2,8102.5,373.7,""smooth"",""up"",""up"",""good_move"",14791,3839.5,3441.3,10951.5,398.2,""oops"",""up"",""up"",""good_move"",17397.8,2606.7,2228.8,14791.1,377.9,""smooth"",""left"",""left"",""good_move""]","","",""
"2791","","<div style=""width:500px;"">
  <p>What determined the result of this run?</p>
  </div>","100","html-slider-response","54","986189","0.0-10.0-1.2","91","1","2025-07-09 09:07:46","7701e855f2ef39aa3fd6c71abdc6918a","41.164.82.138","Mozilla/5.0 (Windows NT 10.0; Win64; x64) AppleWebKit/537.36 (KHTML, like Gecko) Chrome/138.0.0.0 Safari/537.36","WebKit","Chrome","138.0.0.0","Windows","10.0","https://app.prolific.com/","en-US,en;q=0.9","611e2d4ad083c861391122b2","686d226cabeef709c732f8e1","686e312efb867144fa78513a","611e2d4ad083c861391122b2","2025-07-09T09:24:14.406Z","","","","","","AttribQ","","","","","","","","","","","","","","","","","","","","","","","","","","","","","","","","","","","","","","50",""
"3079","","<div style=""width:500px;"">
  <p>How much control did you have over the ball?</p>
  </div>","100","html-slider-response","55","989269","0.0-10.0-2.2","91","1","2025-07-09 09:07:46","7701e855f2ef39aa3fd6c71abdc6918a","41.164.82.138","Mozilla/5.0 (Windows NT 10.0; Win64; x64) AppleWebKit/537.36 (KHTML, like Gecko) Chrome/138.0.0.0 Safari/537.36","WebKit","Chrome","138.0.0.0","Windows","10.0","https://app.prolific.com/","en-US,en;q=0.9","611e2d4ad083c861391122b2","686d226cabeef709c732f8e1","686e312efb867144fa78513a","611e2d4ad083c861391122b2","2025-07-09T09:24:17.486Z","","","","","","ControlQ","","","","","","","","","","","","","","","","","","","","","","","","","","","","","","","","","","","","","","50",""
"2872","","<div style=""width:500px;"">
  <p>How would you describe your current emotional state?</p>
  </div>","0","html-slider-response","56","992142","0.0-10.0-3.2","91","1","2025-07-09 09:07:46","7701e855f2ef39aa3fd6c71abdc6918a","41.164.82.138","Mozilla/5.0 (Windows NT 10.0; Win64; x64) AppleWebKit/537.36 (KHTML, like Gecko) Chrome/138.0.0.0 Safari/537.36","WebKit","Chrome","138.0.0.0","Windows","10.0","https://app.prolific.com/","en-US,en;q=0.9","611e2d4ad083c861391122b2","686d226cabeef709c732f8e1","686e312efb867144fa78513a","611e2d4ad083c861391122b2","2025-07-09T09:24:20.359Z","","","","","","StressQ","","","","","","","","","","","","","","","","","","","","","","","","","","","","","","","","","","","","","","50",""
"2431","","<div style=""width:500px;"">
  <p>What best describes how you currently feel?</p>
  </div>","100","html-slider-response","57","994573","0.0-10.0-4.2","91","1","2025-07-09 09:07:46","7701e855f2ef39aa3fd6c71abdc6918a","41.164.82.138","Mozilla/5.0 (Windows NT 10.0; Win64; x64) AppleWebKit/537.36 (KHTML, like Gecko) Chrome/138.0.0.0 Safari/537.36","WebKit","Chrome","138.0.0.0","Windows","10.0","https://app.prolific.com/","en-US,en;q=0.9","611e2d4ad083c861391122b2","686d226cabeef709c732f8e1","686e312efb867144fa78513a","611e2d4ad083c861391122b2","2025-07-09T09:24:22.790Z","","","","","","MotivationQ","","","","","","","","","","","","","","","","","","","","","","","","","","","","","","","","","","","","","","50",""
"","","","","ctl-task-cpt","58","1036404","0.0-10.0-0.3","91","1","2025-07-09 09:07:46","7701e855f2ef39aa3fd6c71abdc6918a","41.164.82.138","Mozilla/5.0 (Windows NT 10.0; Win64; x64) AppleWebKit/537.36 (KHTML, like Gecko) Chrome/138.0.0.0 Safari/537.36","WebKit","Chrome","138.0.0.0","Windows","10.0","https://app.prolific.com/","en-US,en;q=0.9","611e2d4ad083c861391122b2","686d226cabeef709c732f8e1","686e312efb867144fa78513a","611e2d4ad083c861391122b2","2025-07-09T09:25:04.621Z","","","","","","","","","","","","","","","","win-only","2","g1:SE,g2:NW","0.7","4","0","997286.1","779.4","5782.4","38820.6","1","4","4","6","2","-4","-4","13","17","0.09848484848484848","899.2","3000","-2690","[""left"",""up""]","{""num_key_presses"":7,""num_perfect"":4,""num_errors"":0,""num_randdir"":3,""num_randdir_good_moves"":0,""num_whilered"":0,""num_whileblue"":0,""num_blue"":3,""num_good_moves"":4}","[421.5714133126395,415.32142761775424,0.1,421.5714133126395,415.32142761775424,100.2,421.5714133126395,415.32142761775424,201.1,417.8214133126395,419.07142761775424,305.9,417.8214133126395,420.32142761775424,406.3,265.3214133126395,236.57142761775424,517.3,165.3214133126395,161.57142761775424,617.3,91.5714133126395,110.32142761775425,721.2,91.5714133126395,92.82142761775425,821.5,89.0714133126395,90.32142761775425,923.4,89.0714133126395,90.32142761775425,1025.9,551.5714133126395,397.82142761775424,1126.5,626.5714133126395,471.57142761775424,1234.6,635.3214133126395,477.82142761775424,1335.5,669.0714133126395,495.32142761775424,1437,669.0714133126395,495.32142761775424,1542.3,669.0714133126395,495.32142761775424,1650.6,669.0714133126395,495.32142761775424,1750.8,669.0714133126395,495.32142761775424,1851.3,669.0714133126395,495.32142761775424,1956.8,669.0714133126395,495.32142761775424,2067.3,669.0714133126395,495.32142761775424,2167.9,669.0714133126395,495.32142761775424,2271.8,669.0714133126395,495.32142761775424,2376.8,669.0714133126395,495.32142761775424,2484.2,669.0714133126395,495.32142761775424,2584.6,669.0714133126395,495.32142761775424,2686.1,669.0714133126395,495.32142761775424,2786.1,669.0714133126395,495.32142761775424,2886.9,669.0714133126395,495.32142761775424,2991.1,669.0714133126395,495.32142761775424,3092.8,669.0714133126395,495.32142761775424,3201.3,669.0714133126395,495.32142761775424,3303.4,669.0714133126395,495.32142761775424,3406.1,669.0714133126395,495.32142761775424,3511,669.0714133126395,495.32142761775424,3611.1,669.0714133126395,495.32142761775424,3717.7,669.0714133126395,495.32142761775424,3821.6,669.0714133126395,495.32142761775424,3926.5,669.0714133126395,495.32142761775424,4035.5,669.0714133126395,495.32142761775424,4136.1,669.0714133126395,495.32142761775424,4236.5,669.0714133126395,495.32142761775424,4336.8,669.0714133126395,495.32142761775424,4441.9,669.0714133126395,495.32142761775424,4542,669.0714133126395,495.32142761775424,4651.2,669.0714133126395,495.32142761775424,4753.4,669.0714133126395,495.32142761775424,4856.2,669.0714133126395,495.32142761775424,4957.7]","[1602.9,1602.9,1000,0,602.9,""smooth"",""left"",""left"",""good_move"",4237.3,2633.9,2173.3,1603.5,460.5,""smooth"",""left"",""left"",""good_move"",7488,3250.5,2739.6,4237.5,510.9,""oops"",""up"",""right"",""bad_move"",10285.2,2797,2391,7488.2,406,""oops"",""up"",""right"",""bad_move"",17755.1,7469.7,3070.4,14298.6,386.1,""smooth"",""left"",""left"",""good_move"",20843.3,3088,2707.3,17755.3,380.7,""oops"",""left"",""down"",""bad_move"",30781.9,9938.3,2302.3,28044.4,435.2,""smooth"",""up"",""up"",""good_move""]","","",""
"6034","","<div style=""width:500px;"">
  <p>What determined the result of this run?</p>
  </div>","0","html-slider-response","59","1042439","0.0-10.0-1.3","91","1","2025-07-09 09:07:46","7701e855f2ef39aa3fd6c71abdc6918a","41.164.82.138","Mozilla/5.0 (Windows NT 10.0; Win64; x64) AppleWebKit/537.36 (KHTML, like Gecko) Chrome/138.0.0.0 Safari/537.36","WebKit","Chrome","138.0.0.0","Windows","10.0","https://app.prolific.com/","en-US,en;q=0.9","611e2d4ad083c861391122b2","686d226cabeef709c732f8e1","686e312efb867144fa78513a","611e2d4ad083c861391122b2","2025-07-09T09:25:10.656Z","","","","","","AttribQ","","","","","","","","","","","","","","","","","","","","","","","","","","","","","","","","","","","","","","50",""
"3743","","<div style=""width:500px;"">
  <p>How much control did you have over the ball?</p>
  </div>","0","html-slider-response","60","1046182","0.0-10.0-2.3","91","1","2025-07-09 09:07:46","7701e855f2ef39aa3fd6c71abdc6918a","41.164.82.138","Mozilla/5.0 (Windows NT 10.0; Win64; x64) AppleWebKit/537.36 (KHTML, like Gecko) Chrome/138.0.0.0 Safari/537.36","WebKit","Chrome","138.0.0.0","Windows","10.0","https://app.prolific.com/","en-US,en;q=0.9","611e2d4ad083c861391122b2","686d226cabeef709c732f8e1","686e312efb867144fa78513a","611e2d4ad083c861391122b2","2025-07-09T09:25:14.399Z","","","","","","ControlQ","","","","","","","","","","","","","","","","","","","","","","","","","","","","","","","","","","","","","","50",""
"4871","","<div style=""width:500px;"">
  <p>How would you describe your current emotional state?</p>
  </div>","20","html-slider-response","61","1051054","0.0-10.0-3.3","91","1","2025-07-09 09:07:46","7701e855f2ef39aa3fd6c71abdc6918a","41.164.82.138","Mozilla/5.0 (Windows NT 10.0; Win64; x64) AppleWebKit/537.36 (KHTML, like Gecko) Chrome/138.0.0.0 Safari/537.36","WebKit","Chrome","138.0.0.0","Windows","10.0","https://app.prolific.com/","en-US,en;q=0.9","611e2d4ad083c861391122b2","686d226cabeef709c732f8e1","686e312efb867144fa78513a","611e2d4ad083c861391122b2","2025-07-09T09:25:19.271Z","","","","","","StressQ","","","","","","","","","","","","","","","","","","","","","","","","","","","","","","","","","","","","","","50",""
"3375","","<div style=""width:500px;"">
  <p>What best describes how you currently feel?</p>
  </div>","100","html-slider-response","62","1054431","0.0-10.0-4.3","91","1","2025-07-09 09:07:46","7701e855f2ef39aa3fd6c71abdc6918a","41.164.82.138","Mozilla/5.0 (Windows NT 10.0; Win64; x64) AppleWebKit/537.36 (KHTML, like Gecko) Chrome/138.0.0.0 Safari/537.36","WebKit","Chrome","138.0.0.0","Windows","10.0","https://app.prolific.com/","en-US,en;q=0.9","611e2d4ad083c861391122b2","686d226cabeef709c732f8e1","686e312efb867144fa78513a","611e2d4ad083c861391122b2","2025-07-09T09:25:22.648Z","","","","","","MotivationQ","","","","","","","","","","","","","","","","","","","","","","","","","","","","","","","","","","","","","","50",""
"","","","","ctl-task-cpt","63","1078909","0.0-10.0-0.4","91","1","2025-07-09 09:07:46","7701e855f2ef39aa3fd6c71abdc6918a","41.164.82.138","Mozilla/5.0 (Windows NT 10.0; Win64; x64) AppleWebKit/537.36 (KHTML, like Gecko) Chrome/138.0.0.0 Safari/537.36","WebKit","Chrome","138.0.0.0","Windows","10.0","https://app.prolific.com/","en-US,en;q=0.9","611e2d4ad083c861391122b2","686d226cabeef709c732f8e1","686e312efb867144fa78513a","611e2d4ad083c861391122b2","2025-07-09T09:25:47.126Z","","","","","","","","","","","","","","","","win-only","2","g1:SE,g2:NW","0.6","5","0","1057143.7","870.8","5872.7","21455.3","1","4","8","6","2","8","8","21","13","0.1590909090909091","775.8","3000","790","[""left"",""up""]","{""num_key_presses"":6,""num_perfect"":5,""num_errors"":0,""num_randdir"":1,""num_randdir_good_moves"":1,""num_whilered"":0,""num_whileblue"":0,""num_blue"":0,""num_good_moves"":6}","[414.0714133126395,416.57142761775424,0.3,412.8214133126395,417.82142761775424,104.4,412.8214133126395,417.82142761775424,204.6,389.0714133126395,426.57142761775424,305,291.5714133126395,334.07142761775424,405.1,194.0714133126395,202.82142761775424,506.2,139.0714133126395,127.82142761775425,610.1,92.8214133126395,82.82142761775425,715.4,91.5714133126395,81.57142761775425,819.5,91.5714133126395,81.57142761775425,919.8,225.3214133126395,209.07142761775424,1025.1,489.0714133126395,406.57142761775424,1125.5,510.3214133126395,430.32142761775424,1228.8,580.3214133126395,480.32142761775424,1330.8,592.8214133126395,464.07142761775424,1431.6,630.3214133126395,446.57142761775424,1534.4,630.3214133126395,446.57142761775424,1635.4,630.3214133126395,446.57142761775424,1742.9,630.3214133126395,446.57142761775424,1843.4,630.3214133126395,446.57142761775424,1945.7,630.3214133126395,446.57142761775424,2046,630.3214133126395,446.57142761775424,2150.5,630.3214133126395,446.57142761775424,2260.4,630.3214133126395,446.57142761775424,2360.4,630.3214133126395,446.57142761775424,2460.6,630.3214133126395,446.57142761775424,2564.8,630.3214133126395,446.57142761775424,2669.7,630.3214133126395,446.57142761775424,2770.2,630.3214133126395,446.57142761775424,2878.1,630.3214133126395,446.57142761775424,2979.8,630.3214133126395,446.57142761775424,3086.1,630.3214133126395,446.57142761775424,3193.9,630.3214133126395,446.57142761775424,3295.3,630.3214133126395,446.57142761775424,3395.8,630.3214133126395,446.57142761775424,3500.2,630.3214133126395,446.57142761775424,3600.7,630.3214133126395,446.57142761775424,3704.8,630.3214133126395,446.57142761775424,3813.2,630.3214133126395,446.57142761775424,3914.7,630.3214133126395,446.57142761775424,4021.3,630.3214133126395,446.57142761775424,4127.2,630.3214133126395,446.57142761775424,4227.3,630.3214133126395,446.57142761775424,4329.9,630.3214133126395,446.57142761775424,4430.3,630.3214133126395,446.57142761775424,4530.7,630.3214133126395,446.57142761775424,4634.3,630.3214133126395,446.57142761775424,4734.9,630.3214133126395,446.57142761775424,4836.1,630.3214133126395,446.57142761775424,4945.1]","[1616.8,1616.8,1000,0,616.8,""smooth"",""left"",""left"",""good_move"",4111.7,2494.5,2124.1,1617.2,370.4,""smooth"",""up"",""up"",""good_move"",6895.4,2783.3,2386.2,4112.1,397.1,""smooth"",""left"",""left"",""good_move"",9436.2,2540.3,2142.8,6895.9,397.5,""oops"",""up"",""up"",""good_move"",12463.5,3026.9,2661,9436.6,365.9,""smooth"",""up"",""up"",""good_move"",15471.6,3007.9,2640.3,12463.7,367.6,""smooth"",""left"",""left"",""good_move""]","","",""
"3113","","<div style=""width:500px;"">
  <p>What determined the result of this run?</p>
  </div>","100","html-slider-response","64","1082023","0.0-10.0-1.4","91","1","2025-07-09 09:07:46","7701e855f2ef39aa3fd6c71abdc6918a","41.164.82.138","Mozilla/5.0 (Windows NT 10.0; Win64; x64) AppleWebKit/537.36 (KHTML, like Gecko) Chrome/138.0.0.0 Safari/537.36","WebKit","Chrome","138.0.0.0","Windows","10.0","https://app.prolific.com/","en-US,en;q=0.9","611e2d4ad083c861391122b2","686d226cabeef709c732f8e1","686e312efb867144fa78513a","611e2d4ad083c861391122b2","2025-07-09T09:25:50.240Z","","","","","","AttribQ","","","","","","","","","","","","","","","","","","","","","","","","","","","","","","","","","","","","","","50",""
"2503","","<div style=""width:500px;"">
  <p>How much control did you have over the ball?</p>
  </div>","100","html-slider-response","65","1084527","0.0-10.0-2.4","91","1","2025-07-09 09:07:46","7701e855f2ef39aa3fd6c71abdc6918a","41.164.82.138","Mozilla/5.0 (Windows NT 10.0; Win64; x64) AppleWebKit/537.36 (KHTML, like Gecko) Chrome/138.0.0.0 Safari/537.36","WebKit","Chrome","138.0.0.0","Windows","10.0","https://app.prolific.com/","en-US,en;q=0.9","611e2d4ad083c861391122b2","686d226cabeef709c732f8e1","686e312efb867144fa78513a","611e2d4ad083c861391122b2","2025-07-09T09:25:52.745Z","","","","","","ControlQ","","","","","","","","","","","","","","","","","","","","","","","","","","","","","","","","","","","","","","50",""
"3014","","<div style=""width:500px;"">
  <p>How would you describe your current emotional state?</p>
  </div>","0","html-slider-response","66","1087543","0.0-10.0-3.4","91","1","2025-07-09 09:07:46","7701e855f2ef39aa3fd6c71abdc6918a","41.164.82.138","Mozilla/5.0 (Windows NT 10.0; Win64; x64) AppleWebKit/537.36 (KHTML, like Gecko) Chrome/138.0.0.0 Safari/537.36","WebKit","Chrome","138.0.0.0","Windows","10.0","https://app.prolific.com/","en-US,en;q=0.9","611e2d4ad083c861391122b2","686d226cabeef709c732f8e1","686e312efb867144fa78513a","611e2d4ad083c861391122b2","2025-07-09T09:25:55.760Z","","","","","","StressQ","","","","","","","","","","","","","","","","","","","","","","","","","","","","","","","","","","","","","","50",""
"2055","","<div style=""width:500px;"">
  <p>What best describes how you currently feel?</p>
  </div>","100","html-slider-response","67","1089599","0.0-10.0-4.4","91","1","2025-07-09 09:07:46","7701e855f2ef39aa3fd6c71abdc6918a","41.164.82.138","Mozilla/5.0 (Windows NT 10.0; Win64; x64) AppleWebKit/537.36 (KHTML, like Gecko) Chrome/138.0.0.0 Safari/537.36","WebKit","Chrome","138.0.0.0","Windows","10.0","https://app.prolific.com/","en-US,en;q=0.9","611e2d4ad083c861391122b2","686d226cabeef709c732f8e1","686e312efb867144fa78513a","611e2d4ad083c861391122b2","2025-07-09T09:25:57.816Z","","","","","","MotivationQ","","","","","","","","","","","","","","","","","","","","","","","","","","","","","","","","","","","","","","50",""
"","","","","ctl-task-cpt","68","1130257","0.0-10.0-0.5","91","1","2025-07-09 09:07:46","7701e855f2ef39aa3fd6c71abdc6918a","41.164.82.138","Mozilla/5.0 (Windows NT 10.0; Win64; x64) AppleWebKit/537.36 (KHTML, like Gecko) Chrome/138.0.0.0 Safari/537.36","WebKit","Chrome","138.0.0.0","Windows","10.0","https://app.prolific.com/","en-US,en;q=0.9","611e2d4ad083c861391122b2","686d226cabeef709c732f8e1","686e312efb867144fa78513a","611e2d4ad083c861391122b2","2025-07-09T09:26:38.474Z","","","","","","","","","","","","","","","","win-only","3","g1:SW,g2:NE","0.5","6","0","1092312.7","809.7","5812.6","37650.9","1","4","4","6","2","-4","-4","17","21","0.12878787878787878","881.4","3000","-2980","[""up"",""right""]","{""num_key_presses"":8,""num_perfect"":5,""num_errors"":0,""num_randdir"":3,""num_randdir_good_moves"":0,""num_whilered"":0,""num_whileblue"":0,""num_blue"":2,""num_good_moves"":5}","[424.0714133126395,416.57142761775424,0.2,424.0714133126395,416.57142761775424,100.5,424.0714133126395,416.57142761775424,200.9,424.0714133126395,416.57142761775424,306.1,426.5714133126395,407.82142761775424,410.9,590.3214133126395,212.82142761775424,511.5,655.3214133126395,137.82142761775424,612.5,741.5714133126395,92.82142761775425,718.1,746.5714133126395,89.07142761775425,820.6,746.5714133126395,86.57142761775425,921.3,746.5714133126395,86.57142761775425,1025.5,726.5714133126395,151.57142761775424,1126.5,706.5714133126395,201.57142761775424,1233.6,706.5714133126395,201.57142761775424,1335.5,706.5714133126395,201.57142761775424,1436,706.5714133126395,201.57142761775424,1536.4,706.5714133126395,201.57142761775424,1636.4,706.5714133126395,201.57142761775424,1736.6,706.5714133126395,201.57142761775424,1840.6,706.5714133126395,201.57142761775424,1941.2,706.5714133126395,201.57142761775424,2049.3,706.5714133126395,201.57142761775424,2150.6,706.5714133126395,201.57142761775424,2252.3,706.5714133126395,201.57142761775424,2356.1,706.5714133126395,201.57142761775424,2456.6,706.5714133126395,201.57142761775424,2561,706.5714133126395,201.57142761775424,2661.4,706.5714133126395,201.57142761775424,2767.8,706.5714133126395,201.57142761775424,2868.1,706.5714133126395,201.57142761775424,2971.9,706.5714133126395,201.57142761775424,3075.9,706.5714133126395,201.57142761775424,3176.6,706.5714133126395,201.57142761775424,3284.6,706.5714133126395,201.57142761775424,3386.1,706.5714133126395,201.57142761775424,3486.6,706.5714133126395,201.57142761775424,3591.3,706.5714133126395,201.57142761775424,3700.8,706.5714133126395,201.57142761775424,3800.8,706.5714133126395,201.57142761775424,3901.7,706.5714133126395,201.57142761775424,4006.5,706.5714133126395,201.57142761775424,4112.3,706.5714133126395,201.57142761775424,4218,706.5714133126395,201.57142761775424,4321.4,706.5714133126395,201.57142761775424,4427.4,706.5714133126395,201.57142761775424,4534,706.5714133126395,201.57142761775424,4636.3,706.5714133126395,201.57142761775424,4740.7,706.5714133126395,201.57142761775424,4840.8,706.5714133126395,201.57142761775424,4941]","[1442.3,1442.3,1000,0,442.3,""smooth"",""up"",""up"",""good_move"",4785.7,3342.9,2980.8,1442.8,362.1,""oops"",""right"",""down"",""bad_move"",7404.7,2618.7,2216.5,4786,402.2,""smooth"",""up"",""up"",""good_move"",10311.6,2906.7,2541.8,7404.9,364.9,""smooth"",""up"",""up"",""good_move"",13156.6,2844.9,2474.4,10311.9,370.4,""oops"",""right"",""down"",""bad_move"",16504.4,3347.5,2970.7,13156.9,376.8,""smooth"",""up"",""up"",""good_move"",19377.9,2873.2,2495.7,16504.7,377.5,""oops"",""up"",""left"",""bad_move"",28963.2,9585,2557.6,26038.7,366.9,""smooth"",""up"",""up"",""good_move""]","","",""
"3118","","<div style=""width:500px;"">
  <p>What determined the result of this run?</p>
  </div>","0","html-slider-response","69","1133376","0.0-10.0-1.5","91","1","2025-07-09 09:07:46","7701e855f2ef39aa3fd6c71abdc6918a","41.164.82.138","Mozilla/5.0 (Windows NT 10.0; Win64; x64) AppleWebKit/537.36 (KHTML, like Gecko) Chrome/138.0.0.0 Safari/537.36","WebKit","Chrome","138.0.0.0","Windows","10.0","https://app.prolific.com/","en-US,en;q=0.9","611e2d4ad083c861391122b2","686d226cabeef709c732f8e1","686e312efb867144fa78513a","611e2d4ad083c861391122b2","2025-07-09T09:26:41.593Z","","","","","","AttribQ","","","","","","","","","","","","","","","","","","","","","","","","","","","","","","","","","","","","","","50",""
"2359","","<div style=""width:500px;"">
  <p>How much control did you have over the ball?</p>
  </div>","0","html-slider-response","70","1135736","0.0-10.0-2.5","91","1","2025-07-09 09:07:46","7701e855f2ef39aa3fd6c71abdc6918a","41.164.82.138","Mozilla/5.0 (Windows NT 10.0; Win64; x64) AppleWebKit/537.36 (KHTML, like Gecko) Chrome/138.0.0.0 Safari/537.36","WebKit","Chrome","138.0.0.0","Windows","10.0","https://app.prolific.com/","en-US,en;q=0.9","611e2d4ad083c861391122b2","686d226cabeef709c732f8e1","686e312efb867144fa78513a","611e2d4ad083c861391122b2","2025-07-09T09:26:43.953Z","","","","","","ControlQ","","","","","","","","","","","","","","","","","","","","","","","","","","","","","","","","","","","","","","50",""
"2263","","<div style=""width:500px;"">
  <p>How would you describe your current emotional state?</p>
  </div>","0","html-slider-response","71","1138000","0.0-10.0-3.5","91","1","2025-07-09 09:07:46","7701e855f2ef39aa3fd6c71abdc6918a","41.164.82.138","Mozilla/5.0 (Windows NT 10.0; Win64; x64) AppleWebKit/537.36 (KHTML, like Gecko) Chrome/138.0.0.0 Safari/537.36","WebKit","Chrome","138.0.0.0","Windows","10.0","https://app.prolific.com/","en-US,en;q=0.9","611e2d4ad083c861391122b2","686d226cabeef709c732f8e1","686e312efb867144fa78513a","611e2d4ad083c861391122b2","2025-07-09T09:26:46.217Z","","","","","","StressQ","","","","","","","","","","","","","","","","","","","","","","","","","","","","","","","","","","","","","","50",""
"1711","","<div style=""width:500px;"">
  <p>What best describes how you currently feel?</p>
  </div>","100","html-slider-response","72","1139712","0.0-10.0-4.5","91","1","2025-07-09 09:07:46","7701e855f2ef39aa3fd6c71abdc6918a","41.164.82.138","Mozilla/5.0 (Windows NT 10.0; Win64; x64) AppleWebKit/537.36 (KHTML, like Gecko) Chrome/138.0.0.0 Safari/537.36","WebKit","Chrome","138.0.0.0","Windows","10.0","https://app.prolific.com/","en-US,en;q=0.9","611e2d4ad083c861391122b2","686d226cabeef709c732f8e1","686e312efb867144fa78513a","611e2d4ad083c861391122b2","2025-07-09T09:26:47.929Z","","","","","","MotivationQ","","","","","","","","","","","","","","","","","","","","","","","","","","","","","","","","","","","","","","50",""
"","","","","ctl-task-cpt","73","1166572","0.0-10.0-0.6","91","1","2025-07-09 09:07:46","7701e855f2ef39aa3fd6c71abdc6918a","41.164.82.138","Mozilla/5.0 (Windows NT 10.0; Win64; x64) AppleWebKit/537.36 (KHTML, like Gecko) Chrome/138.0.0.0 Safari/537.36","WebKit","Chrome","138.0.0.0","Windows","10.0","https://app.prolific.com/","en-US,en;q=0.9","611e2d4ad083c861391122b2","686d226cabeef709c732f8e1","686e312efb867144fa78513a","611e2d4ad083c861391122b2","2025-07-09T09:27:14.789Z","","","","","","","","","","","","","","","","win-only","1","g1:NE,g2:SW","0.4","7","0","1142425.5","747.2","5752","23855.5","1","4","8","6","1","1","1","18","17","0.13636363636363635","788.1","3000","1180","[""up"",""right""]","{""num_key_presses"":4,""num_perfect"":2,""num_errors"":0,""num_randdir"":2,""num_randdir_good_moves"":2,""num_whilered"":0,""num_whileblue"":0,""num_blue"":2,""num_good_moves"":4}","[424.0714133126395,417.82142761775424,0.3,424.0714133126395,417.82142761775424,103.2,424.0714133126395,417.82142761775424,208.1,436.5714133126395,401.57142761775424,309.9,605.3214133126395,229.07142761775424,413.5,750.3214133126395,36.57142761775425,514.1,750.3214133126395,37.82142761775425,620.8,752.8214133126395,59.07142761775425,723.7,752.8214133126395,59.07142761775425,829,752.8214133126395,69.07142761775425,933.2,716.5714133126395,166.57142761775424,1036.2,701.5714133126395,311.57142761775424,1138.7,682.8214133126395,347.82142761775424,1243.4,716.5714133126395,347.82142761775424,1352.8,716.5714133126395,347.82142761775424,1454.1,716.5714133126395,347.82142761775424,1558.2,716.5714133126395,347.82142761775424,1658.7,716.5714133126395,347.82142761775424,1763.6,716.5714133126395,347.82142761775424,1871.1,716.5714133126395,347.82142761775424,1974,716.5714133126395,347.82142761775424,2079.6,716.5714133126395,347.82142761775424,2187.7,716.5714133126395,347.82142761775424,2288.3,716.5714133126395,347.82142761775424,2389.6,716.5714133126395,347.82142761775424,2495.2,716.5714133126395,347.82142761775424,2598,716.5714133126395,347.82142761775424,2703.6,716.5714133126395,347.82142761775424,2806.4,716.5714133126395,347.82142761775424,2908.5,716.5714133126395,347.82142761775424,3008.6,716.5714133126395,347.82142761775424,3110.5,716.5714133126395,347.82142761775424,3213.4,716.5714133126395,347.82142761775424,3314.6,716.5714133126395,347.82142761775424,3415.2,716.5714133126395,347.82142761775424,3520.2,716.5714133126395,347.82142761775424,3622.5,716.5714133126395,347.82142761775424,3723.3,716.5714133126395,347.82142761775424,3823.5,716.5714133126395,347.82142761775424,3923.6,716.5714133126395,347.82142761775424,4024.3,716.5714133126395,347.82142761775424,4128.4,716.5714133126395,347.82142761775424,4228.7,716.5714133126395,347.82142761775424,4329.1,716.5714133126395,347.82142761775424,4438.1,716.5714133126395,347.82142761775424,4539,716.5714133126395,347.82142761775424,4639.5,716.5714133126395,347.82142761775424,4743.8,716.5714133126395,347.82142761775424,4849.5,716.5714133126395,347.82142761775424,4953.5]","[1398,1398,1000,0,398,""oops"",""right"",""up"",""good_move"",4659,3260.5,2622.4,1398.5,638.1,""oops"",""up"",""right"",""good_move"",8018.4,3359.1,2955.5,4659.3,403.6,""smooth"",""up"",""up"",""good_move"",18007,9988.1,2670.4,14908.5,428.2,""smooth"",""right"",""right"",""good_move""]","","",""
"3020","","<div style=""width:500px;"">
  <p>What determined the result of this run?</p>
  </div>","100","html-slider-response","74","1169593","0.0-10.0-1.6","91","1","2025-07-09 09:07:46","7701e855f2ef39aa3fd6c71abdc6918a","41.164.82.138","Mozilla/5.0 (Windows NT 10.0; Win64; x64) AppleWebKit/537.36 (KHTML, like Gecko) Chrome/138.0.0.0 Safari/537.36","WebKit","Chrome","138.0.0.0","Windows","10.0","https://app.prolific.com/","en-US,en;q=0.9","611e2d4ad083c861391122b2","686d226cabeef709c732f8e1","686e312efb867144fa78513a","611e2d4ad083c861391122b2","2025-07-09T09:27:17.810Z","","","","","","AttribQ","","","","","","","","","","","","","","","","","","","","","","","","","","","","","","","","","","","","","","50",""
"2023","","<div style=""width:500px;"">
  <p>How much control did you have over the ball?</p>
  </div>","100","html-slider-response","75","1171617","0.0-10.0-2.6","91","1","2025-07-09 09:07:46","7701e855f2ef39aa3fd6c71abdc6918a","41.164.82.138","Mozilla/5.0 (Windows NT 10.0; Win64; x64) AppleWebKit/537.36 (KHTML, like Gecko) Chrome/138.0.0.0 Safari/537.36","WebKit","Chrome","138.0.0.0","Windows","10.0","https://app.prolific.com/","en-US,en;q=0.9","611e2d4ad083c861391122b2","686d226cabeef709c732f8e1","686e312efb867144fa78513a","611e2d4ad083c861391122b2","2025-07-09T09:27:19.834Z","","","","","","ControlQ","","","","","","","","","","","","","","","","","","","","","","","","","","","","","","","","","","","","","","50",""
"1671","","<div style=""width:500px;"">
  <p>How would you describe your current emotional state?</p>
  </div>","0","html-slider-response","76","1173289","0.0-10.0-3.6","91","1","2025-07-09 09:07:46","7701e855f2ef39aa3fd6c71abdc6918a","41.164.82.138","Mozilla/5.0 (Windows NT 10.0; Win64; x64) AppleWebKit/537.36 (KHTML, like Gecko) Chrome/138.0.0.0 Safari/537.36","WebKit","Chrome","138.0.0.0","Windows","10.0","https://app.prolific.com/","en-US,en;q=0.9","611e2d4ad083c861391122b2","686d226cabeef709c732f8e1","686e312efb867144fa78513a","611e2d4ad083c861391122b2","2025-07-09T09:27:21.506Z","","","","","","StressQ","","","","","","","","","","","","","","","","","","","","","","","","","","","","","","","","","","","","","","50",""
"2088","","<div style=""width:500px;"">
  <p>What best describes how you currently feel?</p>
  </div>","100","html-slider-response","77","1175377","0.0-10.0-4.6","91","1","2025-07-09 09:07:46","7701e855f2ef39aa3fd6c71abdc6918a","41.164.82.138","Mozilla/5.0 (Windows NT 10.0; Win64; x64) AppleWebKit/537.36 (KHTML, like Gecko) Chrome/138.0.0.0 Safari/537.36","WebKit","Chrome","138.0.0.0","Windows","10.0","https://app.prolific.com/","en-US,en;q=0.9","611e2d4ad083c861391122b2","686d226cabeef709c732f8e1","686e312efb867144fa78513a","611e2d4ad083c861391122b2","2025-07-09T09:27:23.594Z","","","","","","MotivationQ","","","","","","","","","","","","","","","","","","","","","","","","","","","","","","","","","","","","","","50",""
"","","","","ctl-task-cpt","78","1215207","0.0-10.0-0.7","91","1","2025-07-09 09:07:46","7701e855f2ef39aa3fd6c71abdc6918a","41.164.82.138","Mozilla/5.0 (Windows NT 10.0; Win64; x64) AppleWebKit/537.36 (KHTML, like Gecko) Chrome/138.0.0.0 Safari/537.36","WebKit","Chrome","138.0.0.0","Windows","10.0","https://app.prolific.com/","en-US,en;q=0.9","611e2d4ad083c861391122b2","686d226cabeef709c732f8e1","686e312efb867144fa78513a","611e2d4ad083c861391122b2","2025-07-09T09:28:03.425Z","","","","","","","","","","","","","","","","win-only","3","g1:SW,g2:NE","0.3","8","0","1178091.2","733.7","5734.2","36810.8","1","4","4","6","2","-4","-4","14","18","0.10606060606060606","1080.7","3000","-3010","[""up"",""right""]","{""num_key_presses"":7,""num_perfect"":2,""num_errors"":0,""num_randdir"":5,""num_randdir_good_moves"":3,""num_whilered"":0,""num_whileblue"":0,""num_blue"":3,""num_good_moves"":5}","[411.5714133126395,422.82142761775424,0.2,411.5714133126395,422.82142761775424,102.5,411.5714133126395,425.32142761775424,202.8,364.0714133126395,476.57142761775424,308.1,176.5714133126395,684.0714276177542,415.8,125.3214133126395,744.0714276177542,516.4,231.5714133126395,609.0714276177542,616.9,624.0714133126395,120.32142761775425,722.2,659.0714133126395,86.57142761775425,832.2,682.8214133126395,71.57142761775425,933.7,735.3214133126395,67.82142761775425,1036.7,740.3214133126395,69.07142761775425,1136.9,741.5714133126395,71.57142761775425,1237.4,757.8214133126395,130.32142761775424,1337.9,760.3214133126395,152.82142761775424,1441.9,760.3214133126395,152.82142761775424,1549,760.3214133126395,152.82142761775424,1651,760.3214133126395,152.82142761775424,1751.2,760.3214133126395,152.82142761775424,1852.3,760.3214133126395,152.82142761775424,1958.9,760.3214133126395,152.82142761775424,2067.7,760.3214133126395,152.82142761775424,2172.5,760.3214133126395,152.82142761775424,2277.9,760.3214133126395,152.82142761775424,2378.5,760.3214133126395,152.82142761775424,2483.8,760.3214133126395,152.82142761775424,2586.6,760.3214133126395,152.82142761775424,2687.4,760.3214133126395,152.82142761775424,2787.5,760.3214133126395,152.82142761775424,2892,760.3214133126395,152.82142761775424,2992.3,760.3214133126395,152.82142761775424,3093.4,760.3214133126395,152.82142761775424,3202.3,760.3214133126395,152.82142761775424,3307.3,760.3214133126395,152.82142761775424,3407.5,760.3214133126395,152.82142761775424,3512.9,760.3214133126395,152.82142761775424,3618.4,760.3214133126395,152.82142761775424,3722.1,760.3214133126395,152.82142761775424,3827.6,760.3214133126395,152.82142761775424,3934.8,760.3214133126395,152.82142761775424,4037.8,760.3214133126395,152.82142761775424,4137.9,760.3214133126395,152.82142761775424,4238.3,760.3214133126395,152.82142761775424,4343.7,760.3214133126395,152.82142761775424,4451.7,760.3214133126395,152.82142761775424,4552,760.3214133126395,152.82142761775424,4657.5,760.3214133126395,152.82142761775424,4763.4,760.3214133126395,152.82142761775424,4868.1,760.3214133126395,152.82142761775424,4968.2]","[1451.5,1451.5,1000,0,451.5,""oops"",""right"",""up"",""good_move"",4343.6,2891.7,2455,1451.9,436.7,""smooth"",""up"",""up"",""good_move"",6933,2589.2,2179.5,4343.9,409.6,""oops"",""right"",""up"",""good_move"",10281.6,3348.3,2949.7,6933.4,398.5,""oops"",""right"",""down"",""bad_move"",13238.9,2956.9,2577.2,10282,379.7,""smooth"",""up"",""up"",""good_move"",16735.3,3496.1,3110.7,13239.2,385.4,""oops"",""right"",""left"",""bad_move"",28139.5,11404,1586.2,26031.6,521.7,""oops"",""right"",""right"",""good_move""]","","",""
"13386","","<div style=""width:500px;"">
  <p>What determined the result of this run?</p>
  </div>","100","html-slider-response","79","1228595","0.0-10.0-1.7","91","1","2025-07-09 09:07:46","7701e855f2ef39aa3fd6c71abdc6918a","41.164.82.138","Mozilla/5.0 (Windows NT 10.0; Win64; x64) AppleWebKit/537.36 (KHTML, like Gecko) Chrome/138.0.0.0 Safari/537.36","WebKit","Chrome","138.0.0.0","Windows","10.0","https://app.prolific.com/","en-US,en;q=0.9","611e2d4ad083c861391122b2","686d226cabeef709c732f8e1","686e312efb867144fa78513a","611e2d4ad083c861391122b2","2025-07-09T09:28:16.812Z","","","","","","AttribQ","","","","","","","","","","","","","","","","","","","","","","","","","","","","","","","","","","","","","","50",""
"5159","","<div style=""width:500px;"">
  <p>How much control did you have over the ball?</p>
  </div>","100","html-slider-response","80","1233754","0.0-10.0-2.7","91","1","2025-07-09 09:07:46","7701e855f2ef39aa3fd6c71abdc6918a","41.164.82.138","Mozilla/5.0 (Windows NT 10.0; Win64; x64) AppleWebKit/537.36 (KHTML, like Gecko) Chrome/138.0.0.0 Safari/537.36","WebKit","Chrome","138.0.0.0","Windows","10.0","https://app.prolific.com/","en-US,en;q=0.9","611e2d4ad083c861391122b2","686d226cabeef709c732f8e1","686e312efb867144fa78513a","611e2d4ad083c861391122b2","2025-07-09T09:28:21.971Z","","","","","","ControlQ","","","","","","","","","","","","","","","","","","","","","","","","","","","","","","","","","","","","","","50",""
"3647","","<div style=""width:500px;"">
  <p>How would you describe your current emotional state?</p>
  </div>","0","html-slider-response","81","1237403","0.0-10.0-3.7","91","1","2025-07-09 09:07:46","7701e855f2ef39aa3fd6c71abdc6918a","41.164.82.138","Mozilla/5.0 (Windows NT 10.0; Win64; x64) AppleWebKit/537.36 (KHTML, like Gecko) Chrome/138.0.0.0 Safari/537.36","WebKit","Chrome","138.0.0.0","Windows","10.0","https://app.prolific.com/","en-US,en;q=0.9","611e2d4ad083c861391122b2","686d226cabeef709c732f8e1","686e312efb867144fa78513a","611e2d4ad083c861391122b2","2025-07-09T09:28:25.620Z","","","","","","StressQ","","","","","","","","","","","","","","","","","","","","","","","","","","","","","","","","","","","","","","50",""
"5023","","<div style=""width:500px;"">
  <p>What best describes how you currently feel?</p>
  </div>","100","html-slider-response","82","1242427","0.0-10.0-4.7","91","1","2025-07-09 09:07:46","7701e855f2ef39aa3fd6c71abdc6918a","41.164.82.138","Mozilla/5.0 (Windows NT 10.0; Win64; x64) AppleWebKit/537.36 (KHTML, like Gecko) Chrome/138.0.0.0 Safari/537.36","WebKit","Chrome","138.0.0.0","Windows","10.0","https://app.prolific.com/","en-US,en;q=0.9","611e2d4ad083c861391122b2","686d226cabeef709c732f8e1","686e312efb867144fa78513a","611e2d4ad083c861391122b2","2025-07-09T09:28:30.644Z","","","","","","MotivationQ","","","","","","","","","","","","","","","","","","","","","","","","","","","","","","","","","","","","","","50",""
"","","","","ctl-task-cpt","83","1281496","0.0-10.0-0.8","91","1","2025-07-09 09:07:46","7701e855f2ef39aa3fd6c71abdc6918a","41.164.82.138","Mozilla/5.0 (Windows NT 10.0; Win64; x64) AppleWebKit/537.36 (KHTML, like Gecko) Chrome/138.0.0.0 Safari/537.36","WebKit","Chrome","138.0.0.0","Windows","10.0","https://app.prolific.com/","en-US,en;q=0.9","611e2d4ad083c861391122b2","686d226cabeef709c732f8e1","686e312efb867144fa78513a","611e2d4ad083c861391122b2","2025-07-09T09:29:09.713Z","","","","","","","","","","","","","","","","win-only","1","g1:NE,g2:SW","0.2","9","0","1245140.9","805.8","5806.6","36051","1","4","8","6","2","-8","-9","5","14","0.03787878787878788","1207.9","3000","-3010","[""down"",""left""]","{""num_key_presses"":7,""num_perfect"":1,""num_errors"":1,""num_randdir"":5,""num_randdir_good_moves"":2,""num_whilered"":0,""num_whileblue"":1,""num_blue"":3,""num_good_moves"":4}","[416.5714133126395,420.32142761775424,0.3,416.5714133126395,420.32142761775424,105.3,416.5714133126395,420.32142761775424,210.1,481.5714133126395,376.57142761775424,314.5,710.3214133126395,187.82142761775424,438.1,729.0714133126395,164.07142761775424,539.7,379.0714133126395,365.32142761775424,639.9,292.8214133126395,554.0714276177542,740.3,210.3214133126395,699.0714276177542,844.6,196.5714133126395,741.5714276177542,945.1,121.5714133126395,764.0714276177542,1045.1,82.8214133126395,755.3214276177542,1155.5,81.5714133126395,755.3214276177542,1256.1,79.0714133126395,751.5714276177542,1360.2,401.5714133126395,671.5714276177542,1465.1,505.3214133126395,616.5714276177542,1571.7,505.3214133126395,616.5714276177542,1674.7,505.3214133126395,616.5714276177542,1775.6,505.3214133126395,616.5714276177542,1879.8,505.3214133126395,616.5714276177542,1979.8,504.0714133126395,574.0714276177542,2094.4,391.5714133126395,619.0714276177542,2194.8,156.5714133126395,724.0714276177542,2305.6,154.0714133126395,726.5714276177542,2411.2,95.3214133126395,742.8214276177542,2521.4,197.8214133126395,711.5714276177542,2622.1,362.8214133126395,636.5714276177542,2722.5,385.3214133126395,636.5714276177542,2824.6,386.5714133126395,636.5714276177542,2924.9,386.5714133126395,636.5714276177542,3025,241.5714133126395,631.5714276177542,3125.5,202.8214133126395,712.8214276177542,3230.3,236.5714133126395,695.3214276177542,3330.4,356.5714133126395,636.5714276177542,3430.6,377.8214133126395,671.5714276177542,3541.9,416.5714133126395,669.0714276177542,3644.9,421.5714133126395,654.0714276177542,3744.9,426.5714133126395,612.8214276177542,3845.3,426.5714133126395,612.8214276177542,3949.9,426.5714133126395,612.8214276177542,4051.1,426.5714133126395,612.8214276177542,4157,426.5714133126395,612.8214276177542,4261.8,426.5714133126395,612.8214276177542,4364.7,426.5714133126395,612.8214276177542,4476.9,426.5714133126395,612.8214276177542,4580.2,426.5714133126395,612.8214276177542,4680.8,426.5714133126395,612.8214276177542,4784.9,426.5714133126395,612.8214276177542,4889.8,426.5714133126395,612.8214276177542,4990.6]","[1460.3,1460.3,1000,0,460.3,""oops"",""down"",""up"",""bad_move"",3628.3,2167.7,1648.7,1460.6,519,""oops"",""left"",""left"",""good_move"",6894.7,3266.2,2581.9,3628.5,684.3,""smooth"",""down"",""down"",""good_move"",14193.4,7298.3,3037.6,10544.5,611.3,""oops"",""left"",""up"",""bad_move"",17261.8,3068,2504,14193.8,564,""oops"",""left"",""left"",""good_move"",20595.5,3333.3,2854.3,17262.2,479,""oops"",""down"",""right"",""bad_move"",23457.7,2861.8,2203.4,20596,658.4,""while_blue"",""left"",""left"",""good_move""]","","",""
"2522","","<div style=""width:500px;"">
  <p>What determined the result of this run?</p>
  </div>","0","html-slider-response","84","1284019","0.0-10.0-1.8","91","1","2025-07-09 09:07:46","7701e855f2ef39aa3fd6c71abdc6918a","41.164.82.138","Mozilla/5.0 (Windows NT 10.0; Win64; x64) AppleWebKit/537.36 (KHTML, like Gecko) Chrome/138.0.0.0 Safari/537.36","WebKit","Chrome","138.0.0.0","Windows","10.0","https://app.prolific.com/","en-US,en;q=0.9","611e2d4ad083c861391122b2","686d226cabeef709c732f8e1","686e312efb867144fa78513a","611e2d4ad083c861391122b2","2025-07-09T09:29:12.236Z","","","","","","AttribQ","","","","","","","","","","","","","","","","","","","","","","","","","","","","","","","","","","","","","","50",""
"1888","","<div style=""width:500px;"">
  <p>How much control did you have over the ball?</p>
  </div>","0","html-slider-response","85","1285908","0.0-10.0-2.8","91","1","2025-07-09 09:07:46","7701e855f2ef39aa3fd6c71abdc6918a","41.164.82.138","Mozilla/5.0 (Windows NT 10.0; Win64; x64) AppleWebKit/537.36 (KHTML, like Gecko) Chrome/138.0.0.0 Safari/537.36","WebKit","Chrome","138.0.0.0","Windows","10.0","https://app.prolific.com/","en-US,en;q=0.9","611e2d4ad083c861391122b2","686d226cabeef709c732f8e1","686e312efb867144fa78513a","611e2d4ad083c861391122b2","2025-07-09T09:29:14.125Z","","","","","","ControlQ","","","","","","","","","","","","","","","","","","","","","","","","","","","","","","","","","","","","","","50",""
"2487","","<div style=""width:500px;"">
  <p>How would you describe your current emotional state?</p>
  </div>","100","html-slider-response","86","1288396","0.0-10.0-3.8","91","1","2025-07-09 09:07:46","7701e855f2ef39aa3fd6c71abdc6918a","41.164.82.138","Mozilla/5.0 (Windows NT 10.0; Win64; x64) AppleWebKit/537.36 (KHTML, like Gecko) Chrome/138.0.0.0 Safari/537.36","WebKit","Chrome","138.0.0.0","Windows","10.0","https://app.prolific.com/","en-US,en;q=0.9","611e2d4ad083c861391122b2","686d226cabeef709c732f8e1","686e312efb867144fa78513a","611e2d4ad083c861391122b2","2025-07-09T09:29:16.613Z","","","","","","StressQ","","","","","","","","","","","","","","","","","","","","","","","","","","","","","","","","","","","","","","50",""
"4207","","<div style=""width:500px;"">
  <p>What best describes how you currently feel?</p>
  </div>","0","html-slider-response","87","1292604","0.0-10.0-4.8","91","1","2025-07-09 09:07:46","7701e855f2ef39aa3fd6c71abdc6918a","41.164.82.138","Mozilla/5.0 (Windows NT 10.0; Win64; x64) AppleWebKit/537.36 (KHTML, like Gecko) Chrome/138.0.0.0 Safari/537.36","WebKit","Chrome","138.0.0.0","Windows","10.0","https://app.prolific.com/","en-US,en;q=0.9","611e2d4ad083c861391122b2","686d226cabeef709c732f8e1","686e312efb867144fa78513a","611e2d4ad083c861391122b2","2025-07-09T09:29:20.821Z","","","","","","MotivationQ","","","","","","","","","","","","","","","","","","","","","","","","","","","","","","","","","","","","","","50",""
