"rt","response_timestamp","stimulus","response","trial_type","trial_index","time_elapsed","internal_node_id","run_id","condition","recorded_at","source_code_version","ip","user_agent","device","browser","browser_version","platform","platform_version","referer","accept_language","PROLIFIC_PID","STUDY_ID","SESSION_ID","prolific_id","realtime","view_history","question_order","consent","success","question_id","eventType","responses","item_order","radio_event_ids","radio_event_times","key_event_times","mouse_event_times","straightlining","zigzagging","honeypot","which_type","canvas_config","goals_layout","control_level","trial_number","tutorial_trial_number","trial_start_time","phase1_start_time","phase2_start_time","phase3_start_time","goal_1_value","goal_1_distance","goal_2_value","goal_2_distance","goal_selected","outcome","outcome_total","participant_final_score","participant_initial_score","participant_final_score_prop","goal_choice_rt","allocated_time","allocated_time_remaining","goal_direction","counts","mouse_movements","key_presses","correct","slider_start","sub_question"
"4892","1752052054534","<p style='font-size:40px;line-height:1.25'><strong>Welcome to the experiment!</strong></p><p style='font-size:1.1em;line-height:1.25'>Thank you for your interest in our experiment! Before you begin, it is important that we obtain your informed consent to participate in the study.</p><p style='font-size:1.1em;line-height:1.25'>On the next screen will be an <strong>information sheet</strong> for you to read. To participate in the study we need you to read this information sheet and the following consent form carefully. If you agree with all the statements, please click the <strong>I agree</strong> button.</p><p style='font-size:1.1em;line-height:1.25'>Press <strong>Next</strong> to read the information sheet.</p>","0","custom-html-button-response","0","4895","0.0-0.0","74","1","2025-07-09 09:07:29","7701e855f2ef39aa3fd6c71abdc6918a","86.142.90.172","Mozilla/5.0 (Windows NT 10.0; Win64; x64) AppleWebKit/537.36 (KHTML, like Gecko) Chrome/138.0.0.0 Safari/537.36","WebKit","Chrome","138.0.0.0","Windows","10.0","https://app.prolific.com/","en-US,en;q=0.9,fr;q=0.8","56a8bb427f2472000b9522f6","686d226cabeef709c732f8e1","686e3121808f31dc08bc6666","56a8bb427f2472000b9522f6","2025-07-09T09:07:34.537Z","","","","","","","","","","","","","","","","","","","","","","","","","","","","","","","","","","","","","","","","","","","","",""
"8854","","","","instructions","1","13757","0.0-1.0","74","1","2025-07-09 09:07:29","7701e855f2ef39aa3fd6c71abdc6918a","86.142.90.172","Mozilla/5.0 (Windows NT 10.0; Win64; x64) AppleWebKit/537.36 (KHTML, like Gecko) Chrome/138.0.0.0 Safari/537.36","WebKit","Chrome","138.0.0.0","Windows","10.0","https://app.prolific.com/","en-US,en;q=0.9,fr;q=0.8","56a8bb427f2472000b9522f6","686d226cabeef709c732f8e1","686e3121808f31dc08bc6666","56a8bb427f2472000b9522f6","","[{""page_index"":0,""viewing_time"":5964},{""page_index"":1,""viewing_time"":2889}]","","","","","","","","","","","","","","","","","","","","","","","","","","","","","","","","","","","","","","","","","","","",""
"8645","","","{""Q0"":"""",""Q1"":"""",""Q2"":"""",""Q3"":"""",""Q4"":"""",""Q5"":"""",""Q6"":""I agree""}","survey-multi-choice","2","22410","0.0-2.0","74","1","2025-07-09 09:07:29","7701e855f2ef39aa3fd6c71abdc6918a","86.142.90.172","Mozilla/5.0 (Windows NT 10.0; Win64; x64) AppleWebKit/537.36 (KHTML, like Gecko) Chrome/138.0.0.0 Safari/537.36","WebKit","Chrome","138.0.0.0","Windows","10.0","https://app.prolific.com/","en-US,en;q=0.9,fr;q=0.8","56a8bb427f2472000b9522f6","686d226cabeef709c732f8e1","686e3121808f31dc08bc6666","56a8bb427f2472000b9522f6","","","[0,1,2,3,4,5,6]","true","","","","","","","","","","","","","","","","","","","","","","","","","","","","","","","","","","","","","","","","","",""
"7249","","","","fullscreen","3","30680","0.0-4.0","74","1","2025-07-09 09:07:29","7701e855f2ef39aa3fd6c71abdc6918a","86.142.90.172","Mozilla/5.0 (Windows NT 10.0; Win64; x64) AppleWebKit/537.36 (KHTML, like Gecko) Chrome/138.0.0.0 Safari/537.36","WebKit","Chrome","138.0.0.0","Windows","10.0","https://app.prolific.com/","en-US,en;q=0.9,fr;q=0.8","56a8bb427f2472000b9522f6","686d226cabeef709c732f8e1","686e3121808f31dc08bc6666","56a8bb427f2472000b9522f6","","","","","true","","","","","","","","","","","","","","","","","","","","","","","","","","","","","","","","","","","","","","","","",""
"2087","1752052082410"," <p style='font-size:1.1em;line-height:1.25'>Thank you for completing the consent form and closing all other tabs.</p><p style='font-size:1.1em;line-height:1.25'>We will now invite you to fill in some demographic information and questionnaires, before starting the game.<br>This will take about 5 minutes.<br></p><p style='font-size:1.1em;line-height:1.25'>Press the <strong>Next</strong> button to continue.</p>","0","custom-html-button-response","4","32770","0.0-5.0","74","1","2025-07-09 09:07:29","7701e855f2ef39aa3fd6c71abdc6918a","86.142.90.172","Mozilla/5.0 (Windows NT 10.0; Win64; x64) AppleWebKit/537.36 (KHTML, like Gecko) Chrome/138.0.0.0 Safari/537.36","WebKit","Chrome","138.0.0.0","Windows","10.0","https://app.prolific.com/","en-US,en;q=0.9,fr;q=0.8","56a8bb427f2472000b9522f6","686d226cabeef709c732f8e1","686e3121808f31dc08bc6666","56a8bb427f2472000b9522f6","2025-07-09T09:08:02.411Z","","","","","","","","","","","","","","","","","","","","","","","","","","","","","","","","","","","","","","","","","","","","",""
"3097","","","{""age"":""38""}","survey-text","5","35876","0.0-6.0-0.0","74","1","2025-07-09 09:07:29","7701e855f2ef39aa3fd6c71abdc6918a","86.142.90.172","Mozilla/5.0 (Windows NT 10.0; Win64; x64) AppleWebKit/537.36 (KHTML, like Gecko) Chrome/138.0.0.0 Safari/537.36","WebKit","Chrome","138.0.0.0","Windows","10.0","https://app.prolific.com/","en-US,en;q=0.9,fr;q=0.8","56a8bb427f2472000b9522f6","686d226cabeef709c732f8e1","686e3121808f31dc08bc6666","56a8bb427f2472000b9522f6","","","","","","0","demographics","","","","","","","","","","","","","","","","","","","","","","","","","","","","","","","","","","","","","","",""
"3084","","","{""gender_identity"":""female/woman""}","survey-multi-choice","6","38964","0.0-6.0-1.0","74","1","2025-07-09 09:07:29","7701e855f2ef39aa3fd6c71abdc6918a","86.142.90.172","Mozilla/5.0 (Windows NT 10.0; Win64; x64) AppleWebKit/537.36 (KHTML, like Gecko) Chrome/138.0.0.0 Safari/537.36","WebKit","Chrome","138.0.0.0","Windows","10.0","https://app.prolific.com/","en-US,en;q=0.9,fr;q=0.8","56a8bb427f2472000b9522f6","686d226cabeef709c732f8e1","686e3121808f31dc08bc6666","56a8bb427f2472000b9522f6","","","[0]","","","1","demographics","","","","","","","","","","","","","","","","","","","","","","","","","","","","","","","","","","","","","","",""
"2485","","","{""assigned_sex"":""female""}","survey-multi-choice","7","41452","0.0-6.0-2.0","74","1","2025-07-09 09:07:29","7701e855f2ef39aa3fd6c71abdc6918a","86.142.90.172","Mozilla/5.0 (Windows NT 10.0; Win64; x64) AppleWebKit/537.36 (KHTML, like Gecko) Chrome/138.0.0.0 Safari/537.36","WebKit","Chrome","138.0.0.0","Windows","10.0","https://app.prolific.com/","en-US,en;q=0.9,fr;q=0.8","56a8bb427f2472000b9522f6","686d226cabeef709c732f8e1","686e3121808f31dc08bc6666","56a8bb427f2472000b9522f6","","","[0]","","","2","demographics","","","","","","","","","","","","","","","","","","","","","","","","","","","","","","","","","","","","","","",""
"12122","","","{""menstrual_cycle"":""No""}","survey-multi-choice","8","53576","0.0-6.0-3.0","74","1","2025-07-09 09:07:29","7701e855f2ef39aa3fd6c71abdc6918a","86.142.90.172","Mozilla/5.0 (Windows NT 10.0; Win64; x64) AppleWebKit/537.36 (KHTML, like Gecko) Chrome/138.0.0.0 Safari/537.36","WebKit","Chrome","138.0.0.0","Windows","10.0","https://app.prolific.com/","en-US,en;q=0.9,fr;q=0.8","56a8bb427f2472000b9522f6","686d226cabeef709c732f8e1","686e3121808f31dc08bc6666","56a8bb427f2472000b9522f6","","","[0]","","","4","demographics","","","","","","","","","","","","","","","","","","","","","","","","","","","","","","","","","","","","","","",""
"6235","","","{""education"":""Bachelor's Degree (e.g., BA)""}","survey-multi-choice","9","59815","0.0-6.0-4.0","74","1","2025-07-09 09:07:29","7701e855f2ef39aa3fd6c71abdc6918a","86.142.90.172","Mozilla/5.0 (Windows NT 10.0; Win64; x64) AppleWebKit/537.36 (KHTML, like Gecko) Chrome/138.0.0.0 Safari/537.36","WebKit","Chrome","138.0.0.0","Windows","10.0","https://app.prolific.com/","en-US,en;q=0.9,fr;q=0.8","56a8bb427f2472000b9522f6","686d226cabeef709c732f8e1","686e3121808f31dc08bc6666","56a8bb427f2472000b9522f6","","","[0]","","","5","demographics","","","","","","","","","","","","","","","","","","","","","","","","","","","","","","","","","","","","","","",""
"6531","","","{""education"":""Bachelor's Degree (e.g., BA)""}","survey-multi-choice","10","66348","0.0-6.0-5.0","74","1","2025-07-09 09:07:29","7701e855f2ef39aa3fd6c71abdc6918a","86.142.90.172","Mozilla/5.0 (Windows NT 10.0; Win64; x64) AppleWebKit/537.36 (KHTML, like Gecko) Chrome/138.0.0.0 Safari/537.36","WebKit","Chrome","138.0.0.0","Windows","10.0","https://app.prolific.com/","en-US,en;q=0.9,fr;q=0.8","56a8bb427f2472000b9522f6","686d226cabeef709c732f8e1","686e3121808f31dc08bc6666","56a8bb427f2472000b9522f6","2025-07-09T09:08:35.990Z","","[0]","","","6","demographics","","","","","","","","","","","","","","","","","","","","","","","","","","","","","","","","","","","","","","",""
"57894","","","{""mental_health_condition"":""ARFID"",""mental_health_treatment"":""No - there isn't any available and no NICE guidelines"",""psychiatric_medication"":""""}","survey-text","11","124256","0.0-7.0-0.0","74","1","2025-07-09 09:07:29","7701e855f2ef39aa3fd6c71abdc6918a","86.142.90.172","Mozilla/5.0 (Windows NT 10.0; Win64; x64) AppleWebKit/537.36 (KHTML, like Gecko) Chrome/138.0.0.0 Safari/537.36","WebKit","Chrome","138.0.0.0","Windows","10.0","https://app.prolific.com/","en-US,en;q=0.9,fr;q=0.8","56a8bb427f2472000b9522f6","686d226cabeef709c732f8e1","686e3121808f31dc08bc6666","56a8bb427f2472000b9522f6","2025-07-09T09:09:33.898Z","","","","","1","mental_health","","","","","","","","","","","","","","","","","","","","","","","","","","","","","","","","","","","","","","",""
"7479","","","{""depression_history"":[""Yes""]}","survey-multi-select","12","131745","0.0-7.0-1.0","74","1","2025-07-09 09:07:29","7701e855f2ef39aa3fd6c71abdc6918a","86.142.90.172","Mozilla/5.0 (Windows NT 10.0; Win64; x64) AppleWebKit/537.36 (KHTML, like Gecko) Chrome/138.0.0.0 Safari/537.36","WebKit","Chrome","138.0.0.0","Windows","10.0","https://app.prolific.com/","en-US,en;q=0.9,fr;q=0.8","56a8bb427f2472000b9522f6","686d226cabeef709c732f8e1","686e3121808f31dc08bc6666","56a8bb427f2472000b9522f6","","","[0]","","","","mental_health","","","","","","","","","","","","","","","","","","","","","","","","","","","","","","","","","","","","","","",""
"9133","","","{""depression_episodes"":""more than 5"",""depression_recent"":""Currently experiencing an episode""}","survey-multi-choice","13","140881","0.0-7.0-2.0-0.0","74","1","2025-07-09 09:07:29","7701e855f2ef39aa3fd6c71abdc6918a","86.142.90.172","Mozilla/5.0 (Windows NT 10.0; Win64; x64) AppleWebKit/537.36 (KHTML, like Gecko) Chrome/138.0.0.0 Safari/537.36","WebKit","Chrome","138.0.0.0","Windows","10.0","https://app.prolific.com/","en-US,en;q=0.9,fr;q=0.8","56a8bb427f2472000b9522f6","686d226cabeef709c732f8e1","686e3121808f31dc08bc6666","56a8bb427f2472000b9522f6","2025-07-09T09:09:50.522Z","","[0,1]","","","3","mental_health","","","","","","","","","","","","","","","","","","","","","","","","","","","","","","","","","","","","","","",""
"63795.700000047684","","","","survey-template","14","204691","0.0-7.0-3.0","74","1","2025-07-09 09:07:29","7701e855f2ef39aa3fd6c71abdc6918a","86.142.90.172","Mozilla/5.0 (Windows NT 10.0; Win64; x64) AppleWebKit/537.36 (KHTML, like Gecko) Chrome/138.0.0.0 Safari/537.36","WebKit","Chrome","138.0.0.0","Windows","10.0","https://app.prolific.com/","en-US,en;q=0.9,fr;q=0.8","56a8bb427f2472000b9522f6","686d226cabeef709c732f8e1","686e3121808f31dc08bc6666","56a8bb427f2472000b9522f6","2025-07-09T09:10:54.332Z","","","","","","ius","{""Q01"":""4"",""Q02"":""4"",""Q03"":""4"",""Q04"":""4"",""Q05"":""4"",""Q06"":""3"",""Q07"":""4"",""Q08"":""0"",""Q09"":""3"",""Q10"":""4"",""Q11"":""4"",""Q12"":""4"",""Q13"":""3""}","[0,1,2,3,4,5,6,7,8,9,10,11,12]","[""Q01"",""Q02"",""Q03"",""Q04"",""Q05"",""Q06"",""Q07"",""Q08"",""Q09"",""Q09"",""Q10"",""Q11"",""Q12"",""Q13"",""Q13""]","[8806.600000023842,12887.100000023842,14318.100000023842,19149.700000047684,20298.899999976158,29748.700000047684,35134.200000047684,37144.800000071526,41571.60000002384,42778.39999997616,46185.10000002384,51088.89999997616,55144.10000002384,57225,62854.700000047684]","[]","[8806.600000023842,11879.899999976158,12887.100000023842,14318.100000023842,16024.899999976158,19149.700000047684,20298.899999976158,29748.700000047684,35134.200000047684,37144.800000071526,41571.60000002384,42778.39999997616,46185.10000002384,49215.200000047684,51088.89999997616,52605.60000002384,55144.10000002384,57225,62854.700000047684,63787.200000047684]","0.6923076923076923","0.4166666666666667","0","","","","","","","","","","","","","","","","","","","","","","","","","","","","","",""
"1944","1752052256281","<p style='font-size:1.1em;line-height:1.25'>In the following, we will ask you a few questions relating to your experiences over the past month.<br></p><p style='font-size:1.1em;line-height:1.25'>Press the <strong>Next</strong> button to continue.</p>","0","custom-html-button-response","15","206641","0.0-7.0-4.0","74","1","2025-07-09 09:07:29","7701e855f2ef39aa3fd6c71abdc6918a","86.142.90.172","Mozilla/5.0 (Windows NT 10.0; Win64; x64) AppleWebKit/537.36 (KHTML, like Gecko) Chrome/138.0.0.0 Safari/537.36","WebKit","Chrome","138.0.0.0","Windows","10.0","https://app.prolific.com/","en-US,en;q=0.9,fr;q=0.8","56a8bb427f2472000b9522f6","686d226cabeef709c732f8e1","686e3121808f31dc08bc6666","56a8bb427f2472000b9522f6","2025-07-09T09:10:56.282Z","","","","","","","","","","","","","","","","","","","","","","","","","","","","","","","","","","","","","","","","","","","","",""
"83819.60000002384","","","","survey-template","16","290467","0.0-7.0-5.0","74","1","2025-07-09 09:07:29","7701e855f2ef39aa3fd6c71abdc6918a","86.142.90.172","Mozilla/5.0 (Windows NT 10.0; Win64; x64) AppleWebKit/537.36 (KHTML, like Gecko) Chrome/138.0.0.0 Safari/537.36","WebKit","Chrome","138.0.0.0","Windows","10.0","https://app.prolific.com/","en-US,en;q=0.9,fr;q=0.8","56a8bb427f2472000b9522f6","686d226cabeef709c732f8e1","686e3121808f31dc08bc6666","56a8bb427f2472000b9522f6","2025-07-09T09:12:20.109Z","","","","","","pss","{""Q01"":""4"",""Q02"":""4"",""Q03"":""4"",""Q04"":""3"",""Q05"":""3"",""Q06"":""3"",""Q07"":""2"",""Q08"":""4"",""Q09"":""4"",""Q10"":""4""}","[0,1,2,3,4,5,6,7,8,9]","[""Q01"",""Q02"",""Q03"",""Q04"",""Q05"",""Q04"",""Q04"",""Q04"",""Q05"",""Q06"",""Q06"",""Q07"",""Q07"",""Q08"",""Q08"",""Q09"",""Q10""]","[9004.299999952316,10153.5,12957.799999952316,14613.200000047684,16138.5,26829.399999976158,28248.100000023842,30853.5,36954.799999952316,39547.60000002384,48810,50619.299999952316,57971.39999997616,67722.79999995232,74559.20000004768,75823.70000004768,77063.89999997616]","[]","[0.10000002384185791,9004.299999952316,10153.5,11610.399999976158,12957.799999952316,14613.200000047684,16138.5,25565.200000047684,26829.399999976158,28248.100000023842,30853.5,35907.60000002384,36954.799999952316,39547.60000002384,48810,50619.299999952316,57971.39999997616,67722.79999995232,69139.89999997616,74559.20000004768,75823.70000004768,77063.89999997616,83810.70000004768]","0.5","0.2222222222222222","0","","","","","","","","","","","","","","","","","","","","","","","","","","","","","",""
"1757","1752052341869","<p style='font-size:1.1em;line-height:1.25'>Thank you for your answers! Now we will ask you a few more questions relating to your feelings in the last 24 hours.<br></p><p style='font-size:1.1em;line-height:1.25'>Press the <strong>Next</strong> button to continue.</p>","0","custom-html-button-response","17","292229","0.0-7.0-6.0","74","1","2025-07-09 09:07:29","7701e855f2ef39aa3fd6c71abdc6918a","86.142.90.172","Mozilla/5.0 (Windows NT 10.0; Win64; x64) AppleWebKit/537.36 (KHTML, like Gecko) Chrome/138.0.0.0 Safari/537.36","WebKit","Chrome","138.0.0.0","Windows","10.0","https://app.prolific.com/","en-US,en;q=0.9,fr;q=0.8","56a8bb427f2472000b9522f6","686d226cabeef709c732f8e1","686e3121808f31dc08bc6666","56a8bb427f2472000b9522f6","2025-07-09T09:12:21.870Z","","","","","","","","","","","","","","","","","","","","","","","","","","","","","","","","","","","","","","","","","","","","",""
"86276.79999995232","","","","survey-template","18","378513","0.0-7.0-7.0","74","1","2025-07-09 09:07:29","7701e855f2ef39aa3fd6c71abdc6918a","86.142.90.172","Mozilla/5.0 (Windows NT 10.0; Win64; x64) AppleWebKit/537.36 (KHTML, like Gecko) Chrome/138.0.0.0 Safari/537.36","WebKit","Chrome","138.0.0.0","Windows","10.0","https://app.prolific.com/","en-US,en;q=0.9,fr;q=0.8","56a8bb427f2472000b9522f6","686d226cabeef709c732f8e1","686e3121808f31dc08bc6666","56a8bb427f2472000b9522f6","2025-07-09T09:13:48.154Z","","","","","","drsp","{""Q01"":""5"",""Q02"":""5"",""Q03"":""5"",""Q04"":""5"",""Q05"":""2"",""Q06"":""3"",""Q07"":""2"",""Q08"":""2"",""Q09"":""3"",""Q10"":""1"",""Q11"":""3"",""Q12"":""0"",""Q13"":""0"",""Q14"":""0"",""Q15"":""3"",""Q16"":""5"",""Q17"":""4"",""Q18"":""0"",""Q19"":""5"",""Q20"":""5"",""Q21"":""5""}","[0,1,2,3,4,5,6,7,8,9,10,11,12,13,14,15,16,17,18,19,20]","[""Q01"",""Q02"",""Q03"",""Q04"",""Q05"",""Q05"",""Q05"",""Q06"",""Q06"",""Q07"",""Q08"",""Q08"",""Q07"",""Q09"",""Q10"",""Q11"",""Q12"",""Q13"",""Q14"",""Q15"",""Q16"",""Q17"",""Q18"",""Q19"",""Q20"",""Q21""]","[10520.700000047684,11745.100000023842,13492.5,14849.799999952316,16223.200000047684,17456.5,19338.799999952316,26133.899999976158,28230.700000047684,29471.200000047684,33115.5,34782.10000002384,36280.60000002384,41924.39999997616,44193,47522.39999997616,49737.799999952316,51064.5,52317.60000002384,62086.89999997616,65615,69139.89999997616,71828.5,78114.10000002384,79281.39999997616,85424.39999997616]","[]","[0,10520.700000047684,11745.100000023842,13492.5,14849.799999952316,16223.200000047684,17456.5,19338.799999952316,26133.899999976158,28230.700000047684,29471.200000047684,30895.799999952316,33115.5,34782.10000002384,36280.60000002384,41924.39999997616,44193,47522.39999997616,49737.799999952316,51064.5,52317.60000002384,56749,58103.89999997616,62086.89999997616,63209.200000047684,65615,69139.89999997616,71828.5,72918.89999997616,78114.10000002384,79281.39999997616,81046.39999997616,85424.39999997616,86266.39999997616]","0.38095238095238093","0.25","0","","","","","","","","","","","","","","","","","","","","","","","","","","","","","",""
"14723.399999976158","","","","survey-template","19","393240","0.0-7.0-8.0","74","1","2025-07-09 09:07:29","7701e855f2ef39aa3fd6c71abdc6918a","86.142.90.172","Mozilla/5.0 (Windows NT 10.0; Win64; x64) AppleWebKit/537.36 (KHTML, like Gecko) Chrome/138.0.0.0 Safari/537.36","WebKit","Chrome","138.0.0.0","Windows","10.0","https://app.prolific.com/","en-US,en;q=0.9,fr;q=0.8","56a8bb427f2472000b9522f6","686d226cabeef709c732f8e1","686e3121808f31dc08bc6666","56a8bb427f2472000b9522f6","2025-07-09T09:14:02.881Z","","","","","","stress","{""Q01"":""5"",""Q02"":""4"",""Q03"":""4""}","[0,1,2]","[""Q01"",""Q02"",""Q02"",""Q03""]","[3235.899999976158,4889.899999976158,9029.200000047684,13431.399999976158]","[]","[3235.899999976158,4889.899999976158,9029.200000047684,10351.299999952316,13431.399999976158,14721.399999976158]","0.3333333333333333","0","0","","","","","","","","","","","","","","","","","","","","","","","","","","","","","",""
"74129","","","","instructions","20","467372","0.0-8.0-0.0","74","1","2025-07-09 09:07:29","7701e855f2ef39aa3fd6c71abdc6918a","86.142.90.172","Mozilla/5.0 (Windows NT 10.0; Win64; x64) AppleWebKit/537.36 (KHTML, like Gecko) Chrome/138.0.0.0 Safari/537.36","WebKit","Chrome","138.0.0.0","Windows","10.0","https://app.prolific.com/","en-US,en;q=0.9,fr;q=0.8","56a8bb427f2472000b9522f6","686d226cabeef709c732f8e1","686e3121808f31dc08bc6666","56a8bb427f2472000b9522f6","","[{""page_index"":0,""viewing_time"":32419},{""page_index"":1,""viewing_time"":11697},{""page_index"":2,""viewing_time"":19279},{""page_index"":3,""viewing_time"":10734}]","","","","","","","","","","","","","","","","","","","","","","","","","","","","","","","","","","","","","","","","","","","",""
"","","","","ctl-task-cpt","21","492818","0.0-8.0-1.0","74","1","2025-07-09 09:07:29","7701e855f2ef39aa3fd6c71abdc6918a","86.142.90.172","Mozilla/5.0 (Windows NT 10.0; Win64; x64) AppleWebKit/537.36 (KHTML, like Gecko) Chrome/138.0.0.0 Safari/537.36","WebKit","Chrome","138.0.0.0","Windows","10.0","https://app.prolific.com/","en-US,en;q=0.9,fr;q=0.8","56a8bb427f2472000b9522f6","686d226cabeef709c732f8e1","686e3121808f31dc08bc6666","56a8bb427f2472000b9522f6","","","","","","","","","","","","","","","","","win-only","3","g1:SW,g2:NE","1","0","1","468537","3172.7","7174.7","22417.7","2","4","4","6","1","2","-1","0","0","0","4001.9","4000","2600","[""down"",""left""]","{""num_key_presses"":10,""num_perfect"":4,""num_errors"":3,""num_randdir"":0,""num_randdir_good_moves"":0,""num_whilered"":3,""num_whileblue"":0,""num_blue"":0,""num_good_moves"":4}","[413.57142857142856,419.1808016640799,1.5,413.57142857142856,419.1808016640799,102.8,413.57142857142856,419.1808016640799,210.7,413.57142857142856,419.1808016640799,313.9,413.57142857142856,419.1808016640799,419.1,413.57142857142856,419.1808016640799,519.8,413.57142857142856,419.1808016640799,628.3,413.57142857142856,419.1808016640799,731.1,413.57142857142856,419.1808016640799,834.5,413.57142857142856,419.1808016640799,934.5,413.57142857142856,419.1808016640799,1038.3,413.57142857142856,419.1808016640799,1143.2,413.57142857142856,419.1808016640799,1244.1,413.57142857142856,419.1808016640799,1344.6,413.57142857142856,419.1808016640799,1445.4,413.57142857142856,419.1808016640799,1546.1,413.57142857142856,419.1808016640799,1646.1,413.57142857142856,419.1808016640799,1746.2,413.57142857142856,419.1808016640799,1846.8,413.57142857142856,419.1808016640799,1948,413.57142857142856,419.1808016640799,2051.7,413.57142857142856,419.1808016640799,2156.3,413.57142857142856,419.1808016640799,2257.9,413.57142857142856,419.1808016640799,2357.9,413.57142857142856,419.1808016640799,2463.4,413.57142857142856,419.1808016640799,2572.3,413.57142857142856,419.1808016640799,2679.7,413.57142857142856,419.1808016640799,2787.9,413.57142857142856,419.1808016640799,2895.5,413.57142857142856,419.1808016640799,2996,413.57142857142856,419.1808016640799,3101.7,413.57142857142856,419.1808016640799,3203.9,413.57142857142856,419.1808016640799,3311.7,413.57142857142856,419.1808016640799,3418.1,413.57142857142856,419.1808016640799,3527.9,413.57142857142856,419.1808016640799,3628.2,413.57142857142856,419.1808016640799,3728.7,413.57142857142856,419.1808016640799,3828.8,413.57142857142856,419.1808016640799,3941.8]","[146.7,146.8,1000,0,-853.2,""error"",""-"",""-"",""no_move"",315.4,168.2,1000,0,-684.6,""while_red"",""-"",""-"",""no_move"",487.9,340.7,1000,0,-512.1,""while_red"",""-"",""-"",""no_move"",3740.7,3593.5,2160.4,1151.1,429.2,""smooth"",""down"",""down"",""good_move"",4066.6,324.1,2705.7,3742.6,-2381.6,""error"",""-"",""-"",""no_move"",4554.1,487,2705.7,3742.6,-1894.2,""while_red"",""-"",""-"",""no_move"",7683.4,3616.3,2114.1,5071.5,497.8,""smooth"",""down"",""down"",""good_move"",8280,596.1,2644.5,7683.9,-2048.4,""error"",""-"",""-"",""no_move"",12139.3,3858.9,2328.1,9285,526.2,""smooth"",""left"",""left"",""good_move"",15118.5,2978.4,2398,12140.2,580.3,""smooth"",""left"",""left"",""good_move""]","","",""
"13275","","","","instructions","22","506094","0.0-8.0-2.0","74","1","2025-07-09 09:07:29","7701e855f2ef39aa3fd6c71abdc6918a","86.142.90.172","Mozilla/5.0 (Windows NT 10.0; Win64; x64) AppleWebKit/537.36 (KHTML, like Gecko) Chrome/138.0.0.0 Safari/537.36","WebKit","Chrome","138.0.0.0","Windows","10.0","https://app.prolific.com/","en-US,en;q=0.9,fr;q=0.8","56a8bb427f2472000b9522f6","686d226cabeef709c732f8e1","686e3121808f31dc08bc6666","56a8bb427f2472000b9522f6","","[{""page_index"":0,""viewing_time"":13274}]","","","","","","","","","","","","","","","","","","","","","","","","","","","","","","","","","","","","","","","","","","","",""
"","","","","ctl-task-cpt","23","537122","0.0-8.0-3.0","74","1","2025-07-09 09:07:29","7701e855f2ef39aa3fd6c71abdc6918a","86.142.90.172","Mozilla/5.0 (Windows NT 10.0; Win64; x64) AppleWebKit/537.36 (KHTML, like Gecko) Chrome/138.0.0.0 Safari/537.36","WebKit","Chrome","138.0.0.0","Windows","10.0","https://app.prolific.com/","en-US,en;q=0.9,fr;q=0.8","56a8bb427f2472000b9522f6","686d226cabeef709c732f8e1","686e3121808f31dc08bc6666","56a8bb427f2472000b9522f6","","","","","","","","","","","","","","","","","win-only","3","g1:SW,g2:NE","0.35","0","3","507237.4","3449.3","7452","28023","2","4","8","6","2","8","8","8","0","0.06060606060606061","4002.7","4000","2100","[""up"",""right""]","{""num_key_presses"":6,""num_perfect"":2,""num_errors"":0,""num_randdir"":4,""num_randdir_good_moves"":4,""num_whilered"":0,""num_whileblue"":0,""num_blue"":1,""num_good_moves"":6}","[413.57142857142856,410.1808016640799,0.2,413.57142857142856,410.1808016640799,100.7,413.57142857142856,410.1808016640799,289.7,413.57142857142856,410.1808016640799,427.9,413.57142857142856,410.1808016640799,528.8,413.57142857142856,410.1808016640799,642.7,413.57142857142856,410.1808016640799,746.6,413.57142857142856,410.1808016640799,848.1,413.57142857142856,410.1808016640799,953.9,413.57142857142856,410.1808016640799,1058.7,413.57142857142856,410.1808016640799,1159.1,413.57142857142856,410.1808016640799,1261.3,413.57142857142856,410.1808016640799,1369.9,413.57142857142856,410.1808016640799,1470.5,413.57142857142856,410.1808016640799,1572.3,413.57142857142856,410.1808016640799,1678.8,413.57142857142856,410.1808016640799,1788.3,413.57142857142856,410.1808016640799,1896.2,413.57142857142856,410.1808016640799,1997.9,413.57142857142856,410.1808016640799,2103.9,413.57142857142856,410.1808016640799,2212.9,413.57142857142856,410.1808016640799,2317.4,413.57142857142856,410.1808016640799,2419.8,413.57142857142856,410.1808016640799,2520.6,413.57142857142856,410.1808016640799,2620.8,413.57142857142856,410.1808016640799,2728.7,413.57142857142856,410.1808016640799,2836.3,413.57142857142856,410.1808016640799,2936.3,413.57142857142856,410.1808016640799,3036.7,413.57142857142856,410.1808016640799,3142.8,413.57142857142856,410.1808016640799,3249.7,413.57142857142856,410.1808016640799,3349.9,413.57142857142856,410.1808016640799,3450.6,413.57142857142856,410.1808016640799,3553.8,413.57142857142856,410.1808016640799,3660.4,413.57142857142856,410.1808016640799,3761.2,413.57142857142856,410.1808016640799,3861.5,413.57142857142856,410.1808016640799,3962.2]","[1524.1,1524.1,1000,0,524.1,""oops"",""up"",""right"",""good_move"",7588.3,6063.1,2223.1,4875.4,489.8,""oops"",""up"",""right"",""good_move"",11394.6,3806.1,3015.9,7588.7,790.1,""oops"",""right"",""up"",""good_move"",14392,2996.8,2627.6,11395.2,369.2,""smooth"",""right"",""right"",""good_move"",17943,3550.8,3219.7,14392.3,331.1,""oops"",""up"",""up"",""good_move"",20445.8,2501.8,1887.1,17944.1,614.7,""smooth"",""up"",""up"",""good_move""]","","",""
"6093","","","","instructions","24","543216","0.0-8.0-4.0","74","1","2025-07-09 09:07:29","7701e855f2ef39aa3fd6c71abdc6918a","86.142.90.172","Mozilla/5.0 (Windows NT 10.0; Win64; x64) AppleWebKit/537.36 (KHTML, like Gecko) Chrome/138.0.0.0 Safari/537.36","WebKit","Chrome","138.0.0.0","Windows","10.0","https://app.prolific.com/","en-US,en;q=0.9,fr;q=0.8","56a8bb427f2472000b9522f6","686d226cabeef709c732f8e1","686e3121808f31dc08bc6666","56a8bb427f2472000b9522f6","","[{""page_index"":0,""viewing_time"":3598},{""page_index"":1,""viewing_time"":2494}]","","","","","","","","","","","","","","","","","","","","","","","","","","","","","","","","","","","","","","","","","","","",""
"12357","","","{""green_ball"":[""Ball doesn‘t move and I get -1 penalty point""]}","survey-multi-select","25","555597","0.0-8.0-5.0-0.0","74","1","2025-07-09 09:07:29","7701e855f2ef39aa3fd6c71abdc6918a","86.142.90.172","Mozilla/5.0 (Windows NT 10.0; Win64; x64) AppleWebKit/537.36 (KHTML, like Gecko) Chrome/138.0.0.0 Safari/537.36","WebKit","Chrome","138.0.0.0","Windows","10.0","https://app.prolific.com/","en-US,en;q=0.9,fr;q=0.8","56a8bb427f2472000b9522f6","686d226cabeef709c732f8e1","686e3121808f31dc08bc6666","56a8bb427f2472000b9522f6","","","[0]","","","","quiz","","","","","","","","","","","","","","","","","","","","","","","","","","","","","","","","","","","","","false","",""
"7735","","<p align='center'><b>INCORRECT.</b> Usually the green ball moves in the indicated direction, but sometimes it shakes and moves randomly. </p>","0","html-button-response","26","563343","0.0-8.0-5.0-1.0","74","1","2025-07-09 09:07:29","7701e855f2ef39aa3fd6c71abdc6918a","86.142.90.172","Mozilla/5.0 (Windows NT 10.0; Win64; x64) AppleWebKit/537.36 (KHTML, like Gecko) Chrome/138.0.0.0 Safari/537.36","WebKit","Chrome","138.0.0.0","Windows","10.0","https://app.prolific.com/","en-US,en;q=0.9,fr;q=0.8","56a8bb427f2472000b9522f6","686d226cabeef709c732f8e1","686e3121808f31dc08bc6666","56a8bb427f2472000b9522f6","","","","","","","","","","","","","","","","","","","","","","","","","","","","","","","","","","","","","","","","","","","","","",""
"10602","","","{""green_ball"":[""Ball always shakes and moves in a random direction""]}","survey-multi-select","27","573964","0.0-8.0-5.1-0.1","74","1","2025-07-09 09:07:29","7701e855f2ef39aa3fd6c71abdc6918a","86.142.90.172","Mozilla/5.0 (Windows NT 10.0; Win64; x64) AppleWebKit/537.36 (KHTML, like Gecko) Chrome/138.0.0.0 Safari/537.36","WebKit","Chrome","138.0.0.0","Windows","10.0","https://app.prolific.com/","en-US,en;q=0.9,fr;q=0.8","56a8bb427f2472000b9522f6","686d226cabeef709c732f8e1","686e3121808f31dc08bc6666","56a8bb427f2472000b9522f6","","","[0]","","","","quiz","","","","","","","","","","","","","","","","","","","","","","","","","","","","","","","","","","","","","false","",""
"1596","","<p align='center'><b>INCORRECT.</b> Usually the green ball moves in the indicated direction, but sometimes it shakes and moves randomly. </p>","0","html-button-response","28","575562","0.0-8.0-5.1-1.1","74","1","2025-07-09 09:07:29","7701e855f2ef39aa3fd6c71abdc6918a","86.142.90.172","Mozilla/5.0 (Windows NT 10.0; Win64; x64) AppleWebKit/537.36 (KHTML, like Gecko) Chrome/138.0.0.0 Safari/537.36","WebKit","Chrome","138.0.0.0","Windows","10.0","https://app.prolific.com/","en-US,en;q=0.9,fr;q=0.8","56a8bb427f2472000b9522f6","686d226cabeef709c732f8e1","686e3121808f31dc08bc6666","56a8bb427f2472000b9522f6","","","","","","","","","","","","","","","","","","","","","","","","","","","","","","","","","","","","","","","","","","","","","",""
"2150","","","{""green_ball"":[""Ball sometimes shakes and moves in a random direction""]}","survey-multi-select","29","577714","0.0-8.0-5.2-0.2","74","1","2025-07-09 09:07:29","7701e855f2ef39aa3fd6c71abdc6918a","86.142.90.172","Mozilla/5.0 (Windows NT 10.0; Win64; x64) AppleWebKit/537.36 (KHTML, like Gecko) Chrome/138.0.0.0 Safari/537.36","WebKit","Chrome","138.0.0.0","Windows","10.0","https://app.prolific.com/","en-US,en;q=0.9,fr;q=0.8","56a8bb427f2472000b9522f6","686d226cabeef709c732f8e1","686e3121808f31dc08bc6666","56a8bb427f2472000b9522f6","","","[0]","","","","quiz","","","","","","","","","","","","","","","","","","","","","","","","","","","","","","","","","","","","","true","",""
"1496","","<p align='center'><b>CORRECT!</b> Indeed, the green ball may sometimes shake and move in a random direction.</p>","0","html-button-response","30","579211","0.0-8.0-5.2-1.2","74","1","2025-07-09 09:07:29","7701e855f2ef39aa3fd6c71abdc6918a","86.142.90.172","Mozilla/5.0 (Windows NT 10.0; Win64; x64) AppleWebKit/537.36 (KHTML, like Gecko) Chrome/138.0.0.0 Safari/537.36","WebKit","Chrome","138.0.0.0","Windows","10.0","https://app.prolific.com/","en-US,en;q=0.9,fr;q=0.8","56a8bb427f2472000b9522f6","686d226cabeef709c732f8e1","686e3121808f31dc08bc6666","56a8bb427f2472000b9522f6","","","","","","","","","","","","","","","","","","","","","","","","","","","","","","","","","","","","","","","","","","","","","",""
"5227","","","{""yellow_ball"":[""Ball doesn‘t move and I get -1 penalty point""]}","survey-multi-select","31","584444","0.0-8.0-6.0-0.0","74","1","2025-07-09 09:07:29","7701e855f2ef39aa3fd6c71abdc6918a","86.142.90.172","Mozilla/5.0 (Windows NT 10.0; Win64; x64) AppleWebKit/537.36 (KHTML, like Gecko) Chrome/138.0.0.0 Safari/537.36","WebKit","Chrome","138.0.0.0","Windows","10.0","https://app.prolific.com/","en-US,en;q=0.9,fr;q=0.8","56a8bb427f2472000b9522f6","686d226cabeef709c732f8e1","686e3121808f31dc08bc6666","56a8bb427f2472000b9522f6","","","[0]","","","","quiz","","","","","","","","","","","","","","","","","","","","","","","","","","","","","","","","","","","","","true","",""
"1360","","<p align='center'><b>CORRECT!</b> Indeed, the yellow ball never moves and you receive a penalty.</p>","0","html-button-response","32","585808","0.0-8.0-6.0-1.0","74","1","2025-07-09 09:07:29","7701e855f2ef39aa3fd6c71abdc6918a","86.142.90.172","Mozilla/5.0 (Windows NT 10.0; Win64; x64) AppleWebKit/537.36 (KHTML, like Gecko) Chrome/138.0.0.0 Safari/537.36","WebKit","Chrome","138.0.0.0","Windows","10.0","https://app.prolific.com/","en-US,en;q=0.9,fr;q=0.8","56a8bb427f2472000b9522f6","686d226cabeef709c732f8e1","686e3121808f31dc08bc6666","56a8bb427f2472000b9522f6","","","","","","","","","","","","","","","","","","","","","","","","","","","","","","","","","","","","","","","","","","","","","",""
"5713","","","{""blue_ball"":[""Ball doesn‘t move and I get -1 penalty point""]}","survey-multi-select","33","591523","0.0-8.0-7.0-0.0","74","1","2025-07-09 09:07:29","7701e855f2ef39aa3fd6c71abdc6918a","86.142.90.172","Mozilla/5.0 (Windows NT 10.0; Win64; x64) AppleWebKit/537.36 (KHTML, like Gecko) Chrome/138.0.0.0 Safari/537.36","WebKit","Chrome","138.0.0.0","Windows","10.0","https://app.prolific.com/","en-US,en;q=0.9,fr;q=0.8","56a8bb427f2472000b9522f6","686d226cabeef709c732f8e1","686e3121808f31dc08bc6666","56a8bb427f2472000b9522f6","","","[0]","","","","quiz","","","","","","","","","","","","","","","","","","","","","","","","","","","","","","","","","","","","","false","",""
"2983","","<p align='center'><b>INCORRECT.</b> The blue ball always shakes and moves randomly.</p>","0","html-button-response","34","594511","0.0-8.0-7.0-1.0","74","1","2025-07-09 09:07:29","7701e855f2ef39aa3fd6c71abdc6918a","86.142.90.172","Mozilla/5.0 (Windows NT 10.0; Win64; x64) AppleWebKit/537.36 (KHTML, like Gecko) Chrome/138.0.0.0 Safari/537.36","WebKit","Chrome","138.0.0.0","Windows","10.0","https://app.prolific.com/","en-US,en;q=0.9,fr;q=0.8","56a8bb427f2472000b9522f6","686d226cabeef709c732f8e1","686e3121808f31dc08bc6666","56a8bb427f2472000b9522f6","","","","","","","","","","","","","","","","","","","","","","","","","","","","","","","","","","","","","","","","","","","","","",""
"3526","","","{""blue_ball"":[""Ball always shakes and moves in a random direction""]}","survey-multi-select","35","598048","0.0-8.0-7.1-0.1","74","1","2025-07-09 09:07:29","7701e855f2ef39aa3fd6c71abdc6918a","86.142.90.172","Mozilla/5.0 (Windows NT 10.0; Win64; x64) AppleWebKit/537.36 (KHTML, like Gecko) Chrome/138.0.0.0 Safari/537.36","WebKit","Chrome","138.0.0.0","Windows","10.0","https://app.prolific.com/","en-US,en;q=0.9,fr;q=0.8","56a8bb427f2472000b9522f6","686d226cabeef709c732f8e1","686e3121808f31dc08bc6666","56a8bb427f2472000b9522f6","","","[0]","","","","quiz","","","","","","","","","","","","","","","","","","","","","","","","","","","","","","","","","","","","","true","",""
"1661","","<p align='center'><b>CORRECT!</b> Indeed, the blue ball always shakes and moves in a random direction. Also there is a penalty of -1 point.</p>","0","html-button-response","36","599712","0.0-8.0-7.1-1.1","74","1","2025-07-09 09:07:29","7701e855f2ef39aa3fd6c71abdc6918a","86.142.90.172","Mozilla/5.0 (Windows NT 10.0; Win64; x64) AppleWebKit/537.36 (KHTML, like Gecko) Chrome/138.0.0.0 Safari/537.36","WebKit","Chrome","138.0.0.0","Windows","10.0","https://app.prolific.com/","en-US,en;q=0.9,fr;q=0.8","56a8bb427f2472000b9522f6","686d226cabeef709c732f8e1","686e3121808f31dc08bc6666","56a8bb427f2472000b9522f6","","","","","","","","","","","","","","","","","","","","","","","","","","","","","","","","","","","","","","","","","","","","","",""
"12839","","","{""bonus"":[""When I reach all possible points""]}","survey-multi-select","37","612552","0.0-8.0-8.0-0.0","74","1","2025-07-09 09:07:29","7701e855f2ef39aa3fd6c71abdc6918a","86.142.90.172","Mozilla/5.0 (Windows NT 10.0; Win64; x64) AppleWebKit/537.36 (KHTML, like Gecko) Chrome/138.0.0.0 Safari/537.36","WebKit","Chrome","138.0.0.0","Windows","10.0","https://app.prolific.com/","en-US,en;q=0.9,fr;q=0.8","56a8bb427f2472000b9522f6","686d226cabeef709c732f8e1","686e3121808f31dc08bc6666","56a8bb427f2472000b9522f6","","","[0]","","","","quiz","","","","","","","","","","","","","","","","","","","","","","","","","","","","","","","","","","","","","false","",""
"1755","","<p align='center'><b>INCORRECT.</b> You receive 2 pounds extra when you reach 50% of points </p>","0","html-button-response","38","614312","0.0-8.0-8.0-1.0","74","1","2025-07-09 09:07:29","7701e855f2ef39aa3fd6c71abdc6918a","86.142.90.172","Mozilla/5.0 (Windows NT 10.0; Win64; x64) AppleWebKit/537.36 (KHTML, like Gecko) Chrome/138.0.0.0 Safari/537.36","WebKit","Chrome","138.0.0.0","Windows","10.0","https://app.prolific.com/","en-US,en;q=0.9,fr;q=0.8","56a8bb427f2472000b9522f6","686d226cabeef709c732f8e1","686e3121808f31dc08bc6666","56a8bb427f2472000b9522f6","","","","","","","","","","","","","","","","","","","","","","","","","","","","","","","","","","","","","","","","","","","","","",""
"2116","","","{""bonus"":[""When I reach 50% of points""]}","survey-multi-select","39","616432","0.0-8.0-8.1-0.1","74","1","2025-07-09 09:07:29","7701e855f2ef39aa3fd6c71abdc6918a","86.142.90.172","Mozilla/5.0 (Windows NT 10.0; Win64; x64) AppleWebKit/537.36 (KHTML, like Gecko) Chrome/138.0.0.0 Safari/537.36","WebKit","Chrome","138.0.0.0","Windows","10.0","https://app.prolific.com/","en-US,en;q=0.9,fr;q=0.8","56a8bb427f2472000b9522f6","686d226cabeef709c732f8e1","686e3121808f31dc08bc6666","56a8bb427f2472000b9522f6","","","[0]","","","","quiz","","","","","","","","","","","","","","","","","","","","","","","","","","","","","","","","","","","","","true","",""
"1461","","<p align='center'><b>CORRECT!</b> Indeed, you receive 2 pounds extra when you reach 50% of points.</p>","0","html-button-response","40","617895","0.0-8.0-8.1-1.1","74","1","2025-07-09 09:07:29","7701e855f2ef39aa3fd6c71abdc6918a","86.142.90.172","Mozilla/5.0 (Windows NT 10.0; Win64; x64) AppleWebKit/537.36 (KHTML, like Gecko) Chrome/138.0.0.0 Safari/537.36","WebKit","Chrome","138.0.0.0","Windows","10.0","https://app.prolific.com/","en-US,en;q=0.9,fr;q=0.8","56a8bb427f2472000b9522f6","686d226cabeef709c732f8e1","686e3121808f31dc08bc6666","56a8bb427f2472000b9522f6","","","","","","","","","","","","","","","","","","","","","","","","","","","","","","","","","","","","","","","","","","","","","",""
"2095","","","","instructions","41","619994","0.0-8.0-9.0","74","1","2025-07-09 09:07:29","7701e855f2ef39aa3fd6c71abdc6918a","86.142.90.172","Mozilla/5.0 (Windows NT 10.0; Win64; x64) AppleWebKit/537.36 (KHTML, like Gecko) Chrome/138.0.0.0 Safari/537.36","WebKit","Chrome","138.0.0.0","Windows","10.0","https://app.prolific.com/","en-US,en;q=0.9,fr;q=0.8","56a8bb427f2472000b9522f6","686d226cabeef709c732f8e1","686e3121808f31dc08bc6666","56a8bb427f2472000b9522f6","","[{""page_index"":0,""viewing_time"":2095}]","","","","","","","","","","","","","","","","","","","","","","","","","","","","","","","","","","","","","","","","","","","",""
"18063","","<p>Before you start with this game please answer the following three questions yourself. </p>
  <p>Through this game, we measure several aspects of your cognitive performance, such as reaction times, multi-tasking capabilities </p>
  <p>and the ability to assess the situation you are in.</p>
  <p></p>
  <p><b>How good do you usually are in such tasks?</b></p>","37","html-slider-response","42","638066","0.0-9.0-0.0","74","1","2025-07-09 09:07:29","7701e855f2ef39aa3fd6c71abdc6918a","86.142.90.172","Mozilla/5.0 (Windows NT 10.0; Win64; x64) AppleWebKit/537.36 (KHTML, like Gecko) Chrome/138.0.0.0 Safari/537.36","WebKit","Chrome","138.0.0.0","Windows","10.0","https://app.prolific.com/","en-US,en;q=0.9,fr;q=0.8","56a8bb427f2472000b9522f6","686d226cabeef709c732f8e1","686e3121808f31dc08bc6666","56a8bb427f2472000b9522f6","2025-07-09T09:18:07.708Z","","","","","","PreSkillQ","","","","","","","","","","","","","","","","","","","","","","","","","","","","","","","","","","","","","","50",""
"7047","","<div style=""width:500px;"">
  <p>How well do you think you will perform in this task compared to other participants?</p>
  </div>","47","html-slider-response","43","645118","0.0-9.0-1.0","74","1","2025-07-09 09:07:29","7701e855f2ef39aa3fd6c71abdc6918a","86.142.90.172","Mozilla/5.0 (Windows NT 10.0; Win64; x64) AppleWebKit/537.36 (KHTML, like Gecko) Chrome/138.0.0.0 Safari/537.36","WebKit","Chrome","138.0.0.0","Windows","10.0","https://app.prolific.com/","en-US,en;q=0.9,fr;q=0.8","56a8bb427f2472000b9522f6","686d226cabeef709c732f8e1","686e3121808f31dc08bc6666","56a8bb427f2472000b9522f6","2025-07-09T09:18:14.759Z","","","","","","PrePerfQ","","","","","","","","","","","","","","","","","","","","","","","","","","","","","","","","","","","","","","50",""
"5275","","<div style=""width:500px;"">
  <p>What best describes how you currently feel?</p>
  </div>","68","html-slider-response","44","650395","0.0-9.0-2.0","74","1","2025-07-09 09:07:29","7701e855f2ef39aa3fd6c71abdc6918a","86.142.90.172","Mozilla/5.0 (Windows NT 10.0; Win64; x64) AppleWebKit/537.36 (KHTML, like Gecko) Chrome/138.0.0.0 Safari/537.36","WebKit","Chrome","138.0.0.0","Windows","10.0","https://app.prolific.com/","en-US,en;q=0.9,fr;q=0.8","56a8bb427f2472000b9522f6","686d226cabeef709c732f8e1","686e3121808f31dc08bc6666","56a8bb427f2472000b9522f6","2025-07-09T09:18:20.036Z","","","","","","PreMotivationQ","","","","","","","","","","","","","","","","","","","","","","","","","","","","","","","","","","","","","","50",""
"","","","","ctl-task-cpt","45","680469","0.0-10.0-0.0","74","1","2025-07-09 09:07:29","7701e855f2ef39aa3fd6c71abdc6918a","86.142.90.172","Mozilla/5.0 (Windows NT 10.0; Win64; x64) AppleWebKit/537.36 (KHTML, like Gecko) Chrome/138.0.0.0 Safari/537.36","WebKit","Chrome","138.0.0.0","Windows","10.0","https://app.prolific.com/","en-US,en;q=0.9,fr;q=0.8","56a8bb427f2472000b9522f6","686d226cabeef709c732f8e1","686e3121808f31dc08bc6666","56a8bb427f2472000b9522f6","2025-07-09T09:18:50.110Z","","","","","","","","","","","","","","","","win-only","2","g1:SE,g2:NW","1","1","0","651547.1","1475.9","6477.6","27058.2","1","4","4","6","2","4","4","4","0","0.030303030303030304","5001.6","3000","1485","[""left"",""up""]","{""num_key_presses"":6,""num_perfect"":6,""num_errors"":0,""num_randdir"":0,""num_randdir_good_moves"":0,""num_whilered"":0,""num_whileblue"":0,""num_blue"":1,""num_good_moves"":6}","[410.57142857142856,413.1808016640799,1.8,410.57142857142856,413.1808016640799,111.3,410.57142857142856,413.1808016640799,211.9,410.57142857142856,413.1808016640799,319.4,410.57142857142856,413.1808016640799,420.8,410.57142857142856,413.1808016640799,560.7,410.57142857142856,413.1808016640799,663.5,410.57142857142856,413.1808016640799,766.1,410.57142857142856,413.1808016640799,868.3,410.57142857142856,413.1808016640799,968.7,410.57142857142856,413.1808016640799,1071.8,410.57142857142856,413.1808016640799,1172.1,410.57142857142856,413.1808016640799,1280.8,410.57142857142856,413.1808016640799,1382.7,410.57142857142856,413.1808016640799,1492.1,410.57142857142856,413.1808016640799,1600.2,410.57142857142856,413.1808016640799,1701.2,410.57142857142856,413.1808016640799,1802,410.57142857142856,413.1808016640799,1902.7,410.57142857142856,413.1808016640799,2012.6,410.57142857142856,413.1808016640799,2117.9,410.57142857142856,413.1808016640799,2226.2,410.57142857142856,413.1808016640799,2326.5,410.57142857142856,413.1808016640799,2428.7,410.57142857142856,413.1808016640799,2530.5,410.57142857142856,413.1808016640799,2633.6,410.57142857142856,413.1808016640799,2734.4,410.57142857142856,413.1808016640799,2841.7,410.57142857142856,413.1808016640799,2945.6,410.57142857142856,413.1808016640799,3048.8,410.57142857142856,413.1808016640799,3149.2,410.57142857142856,413.1808016640799,3252.7,410.57142857142856,413.1808016640799,3359.3,410.57142857142856,413.1808016640799,3459.9,410.57142857142856,413.1808016640799,3560.1,410.57142857142856,413.1808016640799,3660.5,410.57142857142856,413.1808016640799,3765.3,410.57142857142856,413.1808016640799,3866.9,410.57142857142856,413.1808016640799,3972.4,410.57142857142856,413.1808016640799,4079.2,410.57142857142856,413.1808016640799,4179.6,410.57142857142856,413.1808016640799,4283.2,410.57142857142856,413.1808016640799,4391.8,410.57142857142856,413.1808016640799,4496.2,410.57142857142856,413.1808016640799,4599.3,410.57142857142856,413.1808016640799,4703.7,410.57142857142856,413.1808016640799,4806.1,410.57142857142856,413.1808016640799,4909.2]","[1695.1,1695.1,1000,0,695.1,""smooth"",""left"",""left"",""good_move"",8505.5,6810,2093.2,6032.6,379.8,""smooth"",""left"",""left"",""good_move"",11192.2,2685.6,2153.6,8506.6,532,""smooth"",""left"",""left"",""good_move"",14074.5,2881.1,2531.2,11193.4,349.9,""smooth"",""up"",""up"",""good_move"",17011.8,2936.4,2645.5,14075.4,290.9,""smooth"",""up"",""up"",""good_move"",20456.6,3444.3,2989.1,17012.3,455.2,""smooth"",""up"",""up"",""good_move""]","","",""
"7235","","<div style=""width:500px;"">
  <p>What determined the result of this run?</p>
  </div>","86","html-slider-response","46","687708","0.0-10.0-1.0","74","1","2025-07-09 09:07:29","7701e855f2ef39aa3fd6c71abdc6918a","86.142.90.172","Mozilla/5.0 (Windows NT 10.0; Win64; x64) AppleWebKit/537.36 (KHTML, like Gecko) Chrome/138.0.0.0 Safari/537.36","WebKit","Chrome","138.0.0.0","Windows","10.0","https://app.prolific.com/","en-US,en;q=0.9,fr;q=0.8","56a8bb427f2472000b9522f6","686d226cabeef709c732f8e1","686e3121808f31dc08bc6666","56a8bb427f2472000b9522f6","2025-07-09T09:18:57.351Z","","","","","","AttribQ","","","","","","","","","","","","","","","","","","","","","","","","","","","","","","","","","","","","","","50",""
"7164","","<div style=""width:500px;"">
  <p>How much control did you have over the ball?</p>
  </div>","92","html-slider-response","47","694876","0.0-10.0-2.0","74","1","2025-07-09 09:07:29","7701e855f2ef39aa3fd6c71abdc6918a","86.142.90.172","Mozilla/5.0 (Windows NT 10.0; Win64; x64) AppleWebKit/537.36 (KHTML, like Gecko) Chrome/138.0.0.0 Safari/537.36","WebKit","Chrome","138.0.0.0","Windows","10.0","https://app.prolific.com/","en-US,en;q=0.9,fr;q=0.8","56a8bb427f2472000b9522f6","686d226cabeef709c732f8e1","686e3121808f31dc08bc6666","56a8bb427f2472000b9522f6","2025-07-09T09:19:04.517Z","","","","","","ControlQ","","","","","","","","","","","","","","","","","","","","","","","","","","","","","","","","","","","","","","50",""
"7594","","<div style=""width:500px;"">
  <p>How would you describe your current emotional state?</p>
  </div>","36","html-slider-response","48","702471","0.0-10.0-3.0","74","1","2025-07-09 09:07:29","7701e855f2ef39aa3fd6c71abdc6918a","86.142.90.172","Mozilla/5.0 (Windows NT 10.0; Win64; x64) AppleWebKit/537.36 (KHTML, like Gecko) Chrome/138.0.0.0 Safari/537.36","WebKit","Chrome","138.0.0.0","Windows","10.0","https://app.prolific.com/","en-US,en;q=0.9,fr;q=0.8","56a8bb427f2472000b9522f6","686d226cabeef709c732f8e1","686e3121808f31dc08bc6666","56a8bb427f2472000b9522f6","2025-07-09T09:19:12.112Z","","","","","","StressQ","","","","","","","","","","","","","","","","","","","","","","","","","","","","","","","","","","","","","","50",""
"5487","","<div style=""width:500px;"">
  <p>What best describes how you currently feel?</p>
  </div>","55","html-slider-response","49","707961","0.0-10.0-4.0","74","1","2025-07-09 09:07:29","7701e855f2ef39aa3fd6c71abdc6918a","86.142.90.172","Mozilla/5.0 (Windows NT 10.0; Win64; x64) AppleWebKit/537.36 (KHTML, like Gecko) Chrome/138.0.0.0 Safari/537.36","WebKit","Chrome","138.0.0.0","Windows","10.0","https://app.prolific.com/","en-US,en;q=0.9,fr;q=0.8","56a8bb427f2472000b9522f6","686d226cabeef709c732f8e1","686e3121808f31dc08bc6666","56a8bb427f2472000b9522f6","2025-07-09T09:19:17.603Z","","","","","","MotivationQ","","","","","","","","","","","","","","","","","","","","","","","","","","","","","","","","","","","","","","50",""
"","","","","ctl-task-cpt","50","743101","0.0-10.0-0.1","74","1","2025-07-09 09:07:29","7701e855f2ef39aa3fd6c71abdc6918a","86.142.90.172","Mozilla/5.0 (Windows NT 10.0; Win64; x64) AppleWebKit/537.36 (KHTML, like Gecko) Chrome/138.0.0.0 Safari/537.36","WebKit","Chrome","138.0.0.0","Windows","10.0","https://app.prolific.com/","en-US,en;q=0.9,fr;q=0.8","56a8bb427f2472000b9522f6","686d226cabeef709c732f8e1","686e3121808f31dc08bc6666","56a8bb427f2472000b9522f6","2025-07-09T09:19:52.743Z","","","","","","","","","","","","","","","","win-only","0","g1:NW,g2:SE","0.9","2","0","709106.8","1284.2","6293.9","32123.5","1","4","8","6","2","8","7","11","4","0.08333333333333333","5009.7","3000","820","[""down"",""right""]","{""num_key_presses"":8,""num_perfect"":6,""num_errors"":1,""num_randdir"":1,""num_randdir_good_moves"":0,""num_whilered"":0,""num_whileblue"":1,""num_blue"":2,""num_good_moves"":7}","[415.07142857142856,416.1808016640799,0.3,415.07142857142856,416.1808016640799,111,415.07142857142856,416.1808016640799,211.5,415.07142857142856,416.1808016640799,312.8,415.07142857142856,416.1808016640799,417.9,415.07142857142856,416.1808016640799,531,415.07142857142856,416.1808016640799,641.5,415.07142857142856,416.1808016640799,742.5,415.07142857142856,416.1808016640799,843.8,415.07142857142856,416.1808016640799,948.3,415.07142857142856,416.1808016640799,1048.4,415.07142857142856,416.1808016640799,1153.2,415.07142857142856,416.1808016640799,1256.4,415.07142857142856,416.1808016640799,1364.2,415.07142857142856,416.1808016640799,1466,415.07142857142856,416.1808016640799,1568.8,415.07142857142856,416.1808016640799,1681.3,415.07142857142856,416.1808016640799,1781.6,415.07142857142856,416.1808016640799,1885.9,415.07142857142856,416.1808016640799,1990.4,415.07142857142856,416.1808016640799,2094,415.07142857142856,416.1808016640799,2197.6,415.07142857142856,416.1808016640799,2303.9,415.07142857142856,416.1808016640799,2413.6,415.07142857142856,416.1808016640799,2518.6,415.07142857142856,416.1808016640799,2621.1,415.07142857142856,416.1808016640799,2721.2,415.07142857142856,416.1808016640799,2840.3,415.07142857142856,416.1808016640799,2953.7,415.07142857142856,416.1808016640799,3058.9,415.07142857142856,416.1808016640799,3167.9,415.07142857142856,416.1808016640799,3285.8,415.07142857142856,416.1808016640799,3388,415.07142857142856,416.1808016640799,3506.4,415.07142857142856,416.1808016640799,3607.7,415.07142857142856,416.1808016640799,3713.6,415.07142857142856,416.1808016640799,3827.7,415.07142857142856,416.1808016640799,3931.4,415.07142857142856,416.1808016640799,4031.7,415.07142857142856,416.1808016640799,4137.7,415.07142857142856,416.1808016640799,4241.2,415.07142857142856,416.1808016640799,4343.3,415.07142857142856,416.1808016640799,4445.9,415.07142857142856,416.1808016640799,4559.6,415.07142857142856,416.1808016640799,4661.3,415.07142857142856,416.1808016640799,4763.8,415.07142857142856,416.1808016640799,4878.4,415.07142857142856,416.1808016640799,4983.8]","[1412.1,1412.1,1000,0,412.1,""smooth"",""down"",""down"",""good_move"",4670.8,3256.7,2752.2,1414.2,504.4,""smooth"",""down"",""down"",""good_move"",7751.5,3080.5,2713.8,4671,366.7,""while_blue"",""down"",""down"",""good_move"",10706.6,2954.5,2371,7752.1,583.5,""smooth"",""right"",""right"",""good_move"",13505.2,2798.1,2386.7,10707.1,411.4,""smooth"",""right"",""right"",""good_move"",16616.8,3111,2699,13505.8,412,""oops"",""right"",""up"",""bad_move"",22861,6243.6,1923.7,20472.9,464.4,""smooth"",""right"",""right"",""good_move"",25695,2833.9,2464.9,22861.2,369,""smooth"",""down"",""down"",""good_move""]","","",""
"6193","","<div style=""width:500px;"">
  <p>What determined the result of this run?</p>
  </div>","75","html-slider-response","51","749299","0.0-10.0-1.1","74","1","2025-07-09 09:07:29","7701e855f2ef39aa3fd6c71abdc6918a","86.142.90.172","Mozilla/5.0 (Windows NT 10.0; Win64; x64) AppleWebKit/537.36 (KHTML, like Gecko) Chrome/138.0.0.0 Safari/537.36","WebKit","Chrome","138.0.0.0","Windows","10.0","https://app.prolific.com/","en-US,en;q=0.9,fr;q=0.8","56a8bb427f2472000b9522f6","686d226cabeef709c732f8e1","686e3121808f31dc08bc6666","56a8bb427f2472000b9522f6","2025-07-09T09:19:58.941Z","","","","","","AttribQ","","","","","","","","","","","","","","","","","","","","","","","","","","","","","","","","","","","","","","50",""
"4166","","<div style=""width:500px;"">
  <p>How much control did you have over the ball?</p>
  </div>","77","html-slider-response","52","753469","0.0-10.0-2.1","74","1","2025-07-09 09:07:29","7701e855f2ef39aa3fd6c71abdc6918a","86.142.90.172","Mozilla/5.0 (Windows NT 10.0; Win64; x64) AppleWebKit/537.36 (KHTML, like Gecko) Chrome/138.0.0.0 Safari/537.36","WebKit","Chrome","138.0.0.0","Windows","10.0","https://app.prolific.com/","en-US,en;q=0.9,fr;q=0.8","56a8bb427f2472000b9522f6","686d226cabeef709c732f8e1","686e3121808f31dc08bc6666","56a8bb427f2472000b9522f6","2025-07-09T09:20:03.110Z","","","","","","ControlQ","","","","","","","","","","","","","","","","","","","","","","","","","","","","","","","","","","","","","","50",""
"4667","","<div style=""width:500px;"">
  <p>How would you describe your current emotional state?</p>
  </div>","56","html-slider-response","53","758138","0.0-10.0-3.1","74","1","2025-07-09 09:07:29","7701e855f2ef39aa3fd6c71abdc6918a","86.142.90.172","Mozilla/5.0 (Windows NT 10.0; Win64; x64) AppleWebKit/537.36 (KHTML, like Gecko) Chrome/138.0.0.0 Safari/537.36","WebKit","Chrome","138.0.0.0","Windows","10.0","https://app.prolific.com/","en-US,en;q=0.9,fr;q=0.8","56a8bb427f2472000b9522f6","686d226cabeef709c732f8e1","686e3121808f31dc08bc6666","56a8bb427f2472000b9522f6","2025-07-09T09:20:07.779Z","","","","","","StressQ","","","","","","","","","","","","","","","","","","","","","","","","","","","","","","","","","","","","","","50",""
"4310","","<div style=""width:500px;"">
  <p>What best describes how you currently feel?</p>
  </div>","58","html-slider-response","54","762450","0.0-10.0-4.1","74","1","2025-07-09 09:07:29","7701e855f2ef39aa3fd6c71abdc6918a","86.142.90.172","Mozilla/5.0 (Windows NT 10.0; Win64; x64) AppleWebKit/537.36 (KHTML, like Gecko) Chrome/138.0.0.0 Safari/537.36","WebKit","Chrome","138.0.0.0","Windows","10.0","https://app.prolific.com/","en-US,en;q=0.9,fr;q=0.8","56a8bb427f2472000b9522f6","686d226cabeef709c732f8e1","686e3121808f31dc08bc6666","56a8bb427f2472000b9522f6","2025-07-09T09:20:12.092Z","","","","","","MotivationQ","","","","","","","","","","","","","","","","","","","","","","","","","","","","","","","","","","","","","","50",""
"","","","","ctl-task-cpt","55","797898","0.0-10.0-0.2","74","1","2025-07-09 09:07:29","7701e855f2ef39aa3fd6c71abdc6918a","86.142.90.172","Mozilla/5.0 (Windows NT 10.0; Win64; x64) AppleWebKit/537.36 (KHTML, like Gecko) Chrome/138.0.0.0 Safari/537.36","WebKit","Chrome","138.0.0.0","Windows","10.0","https://app.prolific.com/","en-US,en;q=0.9,fr;q=0.8","56a8bb427f2472000b9522f6","686d226cabeef709c732f8e1","686e3121808f31dc08bc6666","56a8bb427f2472000b9522f6","2025-07-09T09:20:47.540Z","","","","","","","","","","","","","","","","win-only","2","g1:SE,g2:NW","0.8","3","0","763596.5","1407","6408","32423.4","1","4","4","6","1","1","1","12","11","0.09090909090909091","5001","3000","460","[""down"",""right""]","{""num_key_presses"":8,""num_perfect"":6,""num_errors"":0,""num_randdir"":2,""num_randdir_good_moves"":1,""num_whilered"":0,""num_whileblue"":0,""num_blue"":1,""num_good_moves"":6}","[415.07142857142856,407.1808016640799,0.5,415.07142857142856,407.1808016640799,101.1,415.07142857142856,407.1808016640799,206.2,415.07142857142856,407.1808016640799,310.1,415.07142857142856,407.1808016640799,421.2,415.07142857142856,407.1808016640799,521.2,415.07142857142856,407.1808016640799,635.5,415.07142857142856,407.1808016640799,735.5,415.07142857142856,407.1808016640799,836.7,415.07142857142856,407.1808016640799,946.5,415.07142857142856,407.1808016640799,1053.8,415.07142857142856,407.1808016640799,1160.1,415.07142857142856,407.1808016640799,1269.9,415.07142857142856,407.1808016640799,1378.1,415.07142857142856,407.1808016640799,1486.4,415.07142857142856,407.1808016640799,1586.5,415.07142857142856,407.1808016640799,1693.7,415.07142857142856,407.1808016640799,1796.8,415.07142857142856,407.1808016640799,1900.3,415.07142857142856,407.1808016640799,2006.3,415.07142857142856,407.1808016640799,2108,415.07142857142856,407.1808016640799,2208.9,415.07142857142856,407.1808016640799,2312.3,415.07142857142856,407.1808016640799,2414.8,415.07142857142856,407.1808016640799,2517.7,415.07142857142856,407.1808016640799,2618.2,415.07142857142856,407.1808016640799,2725.5,415.07142857142856,407.1808016640799,2836.6,415.07142857142856,407.1808016640799,2946.2,415.07142857142856,407.1808016640799,3053.6,415.07142857142856,407.1808016640799,3154,415.07142857142856,407.1808016640799,3254.2,415.07142857142856,407.1808016640799,3360.2,415.07142857142856,407.1808016640799,3465.7,415.07142857142856,407.1808016640799,3570.2,415.07142857142856,407.1808016640799,3674.4,415.07142857142856,407.1808016640799,3783.8,415.07142857142856,407.1808016640799,3887.3,415.07142857142856,407.1808016640799,3990.3,415.07142857142856,407.1808016640799,4091.3,415.07142857142856,407.1808016640799,4201.2,415.07142857142856,407.1808016640799,4307.2,415.07142857142856,407.1808016640799,4408.4,415.07142857142856,407.1808016640799,4515.7,415.07142857142856,407.1808016640799,4622.3,415.07142857142856,407.1808016640799,4728.8,415.07142857142856,407.1808016640799,4830.3,415.07142857142856,407.1808016640799,4931.7]","[5348.4,5348.4,2815.1,2005.2,528.1,""smooth"",""left"",""left"",""bad_move"",9014.2,3665.3,2785.4,5348.9,880,""smooth"",""down"",""down"",""good_move"",11950.4,2935.7,2451.9,9014.7,483.8,""smooth"",""right"",""right"",""good_move"",15068.7,3117.5,2701,11951.2,416.5,""smooth"",""right"",""right"",""good_move"",17570.5,2501.4,1995,15069.2,506.4,""smooth"",""right"",""right"",""good_move"",20099.7,2527.4,2211.4,17572.3,316,""oops"",""down"",""left"",""bad_move"",23244.7,3143.7,2833.3,20101,310.4,""oops"",""down"",""right"",""good_move"",25881.9,2637,2256.3,23244.9,380.7,""smooth"",""down"",""down"",""good_move""]","","",""
"8438","","<div style=""width:500px;"">
  <p>What determined the result of this run?</p>
  </div>","40","html-slider-response","56","806340","0.0-10.0-1.2","74","1","2025-07-09 09:07:29","7701e855f2ef39aa3fd6c71abdc6918a","86.142.90.172","Mozilla/5.0 (Windows NT 10.0; Win64; x64) AppleWebKit/537.36 (KHTML, like Gecko) Chrome/138.0.0.0 Safari/537.36","WebKit","Chrome","138.0.0.0","Windows","10.0","https://app.prolific.com/","en-US,en;q=0.9,fr;q=0.8","56a8bb427f2472000b9522f6","686d226cabeef709c732f8e1","686e3121808f31dc08bc6666","56a8bb427f2472000b9522f6","2025-07-09T09:20:55.982Z","","","","","","AttribQ","","","","","","","","","","","","","","","","","","","","","","","","","","","","","","","","","","","","","","50",""
"4028","","<div style=""width:500px;"">
  <p>How much control did you have over the ball?</p>
  </div>","50","html-slider-response","57","810373","0.0-10.0-2.2","74","1","2025-07-09 09:07:29","7701e855f2ef39aa3fd6c71abdc6918a","86.142.90.172","Mozilla/5.0 (Windows NT 10.0; Win64; x64) AppleWebKit/537.36 (KHTML, like Gecko) Chrome/138.0.0.0 Safari/537.36","WebKit","Chrome","138.0.0.0","Windows","10.0","https://app.prolific.com/","en-US,en;q=0.9,fr;q=0.8","56a8bb427f2472000b9522f6","686d226cabeef709c732f8e1","686e3121808f31dc08bc6666","56a8bb427f2472000b9522f6","2025-07-09T09:21:00.015Z","","","","","","ControlQ","","","","","","","","","","","","","","","","","","","","","","","","","","","","","","","","","","","","","","50",""
"5253","","<div style=""width:500px;"">
  <p>How would you describe your current emotional state?</p>
  </div>","64","html-slider-response","58","815641","0.0-10.0-3.2","74","1","2025-07-09 09:07:29","7701e855f2ef39aa3fd6c71abdc6918a","86.142.90.172","Mozilla/5.0 (Windows NT 10.0; Win64; x64) AppleWebKit/537.36 (KHTML, like Gecko) Chrome/138.0.0.0 Safari/537.36","WebKit","Chrome","138.0.0.0","Windows","10.0","https://app.prolific.com/","en-US,en;q=0.9,fr;q=0.8","56a8bb427f2472000b9522f6","686d226cabeef709c732f8e1","686e3121808f31dc08bc6666","56a8bb427f2472000b9522f6","2025-07-09T09:21:05.283Z","","","","","","StressQ","","","","","","","","","","","","","","","","","","","","","","","","","","","","","","","","","","","","","","50",""
"3991","","<div style=""width:500px;"">
  <p>What best describes how you currently feel?</p>
  </div>","45","html-slider-response","59","819642","0.0-10.0-4.2","74","1","2025-07-09 09:07:29","7701e855f2ef39aa3fd6c71abdc6918a","86.142.90.172","Mozilla/5.0 (Windows NT 10.0; Win64; x64) AppleWebKit/537.36 (KHTML, like Gecko) Chrome/138.0.0.0 Safari/537.36","WebKit","Chrome","138.0.0.0","Windows","10.0","https://app.prolific.com/","en-US,en;q=0.9,fr;q=0.8","56a8bb427f2472000b9522f6","686d226cabeef709c732f8e1","686e3121808f31dc08bc6666","56a8bb427f2472000b9522f6","2025-07-09T09:21:09.284Z","","","","","","MotivationQ","","","","","","","","","","","","","","","","","","","","","","","","","","","","","","","","","","","","","","50",""
"","","","","ctl-task-cpt","60","1052973","0.0-10.0-0.3","74","1","2025-07-09 09:07:29","7701e855f2ef39aa3fd6c71abdc6918a","86.142.90.172","Mozilla/5.0 (Windows NT 10.0; Win64; x64) AppleWebKit/537.36 (KHTML, like Gecko) Chrome/138.0.0.0 Safari/537.36","WebKit","Chrome","138.0.0.0","Windows","10.0","https://app.prolific.com/","en-US,en;q=0.9,fr;q=0.8","56a8bb427f2472000b9522f6","686d226cabeef709c732f8e1","686e3121808f31dc08bc6666","56a8bb427f2472000b9522f6","2025-07-09T09:25:02.614Z","","","","","","","","","","","","","","","","win-only","3","g1:SW,g2:NE","0.7","4","0","820807.9","179664.8","184671.7","230292.5","1","4","8","6","1","-1","-1","11","12","0.08333333333333333","5006.9","3000","-1780","[""down"",""left""]","{""num_key_presses"":9,""num_perfect"":6,""num_errors"":0,""num_randdir"":3,""num_randdir_good_moves"":0,""num_whilered"":0,""num_whileblue"":0,""num_blue"":6,""num_good_moves"":6}","[415.07142857142856,408.6808016640799,0.8,415.07142857142856,408.6808016640799,102.2,415.07142857142856,408.6808016640799,210.5,415.07142857142856,408.6808016640799,316.8,415.07142857142856,408.6808016640799,426.1,415.07142857142856,408.6808016640799,526.9,415.07142857142856,408.6808016640799,631,415.07142857142856,408.6808016640799,748.5,415.07142857142856,408.6808016640799,850.9,415.07142857142856,408.6808016640799,964,415.07142857142856,408.6808016640799,1067.5,415.07142857142856,408.6808016640799,1168.1,415.07142857142856,408.6808016640799,1268.6,415.07142857142856,408.6808016640799,1380.4,415.07142857142856,408.6808016640799,1496.6,415.07142857142856,408.6808016640799,1597,415.07142857142856,408.6808016640799,1704.1,415.07142857142856,408.6808016640799,1811.3,415.07142857142856,408.6808016640799,1915,415.07142857142856,408.6808016640799,2016.9,415.07142857142856,408.6808016640799,2118,415.07142857142856,408.6808016640799,2228.3,415.07142857142856,408.6808016640799,2340.9,415.07142857142856,408.6808016640799,2445.2,415.07142857142856,408.6808016640799,2560.9,415.07142857142856,408.6808016640799,2666.7,415.07142857142856,408.6808016640799,2774.4,415.07142857142856,408.6808016640799,2876.2,415.07142857142856,408.6808016640799,2980.4,415.07142857142856,408.6808016640799,3083.3,415.07142857142856,408.6808016640799,3184.2,415.07142857142856,408.6808016640799,3289.2,415.07142857142856,408.6808016640799,3390.1,415.07142857142856,408.6808016640799,3491,415.07142857142856,408.6808016640799,3592.2,415.07142857142856,408.6808016640799,3692.5,415.07142857142856,408.6808016640799,3798.3,415.07142857142856,408.6808016640799,3898.6,415.07142857142856,408.6808016640799,4001.1,415.07142857142856,408.6808016640799,4110.9,415.07142857142856,408.6808016640799,4211.7,415.07142857142856,408.6808016640799,4329.9,415.07142857142856,408.6808016640799,4431.4,415.07142857142856,408.6808016640799,4542.8,415.07142857142856,408.6808016640799,4643.1,415.07142857142856,408.6808016640799,4748.2,415.07142857142856,408.6808016640799,4854.5,415.07142857142856,408.6808016640799,4957]","[4688.5,4688.5,2103.2,2014.5,570.8,""oops"",""down"",""right"",""bad_move"",7835.6,3145.1,2422.3,4690.6,722.8,""smooth"",""down"",""down"",""good_move"",20542.6,12703.3,1681.5,18442.4,418.7,""smooth"",""down"",""down"",""good_move"",23289.9,2746.8,2109,20543.2,637.7,""smooth"",""left"",""left"",""good_move"",26246.6,2956.1,2229.9,23290.7,726.1,""oops"",""left"",""up"",""bad_move"",29628,3380.9,2868.4,26247.1,512.5,""smooth"",""left"",""left"",""good_move"",35456.8,5828.5,2197.3,32868.5,391,""smooth"",""left"",""left"",""good_move"",37733.6,2276.5,1844,35457.1,432.5,""oops"",""down"",""up"",""bad_move"",43296.3,5561.2,2076.9,40858,361.5,""smooth"",""down"",""down"",""good_move""]","","",""
"31375","","<div style=""width:500px;"">
  <p>What determined the result of this run?</p>
  </div>","51","html-slider-response","61","1084354","0.0-10.0-1.3","74","1","2025-07-09 09:07:29","7701e855f2ef39aa3fd6c71abdc6918a","86.142.90.172","Mozilla/5.0 (Windows NT 10.0; Win64; x64) AppleWebKit/537.36 (KHTML, like Gecko) Chrome/138.0.0.0 Safari/537.36","WebKit","Chrome","138.0.0.0","Windows","10.0","https://app.prolific.com/","en-US,en;q=0.9,fr;q=0.8","56a8bb427f2472000b9522f6","686d226cabeef709c732f8e1","686e3121808f31dc08bc6666","56a8bb427f2472000b9522f6","2025-07-09T09:25:33.997Z","","","","","","AttribQ","","","","","","","","","","","","","","","","","","","","","","","","","","","","","","","","","","","","","","50",""
"6337","","<div style=""width:500px;"">
  <p>How much control did you have over the ball?</p>
  </div>","82","html-slider-response","62","1090726","0.0-10.0-2.3","74","1","2025-07-09 09:07:29","7701e855f2ef39aa3fd6c71abdc6918a","86.142.90.172","Mozilla/5.0 (Windows NT 10.0; Win64; x64) AppleWebKit/537.36 (KHTML, like Gecko) Chrome/138.0.0.0 Safari/537.36","WebKit","Chrome","138.0.0.0","Windows","10.0","https://app.prolific.com/","en-US,en;q=0.9,fr;q=0.8","56a8bb427f2472000b9522f6","686d226cabeef709c732f8e1","686e3121808f31dc08bc6666","56a8bb427f2472000b9522f6","2025-07-09T09:25:40.367Z","","","","","","ControlQ","","","","","","","","","","","","","","","","","","","","","","","","","","","","","","","","","","","","","","50",""
"67419","","<div style=""width:500px;"">
  <p>How would you describe your current emotional state?</p>
  </div>","74","html-slider-response","63","1158146","0.0-10.0-3.3","74","1","2025-07-09 09:07:29","7701e855f2ef39aa3fd6c71abdc6918a","86.142.90.172","Mozilla/5.0 (Windows NT 10.0; Win64; x64) AppleWebKit/537.36 (KHTML, like Gecko) Chrome/138.0.0.0 Safari/537.36","WebKit","Chrome","138.0.0.0","Windows","10.0","https://app.prolific.com/","en-US,en;q=0.9,fr;q=0.8","56a8bb427f2472000b9522f6","686d226cabeef709c732f8e1","686e3121808f31dc08bc6666","56a8bb427f2472000b9522f6","2025-07-09T09:26:47.787Z","","","","","","StressQ","","","","","","","","","","","","","","","","","","","","","","","","","","","","","","","","","","","","","","50",""
"13776","","<div style=""width:500px;"">
  <p>What best describes how you currently feel?</p>
  </div>","72","html-slider-response","64","1171923","0.0-10.0-4.3","74","1","2025-07-09 09:07:29","7701e855f2ef39aa3fd6c71abdc6918a","86.142.90.172","Mozilla/5.0 (Windows NT 10.0; Win64; x64) AppleWebKit/537.36 (KHTML, like Gecko) Chrome/138.0.0.0 Safari/537.36","WebKit","Chrome","138.0.0.0","Windows","10.0","https://app.prolific.com/","en-US,en;q=0.9,fr;q=0.8","56a8bb427f2472000b9522f6","686d226cabeef709c732f8e1","686e3121808f31dc08bc6666","56a8bb427f2472000b9522f6","2025-07-09T09:27:01.564Z","","","","","","MotivationQ","","","","","","","","","","","","","","","","","","","","","","","","","","","","","","","","","","","","","","50",""
"","","","","ctl-task-cpt","65","1242053","0.0-10.0-0.4","74","1","2025-07-09 09:07:29","7701e855f2ef39aa3fd6c71abdc6918a","86.142.90.172","Mozilla/5.0 (Windows NT 10.0; Win64; x64) AppleWebKit/537.36 (KHTML, like Gecko) Chrome/138.0.0.0 Safari/537.36","WebKit","Chrome","138.0.0.0","Windows","10.0","https://app.prolific.com/","en-US,en;q=0.9,fr;q=0.8","56a8bb427f2472000b9522f6","686d226cabeef709c732f8e1","686e3121808f31dc08bc6666","56a8bb427f2472000b9522f6","2025-07-09T09:28:11.695Z","","","","","","","","","","","","","","","","win-only","2","g1:SE,g2:NW","0.6","5","0","1173070","30210.2","35213.4","67101.5","1","4","4","6","2","-4","-7","4","11","0.030303030303030304","5003.2","3000","-2650","[""left"",""up""]","{""num_key_presses"":10,""num_perfect"":5,""num_errors"":3,""num_randdir"":2,""num_randdir_good_moves"":1,""num_whilered"":0,""num_whileblue"":3,""num_blue"":3,""num_good_moves"":7}","[419.57142857142856,420.6808016640799,2.1,419.57142857142856,420.6808016640799,104.4,419.57142857142856,420.6808016640799,206.1,419.57142857142856,420.6808016640799,308.4,419.57142857142856,420.6808016640799,412.5,419.57142857142856,420.6808016640799,518.7,419.57142857142856,420.6808016640799,618.9,419.57142857142856,420.6808016640799,720.9,419.57142857142856,420.6808016640799,821,419.57142857142856,420.6808016640799,923.2,419.57142857142856,420.6808016640799,1025.8,419.57142857142856,420.6808016640799,1130.1,419.57142857142856,420.6808016640799,1233.6,419.57142857142856,420.6808016640799,1336,419.57142857142856,420.6808016640799,1436.3,419.57142857142856,420.6808016640799,1537,419.57142857142856,420.6808016640799,1639.9,419.57142857142856,420.6808016640799,1740.5,419.57142857142856,420.6808016640799,1847.7,419.57142857142856,420.6808016640799,1953.5,419.57142857142856,420.6808016640799,2056.3,419.57142857142856,420.6808016640799,2163.5,419.57142857142856,420.6808016640799,2268.5,419.57142857142856,420.6808016640799,2375.2,419.57142857142856,420.6808016640799,2477.2,419.57142857142856,420.6808016640799,2580.5,419.57142857142856,420.6808016640799,2684,419.57142857142856,420.6808016640799,2787.5,419.57142857142856,420.6808016640799,2890.3,419.57142857142856,420.6808016640799,2991.7,419.57142857142856,420.6808016640799,3098,419.57142857142856,420.6808016640799,3198.4,419.57142857142856,420.6808016640799,3302,419.57142857142856,420.6808016640799,3402.2,419.57142857142856,420.6808016640799,3502.6,419.57142857142856,420.6808016640799,3603.5,419.57142857142856,420.6808016640799,3707.4,419.57142857142856,420.6808016640799,3809.9,419.57142857142856,420.6808016640799,3913.3,419.57142857142856,420.6808016640799,4018.5,419.57142857142856,420.6808016640799,4118.6,419.57142857142856,420.6808016640799,4218.8,419.57142857142856,420.6808016640799,4321.3,419.57142857142856,420.6808016640799,4428.3,419.57142857142856,420.6808016640799,4533,419.57142857142856,420.6808016640799,4633.1,419.57142857142856,420.6808016640799,4738.2,419.57142857142856,420.6808016640799,4843.6,419.57142857142856,420.6808016640799,4944.3]","[1454.6,1454.6,1000,0,454.6,""oops"",""up"",""up"",""good_move"",3801.9,2346.9,1715.4,1455,631.5,""smooth"",""left"",""left"",""good_move"",6739.8,2937.5,2569.2,3802.3,368.3,""smooth"",""up"",""up"",""good_move"",9388.4,2648.4,2318.9,6740,329.5,""smooth"",""up"",""up"",""good_move"",12769.8,3381.2,3072.8,9388.6,308.4,""while_blue"",""left"",""right"",""bad_move"",15851.8,3081.6,2531.4,12770.2,550.2,""smooth"",""left"",""left"",""good_move"",18675.1,2822.9,2495.6,15852.2,327.3,""smooth"",""left"",""left"",""good_move"",22200.8,3525.4,3226.6,18675.4,298.8,""oops"",""left"",""right"",""bad_move"",25296.4,3094.3,2687.5,22202.1,406.8,""while_blue"",""left"",""down"",""bad_move"",28895.3,3598.6,2643.4,25296.8,955.1,""while_blue"",""left"",""up"",""good_move""]","","",""
"25400","","<div style=""width:500px;"">
  <p>What determined the result of this run?</p>
  </div>","2","html-slider-response","66","1267455","0.0-10.0-1.4","74","1","2025-07-09 09:07:29","7701e855f2ef39aa3fd6c71abdc6918a","86.142.90.172","Mozilla/5.0 (Windows NT 10.0; Win64; x64) AppleWebKit/537.36 (KHTML, like Gecko) Chrome/138.0.0.0 Safari/537.36","WebKit","Chrome","138.0.0.0","Windows","10.0","https://app.prolific.com/","en-US,en;q=0.9,fr;q=0.8","56a8bb427f2472000b9522f6","686d226cabeef709c732f8e1","686e3121808f31dc08bc6666","56a8bb427f2472000b9522f6","2025-07-09T09:28:37.096Z","","","","","","AttribQ","","","","","","","","","","","","","","","","","","","","","","","","","","","","","","","","","","","","","","50",""
"6137","","<div style=""width:500px;"">
  <p>How much control did you have over the ball?</p>
  </div>","5","html-slider-response","67","1273594","0.0-10.0-2.4","74","1","2025-07-09 09:07:29","7701e855f2ef39aa3fd6c71abdc6918a","86.142.90.172","Mozilla/5.0 (Windows NT 10.0; Win64; x64) AppleWebKit/537.36 (KHTML, like Gecko) Chrome/138.0.0.0 Safari/537.36","WebKit","Chrome","138.0.0.0","Windows","10.0","https://app.prolific.com/","en-US,en;q=0.9,fr;q=0.8","56a8bb427f2472000b9522f6","686d226cabeef709c732f8e1","686e3121808f31dc08bc6666","56a8bb427f2472000b9522f6","2025-07-09T09:28:43.235Z","","","","","","ControlQ","","","","","","","","","","","","","","","","","","","","","","","","","","","","","","","","","","","","","","50",""
"7476","","<div style=""width:500px;"">
  <p>How would you describe your current emotional state?</p>
  </div>","89","html-slider-response","68","1281071","0.0-10.0-3.4","74","1","2025-07-09 09:07:29","7701e855f2ef39aa3fd6c71abdc6918a","86.142.90.172","Mozilla/5.0 (Windows NT 10.0; Win64; x64) AppleWebKit/537.36 (KHTML, like Gecko) Chrome/138.0.0.0 Safari/537.36","WebKit","Chrome","138.0.0.0","Windows","10.0","https://app.prolific.com/","en-US,en;q=0.9,fr;q=0.8","56a8bb427f2472000b9522f6","686d226cabeef709c732f8e1","686e3121808f31dc08bc6666","56a8bb427f2472000b9522f6","2025-07-09T09:28:50.712Z","","","","","","StressQ","","","","","","","","","","","","","","","","","","","","","","","","","","","","","","","","","","","","","","50",""
"4832","","<div style=""width:500px;"">
  <p>What best describes how you currently feel?</p>
  </div>","47","html-slider-response","69","1285904","0.0-10.0-4.4","74","1","2025-07-09 09:07:29","7701e855f2ef39aa3fd6c71abdc6918a","86.142.90.172","Mozilla/5.0 (Windows NT 10.0; Win64; x64) AppleWebKit/537.36 (KHTML, like Gecko) Chrome/138.0.0.0 Safari/537.36","WebKit","Chrome","138.0.0.0","Windows","10.0","https://app.prolific.com/","en-US,en;q=0.9,fr;q=0.8","56a8bb427f2472000b9522f6","686d226cabeef709c732f8e1","686e3121808f31dc08bc6666","56a8bb427f2472000b9522f6","2025-07-09T09:28:55.545Z","","","","","","MotivationQ","","","","","","","","","","","","","","","","","","","","","","","","","","","","","","","","","","","","","","50",""
"","","","","ctl-task-cpt","70","1398816","0.0-10.0-0.5","74","1","2025-07-09 09:07:29","7701e855f2ef39aa3fd6c71abdc6918a","86.142.90.172","Mozilla/5.0 (Windows NT 10.0; Win64; x64) AppleWebKit/537.36 (KHTML, like Gecko) Chrome/138.0.0.0 Safari/537.36","WebKit","Chrome","138.0.0.0","Windows","10.0","https://app.prolific.com/","en-US,en;q=0.9,fr;q=0.8","56a8bb427f2472000b9522f6","686d226cabeef709c732f8e1","686e3121808f31dc08bc6666","56a8bb427f2472000b9522f6","2025-07-09T09:30:48.457Z","","","","","","","","","","","","","","","","win-only","3","g1:SW,g2:NE","0.5","6","0","1287047.5","77900.9","82909.6","109890.2","1","4","8","6","1","-1","-1","3","4","0.022727272727272728","5008.7","3000","-2175","[""down"",""left""]","{""num_key_presses"":7,""num_perfect"":4,""num_errors"":0,""num_randdir"":3,""num_randdir_good_moves"":1,""num_whilered"":0,""num_whileblue"":0,""num_blue"":1,""num_good_moves"":5}","[418.07142857142856,411.6808016640799,0.6,418.07142857142856,411.6808016640799,109.8,418.07142857142856,411.6808016640799,209.9,418.07142857142856,411.6808016640799,312.2,418.07142857142856,411.6808016640799,412.9,418.07142857142856,411.6808016640799,518.7,418.07142857142856,411.6808016640799,622.3,418.07142857142856,411.6808016640799,731.4,418.07142857142856,411.6808016640799,836.9,418.07142857142856,411.6808016640799,939.3,418.07142857142856,411.6808016640799,1044.3,418.07142857142856,411.6808016640799,1146.8,418.07142857142856,411.6808016640799,1259.6,418.07142857142856,411.6808016640799,1359.9,418.07142857142856,411.6808016640799,1460,418.07142857142856,411.6808016640799,1562.4,418.07142857142856,411.6808016640799,1667.4,418.07142857142856,411.6808016640799,1769.1,418.07142857142856,411.6808016640799,1871.2,418.07142857142856,411.6808016640799,1971.6,418.07142857142856,411.6808016640799,2077.9,418.07142857142856,411.6808016640799,2179,418.07142857142856,411.6808016640799,2283.5,418.07142857142856,411.6808016640799,2388.3,418.07142857142856,411.6808016640799,2488.8,418.07142857142856,411.6808016640799,2596.4,418.07142857142856,411.6808016640799,2699.7,418.07142857142856,411.6808016640799,2802.7,418.07142857142856,411.6808016640799,2909.2,418.07142857142856,411.6808016640799,3014.1,418.07142857142856,411.6808016640799,3117.8,418.07142857142856,411.6808016640799,3218.6,418.07142857142856,411.6808016640799,3322.5,418.07142857142856,411.6808016640799,3430.3,418.07142857142856,411.6808016640799,3531,418.07142857142856,411.6808016640799,3636.6,418.07142857142856,411.6808016640799,3739.7,418.07142857142856,411.6808016640799,3842.1,418.07142857142856,411.6808016640799,3942.6,418.07142857142856,411.6808016640799,4043.2,418.07142857142856,411.6808016640799,4145.4,418.07142857142856,411.6808016640799,4249.1,418.07142857142856,411.6808016640799,4355.8,418.07142857142856,411.6808016640799,4458.9,418.07142857142856,411.6808016640799,4566.1,418.07142857142856,411.6808016640799,4672.7,418.07142857142856,411.6808016640799,4775.1,418.07142857142856,411.6808016640799,4876.6,418.07142857142856,411.6808016640799,4980.4]","[1769.8,1769.8,1000,0,769.8,""smooth"",""down"",""down"",""good_move"",5227.8,3456.8,2876.3,1771,580.5,""oops"",""down"",""up"",""bad_move"",8442.9,3214.8,2796,5228.1,418.8,""smooth"",""left"",""left"",""good_move"",15004.4,6561.1,2926.3,11559,519.1,""smooth"",""left"",""left"",""good_move"",18154.6,3149.9,2723.7,15004.7,426.3,""oops"",""down"",""down"",""good_move"",21916,3760.9,3329.1,18155.1,431.8,""oops"",""down"",""up"",""bad_move"",24402.5,2486,1894.7,21916.5,591.3,""smooth"",""down"",""down"",""good_move""]","","",""
"5458","","<div style=""width:500px;"">
  <p>What determined the result of this run?</p>
  </div>","4","html-slider-response","71","1404276","0.0-10.0-1.5","74","1","2025-07-09 09:07:29","7701e855f2ef39aa3fd6c71abdc6918a","86.142.90.172","Mozilla/5.0 (Windows NT 10.0; Win64; x64) AppleWebKit/537.36 (KHTML, like Gecko) Chrome/138.0.0.0 Safari/537.36","WebKit","Chrome","138.0.0.0","Windows","10.0","https://app.prolific.com/","en-US,en;q=0.9,fr;q=0.8","56a8bb427f2472000b9522f6","686d226cabeef709c732f8e1","686e3121808f31dc08bc6666","56a8bb427f2472000b9522f6","2025-07-09T09:30:53.917Z","","","","","","AttribQ","","","","","","","","","","","","","","","","","","","","","","","","","","","","","","","","","","","","","","50",""
"14747","","<div style=""width:500px;"">
  <p>How much control did you have over the ball?</p>
  </div>","3","html-slider-response","72","1419025","0.0-10.0-2.5","74","1","2025-07-09 09:07:29","7701e855f2ef39aa3fd6c71abdc6918a","86.142.90.172","Mozilla/5.0 (Windows NT 10.0; Win64; x64) AppleWebKit/537.36 (KHTML, like Gecko) Chrome/138.0.0.0 Safari/537.36","WebKit","Chrome","138.0.0.0","Windows","10.0","https://app.prolific.com/","en-US,en;q=0.9,fr;q=0.8","56a8bb427f2472000b9522f6","686d226cabeef709c732f8e1","686e3121808f31dc08bc6666","56a8bb427f2472000b9522f6","2025-07-09T09:31:08.666Z","","","","","","ControlQ","","","","","","","","","","","","","","","","","","","","","","","","","","","","","","","","","","","","","","50",""
"5818","","<div style=""width:500px;"">
  <p>How would you describe your current emotional state?</p>
  </div>","89","html-slider-response","73","1424844","0.0-10.0-3.5","74","1","2025-07-09 09:07:29","7701e855f2ef39aa3fd6c71abdc6918a","86.142.90.172","Mozilla/5.0 (Windows NT 10.0; Win64; x64) AppleWebKit/537.36 (KHTML, like Gecko) Chrome/138.0.0.0 Safari/537.36","WebKit","Chrome","138.0.0.0","Windows","10.0","https://app.prolific.com/","en-US,en;q=0.9,fr;q=0.8","56a8bb427f2472000b9522f6","686d226cabeef709c732f8e1","686e3121808f31dc08bc6666","56a8bb427f2472000b9522f6","2025-07-09T09:31:14.485Z","","","","","","StressQ","","","","","","","","","","","","","","","","","","","","","","","","","","","","","","","","","","","","","","50",""
"7780","","<div style=""width:500px;"">
  <p>What best describes how you currently feel?</p>
  </div>","36","html-slider-response","74","1432627","0.0-10.0-4.5","74","1","2025-07-09 09:07:29","7701e855f2ef39aa3fd6c71abdc6918a","86.142.90.172","Mozilla/5.0 (Windows NT 10.0; Win64; x64) AppleWebKit/537.36 (KHTML, like Gecko) Chrome/138.0.0.0 Safari/537.36","WebKit","Chrome","138.0.0.0","Windows","10.0","https://app.prolific.com/","en-US,en;q=0.9,fr;q=0.8","56a8bb427f2472000b9522f6","686d226cabeef709c732f8e1","686e3121808f31dc08bc6666","56a8bb427f2472000b9522f6","2025-07-09T09:31:22.268Z","","","","","","MotivationQ","","","","","","","","","","","","","","","","","","","","","","","","","","","","","","","","","","","","","","50",""
"","","","","ctl-task-cpt","75","1492419","0.0-10.0-0.6","74","1","2025-07-09 09:07:29","7701e855f2ef39aa3fd6c71abdc6918a","86.142.90.172","Mozilla/5.0 (Windows NT 10.0; Win64; x64) AppleWebKit/537.36 (KHTML, like Gecko) Chrome/138.0.0.0 Safari/537.36","WebKit","Chrome","138.0.0.0","Windows","10.0","https://app.prolific.com/","en-US,en;q=0.9,fr;q=0.8","56a8bb427f2472000b9522f6","686d226cabeef709c732f8e1","686e3121808f31dc08bc6666","56a8bb427f2472000b9522f6","2025-07-09T09:32:22.060Z","","","","","","","","","","","","","","","","win-only","2","g1:SE,g2:NW","0.4","7","0","1433772.2","5276.9","10282","56772.8","1","4","8","6","2","-8","-8","0","3","0","5005.1","3000","-2525","[""left"",""up""]","{""num_key_presses"":10,""num_perfect"":4,""num_errors"":0,""num_randdir"":6,""num_randdir_good_moves"":3,""num_whilered"":0,""num_whileblue"":0,""num_blue"":3,""num_good_moves"":7}","[418.07142857142856,411.6808016640799,0.4,418.07142857142856,411.6808016640799,103.5,418.07142857142856,411.6808016640799,205,418.07142857142856,411.6808016640799,307,418.07142857142856,411.6808016640799,410.4,418.07142857142856,411.6808016640799,511.6,418.07142857142856,411.6808016640799,618,418.07142857142856,411.6808016640799,722.4,418.07142857142856,411.6808016640799,834.4,418.07142857142856,411.6808016640799,937.5,418.07142857142856,411.6808016640799,1042.2,418.07142857142856,411.6808016640799,1142.4,418.07142857142856,411.6808016640799,1245.5,418.07142857142856,411.6808016640799,1347.5,418.07142857142856,411.6808016640799,1448.3,418.07142857142856,411.6808016640799,1555.2,418.07142857142856,411.6808016640799,1659.4,418.07142857142856,411.6808016640799,1767.9,418.07142857142856,411.6808016640799,1873.3,418.07142857142856,411.6808016640799,1976.9,418.07142857142856,411.6808016640799,2084.8,418.07142857142856,411.6808016640799,2189.8,418.07142857142856,411.6808016640799,2300.9,418.07142857142856,411.6808016640799,2406.2,418.07142857142856,411.6808016640799,2507.4,418.07142857142856,411.6808016640799,2614,418.07142857142856,411.6808016640799,2714,418.07142857142856,411.6808016640799,2815.4,418.07142857142856,411.6808016640799,2918.7,418.07142857142856,411.6808016640799,3023.6,418.07142857142856,411.6808016640799,3130.5,418.07142857142856,411.6808016640799,3231.4,418.07142857142856,411.6808016640799,3332.5,418.07142857142856,411.6808016640799,3435.1,418.07142857142856,411.6808016640799,3541.8,418.07142857142856,411.6808016640799,3642.4,418.07142857142856,411.6808016640799,3750,418.07142857142856,411.6808016640799,3853,418.07142857142856,411.6808016640799,3958.5,418.07142857142856,411.6808016640799,4065.3,418.07142857142856,411.6808016640799,4168.2,418.07142857142856,411.6808016640799,4273.4,418.07142857142856,411.6808016640799,4380,418.07142857142856,411.6808016640799,4491.3,418.07142857142856,411.6808016640799,4597.4,418.07142857142856,411.6808016640799,4698.3,418.07142857142856,411.6808016640799,4802.9,418.07142857142856,411.6808016640799,4906.5]","[1062.4,1062.4,1000,0,62.4,""oops"",""left"",""up"",""good_move"",4520,3457.1,2811.9,1062.9,645.2,""oops"",""left"",""left"",""good_move"",11851.7,7331.1,2757.3,8531.6,562.8,""oops"",""left"",""right"",""bad_move"",14571.6,2719.4,2194.9,11852.2,524.5,""oops"",""up"",""down"",""bad_move"",18257.1,3684.8,2033.4,14572.4,1651.4,""oops"",""left"",""right"",""bad_move"",21259.6,3001.7,2569.1,18257.9,432.6,""smooth"",""left"",""left"",""good_move"",24544.8,3284.6,2920,21260.2,364.6,""oops"",""left"",""up"",""good_move"",27837.8,3292.4,2152.3,24545.4,1140.1,""smooth"",""left"",""left"",""good_move"",31473.1,3635.1,2094.4,27838,1540.7,""smooth"",""left"",""left"",""good_move"",42962.1,11488.7,3495.1,39052.1,415,""smooth"",""left"",""left"",""good_move""]","","",""
"11084","","<div style=""width:500px;"">
  <p>What determined the result of this run?</p>
  </div>","0","html-slider-response","76","1503505","0.0-10.0-1.6","74","1","2025-07-09 09:07:29","7701e855f2ef39aa3fd6c71abdc6918a","86.142.90.172","Mozilla/5.0 (Windows NT 10.0; Win64; x64) AppleWebKit/537.36 (KHTML, like Gecko) Chrome/138.0.0.0 Safari/537.36","WebKit","Chrome","138.0.0.0","Windows","10.0","https://app.prolific.com/","en-US,en;q=0.9,fr;q=0.8","56a8bb427f2472000b9522f6","686d226cabeef709c732f8e1","686e3121808f31dc08bc6666","56a8bb427f2472000b9522f6","2025-07-09T09:32:33.146Z","","","","","","AttribQ","","","","","","","","","","","","","","","","","","","","","","","","","","","","","","","","","","","","","","50",""
"10634","","<div style=""width:500px;"">
  <p>How much control did you have over the ball?</p>
  </div>","0","html-slider-response","77","1514141","0.0-10.0-2.6","74","1","2025-07-09 09:07:29","7701e855f2ef39aa3fd6c71abdc6918a","86.142.90.172","Mozilla/5.0 (Windows NT 10.0; Win64; x64) AppleWebKit/537.36 (KHTML, like Gecko) Chrome/138.0.0.0 Safari/537.36","WebKit","Chrome","138.0.0.0","Windows","10.0","https://app.prolific.com/","en-US,en;q=0.9,fr;q=0.8","56a8bb427f2472000b9522f6","686d226cabeef709c732f8e1","686e3121808f31dc08bc6666","56a8bb427f2472000b9522f6","2025-07-09T09:32:43.782Z","","","","","","ControlQ","","","","","","","","","","","","","","","","","","","","","","","","","","","","","","","","","","","","","","50",""
"11630","","<div style=""width:500px;"">
  <p>How would you describe your current emotional state?</p>
  </div>","97","html-slider-response","78","1525773","0.0-10.0-3.6","74","1","2025-07-09 09:07:29","7701e855f2ef39aa3fd6c71abdc6918a","86.142.90.172","Mozilla/5.0 (Windows NT 10.0; Win64; x64) AppleWebKit/537.36 (KHTML, like Gecko) Chrome/138.0.0.0 Safari/537.36","WebKit","Chrome","138.0.0.0","Windows","10.0","https://app.prolific.com/","en-US,en;q=0.9,fr;q=0.8","56a8bb427f2472000b9522f6","686d226cabeef709c732f8e1","686e3121808f31dc08bc6666","56a8bb427f2472000b9522f6","2025-07-09T09:32:55.414Z","","","","","","StressQ","","","","","","","","","","","","","","","","","","","","","","","","","","","","","","","","","","","","","","50",""
"9688","","<div style=""width:500px;"">
  <p>What best describes how you currently feel?</p>
  </div>","34","html-slider-response","79","1535462","0.0-10.0-4.6","74","1","2025-07-09 09:07:29","7701e855f2ef39aa3fd6c71abdc6918a","86.142.90.172","Mozilla/5.0 (Windows NT 10.0; Win64; x64) AppleWebKit/537.36 (KHTML, like Gecko) Chrome/138.0.0.0 Safari/537.36","WebKit","Chrome","138.0.0.0","Windows","10.0","https://app.prolific.com/","en-US,en;q=0.9,fr;q=0.8","56a8bb427f2472000b9522f6","686d226cabeef709c732f8e1","686e3121808f31dc08bc6666","56a8bb427f2472000b9522f6","2025-07-09T09:33:05.103Z","","","","","","MotivationQ","","","","","","","","","","","","","","","","","","","","","","","","","","","","","","","","","","","","","","50",""
"","","","","ctl-task-cpt","80","1589831","0.0-10.0-0.7","74","1","2025-07-09 09:07:29","7701e855f2ef39aa3fd6c71abdc6918a","86.142.90.172","Mozilla/5.0 (Windows NT 10.0; Win64; x64) AppleWebKit/537.36 (KHTML, like Gecko) Chrome/138.0.0.0 Safari/537.36","WebKit","Chrome","138.0.0.0","Windows","10.0","https://app.prolific.com/","en-US,en;q=0.9,fr;q=0.8","56a8bb427f2472000b9522f6","686d226cabeef709c732f8e1","686e3121808f31dc08bc6666","56a8bb427f2472000b9522f6","2025-07-09T09:33:59.472Z","","","","","","","","","","","","","","","","win-only","2","g1:SE,g2:NW","0.3","8","0","1536605.8","5110","10116.7","51342.9","1","4","4","6","1","-1","-3","0","0","0","5006.6","3000","-2300","[""down"",""right""]","{""num_key_presses"":10,""num_perfect"":1,""num_errors"":2,""num_randdir"":7,""num_randdir_good_moves"":3,""num_whilered"":0,""num_whileblue"":1,""num_blue"":2,""num_good_moves"":4}","[416.57142857142856,410.1808016640799,0.5,416.57142857142856,410.1808016640799,100.1,416.57142857142856,410.1808016640799,201.6,416.57142857142856,410.1808016640799,302.2,416.57142857142856,410.1808016640799,404.7,416.57142857142856,410.1808016640799,505,416.57142857142856,410.1808016640799,605,416.57142857142856,410.1808016640799,708.3,416.57142857142856,410.1808016640799,814.1,416.57142857142856,410.1808016640799,919,416.57142857142856,410.1808016640799,1020,416.57142857142856,410.1808016640799,1127.1,416.57142857142856,410.1808016640799,1233.8,416.57142857142856,410.1808016640799,1336.4,416.57142857142856,410.1808016640799,1439,416.57142857142856,410.1808016640799,1542.1,416.57142857142856,410.1808016640799,1646.2,416.57142857142856,410.1808016640799,1750.4,416.57142857142856,410.1808016640799,1854.6,416.57142857142856,410.1808016640799,1958.4,416.57142857142856,410.1808016640799,2059.7,416.57142857142856,410.1808016640799,2162.2,416.57142857142856,410.1808016640799,2268.3,416.57142857142856,410.1808016640799,2374.7,416.57142857142856,410.1808016640799,2482.1,416.57142857142856,410.1808016640799,2583.4,416.57142857142856,410.1808016640799,2693.4,416.57142857142856,410.1808016640799,2798.4,416.57142857142856,410.1808016640799,2904.7,416.57142857142856,410.1808016640799,3005.4,416.57142857142856,410.1808016640799,3106.3,416.57142857142856,410.1808016640799,3206.3,416.57142857142856,410.1808016640799,3306.7,416.57142857142856,410.1808016640799,3408.8,416.57142857142856,410.1808016640799,3512,416.57142857142856,410.1808016640799,3631.4,416.57142857142856,410.1808016640799,3732.3,416.57142857142856,410.1808016640799,3837.1,416.57142857142856,410.1808016640799,3940.4,416.57142857142856,410.1808016640799,4048,416.57142857142856,410.1808016640799,4155.2,416.57142857142856,410.1808016640799,4264,416.57142857142856,410.1808016640799,4371.9,416.57142857142856,410.1808016640799,4481.6,416.57142857142856,410.1808016640799,4584.7,416.57142857142856,410.1808016640799,4686.2,416.57142857142856,410.1808016640799,4787.8,416.57142857142856,410.1808016640799,4894.6,416.57142857142856,410.1808016640799,4997]","[4816.7,4816.7,2362,2014.1,440.6,""oops"",""right"",""down"",""good_move"",8333.9,3516.5,2802.2,4817.4,714.3,""oops"",""right"",""up"",""bad_move"",12560.7,4225.7,2124.5,8335,2101.2,""oops"",""down"",""right"",""good_move"",20314.9,7753.5,2351.4,12561.4,5402.1,""oops"",""down"",""left"",""bad_move"",20365.4,50.1,1703.4,20315.4,-1653.4,""error"",""-"",""-"",""no_move"",25281.8,4916.2,3246.8,21368.2,666.8,""smooth"",""down"",""down"",""good_move"",28230.5,2948,2262.9,25282.5,685.1,""oops"",""down"",""down"",""good_move"",31196.1,2965.1,1841.5,28231,1123.6,""oops"",""right"",""up"",""bad_move"",35386.1,4189.7,2185.8,31196.4,2003.9,""oops"",""right"",""left"",""bad_move"",38483.9,3097.4,2606.5,35386.5,490.9,""while_blue"",""right"",""left"",""bad_move""]","","",""
"146112","","<div style=""width:500px;"">
  <p>What determined the result of this run?</p>
  </div>","1","html-slider-response","81","1735945","0.0-10.0-1.7","74","1","2025-07-09 09:07:29","7701e855f2ef39aa3fd6c71abdc6918a","86.142.90.172","Mozilla/5.0 (Windows NT 10.0; Win64; x64) AppleWebKit/537.36 (KHTML, like Gecko) Chrome/138.0.0.0 Safari/537.36","WebKit","Chrome","138.0.0.0","Windows","10.0","https://app.prolific.com/","en-US,en;q=0.9,fr;q=0.8","56a8bb427f2472000b9522f6","686d226cabeef709c732f8e1","686e3121808f31dc08bc6666","56a8bb427f2472000b9522f6","2025-07-09T09:36:25.586Z","","","","","","AttribQ","","","","","","","","","","","","","","","","","","","","","","","","","","","","","","","","","","","","","","50",""
"12399","","<div style=""width:500px;"">
  <p>How much control did you have over the ball?</p>
  </div>","1","html-slider-response","82","1748350","0.0-10.0-2.7","74","1","2025-07-09 09:07:29","7701e855f2ef39aa3fd6c71abdc6918a","86.142.90.172","Mozilla/5.0 (Windows NT 10.0; Win64; x64) AppleWebKit/537.36 (KHTML, like Gecko) Chrome/138.0.0.0 Safari/537.36","WebKit","Chrome","138.0.0.0","Windows","10.0","https://app.prolific.com/","en-US,en;q=0.9,fr;q=0.8","56a8bb427f2472000b9522f6","686d226cabeef709c732f8e1","686e3121808f31dc08bc6666","56a8bb427f2472000b9522f6","2025-07-09T09:36:37.991Z","","","","","","ControlQ","","","","","","","","","","","","","","","","","","","","","","","","","","","","","","","","","","","","","","50",""
"9818","","<div style=""width:500px;"">
  <p>How would you describe your current emotional state?</p>
  </div>","97","html-slider-response","83","1758177","0.0-10.0-3.7","74","1","2025-07-09 09:07:29","7701e855f2ef39aa3fd6c71abdc6918a","86.142.90.172","Mozilla/5.0 (Windows NT 10.0; Win64; x64) AppleWebKit/537.36 (KHTML, like Gecko) Chrome/138.0.0.0 Safari/537.36","WebKit","Chrome","138.0.0.0","Windows","10.0","https://app.prolific.com/","en-US,en;q=0.9,fr;q=0.8","56a8bb427f2472000b9522f6","686d226cabeef709c732f8e1","686e3121808f31dc08bc6666","56a8bb427f2472000b9522f6","2025-07-09T09:36:47.818Z","","","","","","StressQ","","","","","","","","","","","","","","","","","","","","","","","","","","","","","","","","","","","","","","50",""
"24608","","<div style=""width:500px;"">
  <p>What best describes how you currently feel?</p>
  </div>","80","html-slider-response","84","1782790","0.0-10.0-4.7","74","1","2025-07-09 09:07:29","7701e855f2ef39aa3fd6c71abdc6918a","86.142.90.172","Mozilla/5.0 (Windows NT 10.0; Win64; x64) AppleWebKit/537.36 (KHTML, like Gecko) Chrome/138.0.0.0 Safari/537.36","WebKit","Chrome","138.0.0.0","Windows","10.0","https://app.prolific.com/","en-US,en;q=0.9,fr;q=0.8","56a8bb427f2472000b9522f6","686d226cabeef709c732f8e1","686e3121808f31dc08bc6666","56a8bb427f2472000b9522f6","2025-07-09T09:37:12.431Z","","","","","","MotivationQ","","","","","","","","","","","","","","","","","","","","","","","","","","","","","","","","","","","","","","50",""
"","","","","ctl-task-cpt","85","1823482","0.0-10.0-0.8","74","1","2025-07-09 09:07:29","7701e855f2ef39aa3fd6c71abdc6918a","86.142.90.172","Mozilla/5.0 (Windows NT 10.0; Win64; x64) AppleWebKit/537.36 (KHTML, like Gecko) Chrome/138.0.0.0 Safari/537.36","WebKit","Chrome","138.0.0.0","Windows","10.0","https://app.prolific.com/","en-US,en;q=0.9,fr;q=0.8","56a8bb427f2472000b9522f6","686d226cabeef709c732f8e1","686e3121808f31dc08bc6666","56a8bb427f2472000b9522f6","2025-07-09T09:37:53.123Z","","","","","","","","","","","","","","","","win-only","0","g1:NW,g2:SE","0.2","9","0","1783937.7","1727.6","6731.8","37655.7","1","4","8","6","1","-1","-2","0","0","0","5004.2","3000","-1275","[""left"",""up""]","{""num_key_presses"":6,""num_perfect"":0,""num_errors"":1,""num_randdir"":5,""num_randdir_good_moves"":2,""num_whilered"":0,""num_whileblue"":1,""num_blue"":3,""num_good_moves"":3}","[419.57142857142856,416.1808016640799,0.4,419.57142857142856,416.1808016640799,126.1,419.57142857142856,416.1808016640799,251.4,419.57142857142856,416.1808016640799,367.9,419.57142857142856,416.1808016640799,486.6,419.57142857142856,416.1808016640799,611,419.57142857142856,416.1808016640799,734.9,419.57142857142856,416.1808016640799,854.3,419.57142857142856,416.1808016640799,973.2,419.57142857142856,416.1808016640799,1091.2,419.57142857142856,416.1808016640799,1213.8,419.57142857142856,416.1808016640799,1330.7,419.57142857142856,416.1808016640799,1449.1,419.57142857142856,416.1808016640799,1566.8,419.57142857142856,416.1808016640799,1684.1,419.57142857142856,416.1808016640799,1803.9,419.57142857142856,416.1808016640799,1926.4,419.57142857142856,416.1808016640799,2050.5,419.57142857142856,416.1808016640799,2176.1,419.57142857142856,416.1808016640799,2298.4,419.57142857142856,416.1808016640799,2422.4,419.57142857142856,416.1808016640799,2543.5,419.57142857142856,416.1808016640799,2665,419.57142857142856,416.1808016640799,2787,419.57142857142856,416.1808016640799,2908.5,419.57142857142856,416.1808016640799,3030.9,419.57142857142856,416.1808016640799,3149.7,419.57142857142856,416.1808016640799,3275,419.57142857142856,416.1808016640799,3395.8,419.57142857142856,416.1808016640799,3516.6,419.57142857142856,416.1808016640799,3638.8,419.57142857142856,416.1808016640799,3761.1,419.57142857142856,416.1808016640799,3885.1,419.57142857142856,416.1808016640799,4004.3,419.57142857142856,416.1808016640799,4124.8,419.57142857142856,416.1808016640799,4249.3,419.57142857142856,416.1808016640799,4370.7,419.57142857142856,416.1808016640799,4489.5,419.57142857142856,416.1808016640799,4615.4,419.57142857142856,416.1808016640799,4733.2,419.57142857142856,416.1808016640799,4870.9,419.57142857142856,416.1808016640799,4978.4]","[5137.6,5137.6,2400,2013.4,724.2,""oops"",""left"",""down"",""bad_move"",11608.2,6470,2543.6,5138.2,3926.4,""oops"",""left"",""up"",""good_move"",15898.4,4289.7,2443.6,11608.7,1846.1,""oops"",""left"",""left"",""good_move"",19158.2,3259.1,2712.4,15899.1,546.8,""oops"",""up"",""down"",""bad_move"",22531.1,3372.4,3232,19158.7,140.4,""while_blue"",""left"",""up"",""good_move"",25429.6,2897.8,2461.9,22531.8,435.9,""oops"",""left"",""down"",""bad_move""]","","",""
"6296","","<div style=""width:500px;"">
  <p>What determined the result of this run?</p>
  </div>","0","html-slider-response","86","1829780","0.0-10.0-1.8","74","1","2025-07-09 09:07:29","7701e855f2ef39aa3fd6c71abdc6918a","86.142.90.172","Mozilla/5.0 (Windows NT 10.0; Win64; x64) AppleWebKit/537.36 (KHTML, like Gecko) Chrome/138.0.0.0 Safari/537.36","WebKit","Chrome","138.0.0.0","Windows","10.0","https://app.prolific.com/","en-US,en;q=0.9,fr;q=0.8","56a8bb427f2472000b9522f6","686d226cabeef709c732f8e1","686e3121808f31dc08bc6666","56a8bb427f2472000b9522f6","2025-07-09T09:37:59.421Z","","","","","","AttribQ","","","","","","","","","","","","","","","","","","","","","","","","","","","","","","","","","","","","","","50",""
"3798","","<div style=""width:500px;"">
  <p>How much control did you have over the ball?</p>
