"rt","response_timestamp","stimulus","response","trial_type","trial_index","time_elapsed","internal_node_id","run_id","condition","recorded_at","source_code_version","ip","user_agent","device","browser","browser_version","platform","platform_version","referer","accept_language","PROLIFIC_PID","STUDY_ID","SESSION_ID","prolific_id","realtime","view_history","question_order","consent","success","question_id","eventType","responses","item_order","radio_event_ids","radio_event_times","key_event_times","mouse_event_times","straightlining","zigzagging","honeypot","which_type","canvas_config","goals_layout","control_level","trial_number","tutorial_trial_number","trial_start_time","phase1_start_time","phase2_start_time","phase3_start_time","goal_1_value","goal_1_distance","goal_2_value","goal_2_distance","goal_selected","outcome","outcome_total","participant_final_score","participant_initial_score","participant_final_score_prop","goal_choice_rt","allocated_time","allocated_time_remaining","goal_direction","counts","mouse_movements","key_presses","correct","slider_start"
"12753","1752052050625","<p style='font-size:40px;line-height:1.25'><strong>Welcome to the experiment!</strong></p><p style='font-size:1.1em;line-height:1.25'>Thank you for your interest in our experiment! Before you begin, it is important that we obtain your informed consent to participate in the study.</p><p style='font-size:1.1em;line-height:1.25'>On the next screen will be an <strong>information sheet</strong> for you to read. To participate in the study we need you to read this information sheet and the following consent form carefully. If you agree with all the statements, please click the <strong>I agree</strong> button.</p><p style='font-size:1.1em;line-height:1.25'>Press <strong>Next</strong> to read the information sheet.</p>","0","custom-html-button-response","0","12754","0.0-0.0","50","1","2025-07-09 09:07:15","7701e855f2ef39aa3fd6c71abdc6918a","41.150.37.225","Mozilla/5.0 (Macintosh; Intel Mac OS X 10_15_7) AppleWebKit/537.36 (KHTML, like Gecko) Chrome/137.0.0.0 Safari/537.36","Macintosh","Chrome","137.0.0.0","OS X","10_15_7","https://app.prolific.com/","en-US,en;q=0.9","61196260ae747a4f82d37217","686d226cabeef709c732f8e1","686e313b6fd82e036846dd16","61196260ae747a4f82d37217","2025-07-09T09:07:30.626Z","","","","","","","","","","","","","","","","","","","","","","","","","","","","","","","","","","","","","","","","","","","",""
"131592","","","","instructions","1","144341","0.0-1.0","50","1","2025-07-09 09:07:15","7701e855f2ef39aa3fd6c71abdc6918a","41.150.37.225","Mozilla/5.0 (Macintosh; Intel Mac OS X 10_15_7) AppleWebKit/537.36 (KHTML, like Gecko) Chrome/137.0.0.0 Safari/537.36","Macintosh","Chrome","137.0.0.0","OS X","10_15_7","https://app.prolific.com/","en-US,en;q=0.9","61196260ae747a4f82d37217","686d226cabeef709c732f8e1","686e313b6fd82e036846dd16","61196260ae747a4f82d37217","","[{""page_index"":0,""viewing_time"":129871},{""page_index"":1,""viewing_time"":1720}]","","","","","","","","","","","","","","","","","","","","","","","","","","","","","","","","","","","","","","","","","","",""
"5764","","","{""Q0"":"""",""Q1"":"""",""Q2"":"""",""Q3"":"""",""Q4"":"""",""Q5"":"""",""Q6"":""I agree""}","survey-multi-choice","2","150107","0.0-2.0","50","1","2025-07-09 09:07:15","7701e855f2ef39aa3fd6c71abdc6918a","41.150.37.225","Mozilla/5.0 (Macintosh; Intel Mac OS X 10_15_7) AppleWebKit/537.36 (KHTML, like Gecko) Chrome/137.0.0.0 Safari/537.36","Macintosh","Chrome","137.0.0.0","OS X","10_15_7","https://app.prolific.com/","en-US,en;q=0.9","61196260ae747a4f82d37217","686d226cabeef709c732f8e1","686e313b6fd82e036846dd16","61196260ae747a4f82d37217","","","[0,1,2,3,4,5,6]","true","","","","","","","","","","","","","","","","","","","","","","","","","","","","","","","","","","","","","","","","",""
"212139","","","","fullscreen","3","363242","0.0-4.0","50","1","2025-07-09 09:07:15","7701e855f2ef39aa3fd6c71abdc6918a","41.150.37.225","Mozilla/5.0 (Macintosh; Intel Mac OS X 10_15_7) AppleWebKit/537.36 (KHTML, like Gecko) Chrome/137.0.0.0 Safari/537.36","Macintosh","Chrome","137.0.0.0","OS X","10_15_7","https://app.prolific.com/","en-US,en;q=0.9","61196260ae747a4f82d37217","686d226cabeef709c732f8e1","686e313b6fd82e036846dd16","61196260ae747a4f82d37217","","","","","true","","","","","","","","","","","","","","","","","","","","","","","","","","","","","","","","","","","","","","","",""
"6745","1752052407861"," <p style='font-size:1.1em;line-height:1.25'>Thank you for completing the consent form and closing all other tabs.</p><p style='font-size:1.1em;line-height:1.25'>We will now invite you to fill in some demographic information and questionnaires, before starting the game.<br>This will take about 5 minutes.<br></p><p style='font-size:1.1em;line-height:1.25'>Press the <strong>Next</strong> button to continue.</p>","0","custom-html-button-response","4","369990","0.0-5.0","50","1","2025-07-09 09:07:15","7701e855f2ef39aa3fd6c71abdc6918a","41.150.37.225","Mozilla/5.0 (Macintosh; Intel Mac OS X 10_15_7) AppleWebKit/537.36 (KHTML, like Gecko) Chrome/137.0.0.0 Safari/537.36","Macintosh","Chrome","137.0.0.0","OS X","10_15_7","https://app.prolific.com/","en-US,en;q=0.9","61196260ae747a4f82d37217","686d226cabeef709c732f8e1","686e313b6fd82e036846dd16","61196260ae747a4f82d37217","2025-07-09T09:13:27.862Z","","","","","","","","","","","","","","","","","","","","","","","","","","","","","","","","","","","","","","","","","","","",""
"4698","","","{""age"":""32""}","survey-text","5","374691","0.0-6.0-0.0","50","1","2025-07-09 09:07:15","7701e855f2ef39aa3fd6c71abdc6918a","41.150.37.225","Mozilla/5.0 (Macintosh; Intel Mac OS X 10_15_7) AppleWebKit/537.36 (KHTML, like Gecko) Chrome/137.0.0.0 Safari/537.36","Macintosh","Chrome","137.0.0.0","OS X","10_15_7","https://app.prolific.com/","en-US,en;q=0.9","61196260ae747a4f82d37217","686d226cabeef709c732f8e1","686e313b6fd82e036846dd16","61196260ae747a4f82d37217","","","","","","0","demographics","","","","","","","","","","","","","","","","","","","","","","","","","","","","","","","","","","","","","",""
"3999","","","{""gender_identity"":""female/woman""}","survey-multi-choice","6","378691","0.0-6.0-1.0","50","1","2025-07-09 09:07:15","7701e855f2ef39aa3fd6c71abdc6918a","41.150.37.225","Mozilla/5.0 (Macintosh; Intel Mac OS X 10_15_7) AppleWebKit/537.36 (KHTML, like Gecko) Chrome/137.0.0.0 Safari/537.36","Macintosh","Chrome","137.0.0.0","OS X","10_15_7","https://app.prolific.com/","en-US,en;q=0.9","61196260ae747a4f82d37217","686d226cabeef709c732f8e1","686e313b6fd82e036846dd16","61196260ae747a4f82d37217","","","[0]","","","1","demographics","","","","","","","","","","","","","","","","","","","","","","","","","","","","","","","","","","","","","",""
"2830","","","{""assigned_sex"":""female""}","survey-multi-choice","7","381524","0.0-6.0-2.0","50","1","2025-07-09 09:07:15","7701e855f2ef39aa3fd6c71abdc6918a","41.150.37.225","Mozilla/5.0 (Macintosh; Intel Mac OS X 10_15_7) AppleWebKit/537.36 (KHTML, like Gecko) Chrome/137.0.0.0 Safari/537.36","Macintosh","Chrome","137.0.0.0","OS X","10_15_7","https://app.prolific.com/","en-US,en;q=0.9","61196260ae747a4f82d37217","686d226cabeef709c732f8e1","686e313b6fd82e036846dd16","61196260ae747a4f82d37217","","","[0]","","","2","demographics","","","","","","","","","","","","","","","","","","","","","","","","","","","","","","","","","","","","","",""
"5182","","","{""menstrual_cycle"":""Yes""}","survey-multi-choice","8","386708","0.0-6.0-3.0","50","1","2025-07-09 09:07:15","7701e855f2ef39aa3fd6c71abdc6918a","41.150.37.225","Mozilla/5.0 (Macintosh; Intel Mac OS X 10_15_7) AppleWebKit/537.36 (KHTML, like Gecko) Chrome/137.0.0.0 Safari/537.36","Macintosh","Chrome","137.0.0.0","OS X","10_15_7","https://app.prolific.com/","en-US,en;q=0.9","61196260ae747a4f82d37217","686d226cabeef709c732f8e1","686e313b6fd82e036846dd16","61196260ae747a4f82d37217","","","[0]","","","4","demographics","","","","","","","","","","","","","","","","","","","","","","","","","","","","","","","","","","","","","",""
"10099","","","{""education"":""Master's Degree (e.g., MSc)""}","survey-multi-choice","9","396808","0.0-6.0-4.0","50","1","2025-07-09 09:07:15","7701e855f2ef39aa3fd6c71abdc6918a","41.150.37.225","Mozilla/5.0 (Macintosh; Intel Mac OS X 10_15_7) AppleWebKit/537.36 (KHTML, like Gecko) Chrome/137.0.0.0 Safari/537.36","Macintosh","Chrome","137.0.0.0","OS X","10_15_7","https://app.prolific.com/","en-US,en;q=0.9","61196260ae747a4f82d37217","686d226cabeef709c732f8e1","686e313b6fd82e036846dd16","61196260ae747a4f82d37217","","","[0]","","","5","demographics","","","","","","","","","","","","","","","","","","","","","","","","","","","","","","","","","","","","","",""
"6316","","","{""education"":""Higher National Diploma""}","survey-multi-choice","10","403125","0.0-6.0-5.0","50","1","2025-07-09 09:07:15","7701e855f2ef39aa3fd6c71abdc6918a","41.150.37.225","Mozilla/5.0 (Macintosh; Intel Mac OS X 10_15_7) AppleWebKit/537.36 (KHTML, like Gecko) Chrome/137.0.0.0 Safari/537.36","Macintosh","Chrome","137.0.0.0","OS X","10_15_7","https://app.prolific.com/","en-US,en;q=0.9","61196260ae747a4f82d37217","686d226cabeef709c732f8e1","686e313b6fd82e036846dd16","61196260ae747a4f82d37217","2025-07-09T09:14:00.997Z","","[0]","","","6","demographics","","","","","","","","","","","","","","","","","","","","","","","","","","","","","","","","","","","","","",""
"27633","","","{""mental_health_condition"":""No"",""mental_health_treatment"":""No"",""psychiatric_medication"":""Not applicable""}","survey-text","11","430759","0.0-7.0-0.0","50","1","2025-07-09 09:07:15","7701e855f2ef39aa3fd6c71abdc6918a","41.150.37.225","Mozilla/5.0 (Macintosh; Intel Mac OS X 10_15_7) AppleWebKit/537.36 (KHTML, like Gecko) Chrome/137.0.0.0 Safari/537.36","Macintosh","Chrome","137.0.0.0","OS X","10_15_7","https://app.prolific.com/","en-US,en;q=0.9","61196260ae747a4f82d37217","686d226cabeef709c732f8e1","686e313b6fd82e036846dd16","61196260ae747a4f82d37217","2025-07-09T09:14:28.631Z","","","","","1","mental_health","","","","","","","","","","","","","","","","","","","","","","","","","","","","","","","","","","","","","",""
"16980","","","{""depression_history"":[""No""]}","survey-multi-select","12","447742","0.0-7.0-1.0","50","1","2025-07-09 09:07:15","7701e855f2ef39aa3fd6c71abdc6918a","41.150.37.225","Mozilla/5.0 (Macintosh; Intel Mac OS X 10_15_7) AppleWebKit/537.36 (KHTML, like Gecko) Chrome/137.0.0.0 Safari/537.36","Macintosh","Chrome","137.0.0.0","OS X","10_15_7","https://app.prolific.com/","en-US,en;q=0.9","61196260ae747a4f82d37217","686d226cabeef709c732f8e1","686e313b6fd82e036846dd16","61196260ae747a4f82d37217","","","[0]","","","","mental_health","","","","","","","","","","","","","","","","","","","","","","","","","","","","","","","","","","","","","",""
"102771.09999996424","","","","survey-template","13","550514","0.0-7.0-3.0","50","1","2025-07-09 09:07:15","7701e855f2ef39aa3fd6c71abdc6918a","41.150.37.225","Mozilla/5.0 (Macintosh; Intel Mac OS X 10_15_7) AppleWebKit/537.36 (KHTML, like Gecko) Chrome/137.0.0.0 Safari/537.36","Macintosh","Chrome","137.0.0.0","OS X","10_15_7","https://app.prolific.com/","en-US,en;q=0.9","61196260ae747a4f82d37217","686d226cabeef709c732f8e1","686e313b6fd82e036846dd16","61196260ae747a4f82d37217","2025-07-09T09:16:28.386Z","","","","","","ius","{""Q01"":""2"",""Q02"":""2"",""Q03"":""3"",""Q04"":""3"",""Q05"":""1"",""Q06"":""3"",""Q07"":""1"",""Q08"":""0"",""Q09"":""3"",""Q10"":""2"",""Q11"":""2"",""Q12"":""3"",""Q13"":""3""}","[0,1,2,3,4,5,6,7,8,9,10,11,12]","[""Q01"",""Q02"",""Q03"",""Q04"",""Q05"",""Q06"",""Q08"",""Q09"",""Q10"",""Q11"",""Q12"",""Q13"",""Q07""]","[12161.899999976158,19878.399999976158,24262.69999998808,29629.399999976158,37613.30000001192,41480.09999996424,63297.39999997616,68881.19999998808,77048.5,80532.09999996424,88565.89999997616,94349.39999997616,100549.89999997616]","[]","[12161.899999976158,19878.399999976158,24262.69999998808,29629.399999976158,37613.30000001192,41480.09999996424,55914.19999998808,63297.39999997616,68881.19999998808,77048.5,80532.09999996424,88565.89999997616,93616.09999996424,94349.39999997616,95049.59999996424,95733.39999997616,100549.89999997616,102767]","0.46153846153846156","0.3333333333333333","0","","","","","","","","","","","","","","","","","","","","","","","","","","","","",""
"4344","1752052592730","<p style='font-size:1.1em;line-height:1.25'>In the following, we will ask you a few questions relating to your experiences over the past month.<br></p><p style='font-size:1.1em;line-height:1.25'>Press the <strong>Next</strong> button to continue.</p>","0","custom-html-button-response","14","554859","0.0-7.0-4.0","50","1","2025-07-09 09:07:15","7701e855f2ef39aa3fd6c71abdc6918a","41.150.37.225","Mozilla/5.0 (Macintosh; Intel Mac OS X 10_15_7) AppleWebKit/537.36 (KHTML, like Gecko) Chrome/137.0.0.0 Safari/537.36","Macintosh","Chrome","137.0.0.0","OS X","10_15_7","https://app.prolific.com/","en-US,en;q=0.9","61196260ae747a4f82d37217","686d226cabeef709c732f8e1","686e313b6fd82e036846dd16","61196260ae747a4f82d37217","2025-07-09T09:16:32.731Z","","","","","","","","","","","","","","","","","","","","","","","","","","","","","","","","","","","","","","","","","","","",""
"79006.19999998808","","","","survey-template","15","633864","0.0-7.0-5.0","50","1","2025-07-09 09:07:15","7701e855f2ef39aa3fd6c71abdc6918a","41.150.37.225","Mozilla/5.0 (Macintosh; Intel Mac OS X 10_15_7) AppleWebKit/537.36 (KHTML, like Gecko) Chrome/137.0.0.0 Safari/537.36","Macintosh","Chrome","137.0.0.0","OS X","10_15_7","https://app.prolific.com/","en-US,en;q=0.9","61196260ae747a4f82d37217","686d226cabeef709c732f8e1","686e313b6fd82e036846dd16","61196260ae747a4f82d37217","2025-07-09T09:17:51.736Z","","","","","","pss","{""Q01"":""2"",""Q02"":""2"",""Q03"":""3"",""Q04"":""1"",""Q05"":""2"",""Q06"":""2"",""Q07"":""2"",""Q08"":""2"",""Q09"":""1"",""Q10"":""2""}","[0,1,2,3,4,5,6,7,8,9]","[""Q01"",""Q02"",""Q03"",""Q04"",""Q05"",""Q06"",""Q07"",""Q08"",""Q09"",""Q10""]","[6663.800000011921,13080.699999988079,19699,26416,33382.80000001192,48049.69999998808,51916.5,60450.19999998808,67267.69999998808,77901.30000001192]","[]","[0,6663.800000011921,13080.699999988079,19699,26416,33382.80000001192,48049.69999998808,51916.5,60450.19999998808,67267.69999998808,77901.30000001192,79001.89999997616]","0.7","0.4444444444444444","0","","","","","","","","","","","","","","","","","","","","","","","","","","","","",""
"7660","1752052679397","<p style='font-size:1.1em;line-height:1.25'>Thank you for your answers! Now we will ask you a few more questions relating to your feelings in the last 24 hours.<br></p><p style='font-size:1.1em;line-height:1.25'>Press the <strong>Next</strong> button to continue.</p>","0","custom-html-button-response","16","641526","0.0-7.0-6.0","50","1","2025-07-09 09:07:15","7701e855f2ef39aa3fd6c71abdc6918a","41.150.37.225","Mozilla/5.0 (Macintosh; Intel Mac OS X 10_15_7) AppleWebKit/537.36 (KHTML, like Gecko) Chrome/137.0.0.0 Safari/537.36","Macintosh","Chrome","137.0.0.0","OS X","10_15_7","https://app.prolific.com/","en-US,en;q=0.9","61196260ae747a4f82d37217","686d226cabeef709c732f8e1","686e313b6fd82e036846dd16","61196260ae747a4f82d37217","2025-07-09T09:17:59.398Z","","","","","","","","","","","","","","","","","","","","","","","","","","","","","","","","","","","","","","","","","","","",""
"86024.70000004768","","","","survey-template","17","727552","0.0-7.0-7.0","50","1","2025-07-09 09:07:15","7701e855f2ef39aa3fd6c71abdc6918a","41.150.37.225","Mozilla/5.0 (Macintosh; Intel Mac OS X 10_15_7) AppleWebKit/537.36 (KHTML, like Gecko) Chrome/137.0.0.0 Safari/537.36","Macintosh","Chrome","137.0.0.0","OS X","10_15_7","https://app.prolific.com/","en-US,en;q=0.9","61196260ae747a4f82d37217","686d226cabeef709c732f8e1","686e313b6fd82e036846dd16","61196260ae747a4f82d37217","2025-07-09T09:19:25.424Z","","","","","","drsp","{""Q01"":""2"",""Q02"":""2"",""Q03"":""0"",""Q04"":""3"",""Q05"":""0"",""Q06"":""3"",""Q07"":""1"",""Q08"":""0"",""Q09"":""1"",""Q10"":""1"",""Q11"":""4"",""Q12"":""3"",""Q13"":""3"",""Q14"":""3"",""Q15"":""0"",""Q16"":""4"",""Q17"":""3"",""Q18"":""3"",""Q19"":""2"",""Q20"":""1"",""Q21"":""0""}","[0,1,2,3,4,5,6,7,8,9,10,11,12,13,14,15,16,17,18,19,20]","[""Q01"",""Q02"",""Q04"",""Q05"",""Q06"",""Q07"",""Q08"",""Q09"",""Q10"",""Q11"",""Q12"",""Q13"",""Q14"",""Q15"",""Q16"",""Q17"",""Q18"",""Q18"",""Q19"",""Q20"",""Q21"",""Q03""]","[3313.600000023842,4580.400000035763,10647.400000035763,11597,14997.5,17164.200000047684,21148,22614.200000047684,24881.600000023842,29781.600000023842,32065,34281.80000001192,38015.40000003576,45065.30000001192,47332.10000002384,48932.40000003576,56949.60000002384,58899.60000002384,68099.90000003576,73083.30000001192,76983.60000002384,82702.40000003576]","[]","[0.10000002384185791,3313.600000023842,4580.400000035763,7830.200000047684,10647.400000035763,11597,14997.5,17164.200000047684,19581.400000035763,21148,22614.200000047684,24881.600000023842,29781.600000023842,32065,34281.80000001192,38015.40000003576,45065.30000001192,47332.10000002384,48932.40000003576,56949.60000002384,58899.60000002384,68099.90000003576,71767.30000001192,73083.30000001192,76983.60000002384,78317.20000004768,82702.40000003576,86017.80000001192]","0.3333333333333333","0.35","0","","","","","","","","","","","","","","","","","","","","","","","","","","","","",""
"13291.300000011921","","","","survey-template","18","740845","0.0-7.0-8.0","50","1","2025-07-09 09:07:15","7701e855f2ef39aa3fd6c71abdc6918a","41.150.37.225","Mozilla/5.0 (Macintosh; Intel Mac OS X 10_15_7) AppleWebKit/537.36 (KHTML, like Gecko) Chrome/137.0.0.0 Safari/537.36","Macintosh","Chrome","137.0.0.0","OS X","10_15_7","https://app.prolific.com/","en-US,en;q=0.9","61196260ae747a4f82d37217","686d226cabeef709c732f8e1","686e313b6fd82e036846dd16","61196260ae747a4f82d37217","2025-07-09T09:19:38.717Z","","","","","","stress","{""Q01"":""3"",""Q02"":""2"",""Q03"":""1""}","[0,1,2]","[""Q01"",""Q02"",""Q03""]","[4873.800000011921,8623.900000035763,12257.300000011921]","[]","[4873.800000011921,8623.900000035763,12257.300000011921,13290]","0.6666666666666666","0","0","","","","","","","","","","","","","","","","","","","","","","","","","","","","",""
"129422","","","","instructions","19","870355","0.0-8.0-0.0","50","1","2025-07-09 09:07:15","7701e855f2ef39aa3fd6c71abdc6918a","41.150.37.225","Mozilla/5.0 (Macintosh; Intel Mac OS X 10_15_7) AppleWebKit/537.36 (KHTML, like Gecko) Chrome/137.0.0.0 Safari/537.36","Macintosh","Chrome","137.0.0.0","OS X","10_15_7","https://app.prolific.com/","en-US,en;q=0.9","61196260ae747a4f82d37217","686d226cabeef709c732f8e1","686e313b6fd82e036846dd16","61196260ae747a4f82d37217","","[{""page_index"":0,""viewing_time"":35416},{""page_index"":1,""viewing_time"":26368},{""page_index"":2,""viewing_time"":31236},{""page_index"":3,""viewing_time"":36402}]","","","","","","","","","","","","","","","","","","","","","","","","","","","","","","","","","","","","","","","","","","",""
"","","","","ctl-task-cpt","20","899614","0.0-8.0-1.0","50","1","2025-07-09 09:07:15","7701e855f2ef39aa3fd6c71abdc6918a","41.150.37.225","Mozilla/5.0 (Macintosh; Intel Mac OS X 10_15_7) AppleWebKit/537.36 (KHTML, like Gecko) Chrome/137.0.0.0 Safari/537.36","Macintosh","Chrome","137.0.0.0","OS X","10_15_7","https://app.prolific.com/","en-US,en;q=0.9","61196260ae747a4f82d37217","686d226cabeef709c732f8e1","686e313b6fd82e036846dd16","61196260ae747a4f82d37217","","","","","","","","","","","","","","","","","win-only","1","g1:NE,g2:SW","1","0","1","874560.4","2178.7","6181.9","26251.9","2","4","4","6","1","-2","-6","0","0","0","4003.1","4000","-3005","[""up"",""right""]","{""num_key_presses"":11,""num_perfect"":1,""num_errors"":4,""num_randdir"":0,""num_randdir_good_moves"":0,""num_whilered"":6,""num_whileblue"":0,""num_blue"":1,""num_good_moves"":1}","[696.2857142857143,688.0825892857143,0.2,696.2857142857143,688.0825892857143,101.7,696.2857142857143,688.0825892857143,202.5,696.2857142857143,688.0825892857143,306.9,696.2857142857143,688.0825892857143,407.1,696.2857142857143,688.0825892857143,507.2,706.2857142857143,692.0825892857143,607.9,718.2857142857143,704.0825892857143,712,722.2857142857143,708.0825892857143,812.7,724.2857142857143,716.0825892857143,918.2,730.2857142857143,788.0825892857143,1022,730.2857142857143,798.0825892857143,1122.2,730.2857142857143,798.0825892857143,1227.8,730.2857142857143,798.0825892857143,1332.1,732.2857142857143,798.0825892857143,1433.2,732.2857142857143,798.0825892857143,1537.3,732.2857142857143,798.0825892857143,1642.6,732.2857142857143,798.0825892857143,1748.1,732.2857142857143,798.0825892857143,1852.7,732.2857142857143,798.0825892857143,1957.1,732.2857142857143,798.0825892857143,2062.6,732.2857142857143,798.0825892857143,2169.7,732.2857142857143,798.0825892857143,2272.2,732.2857142857143,798.0825892857143,2372.8,732.2857142857143,798.0825892857143,2477.9,732.2857142857143,798.0825892857143,2582.5,732.2857142857143,798.0825892857143,2687,732.2857142857143,798.0825892857143,2792.6,732.2857142857143,798.0825892857143,2893.3,732.2857142857143,798.0825892857143,2997.5,732.2857142857143,798.0825892857143,3098.2,732.2857142857143,798.0825892857143,3201.6,732.2857142857143,798.0825892857143,3301.6,732.2857142857143,798.0825892857143,3401.9,732.2857142857143,798.0825892857143,3502,732.2857142857143,798.0825892857143,3602.2,732.2857142857143,798.0825892857143,3707.1,732.2857142857143,798.0825892857143,3807.8,732.2857142857143,798.0825892857143,3907.9]","[8.9,9.1,1000,0,-990.9,""error"",""-"",""-"",""no_move"",207.6,198.3,1000,0,-792.4,""while_red"",""-"",""-"",""no_move"",2949,2939.7,2116.6,1009.7,-177.3,""error"",""-"",""-"",""no_move"",12786.5,9837.2,2915.1,7464.9,2406.5,""smooth"",""up"",""up"",""good_move"",12991.8,204.6,2448.7,12787.2,-2244.1,""error"",""-"",""-"",""no_move"",13031.2,39.1,2448.7,12787.2,-2204.7,""while_red"",""-"",""-"",""no_move"",13169.8,177.7,2448.7,12787.2,-2066.1,""while_red"",""-"",""-"",""no_move"",13402.5,410.4,2448.7,12787.2,-1833.4,""while_red"",""-"",""-"",""no_move"",13568.8,576.7,2448.7,12787.2,-1667.1,""while_red"",""-"",""-"",""no_move"",13899.3,907.2,2448.7,12787.2,-1336.5,""while_red"",""-"",""-"",""no_move"",14053.7,1061.7,3038.7,13994.8,-2979.7,""error"",""-"",""-"",""no_move""]","",""
"65327","","","","instructions","21","964940","0.0-8.0-2.0","50","1","2025-07-09 09:07:15","7701e855f2ef39aa3fd6c71abdc6918a","41.150.37.225","Mozilla/5.0 (Macintosh; Intel Mac OS X 10_15_7) AppleWebKit/537.36 (KHTML, like Gecko) Chrome/137.0.0.0 Safari/537.36","Macintosh","Chrome","137.0.0.0","OS X","10_15_7","https://app.prolific.com/","en-US,en;q=0.9","61196260ae747a4f82d37217","686d226cabeef709c732f8e1","686e313b6fd82e036846dd16","61196260ae747a4f82d37217","","[{""page_index"":0,""viewing_time"":65326}]","","","","","","","","","","","","","","","","","","","","","","","","","","","","","","","","","","","","","","","","","","",""
"","","","","ctl-task-cpt","22","1015727","0.0-8.0-3.0","50","1","2025-07-09 09:07:15","7701e855f2ef39aa3fd6c71abdc6918a","41.150.37.225","Mozilla/5.0 (Macintosh; Intel Mac OS X 10_15_7) AppleWebKit/537.36 (KHTML, like Gecko) Chrome/137.0.0.0 Safari/537.36","Macintosh","Chrome","137.0.0.0","OS X","10_15_7","https://app.prolific.com/","en-US,en;q=0.9","61196260ae747a4f82d37217","686d226cabeef709c732f8e1","686e313b6fd82e036846dd16","61196260ae747a4f82d37217","","","","","","","","","","","","","","","","","win-only","1","g1:NE,g2:SW","0.35","0","3","969147.3","9798.6","13800.5","47775.9","2","4","8","6","1","-2","-8","0","0","0","1600.4","4000","-3005","[""up"",""right""]","{""num_key_presses"":17,""num_perfect"":2,""num_errors"":6,""num_randdir"":2,""num_randdir_good_moves"":1,""num_whilered"":7,""num_whileblue"":1,""num_blue"":4,""num_good_moves"":3}","[696.2857142857143,700.0825892857143,0.3,696.2857142857143,700.0825892857143,101.6,696.2857142857143,700.0825892857143,202.4,696.2857142857143,700.0825892857143,307.4,696.2857142857143,700.0825892857143,411.6,696.2857142857143,700.0825892857143,512.7,700.2857142857143,698.0825892857143,617.1,714.2857142857143,688.0825892857143,717.2,722.2857142857143,682.0825892857143,822.7,754.2857142857143,650.0825892857143,927.1,926.2857142857143,510.0825892857143,1027.6,1000.2857142857143,466.0825892857143,1132.2,1004.2857142857143,460.0825892857143,1232.8,1162.2857142857142,240.08258928571428,1337,1260.2857142857142,136.08258928571428,1442.1,1332.2857142857142,62.08258928571429,1543,1332.2857142857142,62.08258928571429,1647.7,1332.2857142857142,64.08258928571429,1751.8,1332.2857142857142,64.08258928571429,1852.2,1332.2857142857142,64.08258928571429,1952.4,1304.2857142857142,108.08258928571429,2056.9,762.2857142857143,712.0825892857143,2157.7,520.2857142857143,992.0825892857143,2262.4,506.2857142857143,998.0825892857143,2367.5,506.2857142857143,998.0825892857143,2467.6,848.2857142857143,730.0825892857143,2573,896.2857142857143,686.0825892857143,2677.8,894.2857142857143,686.0825892857143,2782.5,894.2857142857143,686.0825892857143,2886.7,876.2857142857143,664.0825892857143,2987.3,860.2857142857143,636.0825892857143,3092.1,860.2857142857143,636.0825892857143,3192.4,860.2857142857143,636.0825892857143,3297.4,850.2857142857143,618.0825892857143,3402,842.2857142857143,604.0825892857143,3507.8,842.2857142857143,604.0825892857143,3612.8,842.2857142857143,602.0825892857143,3716.8,842.2857142857143,602.0825892857143,3817.1,842.2857142857143,602.0825892857143,3917.3]","[2929.3,2929.3,1000,0,1929.4,""smooth"",""up"",""up"",""good_move"",3133.8,204,2586,2929.8,-2382,""error"",""-"",""-"",""no_move"",3409.1,275,2586,2929.8,-2106.7,""while_red"",""-"",""-"",""no_move"",3583.8,449.7,2586,2929.8,-1932,""while_red"",""-"",""-"",""no_move"",13735.3,10601.2,2790.3,10525.1,419.9,""while_blue"",""up"",""left"",""bad_move"",17168.6,3432.9,2771.3,13735.7,661.7,""smooth"",""up"",""up"",""good_move"",17383.8,214.7,2653.8,17169.1,-2439.1,""error"",""-"",""-"",""no_move"",24042.4,6658.4,2210.6,21320.6,511.2,""oops"",""right"",""down"",""bad_move"",24200,157.3,2785.8,24042.7,-2628.5,""error"",""-"",""-"",""no_move"",24419.1,219,2785.8,24042.7,-2409.4,""while_red"",""-"",""-"",""no_move"",24789.1,589,2785.8,24042.7,-2039.4,""while_red"",""-"",""-"",""no_move"",24966.9,766.8,2785.8,24042.7,-1861.6,""while_red"",""-"",""-"",""no_move"",25134.8,934.7,2785.8,24042.7,-1693.7,""while_red"",""-"",""-"",""no_move"",25343.5,1143.4,2713.8,25200.8,-2571.1,""error"",""-"",""-"",""no_move"",30053.6,4709.9,3070.4,26345.7,637.5,""oops"",""right"",""up"",""good_move"",30215.3,161.5,2507,30053.8,-2345.5,""error"",""-"",""-"",""no_move"",30468.2,252.6,2507,30053.8,-2092.6,""while_red"",""-"",""-"",""no_move""]","",""
"62217","","","","instructions","23","1077944","0.0-8.0-4.0","50","1","2025-07-09 09:07:15","7701e855f2ef39aa3fd6c71abdc6918a","41.150.37.225","Mozilla/5.0 (Macintosh; Intel Mac OS X 10_15_7) AppleWebKit/537.36 (KHTML, like Gecko) Chrome/137.0.0.0 Safari/537.36","Macintosh","Chrome","137.0.0.0","OS X","10_15_7","https://app.prolific.com/","en-US,en;q=0.9","61196260ae747a4f82d37217","686d226cabeef709c732f8e1","686e313b6fd82e036846dd16","61196260ae747a4f82d37217","","[{""page_index"":0,""viewing_time"":21964},{""page_index"":1,""viewing_time"":40253}]","","","","","","","","","","","","","","","","","","","","","","","","","","","","","","","","","","","","","","","","","","",""
"15664","","","{""green_ball"":[""Ball always moves in the direction I press""]}","survey-multi-select","24","1093610","0.0-8.0-5.0-0.0","50","1","2025-07-09 09:07:15","7701e855f2ef39aa3fd6c71abdc6918a","41.150.37.225","Mozilla/5.0 (Macintosh; Intel Mac OS X 10_15_7) AppleWebKit/537.36 (KHTML, like Gecko) Chrome/137.0.0.0 Safari/537.36","Macintosh","Chrome","137.0.0.0","OS X","10_15_7","https://app.prolific.com/","en-US,en;q=0.9","61196260ae747a4f82d37217","686d226cabeef709c732f8e1","686e313b6fd82e036846dd16","61196260ae747a4f82d37217","","","[0]","","","","quiz","","","","","","","","","","","","","","","","","","","","","","","","","","","","","","","","","","","","","false",""
"7466","","<p align='center'><b>INCORRECT.</b> Usually the green ball moves in the indicated direction, but sometimes it shakes and moves randomly. </p>","0","html-button-response","25","1101078","0.0-8.0-5.0-1.0","50","1","2025-07-09 09:07:15","7701e855f2ef39aa3fd6c71abdc6918a","41.150.37.225","Mozilla/5.0 (Macintosh; Intel Mac OS X 10_15_7) AppleWebKit/537.36 (KHTML, like Gecko) Chrome/137.0.0.0 Safari/537.36","Macintosh","Chrome","137.0.0.0","OS X","10_15_7","https://app.prolific.com/","en-US,en;q=0.9","61196260ae747a4f82d37217","686d226cabeef709c732f8e1","686e313b6fd82e036846dd16","61196260ae747a4f82d37217","","","","","","","","","","","","","","","","","","","","","","","","","","","","","","","","","","","","","","","","","","","","",""
"12083","","","{""green_ball"":[""Ball sometimes shakes and moves in a random direction""]}","survey-multi-select","26","1113162","0.0-8.0-5.1-0.1","50","1","2025-07-09 09:07:15","7701e855f2ef39aa3fd6c71abdc6918a","41.150.37.225","Mozilla/5.0 (Macintosh; Intel Mac OS X 10_15_7) AppleWebKit/537.36 (KHTML, like Gecko) Chrome/137.0.0.0 Safari/537.36","Macintosh","Chrome","137.0.0.0","OS X","10_15_7","https://app.prolific.com/","en-US,en;q=0.9","61196260ae747a4f82d37217","686d226cabeef709c732f8e1","686e313b6fd82e036846dd16","61196260ae747a4f82d37217","","","[0]","","","","quiz","","","","","","","","","","","","","","","","","","","","","","","","","","","","","","","","","","","","","true",""
"1864","","<p align='center'><b>CORRECT!</b> Indeed, the green ball may sometimes shake and move in a random direction.</p>","0","html-button-response","27","1115027","0.0-8.0-5.1-1.1","50","1","2025-07-09 09:07:15","7701e855f2ef39aa3fd6c71abdc6918a","41.150.37.225","Mozilla/5.0 (Macintosh; Intel Mac OS X 10_15_7) AppleWebKit/537.36 (KHTML, like Gecko) Chrome/137.0.0.0 Safari/537.36","Macintosh","Chrome","137.0.0.0","OS X","10_15_7","https://app.prolific.com/","en-US,en;q=0.9","61196260ae747a4f82d37217","686d226cabeef709c732f8e1","686e313b6fd82e036846dd16","61196260ae747a4f82d37217","","","","","","","","","","","","","","","","","","","","","","","","","","","","","","","","","","","","","","","","","","","","",""
"28452","","","{""yellow_ball"":[""Ball doesn‘t move and I get -1 penalty point""]}","survey-multi-select","28","1143480","0.0-8.0-6.0-0.0","50","1","2025-07-09 09:07:15","7701e855f2ef39aa3fd6c71abdc6918a","41.150.37.225","Mozilla/5.0 (Macintosh; Intel Mac OS X 10_15_7) AppleWebKit/537.36 (KHTML, like Gecko) Chrome/137.0.0.0 Safari/537.36","Macintosh","Chrome","137.0.0.0","OS X","10_15_7","https://app.prolific.com/","en-US,en;q=0.9","61196260ae747a4f82d37217","686d226cabeef709c732f8e1","686e313b6fd82e036846dd16","61196260ae747a4f82d37217","","","[0]","","","","quiz","","","","","","","","","","","","","","","","","","","","","","","","","","","","","","","","","","","","","true",""
"1715","","<p align='center'><b>CORRECT!</b> Indeed, the yellow ball never moves and you receive a penalty.</p>","0","html-button-response","29","1145197","0.0-8.0-6.0-1.0","50","1","2025-07-09 09:07:15","7701e855f2ef39aa3fd6c71abdc6918a","41.150.37.225","Mozilla/5.0 (Macintosh; Intel Mac OS X 10_15_7) AppleWebKit/537.36 (KHTML, like Gecko) Chrome/137.0.0.0 Safari/537.36","Macintosh","Chrome","137.0.0.0","OS X","10_15_7","https://app.prolific.com/","en-US,en;q=0.9","61196260ae747a4f82d37217","686d226cabeef709c732f8e1","686e313b6fd82e036846dd16","61196260ae747a4f82d37217","","","","","","","","","","","","","","","","","","","","","","","","","","","","","","","","","","","","","","","","","","","","",""
"12347","","","{""blue_ball"":[""Ball always shakes and moves in a random direction""]}","survey-multi-select","30","1157545","0.0-8.0-7.0-0.0","50","1","2025-07-09 09:07:15","7701e855f2ef39aa3fd6c71abdc6918a","41.150.37.225","Mozilla/5.0 (Macintosh; Intel Mac OS X 10_15_7) AppleWebKit/537.36 (KHTML, like Gecko) Chrome/137.0.0.0 Safari/537.36","Macintosh","Chrome","137.0.0.0","OS X","10_15_7","https://app.prolific.com/","en-US,en;q=0.9","61196260ae747a4f82d37217","686d226cabeef709c732f8e1","686e313b6fd82e036846dd16","61196260ae747a4f82d37217","","","[0]","","","","quiz","","","","","","","","","","","","","","","","","","","","","","","","","","","","","","","","","","","","","true",""
"3716","","<p align='center'><b>CORRECT!</b> Indeed, the blue ball always shakes and moves in a random direction. Also there is a penalty of -1 point.</p>","0","html-button-response","31","1161263","0.0-8.0-7.0-1.0","50","1","2025-07-09 09:07:15","7701e855f2ef39aa3fd6c71abdc6918a","41.150.37.225","Mozilla/5.0 (Macintosh; Intel Mac OS X 10_15_7) AppleWebKit/537.36 (KHTML, like Gecko) Chrome/137.0.0.0 Safari/537.36","Macintosh","Chrome","137.0.0.0","OS X","10_15_7","https://app.prolific.com/","en-US,en;q=0.9","61196260ae747a4f82d37217","686d226cabeef709c732f8e1","686e313b6fd82e036846dd16","61196260ae747a4f82d37217","","","","","","","","","","","","","","","","","","","","","","","","","","","","","","","","","","","","","","","","","","","","",""
"4817","","","{""bonus"":[""When I reach 50% of points""]}","survey-multi-select","32","1166081","0.0-8.0-8.0-0.0","50","1","2025-07-09 09:07:15","7701e855f2ef39aa3fd6c71abdc6918a","41.150.37.225","Mozilla/5.0 (Macintosh; Intel Mac OS X 10_15_7) AppleWebKit/537.36 (KHTML, like Gecko) Chrome/137.0.0.0 Safari/537.36","Macintosh","Chrome","137.0.0.0","OS X","10_15_7","https://app.prolific.com/","en-US,en;q=0.9","61196260ae747a4f82d37217","686d226cabeef709c732f8e1","686e313b6fd82e036846dd16","61196260ae747a4f82d37217","","","[0]","","","","quiz","","","","","","","","","","","","","","","","","","","","","","","","","","","","","","","","","","","","","true",""
"1446","","<p align='center'><b>CORRECT!</b> Indeed, you receive 2 pounds extra when you reach 50% of points.</p>","0","html-button-response","33","1167528","0.0-8.0-8.0-1.0","50","1","2025-07-09 09:07:15","7701e855f2ef39aa3fd6c71abdc6918a","41.150.37.225","Mozilla/5.0 (Macintosh; Intel Mac OS X 10_15_7) AppleWebKit/537.36 (KHTML, like Gecko) Chrome/137.0.0.0 Safari/537.36","Macintosh","Chrome","137.0.0.0","OS X","10_15_7","https://app.prolific.com/","en-US,en;q=0.9","61196260ae747a4f82d37217","686d226cabeef709c732f8e1","686e313b6fd82e036846dd16","61196260ae747a4f82d37217","","","","","","","","","","","","","","","","","","","","","","","","","","","","","","","","","","","","","","","","","","","","",""
"3520","","","","instructions","34","1171048","0.0-8.0-9.0","50","1","2025-07-09 09:07:15","7701e855f2ef39aa3fd6c71abdc6918a","41.150.37.225","Mozilla/5.0 (Macintosh; Intel Mac OS X 10_15_7) AppleWebKit/537.36 (KHTML, like Gecko) Chrome/137.0.0.0 Safari/537.36","Macintosh","Chrome","137.0.0.0","OS X","10_15_7","https://app.prolific.com/","en-US,en;q=0.9","61196260ae747a4f82d37217","686d226cabeef709c732f8e1","686e313b6fd82e036846dd16","61196260ae747a4f82d37217","","[{""page_index"":0,""viewing_time"":3520}]","","","","","","","","","","","","","","","","","","","","","","","","","","","","","","","","","","","","","","","","","","",""
"20716","","<p>Before you start with this game please answer the following three questions yourself. </p>
  <p>Through this game, we measure several aspects of your cognitive performance, such as reaction times, multi-tasking capabilities </p>
  <p>and the ability to assess the situation you are in.</p>
  <p></p>
  <p><b>How good do you usually are in such tasks?</b></p>","65","html-slider-response","35","1191765","0.0-9.0-0.0","50","1","2025-07-09 09:07:15","7701e855f2ef39aa3fd6c71abdc6918a","41.150.37.225","Mozilla/5.0 (Macintosh; Intel Mac OS X 10_15_7) AppleWebKit/537.36 (KHTML, like Gecko) Chrome/137.0.0.0 Safari/537.36","Macintosh","Chrome","137.0.0.0","OS X","10_15_7","https://app.prolific.com/","en-US,en;q=0.9","61196260ae747a4f82d37217","686d226cabeef709c732f8e1","686e313b6fd82e036846dd16","61196260ae747a4f82d37217","2025-07-09T09:27:09.637Z","","","","","","PreSkillQ","","","","","","","","","","","","","","","","","","","","","","","","","","","","","","","","","","","","","","50"
"6946","","<div style=""width:500px;"">
  <p>How well do you think you will perform in this task compared to other participants?</p>
  </div>","56","html-slider-response","36","1198713","0.0-9.0-1.0","50","1","2025-07-09 09:07:15","7701e855f2ef39aa3fd6c71abdc6918a","41.150.37.225","Mozilla/5.0 (Macintosh; Intel Mac OS X 10_15_7) AppleWebKit/537.36 (KHTML, like Gecko) Chrome/137.0.0.0 Safari/537.36","Macintosh","Chrome","137.0.0.0","OS X","10_15_7","https://app.prolific.com/","en-US,en;q=0.9","61196260ae747a4f82d37217","686d226cabeef709c732f8e1","686e313b6fd82e036846dd16","61196260ae747a4f82d37217","2025-07-09T09:27:16.585Z","","","","","","PrePerfQ","","","","","","","","","","","","","","","","","","","","","","","","","","","","","","","","","","","","","","50"
"5735","","<div style=""width:500px;"">
  <p>What best describes how you currently feel?</p>
  </div>","54","html-slider-response","37","1204448","0.0-9.0-2.0","50","1","2025-07-09 09:07:15","7701e855f2ef39aa3fd6c71abdc6918a","41.150.37.225","Mozilla/5.0 (Macintosh; Intel Mac OS X 10_15_7) AppleWebKit/537.36 (KHTML, like Gecko) Chrome/137.0.0.0 Safari/537.36","Macintosh","Chrome","137.0.0.0","OS X","10_15_7","https://app.prolific.com/","en-US,en;q=0.9","61196260ae747a4f82d37217","686d226cabeef709c732f8e1","686e313b6fd82e036846dd16","61196260ae747a4f82d37217","2025-07-09T09:27:22.320Z","","","","","","PreMotivationQ","","","","","","","","","","","","","","","","","","","","","","","","","","","","","","","","","","","","","","50"
"","","","","ctl-task-cpt","38","1239168","0.0-10.0-0.0","50","1","2025-07-09 09:07:15","7701e855f2ef39aa3fd6c71abdc6918a","41.150.37.225","Mozilla/5.0 (Macintosh; Intel Mac OS X 10_15_7) AppleWebKit/537.36 (KHTML, like Gecko) Chrome/137.0.0.0 Safari/537.36","Macintosh","Chrome","137.0.0.0","OS X","10_15_7","https://app.prolific.com/","en-US,en;q=0.9","61196260ae747a4f82d37217","686d226cabeef709c732f8e1","686e313b6fd82e036846dd16","61196260ae747a4f82d37217","2025-07-09T09:27:57.040Z","","","","","","","","","","","","","","","","win-only","3","g1:SW,g2:NE","1","1","0","1208660.6","1963","6966.6","31714.8","1","4","8","6","2","-8","-13","0","0","0","1733.3","3000","-2985","[""up"",""right""]","{""num_key_presses"":10,""num_perfect"":4,""num_errors"":5,""num_randdir"":0,""num_randdir_good_moves"":0,""num_whilered"":1,""num_whileblue"":0,""num_blue"":1,""num_good_moves"":4}","[698.2857142857143,700.0825892857143,0.2,698.2857142857143,700.0825892857143,103.1,698.2857142857143,700.0825892857143,203.2,698.2857142857143,700.0825892857143,308.8,698.2857142857143,700.0825892857143,413.1,698.2857142857143,700.0825892857143,513.5,698.2857142857143,698.0825892857143,617.9,698.2857142857143,698.0825892857143,717.9,696.2857142857143,698.0825892857143,818.2,650.2857142857143,750.0825892857143,923.7,650.2857142857143,744.0825892857143,1023.7,500.2857142857143,906.0825892857143,1128,1038.2857142857142,242.08258928571428,1228,1314.2857142857142,16.082589285714292,1328.6,1354.2857142857142,-17.917410714285708,1432.7,1322.2857142857142,32.08258928571429,1533.5,1256.2857142857142,118.08258928571429,1637.5,1250.2857142857142,120.08258928571429,1738.5,1250.2857142857142,122.08258928571429,1843,1250.2857142857142,122.08258928571429,1943.5,1250.2857142857142,122.08258928571429,2048.5,1248.2857142857142,126.08258928571429,2153.2,1244.2857142857142,134.08258928571428,2253.5,1180.2857142857142,226.08258928571428,2358.5,910.2857142857143,522.0825892857143,2458.7,750.2857142857143,654.0825892857143,2563.8,750.2857142857143,654.0825892857143,2669.6,734.2857142857143,676.0825892857143,2771,608.2857142857143,796.0825892857143,2873.1,560.2857142857143,834.0825892857143,2977.2,558.2857142857143,834.0825892857143,3078.2,558.2857142857143,832.0825892857143,3183.9,558.2857142857143,830.0825892857143,3288.3,558.2857142857143,828.0825892857143,3393.3,558.2857142857143,828.0825892857143,3498.3,558.2857142857143,828.0825892857143,3602.8,558.2857142857143,828.0825892857143,3704,558.2857142857143,828.0825892857143,3808.6,558.2857142857143,828.0825892857143,3913.6,558.2857142857143,828.0825892857143,4017.8,558.2857142857143,828.0825892857143,4118.5,558.2857142857143,828.0825892857143,4218.6,558.2857142857143,828.0825892857143,4318.6,558.2857142857143,828.0825892857143,4422.8,558.2857142857143,828.0825892857143,4523.4,558.2857142857143,828.0825892857143,4628.6,558.2857142857143,828.0825892857143,4734.5,558.2857142857143,828.0825892857143,4837.3,558.2857142857143,828.0825892857143,4937.6]","[2301.7,2301.7,1000,0,1301.7,""smooth"",""up"",""up"",""good_move"",2483.2,181,3042.6,2302.2,-2861.6,""error"",""-"",""-"",""no_move"",2672.8,189.4,3042.6,2302.2,-2672,""while_red"",""-"",""-"",""no_move"",6290.2,3806.8,2177.4,3484.3,628.5,""smooth"",""up"",""up"",""good_move"",6465.9,175.4,2203.9,6290.5,-2028.5,""error"",""-"",""-"",""no_move"",10042,3575.9,2103.8,7469.6,468.7,""smooth"",""up"",""up"",""good_move"",11270.8,1228.6,2812.5,10042.2,-1583.9,""error"",""-"",""-"",""no_move"",15917.5,4646.5,3121.2,12274.4,521.9,""smooth"",""right"",""right"",""good_move"",16306.7,388.8,2693.5,15917.9,-2304.7,""error"",""-"",""-"",""no_move"",21014.4,4707.5,2058,20525.2,-1568.8,""error"",""-"",""-"",""no_move""]","",""
"6812","","<div style=""width:500px;"">
  <p>What determined the result of this run?</p>
  </div>","17","html-slider-response","39","1245981","0.0-10.0-1.0","50","1","2025-07-09 09:07:15","7701e855f2ef39aa3fd6c71abdc6918a","41.150.37.225","Mozilla/5.0 (Macintosh; Intel Mac OS X 10_15_7) AppleWebKit/537.36 (KHTML, like Gecko) Chrome/137.0.0.0 Safari/537.36","Macintosh","Chrome","137.0.0.0","OS X","10_15_7","https://app.prolific.com/","en-US,en;q=0.9","61196260ae747a4f82d37217","686d226cabeef709c732f8e1","686e313b6fd82e036846dd16","61196260ae747a4f82d37217","2025-07-09T09:28:03.853Z","","","","","","AttribQ","","","","","","","","","","","","","","","","","","","","","","","","","","","","","","","","","","","","","","50"
"4949","","<div style=""width:500px;"">
  <p>How much control did you have over the ball?</p>
  </div>","40","html-slider-response","40","1250931","0.0-10.0-2.0","50","1","2025-07-09 09:07:15","7701e855f2ef39aa3fd6c71abdc6918a","41.150.37.225","Mozilla/5.0 (Macintosh; Intel Mac OS X 10_15_7) AppleWebKit/537.36 (KHTML, like Gecko) Chrome/137.0.0.0 Safari/537.36","Macintosh","Chrome","137.0.0.0","OS X","10_15_7","https://app.prolific.com/","en-US,en;q=0.9","61196260ae747a4f82d37217","686d226cabeef709c732f8e1","686e313b6fd82e036846dd16","61196260ae747a4f82d37217","2025-07-09T09:28:08.803Z","","","","","","ControlQ","","","","","","","","","","","","","","","","","","","","","","","","","","","","","","","","","","","","","","50"
"5266","","<div style=""width:500px;"">
  <p>How would you describe your current emotional state?</p>
  </div>","42","html-slider-response","41","1256199","0.0-10.0-3.0","50","1","2025-07-09 09:07:15","7701e855f2ef39aa3fd6c71abdc6918a","41.150.37.225","Mozilla/5.0 (Macintosh; Intel Mac OS X 10_15_7) AppleWebKit/537.36 (KHTML, like Gecko) Chrome/137.0.0.0 Safari/537.36","Macintosh","Chrome","137.0.0.0","OS X","10_15_7","https://app.prolific.com/","en-US,en;q=0.9","61196260ae747a4f82d37217","686d226cabeef709c732f8e1","686e313b6fd82e036846dd16","61196260ae747a4f82d37217","2025-07-09T09:28:14.071Z","","","","","","StressQ","","","","","","","","","","","","","","","","","","","","","","","","","","","","","","","","","","","","","","50"
"5148","","<div style=""width:500px;"">
  <p>What best describes how you currently feel?</p>
  </div>","55","html-slider-response","42","1261348","0.0-10.0-4.0","50","1","2025-07-09 09:07:15","7701e855f2ef39aa3fd6c71abdc6918a","41.150.37.225","Mozilla/5.0 (Macintosh; Intel Mac OS X 10_15_7) AppleWebKit/537.36 (KHTML, like Gecko) Chrome/137.0.0.0 Safari/537.36","Macintosh","Chrome","137.0.0.0","OS X","10_15_7","https://app.prolific.com/","en-US,en;q=0.9","61196260ae747a4f82d37217","686d226cabeef709c732f8e1","686e313b6fd82e036846dd16","61196260ae747a4f82d37217","2025-07-09T09:28:19.220Z","","","","","","MotivationQ","","","","","","","","","","","","","","","","","","","","","","","","","","","","","","","","","","","","","","50"
"","","","","ctl-task-cpt","43","1296950","0.0-10.0-0.1","50","1","2025-07-09 09:07:15","7701e855f2ef39aa3fd6c71abdc6918a","41.150.37.225","Mozilla/5.0 (Macintosh; Intel Mac OS X 10_15_7) AppleWebKit/537.36 (KHTML, like Gecko) Chrome/137.0.0.0 Safari/537.36","Macintosh","Chrome","137.0.0.0","OS X","10_15_7","https://app.prolific.com/","en-US,en;q=0.9","61196260ae747a4f82d37217","686d226cabeef709c732f8e1","686e313b6fd82e036846dd16","61196260ae747a4f82d37217","2025-07-09T09:28:54.822Z","","","","","","","","","","","","","","","","win-only","0","g1:NW,g2:SE","0.9","2","0","1265561.4","1566.3","6572.5","32591.1","1","4","4","6","2","-4","-7","0","0","0","2135","3000","-3000","[""down"",""right""]","{""num_key_presses"":8,""num_perfect"":4,""num_errors"":3,""num_randdir"":1,""num_randdir_good_moves"":0,""num_whilered"":0,""num_whileblue"":0,""num_blue"":1,""num_good_moves"":4}","[692.2857142857143,698.0825892857143,0.1,692.2857142857143,698.0825892857143,101.8,692.2857142857143,698.0825892857143,202,692.2857142857143,698.0825892857143,304.1,692.2857142857143,698.0825892857143,404.1,692.2857142857143,698.0825892857143,504.9,692.2857142857143,698.0825892857143,609.8,712.2857142857143,714.0825892857143,714,842.2857142857143,960.0825892857143,814.6,852.2857142857143,1014.0825892857143,919.2,852.2857142857143,1014.0825892857143,1019.2,852.2857142857143,1014.0825892857143,1124.8,914.2857142857143,1022.0825892857143,1230.1,1028.2857142857142,1106.0825892857142,1334.8,858.2857142857143,718.0825892857143,1438.8,1176.2857142857142,1056.0825892857142,1540,1388.2857142857142,1600.0825892857142,1640.4,1394.2857142857142,1590.0825892857142,1744,1358.2857142857142,1494.0825892857142,1845.6,1328.2857142857142,1282.0825892857142,1950.8,1306.2857142857142,1244.0825892857142,2051,1292.2857142857142,1216.0825892857142,2152.7,1292.2857142857142,1216.0825892857142,2252.8,1292.2857142857142,1216.0825892857142,2354,1292.2857142857142,1216.0825892857142,2454.4,1292.2857142857142,1216.0825892857142,2559.3,1292.2857142857142,1216.0825892857142,2664.6,1292.2857142857142,1216.0825892857142,2764.7,1292.2857142857142,1216.0825892857142,2870.4,1292.2857142857142,1214.0825892857142,2974.7,1292.2857142857142,1214.0825892857142,3079,1290.2857142857142,1210.0825892857142,3179,1282.2857142857142,1194.0825892857142,3279.6,1292.2857142857142,1198.0825892857142,3386.7,1292.2857142857142,1198.0825892857142,3487,1292.2857142857142,1198.0825892857142,3589.2,1292.2857142857142,1198.0825892857142,3689.8,1292.2857142857142,1198.0825892857142,3790,1242.2857142857142,1162.0825892857142,3893.9,930.2857142857143,876.0825892857143,3995,918.2857142857143,858.0825892857143,4099.5,918.2857142857143,858.0825892857143,4200.8,918.2857142857143,858.0825892857143,4304.8,918.2857142857143,858.0825892857143,4405,926.2857142857143,876.0825892857143,4509.6,926.2857142857143,876.0825892857143,4614.1,926.2857142857143,876.0825892857143,4714.5,926.2857142857143,876.0825892857143,4819.7,926.2857142857143,876.0825892857143,4928.3]","[1682.3,1682.3,1000,0,682.3,""smooth"",""down"",""down"",""good_move"",2112.4,429.8,3271.5,1682.6,-2841.7,""error"",""-"",""-"",""no_move"",5954.1,3841.4,2206.6,3113.4,634.1,""smooth"",""down"",""down"",""good_move"",12547,6592.7,2247,9580.3,719.7,""smooth"",""down"",""down"",""good_move"",15633,3085.9,2616.7,12547.2,469.2,""oops"",""right"",""left"",""bad_move"",18265.5,2632.2,2139.7,15633.3,492.5,""smooth"",""right"",""right"",""good_move"",20318.2,2052.4,2235.7,18265.8,-183.3,""error"",""-"",""-"",""no_move"",22195.3,1877,2238.7,21318.5,-1361.9,""error"",""-"",""-"",""no_move""]","",""
"8081","","<div style=""width:500px;"">
  <p>What determined the result of this run?</p>
  </div>","23","html-slider-response","44","1305033","0.0-10.0-1.1","50","1","2025-07-09 09:07:15","7701e855f2ef39aa3fd6c71abdc6918a","41.150.37.225","Mozilla/5.0 (Macintosh; Intel Mac OS X 10_15_7) AppleWebKit/537.36 (KHTML, like Gecko) Chrome/137.0.0.0 Safari/537.36","Macintosh","Chrome","137.0.0.0","OS X","10_15_7","https://app.prolific.com/","en-US,en;q=0.9","61196260ae747a4f82d37217","686d226cabeef709c732f8e1","686e313b6fd82e036846dd16","61196260ae747a4f82d37217","2025-07-09T09:29:02.905Z","","","","","","AttribQ","","","","","","","","","","","","","","","","","","","","","","","","","","","","","","","","","","","","","","50"
"4083","","<div style=""width:500px;"">
  <p>How much control did you have over the ball?</p>
  </div>","39","html-slider-response","45","1309116","0.0-10.0-2.1","50","1","2025-07-09 09:07:15","7701e855f2ef39aa3fd6c71abdc6918a","41.150.37.225","Mozilla/5.0 (Macintosh; Intel Mac OS X 10_15_7) AppleWebKit/537.36 (KHTML, like Gecko) Chrome/137.0.0.0 Safari/537.36","Macintosh","Chrome","137.0.0.0","OS X","10_15_7","https://app.prolific.com/","en-US,en;q=0.9","61196260ae747a4f82d37217","686d226cabeef709c732f8e1","686e313b6fd82e036846dd16","61196260ae747a4f82d37217","2025-07-09T09:29:06.988Z","","","","","","ControlQ","","","","","","","","","","","","","","","","","","","","","","","","","","","","","","","","","","","","","","50"
"3649","","<div style=""width:500px;"">
  <p>How would you describe your current emotional state?</p>
  </div>","45","html-slider-response","46","1312766","0.0-10.0-3.1","50","1","2025-07-09 09:07:15","7701e855f2ef39aa3fd6c71abdc6918a","41.150.37.225","Mozilla/5.0 (Macintosh; Intel Mac OS X 10_15_7) AppleWebKit/537.36 (KHTML, like Gecko) Chrome/137.0.0.0 Safari/537.36","Macintosh","Chrome","137.0.0.0","OS X","10_15_7","https://app.prolific.com/","en-US,en;q=0.9","61196260ae747a4f82d37217","686d226cabeef709c732f8e1","686e313b6fd82e036846dd16","61196260ae747a4f82d37217","2025-07-09T09:29:10.638Z","","","","","","StressQ","","","","","","","","","","","","","","","","","","","","","","","","","","","","","","","","","","","","","","50"
"3966","","<div style=""width:500px;"">
  <p>What best describes how you currently feel?</p>
  </div>","55","html-slider-response","47","1316733","0.0-10.0-4.1","50","1","2025-07-09 09:07:15","7701e855f2ef39aa3fd6c71abdc6918a","41.150.37.225","Mozilla/5.0 (Macintosh; Intel Mac OS X 10_15_7) AppleWebKit/537.36 (KHTML, like Gecko) Chrome/137.0.0.0 Safari/537.36","Macintosh","Chrome","137.0.0.0","OS X","10_15_7","https://app.prolific.com/","en-US,en;q=0.9","61196260ae747a4f82d37217","686d226cabeef709c732f8e1","686e313b6fd82e036846dd16","61196260ae747a4f82d37217","2025-07-09T09:29:14.605Z","","","","","","MotivationQ","","","","","","","","","","","","","","","","","","","","","","","","","","","","","","","","","","","","","","50"
"","","","","ctl-task-cpt","48","1341019","0.0-10.0-0.2","50","1","2025-07-09 09:07:15","7701e855f2ef39aa3fd6c71abdc6918a","41.150.37.225","Mozilla/5.0 (Macintosh; Intel Mac OS X 10_15_7) AppleWebKit/537.36 (KHTML, like Gecko) Chrome/137.0.0.0 Safari/537.36","Macintosh","Chrome","137.0.0.0","OS X","10_15_7","https://app.prolific.com/","en-US,en;q=0.9","61196260ae747a4f82d37217","686d226cabeef709c732f8e1","686e313b6fd82e036846dd16","61196260ae747a4f82d37217","2025-07-09T09:29:38.891Z","","","","","","","","","","","","","","","","win-only","3","g1:SW,g2:NE","0.8","3","0","1320947.9","1435.9","6441.5","21275.3","1","4","8","6","2","-8","-8","0","0","0","2316.2","3000","-2975","[""up"",""right""]","{""num_key_presses"":3,""num_perfect"":1,""num_errors"":0,""num_randdir"":2,""num_randdir_good_moves"":2,""num_whilered"":0,""num_whileblue"":0,""num_blue"":1,""num_good_moves"":3}","[688.2857142857143,690.0825892857143,0.1,688.2857142857143,690.0825892857143,104.9,688.2857142857143,690.0825892857143,209.3,688.2857142857143,690.0825892857143,309.4,688.2857142857143,690.0825892857143,409.5,688.2857142857143,690.0825892857143,509.7,688.2857142857143,690.0825892857143,617.1,688.2857142857143,690.0825892857143,717.4,688.2857142857143,690.0825892857143,817.8,688.2857142857143,690.0825892857143,919.3,688.2857142857143,690.0825892857143,1025.1,688.2857142857143,690.0825892857143,1125.1,688.2857142857143,690.0825892857143,1233.9,688.2857142857143,690.0825892857143,1334.3,688.2857142857143,690.0825892857143,1435.1,688.2857142857143,690.0825892857143,1539.7,696.2857142857143,564.0825892857143,1645.3,1054.2857142857142,74.08258928571429,1746.9,1480.2857142857142,-197.91741071428572,1849.3,1512.2857142857142,-83.91741071428571,1950,1394.2857142857142,122.08258928571429,2054.9,1340.2857142857142,174.08258928571428,2159.8,1318.2857142857142,140.08258928571428,2259.8,1314.2857142857142,134.08258928571428,2360.1,1314.2857142857142,134.08258928571428,2460.2,1314.2857142857142,134.08258928571428,2560.2,1314.2857142857142,134.08258928571428,2667.4,1314.2857142857142,134.08258928571428,2767.4,1314.2857142857142,134.08258928571428,2868.1,1314.2857142857142,134.08258928571428,2970.2,1314.2857142857142,134.08258928571428,3074.5,1314.2857142857142,134.08258928571428,3174.9,1314.2857142857142,134.08258928571428,3274.9,1252.2857142857142,212.08258928571428,3381.7,1220.2857142857142,248.08258928571428,3484.7,1220.2857142857142,248.08258928571428,3590.3,1220.2857142857142,248.08258928571428,3694.3,1220.2857142857142,248.08258928571428,3795.1,1220.2857142857142,248.08258928571428,3895.5,1220.2857142857142,248.08258928571428,4000.4,1220.2857142857142,248.08258928571428,4105.4,1220.2857142857142,248.08258928571428,4210.3,1220.2857142857142,248.08258928571428,4317.5,1220.2857142857142,248.08258928571428,4419.3,1220.2857142857142,248.08258928571428,4519.6,1220.2857142857142,248.08258928571428,4625.3,1220.2857142857142,248.08258928571428,4730.2,1220.2857142857142,248.08258928571428,4832.9,1220.2857142857142,248.08258928571428,4934.8]","[1977.1,1977.1,1000,0,977.1,""smooth"",""up"",""up"",""good_move"",8424.9,6447.5,2239,5627.1,558.8,""oops"",""up"",""right"",""good_move"",11474.1,3048.8,2004.6,8425.3,1044.2,""oops"",""up"",""right"",""good_move""]","",""
"5414","","<div style=""width:500px;"">
  <p>What determined the result of this run?</p>
  </div>","3","html-slider-response","49","1346434","0.0-10.0-1.2","50","1","2025-07-09 09:07:15","7701e855f2ef39aa3fd6c71abdc6918a","41.150.37.225","Mozilla/5.0 (Macintosh; Intel Mac OS X 10_15_7) AppleWebKit/537.36 (KHTML, like Gecko) Chrome/137.0.0.0 Safari/537.36","Macintosh","Chrome","137.0.0.0","OS X","10_15_7","https://app.prolific.com/","en-US,en;q=0.9","61196260ae747a4f82d37217","686d226cabeef709c732f8e1","686e313b6fd82e036846dd16","61196260ae747a4f82d37217","2025-07-09T09:29:44.306Z","","","","","","AttribQ","","","","","","","","","","","","","","","","","","","","","","","","","","","","","","","","","","","","","","50"
"4082","","<div style=""width:500px;"">
  <p>How much control did you have over the ball?</p>
  </div>","18","html-slider-response","50","1350517","0.0-10.0-2.2","50","1","2025-07-09 09:07:15","7701e855f2ef39aa3fd6c71abdc6918a","41.150.37.225","Mozilla/5.0 (Macintosh; Intel Mac OS X 10_15_7) AppleWebKit/537.36 (KHTML, like Gecko) Chrome/137.0.0.0 Safari/537.36","Macintosh","Chrome","137.0.0.0","OS X","10_15_7","https://app.prolific.com/","en-US,en;q=0.9","61196260ae747a4f82d37217","686d226cabeef709c732f8e1","686e313b6fd82e036846dd16","61196260ae747a4f82d37217","2025-07-09T09:29:48.389Z","","","","","","ControlQ","","","","","","","","","","","","","","","","","","","","","","","","","","","","","","","","","","","","","","50"
"4266","","<div style=""width:500px;"">
  <p>How would you describe your current emotional state?</p>
  </div>","23","html-slider-response","51","1354784","0.0-10.0-3.2","50","1","2025-07-09 09:07:15","7701e855f2ef39aa3fd6c71abdc6918a","41.150.37.225","Mozilla/5.0 (Macintosh; Intel Mac OS X 10_15_7) AppleWebKit/537.36 (KHTML, like Gecko) Chrome/137.0.0.0 Safari/537.36","Macintosh","Chrome","137.0.0.0","OS X","10_15_7","https://app.prolific.com/","en-US,en;q=0.9","61196260ae747a4f82d37217","686d226cabeef709c732f8e1","686e313b6fd82e036846dd16","61196260ae747a4f82d37217","2025-07-09T09:29:52.656Z","","","","","","StressQ","","","","","","","","","","","","","","","","","","","","","","","","","","","","","","","","","","","","","","50"
"4966","","<div style=""width:500px;"">
  <p>What best describes how you currently feel?</p>
  </div>","20","html-slider-response","52","1359751","0.0-10.0-4.2","50","1","2025-07-09 09:07:15","7701e855f2ef39aa3fd6c71abdc6918a","41.150.37.225","Mozilla/5.0 (Macintosh; Intel Mac OS X 10_15_7) AppleWebKit/537.36 (KHTML, like Gecko) Chrome/137.0.0.0 Safari/537.36","Macintosh","Chrome","137.0.0.0","OS X","10_15_7","https://app.prolific.com/","en-US,en;q=0.9","61196260ae747a4f82d37217","686d226cabeef709c732f8e1","686e313b6fd82e036846dd16","61196260ae747a4f82d37217","2025-07-09T09:29:57.623Z","","","","","","MotivationQ","","","","","","","","","","","","","","","","","","","","","","","","","","","","","","","","","","","","","","50"
"","","","","ctl-task-cpt","53","1392840","0.0-10.0-0.3","50","1","2025-07-09 09:07:15","7701e855f2ef39aa3fd6c71abdc6918a","41.150.37.225","Mozilla/5.0 (Macintosh; Intel Mac OS X 10_15_7) AppleWebKit/537.36 (KHTML, like Gecko) Chrome/137.0.0.0 Safari/537.36","Macintosh","Chrome","137.0.0.0","OS X","10_15_7","https://app.prolific.com/","en-US,en;q=0.9","61196260ae747a4f82d37217","686d226cabeef709c732f8e1","686e313b6fd82e036846dd16","61196260ae747a4f82d37217","2025-07-09T09:30:30.712Z","","","","","","","","","","","","","","","","win-only","2","g1:SE,g2:NW","0.7","4","0","1363966.7","1434.4","6438.8","30076.2","1","4","4","6","2","4","1","1","0","0.007575757575757576","1512.6","3000","255","[""left"",""up""]","{""num_key_presses"":9,""num_perfect"":5,""num_errors"":3,""num_randdir"":1,""num_randdir_good_moves"":1,""num_whilered"":0,""num_whileblue"":0,""num_blue"":0,""num_good_moves"":6}","[700.2857142857143,698.0825892857143,0.1,700.2857142857143,698.0825892857143,101.7,700.2857142857143,698.0825892857143,202.2,700.2857142857143,698.0825892857143,306.7,700.2857142857143,698.0825892857143,410.9,700.2857142857143,698.0825892857143,519.8,700.2857142857143,698.0825892857143,621.8,700.2857142857143,698.0825892857143,725.8,700.2857142857143,698.0825892857143,826.3,686.2857142857143,680.0825892857143,931.1,146.28571428571428,-31.917410714285708,1035.3,138.28571428571428,-43.91741071428571,1135.8,138.28571428571428,-43.91741071428571,1238.6,116.28571428571429,10.082589285714292,1340,106.28571428571429,56.08258928571429,1441.4,108.28571428571429,66.08258928571429,1541.7,108.28571428571429,66.08258928571429,1641.9,108.28571428571429,66.08258928571429,1749.7,108.28571428571429,66.08258928571429,1852.5,108.28571428571429,66.08258928571429,1956.4,108.28571428571429,66.08258928571429,2061.2,108.28571428571429,66.08258928571429,2161.7,108.28571428571429,66.08258928571429,2271.1,108.28571428571429,66.08258928571429,2376.1,108.28571428571429,66.08258928571429,2476.5,108.28571428571429,66.08258928571429,2584.8,108.28571428571429,66.08258928571429,2688.6,108.28571428571429,66.08258928571429,2791.5,108.28571428571429,66.08258928571429,2896.1,108.28571428571429,66.08258928571429,2996.8,108.28571428571429,66.08258928571429,3099.4,108.28571428571429,66.08258928571429,3201.6,108.28571428571429,66.08258928571429,3305.8,108.28571428571429,66.08258928571429,3406,108.28571428571429,66.08258928571429,3506.8,108.28571428571429,66.08258928571429,3606.9,108.28571428571429,66.08258928571429,3711.9,108.28571428571429,66.08258928571429,3820.5,108.28571428571429,66.08258928571429,3921.9,108.28571428571429,66.08258928571429,4026.2,108.28571428571429,66.08258928571429,4126.5,108.28571428571429,66.08258928571429,4231.5,108.28571428571429,66.08258928571429,4333.5,108.28571428571429,66.08258928571429,4436.1,108.28571428571429,66.08258928571429,4536.8,108.28571428571429,66.08258928571429,4640.8,108.28571428571429,66.08258928571429,4740.9,108.28571428571429,66.08258928571429,4841,108.28571428571429,66.08258928571429,4941.8]","[1266.2,1266.2,1000,0,266.2,""smooth"",""up"",""up"",""good_move"",3143.5,1877,2232.4,1266.6,-355.5,""error"",""-"",""-"",""no_move"",6979.8,3836.1,2045.1,4147,787.7,""smooth"",""up"",""up"",""good_move"",8021,1041,2006.1,6980,-965.1,""error"",""-"",""-"",""no_move"",13014.3,4993.1,3439.3,9022,553,""smooth"",""up"",""up"",""good_move"",16015,3000.5,2547.4,13014.5,453.1,""oops"",""left"",""left"",""good_move"",18720.4,2705.1,2270.5,16015.3,434.6,""smooth"",""left"",""left"",""good_move"",19764.4,1043.8,2633,18720.6,-1589.2,""error"",""-"",""-"",""no_move"",23533.2,3768.7,2375,20767,391.2,""smooth"",""left"",""left"",""good_move""]","",""
"4544","","<div style=""width:500px;"">
  <p>What determined the result of this run?</p>
  </div>","60","html-slider-response","54","1397385","0.0-10.0-1.3","50","1","2025-07-09 09:07:15","7701e855f2ef39aa3fd6c71abdc6918a","41.150.37.225","Mozilla/5.0 (Macintosh; Intel Mac OS X 10_15_7) AppleWebKit/537.36 (KHTML, like Gecko) Chrome/137.0.0.0 Safari/537.36","Macintosh","Chrome","137.0.0.0","OS X","10_15_7","https://app.prolific.com/","en-US,en;q=0.9","61196260ae747a4f82d37217","686d226cabeef709c732f8e1","686e313b6fd82e036846dd16","61196260ae747a4f82d37217","2025-07-09T09:30:35.257Z","","","","","","AttribQ","","","","","","","","","","","","","","","","","","","","","","","","","","","","","","","","","","","","","","50"
"5066","","<div style=""width:500px;"">
  <p>How much control did you have over the ball?</p>
  </div>","64","html-slider-response","55","1402451","0.0-10.0-2.3","50","1","2025-07-09 09:07:15","7701e855f2ef39aa3fd6c71abdc6918a","41.150.37.225","Mozilla/5.0 (Macintosh; Intel Mac OS X 10_15_7) AppleWebKit/537.36 (KHTML, like Gecko) Chrome/137.0.0.0 Safari/537.36","Macintosh","Chrome","137.0.0.0","OS X","10_15_7","https://app.prolific.com/","en-US,en;q=0.9","61196260ae747a4f82d37217","686d226cabeef709c732f8e1","686e313b6fd82e036846dd16","61196260ae747a4f82d37217","2025-07-09T09:30:40.324Z","","","","","","ControlQ","","","","","","","","","","","","","","","","","","","","","","","","","","","","","","","","","","","","","","50"
"6050","","<div style=""width:500px;"">
  <p>How would you describe your current emotional state?</p>
  </div>","68","html-slider-response","56","1408502","0.0-10.0-3.3","50","1","2025-07-09 09:07:15","7701e855f2ef39aa3fd6c71abdc6918a","41.150.37.225","Mozilla/5.0 (Macintosh; Intel Mac OS X 10_15_7) AppleWebKit/537.36 (KHTML, like Gecko) Chrome/137.0.0.0 Safari/537.36","Macintosh","Chrome","137.0.0.0","OS X","10_15_7","https://app.prolific.com/","en-US,en;q=0.9","61196260ae747a4f82d37217","686d226cabeef709c732f8e1","686e313b6fd82e036846dd16","61196260ae747a4f82d37217","2025-07-09T09:30:46.374Z","","","","","","StressQ","","","","","","","","","","","","","","","","","","","","","","","","","","","","","","","","","","","","","","50"
"6216","","<div style=""width:500px;"">
  <p>What best describes how you currently feel?</p>
  </div>","62","html-slider-response","57","1414719","0.0-10.0-4.3","50","1","2025-07-09 09:07:15","7701e855f2ef39aa3fd6c71abdc6918a","41.150.37.225","Mozilla/5.0 (Macintosh; Intel Mac OS X 10_15_7) AppleWebKit/537.36 (KHTML, like Gecko) Chrome/137.0.0.0 Safari/537.36","Macintosh","Chrome","137.0.0.0","OS X","10_15_7","https://app.prolific.com/","en-US,en;q=0.9","61196260ae747a4f82d37217","686d226cabeef709c732f8e1","686e313b6fd82e036846dd16","61196260ae747a4f82d37217","2025-07-09T09:30:52.591Z","","","","","","MotivationQ","","","","","","","","","","","","","","","","","","","","","","","","","","","","","","","","","","","","","","50"
"","","","","ctl-task-cpt","58","1454834","0.0-10.0-0.4","50","1","2025-07-09 09:07:15","7701e855f2ef39aa3fd6c71abdc6918a","41.150.37.225","Mozilla/5.0 (Macintosh; Intel Mac OS X 10_15_7) AppleWebKit/537.36 (KHTML, like Gecko) Chrome/137.0.0.0 Safari/537.36","Macintosh","Chrome","137.0.0.0","OS X","10_15_7","https://app.prolific.com/","en-US,en;q=0.9","61196260ae747a4f82d37217","686d226cabeef709c732f8e1","686e313b6fd82e036846dd16","61196260ae747a4f82d37217","2025-07-09T09:31:32.706Z","","","","","","","","","","","","","","","","win-only","3","g1:SW,g2:NE","0.6","5","0","1418934.8","1149.1","6155","37105.4","1","4","4","6","2","-4","-9","0","1","0","1286.7","3000","-2975","[""up"",""right""]","{""num_key_presses"":11,""num_perfect"":2,""num_errors"":5,""num_randdir"":3,""num_randdir_good_moves"":1,""num_whilered"":1,""num_whileblue"":1,""num_blue"":2,""num_good_moves"":3}","[694.2857142857143,694.0825892857143,0.3,694.2857142857143,696.0825892857143,105,694.2857142857143,696.0825892857143,206.3,694.2857142857143,696.0825892857143,311.1,694.2857142857143,696.0825892857143,411.7,694.2857142857143,696.0825892857143,514,694.2857142857143,696.0825892857143,616.9,776.2857142857143,604.0825892857143,721,1162.2857142857142,296.0825892857143,821.7,1240.2857142857142,232.08258928571428,926.8,1240.2857142857142,232.08258928571428,1031.6,1230.2857142857142,198.08258928571428,1131.9,1230.2857142857142,150.08258928571428,1240.1,1230.2857142857142,150.08258928571428,1341.9,1230.2857142857142,150.08258928571428,1442.3,1230.2857142857142,150.08258928571428,1546.4,1230.2857142857142,150.08258928571428,1646.9,1230.2857142857142,150.08258928571428,1751.1,1230.2857142857142,150.08258928571428,1851.1,1230.2857142857142,150.08258928571428,1951.6,1230.2857142857142,150.08258928571428,2051.6,1230.2857142857142,150.08258928571428,2156.2,1230.2857142857142,150.08258928571428,2257.3,1230.2857142857142,150.08258928571428,2361.2,1230.2857142857142,150.08258928571428,2461.6,1230.2857142857142,150.08258928571428,2561.6,1230.2857142857142,150.08258928571428,2661.9,1230.2857142857142,150.08258928571428,2769.2,1230.2857142857142,150.08258928571428,2871.5,1230.2857142857142,150.08258928571428,2972.9,1230.2857142857142,150.08258928571428,3076.7,1230.2857142857142,150.08258928571428,3176.8,1230.2857142857142,150.08258928571428,3276.8,1230.2857142857142,150.08258928571428,3381.5,1230.2857142857142,150.08258928571428,3481.6,1230.2857142857142,150.08258928571428,3581.9,1230.2857142857142,150.08258928571428,3682.2,1230.2857142857142,150.08258928571428,3786.7,1230.2857142857142,150.08258928571428,3891.1,1230.2857142857142,150.08258928571428,3992.1,1230.2857142857142,150.08258928571428,4096.5,1230.2857142857142,150.08258928571428,4197,1230.2857142857142,150.08258928571428,4297,1230.2857142857142,150.08258928571428,4401.6,1230.2857142857142,150.08258928571428,4505.5,1230.2857142857142,150.08258928571428,4606.7,1230.2857142857142,150.08258928571428,4706.9,1230.2857142857142,150.08258928571428,4811.7,1230.2857142857142,150.08258928571428,4916.6]","[351.5,351.5,1000,0,-648.5,""error"",""-"",""-"",""no_move"",4819.3,4467.7,3058.6,1355.2,405.5,""while_blue"",""up"",""left"",""bad_move"",7702.2,2882.6,2207.2,4819.6,675.4,""oops"",""up"",""left"",""bad_move"",8647.6,945.2,2310.2,7702.4,-1365,""error"",""-"",""-"",""no_move"",8865.3,217.6,2310.2,7702.4,-1147.3,""while_red"",""-"",""-"",""no_move"",12752.4,4104.7,2685.1,9649.9,417.4,""smooth"",""up"",""up"",""good_move"",13801.1,1048.5,2164.9,12752.6,-1116.4,""error"",""-"",""-"",""no_move"",17844.9,4043.5,2382.6,14805.5,656.8,""oops"",""up"",""up"",""good_move"",20705.4,2860.4,2021.8,17845,838.6,""smooth"",""up"",""up"",""good_move"",26734.6,6029.1,2417.5,23945.7,371.4,""oops"",""right"",""down"",""bad_move"",27635,900,2018.4,26735,-1118.4,""error"",""-"",""-"",""no_move""]","",""
"6769","","<div style=""width:500px;"">
  <p>What determined the result of this run?</p>
  </div>","23","html-slider-response","59","1461604","0.0-10.0-1.4","50","1","2025-07-09 09:07:15","7701e855f2ef39aa3fd6c71abdc6918a","41.150.37.225","Mozilla/5.0 (Macintosh; Intel Mac OS X 10_15_7) AppleWebKit/537.36 (KHTML, like Gecko) Chrome/137.0.0.0 Safari/537.36","Macintosh","Chrome","137.0.0.0","OS X","10_15_7","https://app.prolific.com/","en-US,en;q=0.9","61196260ae747a4f82d37217","686d226cabeef709c732f8e1","686e313b6fd82e036846dd16","61196260ae747a4f82d37217","2025-07-09T09:31:39.476Z","","","","","","AttribQ","","","","","","","","","","","","","","","","","","","","","","","","","","","","","","","","","","","","","","50"
"2199","","<div style=""width:500px;"">
  <p>How much control did you have over the ball?</p>
  </div>","24","html-slider-response","60","1463804","0.0-10.0-2.4","50","1","2025-07-09 09:07:15","7701e855f2ef39aa3fd6c71abdc6918a","41.150.37.225","Mozilla/5.0 (Macintosh; Intel Mac OS X 10_15_7) AppleWebKit/537.36 (KHTML, like Gecko) Chrome/137.0.0.0 Safari/537.36","Macintosh","Chrome","137.0.0.0","OS X","10_15_7","https://app.prolific.com/","en-US,en;q=0.9","61196260ae747a4f82d37217","686d226cabeef709c732f8e1","686e313b6fd82e036846dd16","61196260ae747a4f82d37217","2025-07-09T09:31:41.676Z","","","","","","ControlQ","","","","","","","","","","","","","","","","","","","","","","","","","","","","","","","","","","","","","","50"
"4684","","<div style=""width:500px;"">
  <p>How would you describe your current emotional state?</p>
  </div>","63","html-slider-response","61","1468488","0.0-10.0-3.4","50","1","2025-07-09 09:07:15","7701e855f2ef39aa3fd6c71abdc6918a","41.150.37.225","Mozilla/5.0 (Macintosh; Intel Mac OS X 10_15_7) AppleWebKit/537.36 (KHTML, like Gecko) Chrome/137.0.0.0 Safari/537.36","Macintosh","Chrome","137.0.0.0","OS X","10_15_7","https://app.prolific.com/","en-US,en;q=0.9","61196260ae747a4f82d37217","686d226cabeef709c732f8e1","686e313b6fd82e036846dd16","61196260ae747a4f82d37217","2025-07-09T09:31:46.360Z","","","","","","StressQ","","","","","","","","","","","","","","","","","","","","","","","","","","","","","","","","","","","","","","50"
"3499","","<div style=""width:500px;"">
  <p>What best describes how you currently feel?</p>
  </div>","33","html-slider-response","62","1471987","0.0-10.0-4.4","50","1","2025-07-09 09:07:15","7701e855f2ef39aa3fd6c71abdc6918a","41.150.37.225","Mozilla/5.0 (Macintosh; Intel Mac OS X 10_15_7) AppleWebKit/537.36 (KHTML, like Gecko) Chrome/137.0.0.0 Safari/537.36","Macintosh","Chrome","137.0.0.0","OS X","10_15_7","https://app.prolific.com/","en-US,en;q=0.9","61196260ae747a4f82d37217","686d226cabeef709c732f8e1","686e313b6fd82e036846dd16","61196260ae747a4f82d37217","2025-07-09T09:31:49.859Z","","","","","","MotivationQ","","","","","","","","","","","","","","","","","","","","","","","","","","","","","","","","","","","","","","50"
"","","","","ctl-task-cpt","63","1503987","0.0-10.0-0.5","50","1","2025-07-09 09:07:15","7701e855f2ef39aa3fd6c71abdc6918a","41.150.37.225","Mozilla/5.0 (Macintosh; Intel Mac OS X 10_15_7) AppleWebKit/537.36 (KHTML, like Gecko) Chrome/137.0.0.0 Safari/537.36","Macintosh","Chrome","137.0.0.0","OS X","10_15_7","https://app.prolific.com/","en-US,en;q=0.9","61196260ae747a4f82d37217","686d226cabeef709c732f8e1","686e313b6fd82e036846dd16","61196260ae747a4f82d37217","2025-07-09T09:32:21.859Z","","","","","","","","","","","","","","","","win-only","2","g1:SE,g2:NW","0.5","6","0","1476204.6","1964.9","6965.9","28991.2","1","4","8","6","2","-8","-9","0","0","0","1233.5","3000","-2980","[""left"",""up""]","{""num_key_presses"":7,""num_perfect"":3,""num_errors"":1,""num_randdir"":3,""num_randdir_good_moves"":2,""num_whilered"":0,""num_whileblue"":0,""num_blue"":0,""num_good_moves"":5}","[688.2857142857143,696.0825892857143,0.2,688.2857142857143,696.0825892857143,100.9,688.2857142857143,696.0825892857143,201.1,688.2857142857143,696.0825892857143,301.2,688.2857142857143,696.0825892857143,406.4,690.2857142857143,676.0825892857143,510.9,638.2857142857143,500.0825892857143,610.9,638.2857142857143,500.0825892857143,711.1,638.2857142857143,500.0825892857143,811.1,212.28571428571428,220.08258928571428,911.5,118.28571428571429,172.08258928571428,1016.5,102.28571428571429,150.08258928571428,1121.1,102.28571428571429,140.08258928571428,1222,102.28571428571429,140.08258928571428,1326.2,104.28571428571429,140.08258928571428,1430.9,104.28571428571429,140.08258928571428,1531.2,104.28571428571429,140.08258928571428,1639.5,104.28571428571429,140.08258928571428,1742.7,104.28571428571429,140.08258928571428,1846.3,104.28571428571429,140.08258928571428,1951.3,104.28571428571429,140.08258928571428,2056.4,104.28571428571429,140.08258928571428,2156.4,104.28571428571429,140.08258928571428,2257.1,104.28571428571429,140.08258928571428,2358.5,104.28571428571429,140.08258928571428,2461.4,104.28571428571429,140.08258928571428,2565.4,104.28571428571429,140.08258928571428,2665.4,104.28571428571429,140.08258928571428,2766,104.28571428571429,140.08258928571428,2870,104.28571428571429,140.08258928571428,2970.9,104.28571428571429,140.08258928571428,3071.8,104.28571428571429,140.08258928571428,3175.5,104.28571428571429,140.08258928571428,3275.7,104.28571428571429,140.08258928571428,3376.3,104.28571428571429,140.08258928571428,3480.4,104.28571428571429,140.08258928571428,3581.4,104.28571428571429,140.08258928571428,3685.9,104.28571428571429,140.08258928571428,3790.6,104.28571428571429,140.08258928571428,3892.6,104.28571428571429,140.08258928571428,3996.2,104.28571428571429,140.08258928571428,4100.6,104.28571428571429,140.08258928571428,4208.4,104.28571428571429,140.08258928571428,4311,104.28571428571429,140.08258928571428,4415.8,104.28571428571429,140.08258928571428,4516.4,104.28571428571429,140.08258928571428,4620.4,104.28571428571429,140.08258928571428,4725.8,104.28571428571429,140.08258928571428,4827.4,104.28571428571429,140.08258928571428,4930.4]","[1455.5,1455.5,1000,0,455.5,""oops"",""up"",""left"",""good_move"",4495.4,3039.6,2289.3,1455.8,750.3,""oops"",""up"",""up"",""good_move"",6803.3,2307.6,1809.6,4495.7,498,""oops"",""up"",""down"",""bad_move"",10082.2,3278.6,2871.9,6803.6,406.7,""smooth"",""up"",""up"",""good_move"",13685.9,3603.6,3277.8,10082.4,325.8,""smooth"",""up"",""up"",""good_move"",16136.9,2450.8,1950.6,13686.1,500.2,""smooth"",""up"",""up"",""good_move"",18357.5,2220.4,3110.8,16137.1,-890.4,""error"",""-"",""-"",""no_move""]","",""
"3784","","<div style=""width:500px;"">
  <p>What determined the result of this run?</p>
  </div>","21","html-slider-response","64","1507772","0.0-10.0-1.5","50","1","2025-07-09 09:07:15","7701e855f2ef39aa3fd6c71abdc6918a","41.150.37.225","Mozilla/5.0 (Macintosh; Intel Mac OS X 10_15_7) AppleWebKit/537.36 (KHTML, like Gecko) Chrome/137.0.0.0 Safari/537.36","Macintosh","Chrome","137.0.0.0","OS X","10_15_7","https://app.prolific.com/","en-US,en;q=0.9","61196260ae747a4f82d37217","686d226cabeef709c732f8e1","686e313b6fd82e036846dd16","61196260ae747a4f82d37217","2025-07-09T09:32:25.644Z","","","","","","AttribQ","","","","","","","","","","","","","","","","","","","","","","","","","","","","","","","","","","","","","","50"
"3699","","<div style=""width:500px;"">
  <p>How much control did you have over the ball?</p>
  </div>","30","html-slider-response","65","1511472","0.0-10.0-2.5","50","1","2025-07-09 09:07:15","7701e855f2ef39aa3fd6c71abdc6918a","41.150.37.225","Mozilla/5.0 (Macintosh; Intel Mac OS X 10_15_7) AppleWebKit/537.36 (KHTML, like Gecko) Chrome/137.0.0.0 Safari/537.36","Macintosh","Chrome","137.0.0.0","OS X","10_15_7","https://app.prolific.com/","en-US,en;q=0.9","61196260ae747a4f82d37217","686d226cabeef709c732f8e1","686e313b6fd82e036846dd16","61196260ae747a4f82d37217","2025-07-09T09:32:29.344Z","","","","","","ControlQ","","","","","","","","","","","","","","","","","","","","","","","","","","","","","","","","","","","","","","50"
"4049","","<div style=""width:500px;"">
  <p>How would you describe your current emotional state?</p>
  </div>","36","html-slider-response","66","1515522","0.0-10.0-3.5","50","1","2025-07-09 09:07:15","7701e855f2ef39aa3fd6c71abdc6918a","41.150.37.225","Mozilla/5.0 (Macintosh; Intel Mac OS X 10_15_7) AppleWebKit/537.36 (KHTML, like Gecko) Chrome/137.0.0.0 Safari/537.36","Macintosh","Chrome","137.0.0.0","OS X","10_15_7","https://app.prolific.com/","en-US,en;q=0.9","61196260ae747a4f82d37217","686d226cabeef709c732f8e1","686e313b6fd82e036846dd16","61196260ae747a4f82d37217","2025-07-09T09:32:33.394Z","","","","","","StressQ","","","","","","","","","","","","","","","","","","","","","","","","","","","","","","","","","","","","","","50"
"2516","","<div style=""width:500px;"">
  <p>What best describes how you currently feel?</p>
  </div>","65","html-slider-response","67","1518039","0.0-10.0-4.5","50","1","2025-07-09 09:07:15","7701e855f2ef39aa3fd6c71abdc6918a","41.150.37.225","Mozilla/5.0 (Macintosh; Intel Mac OS X 10_15_7) AppleWebKit/537.36 (KHTML, like Gecko) Chrome/137.0.0.0 Safari/537.36","Macintosh","Chrome","137.0.0.0","OS X","10_15_7","https://app.prolific.com/","en-US,en;q=0.9","61196260ae747a4f82d37217","686d226cabeef709c732f8e1","686e313b6fd82e036846dd16","61196260ae747a4f82d37217","2025-07-09T09:32:35.911Z","","","","","","MotivationQ","","","","","","","","","","","","","","","","","","","","","","","","","","","","","","","","","","","","","","50"
"","","","","ctl-task-cpt","68","1546685","0.0-10.0-0.6","50","1","2025-07-09 09:07:15","7701e855f2ef39aa3fd6c71abdc6918a","41.150.37.225","Mozilla/5.0 (Macintosh; Intel Mac OS X 10_15_7) AppleWebKit/537.36 (KHTML, like Gecko) Chrome/137.0.0.0 Safari/537.36","Macintosh","Chrome","137.0.0.0","OS X","10_15_7","https://app.prolific.com/","en-US,en;q=0.9","61196260ae747a4f82d37217","686d226cabeef709c732f8e1","686e313b6fd82e036846dd16","61196260ae747a4f82d37217","2025-07-09T09:33:04.557Z","","","","","","","","","","","","","","","","win-only","1","g1:NE,g2:SW","0.4","7","0","1522257.5","4098.4","9100.2","25636.2","1","4","8","6","2","-8","-9","0","0","0","1534.4","3000","-2930","[""down"",""left""]","{""num_key_presses"":3,""num_perfect"":1,""num_errors"":1,""num_randdir"":1,""num_randdir_good_moves"":0,""num_whilered"":0,""num_whileblue"":0,""num_blue"":1,""num_good_moves"":1}","[692.2857142857143,704.0825892857143,0.2,694.2857142857143,704.0825892857143,105.3,694.2857142857143,704.0825892857143,206.7,694.2857142857143,704.0825892857143,307.7,694.2857142857143,704.0825892857143,411.7,694.2857142857143,704.0825892857143,512.5,694.2857142857143,704.0825892857143,612.5,694.2857142857143,702.0825892857143,712.9,694.2857142857143,700.0825892857143,817.2,692.2857142857143,700.0825892857143,917.8,692.2857142857143,700.0825892857143,1022.2,564.2857142857143,864.0825892857143,1125.1,236.28571428571428,1324.0825892857142,1227.6,218.28571428571428,1326.0825892857142,1331.9,188.28571428571428,1318.0825892857142,1432.8,162.28571428571428,1312.0825892857142,1539.3,162.28571428571428,1312.0825892857142,1643.1,160.28571428571428,1310.0825892857142,1747.3,160.28571428571428,1310.0825892857142,1847.9,160.28571428571428,1310.0825892857142,1957.4,160.28571428571428,1310.0825892857142,2057.8,160.28571428571428,1310.0825892857142,2157.8,160.28571428571428,1310.0825892857142,2263.5,160.28571428571428,1310.0825892857142,2367.4,160.28571428571428,1310.0825892857142,2467.8,160.28571428571428,1310.0825892857142,2572.9,160.28571428571428,1310.0825892857142,2677,160.28571428571428,1310.0825892857142,2777.1,160.28571428571428,1310.0825892857142,2877.1,160.28571428571428,1310.0825892857142,2977.5,160.28571428571428,1310.0825892857142,3077.6,160.28571428571428,1310.0825892857142,3182.3,160.28571428571428,1310.0825892857142,3282.8,160.28571428571428,1310.0825892857142,3390.2,160.28571428571428,1310.0825892857142,3492.6,160.28571428571428,1310.0825892857142,3597.5,160.28571428571428,1310.0825892857142,3697.8,160.28571428571428,1310.0825892857142,3797.8,160.28571428571428,1310.0825892857142,3899.4,160.28571428571428,1310.0825892857142,4002.1,160.28571428571428,1310.0825892857142,4102.1,160.28571428571428,1310.0825892857142,4202.8,160.28571428571428,1310.0825892857142,4307.6,160.28571428571428,1310.0825892857142,4412.4,160.28571428571428,1310.0825892857142,4516.8,160.28571428571428,1310.0825892857142,4617.3,160.28571428571428,1310.0825892857142,4723.7,160.28571428571428,1310.0825892857142,4825.6,160.28571428571428,1310.0825892857142,4925.6]","[808.5,808.5,1000,0,-191.5,""error"",""-"",""-"",""no_move"",8223.5,7414.9,2727.7,5140.6,355.2,""oops"",""down"",""right"",""bad_move"",13296.5,5072.7,2724.6,8223.8,2348.1,""smooth"",""down"",""down"",""good_move""]","",""
"2921","","<div style=""width:500px;"">
  <p>What determined the result of this run?</p>
  </div>","23","html-slider-response","69","1549606","0.0-10.0-1.6","50","1","2025-07-09 09:07:15","7701e855f2ef39aa3fd6c71abdc6918a","41.150.37.225","Mozilla/5.0 (Macintosh; Intel Mac OS X 10_15_7) AppleWebKit/537.36 (KHTML, like Gecko) Chrome/137.0.0.0 Safari/537.36","Macintosh","Chrome","137.0.0.0","OS X","10_15_7","https://app.prolific.com/","en-US,en;q=0.9","61196260ae747a4f82d37217","686d226cabeef709c732f8e1","686e313b6fd82e036846dd16","61196260ae747a4f82d37217","2025-07-09T09:33:07.478Z","","","","","","AttribQ","","","","","","","","","","","","","","","","","","","","","","","","","","","","","","","","","","","","","","50"
"5317","","<div style=""width:500px;"">
  <p>How much control did you have over the ball?</p>
  </div>","32","html-slider-response","70","1554924","0.0-10.0-2.6","50","1","2025-07-09 09:07:15","7701e855f2ef39aa3fd6c71abdc6918a","41.150.37.225","Mozilla/5.0 (Macintosh; Intel Mac OS X 10_15_7) AppleWebKit/537.36 (KHTML, like Gecko) Chrome/137.0.0.0 Safari/537.36","Macintosh","Chrome","137.0.0.0","OS X","10_15_7","https://app.prolific.com/","en-US,en;q=0.9","61196260ae747a4f82d37217","686d226cabeef709c732f8e1","686e313b6fd82e036846dd16","61196260ae747a4f82d37217","2025-07-09T09:33:12.796Z","","","","","","ControlQ","","","","","","","","","","","","","","","","","","","","","","","","","","","","","","","","","","","","","","50"
"3449","","<div style=""width:500px;"">
  <p>How would you describe your current emotional state?</p>
  </div>","32","html-slider-response","71","1558373","0.0-10.0-3.6","50","1","2025-07-09 09:07:15","7701e855f2ef39aa3fd6c71abdc6918a","41.150.37.225","Mozilla/5.0 (Macintosh; Intel Mac OS X 10_15_7) AppleWebKit/537.36 (KHTML, like Gecko) Chrome/137.0.0.0 Safari/537.36","Macintosh","Chrome","137.0.0.0","OS X","10_15_7","https://app.prolific.com/","en-US,en;q=0.9","61196260ae747a4f82d37217","686d226cabeef709c732f8e1","686e313b6fd82e036846dd16","61196260ae747a4f82d37217","2025-07-09T09:33:16.246Z","","","","","","StressQ","","","","","","","","","","","","","","","","","","","","","","","","","","","","","","","","","","","","","","50"
"7116","","<div style=""width:500px;"">
  <p>What best describes how you currently feel?</p>
  </div>","39","html-slider-response","72","1565490","0.0-10.0-4.6","50","1","2025-07-09 09:07:15","7701e855f2ef39aa3fd6c71abdc6918a","41.150.37.225","Mozilla/5.0 (Macintosh; Intel Mac OS X 10_15_7) AppleWebKit/537.36 (KHTML, like Gecko) Chrome/137.0.0.0 Safari/537.36","Macintosh","Chrome","137.0.0.0","OS X","10_15_7","https://app.prolific.com/","en-US,en;q=0.9","61196260ae747a4f82d37217","686d226cabeef709c732f8e1","686e313b6fd82e036846dd16","61196260ae747a4f82d37217","2025-07-09T09:33:23.362Z","","","","","","MotivationQ","","","","","","","","","","","","","","","","","","","","","","","","","","","","","","","","","","","","","","50"
"","","","","ctl-task-cpt","73","1596145","0.0-10.0-0.7","50","1","2025-07-09 09:07:15","7701e855f2ef39aa3fd6c71abdc6918a","41.150.37.225","Mozilla/5.0 (Macintosh; Intel Mac OS X 10_15_7) AppleWebKit/537.36 (KHTML, like Gecko) Chrome/137.0.0.0 Safari/537.36","Macintosh","Chrome","137.0.0.0","OS X","10_15_7","https://app.prolific.com/","en-US,en;q=0.9","61196260ae747a4f82d37217","686d226cabeef709c732f8e1","686e313b6fd82e036846dd16","61196260ae747a4f82d37217","2025-07-09T09:33:54.017Z","","","","","","","","","","","","","","","","win-only","1","g1:NE,g2:SW","0.3","8","0","1569710.3","3198.7","8200.6","27645.3","1","4","4","6","1","-1","-1","0","0","0","2299.5","3000","-2930","[""up"",""right""]","{""num_key_presses"":5,""num_perfect"":1,""num_errors"":0,""num_randdir"":4,""num_randdir_good_moves"":2,""num_whilered"":0,""num_whileblue"":0,""num_blue"":1,""num_good_moves"":3}","[706.2857142857143,686.0825892857143,0.3,708.2857142857143,688.0825892857143,102.9,708.2857142857143,688.0825892857143,207.1,708.2857142857143,688.0825892857143,307.4,708.2857142857143,688.0825892857143,412.2,708.2857142857143,688.0825892857143,516.4,708.2857142857143,688.0825892857143,616.9,600.2857142857143,852.0825892857143,717.1,440.2857142857143,1000.0825892857143,817.7,440.2857142857143,1000.0825892857143,924.3,426.2857142857143,1014.0825892857143,1027.2,374.2857142857143,1048.0825892857142,1131.6,264.2857142857143,1108.0825892857142,1231.9,396.2857142857143,974.0825892857143,1332.3,1214.2857142857142,368.0825892857143,1436.6,1240.2857142857142,352.0825892857143,1537.9,1240.2857142857142,344.0825892857143,1641.5,1240.2857142857142,312.0825892857143,1741.9,1240.2857142857142,310.0825892857143,1847,1240.2857142857142,310.0825892857143,1951.8,1240.2857142857142,278.0825892857143,2059.9,1242.2857142857142,156.08258928571428,2161.4,1244.2857142857142,102.08258928571429,2262,1244.2857142857142,102.08258928571429,2367.2,1244.2857142857142,102.08258928571429,2467.3,1244.2857142857142,102.08258928571429,2574,1244.2857142857142,102.08258928571429,2675.1,1244.2857142857142,102.08258928571429,2777.1,1244.2857142857142,102.08258928571429,2882.3,1244.2857142857142,102.08258928571429,2982.5,1244.2857142857142,102.08258928571429,3087.4,1244.2857142857142,102.08258928571429,3187.4,1244.2857142857142,102.08258928571429,3288.7,1244.2857142857142,102.08258928571429,3391.6,1244.2857142857142,102.08258928571429,3497,1244.2857142857142,102.08258928571429,3601.3,1244.2857142857142,102.08258928571429,3701.8,1244.2857142857142,102.08258928571429,3802.3,1244.2857142857142,102.08258928571429,3903.9,1244.2857142857142,102.08258928571429,4007,1244.2857142857142,102.08258928571429,4111.5,1244.2857142857142,102.08258928571429,4212.4,1244.2857142857142,102.08258928571429,4316.5,1244.2857142857142,102.08258928571429,4417.3,1244.2857142857142,102.08258928571429,4525.1,1244.2857142857142,102.08258928571429,4626.4,1244.2857142857142,102.08258928571429,4726.6,1244.2857142857142,102.08258928571429,4826.9,1244.2857142857142,102.08258928571429,4927.3]","[1549.5,1549.5,1000,0,549.5,""smooth"",""up"",""up"",""good_move"",4026.4,2476.5,1932.9,1549.9,543.6,""oops"",""up"",""right"",""good_move"",7091.5,3065,2383.2,4026.5,681.8,""oops"",""up"",""right"",""good_move"",9824.6,2733,2183.7,7091.6,549.3,""oops"",""up"",""left"",""bad_move"",16724,6899.1,2849.6,13509.9,364.5,""oops"",""up"",""down"",""bad_move""]","",""
"2561","","<div style=""width:500px;"">
  <p>What determined the result of this run?</p>
  </div>","0","html-slider-response","74","1598707","0.0-10.0-1.7","50","1","2025-07-09 09:07:15","7701e855f2ef39aa3fd6c71abdc6918a","41.150.37.225","Mozilla/5.0 (Macintosh; Intel Mac OS X 10_15_7) AppleWebKit/537.36 (KHTML, like Gecko) Chrome/137.0.0.0 Safari/537.36","Macintosh","Chrome","137.0.0.0","OS X","10_15_7","https://app.prolific.com/","en-US,en;q=0.9","61196260ae747a4f82d37217","686d226cabeef709c732f8e1","686e313b6fd82e036846dd16","61196260ae747a4f82d37217","2025-07-09T09:33:56.579Z","","","","","","AttribQ","","","","","","","","","","","","","","","","","","","","","","","","","","","","","","","","","","","","","","50"
"3034","","<div style=""width:500px;"">
  <p>How much control did you have over the ball?</p>
  </div>","0","html-slider-response","75","1601742","0.0-10.0-2.7","50","1","2025-07-09 09:07:15","7701e855f2ef39aa3fd6c71abdc6918a","41.150.37.225","Mozilla/5.0 (Macintosh; Intel Mac OS X 10_15_7) AppleWebKit/537.36 (KHTML, like Gecko) Chrome/137.0.0.0 Safari/537.36","Macintosh","Chrome","137.0.0.0","OS X","10_15_7","https://app.prolific.com/","en-US,en;q=0.9","61196260ae747a4f82d37217","686d226cabeef709c732f8e1","686e313b6fd82e036846dd16","61196260ae747a4f82d37217","2025-07-09T09:33:59.614Z","","","","","","ControlQ","","","","","","","","","","","","","","","","","","","","","","","","","","","","","","","","","","","","","","50"
"3381","","<div style=""width:500px;"">
  <p>How would you describe your current emotional state?</p>
  </div>","71","html-slider-response","76","1605124","0.0-10.0-3.7","50","1","2025-07-09 09:07:15","7701e855f2ef39aa3fd6c71abdc6918a","41.150.37.225","Mozilla/5.0 (Macintosh; Intel Mac OS X 10_15_7) AppleWebKit/537.36 (KHTML, like Gecko) Chrome/137.0.0.0 Safari/537.36","Macintosh","Chrome","137.0.0.0","OS X","10_15_7","https://app.prolific.com/","en-US,en;q=0.9","61196260ae747a4f82d37217","686d226cabeef709c732f8e1","686e313b6fd82e036846dd16","61196260ae747a4f82d37217","2025-07-09T09:34:02.996Z","","","","","","StressQ","","","","","","","","","","","","","","","","","","","","","","","","","","","","","","","","","","","","","","50"
"3016","","<div style=""width:500px;"">
  <p>What best describes how you currently feel?</p>
  </div>","64","html-slider-response","77","1608141","0.0-10.0-4.7","50","1","2025-07-09 09:07:15","7701e855f2ef39aa3fd6c71abdc6918a","41.150.37.225","Mozilla/5.0 (Macintosh; Intel Mac OS X 10_15_7) AppleWebKit/537.36 (KHTML, like Gecko) Chrome/137.0.0.0 Safari/537.36","Macintosh","Chrome","137.0.0.0","OS X","10_15_7","https://app.prolific.com/","en-US,en;q=0.9","61196260ae747a4f82d37217","686d226cabeef709c732f8e1","686e313b6fd82e036846dd16","61196260ae747a4f82d37217","2025-07-09T09:34:06.013Z","","","","","","MotivationQ","","","","","","","","","","","","","","","","","","","","","","","","","","","","","","","","","","","","","","50"
"","","","","ctl-task-cpt","78","1640239","0.0-10.0-0.8","50","1","2025-07-09 09:07:15","7701e855f2ef39aa3fd6c71abdc6918a","41.150.37.225","Mozilla/5.0 (Macintosh; Intel Mac OS X 10_15_7) AppleWebKit/537.36 (KHTML, like Gecko) Chrome/137.0.0.0 Safari/537.36","Macintosh","Chrome","137.0.0.0","OS X","10_15_7","https://app.prolific.com/","en-US,en;q=0.9","61196260ae747a4f82d37217","686d226cabeef709c732f8e1","686e313b6fd82e036846dd16","61196260ae747a4f82d37217","2025-07-09T09:34:38.111Z","","","","","","","","","","","","","","","","win-only","3","g1:SW,g2:NE","0.2","9","0","1612361.8","1249.8","6251.1","29086.5","1","4","8","6","2","-8","-10","0","0","0","1549.3","3000","-2920","[""up"",""right""]","{""num_key_presses"":7,""num_perfect"":2,""num_errors"":2,""num_randdir"":2,""num_randdir_good_moves"":0,""num_whilered"":1,""num_whileblue"":0,""num_blue"":2,""num_good_moves"":2}","[688.2857142857143,698.0825892857143,0.2,688.2857142857143,698.0825892857143,100.7,688.2857142857143,698.0825892857143,200.9,688.2857142857143,698.0825892857143,301.6,688.2857142857143,698.0825892857143,401.6,724.2857142857143,700.0825892857143,506.4,982.2857142857143,716.0825892857143,610.6,1048.2857142857142,708.0825892857143,716.6,1048.2857142857142,708.0825892857143,817.7,1048.2857142857142,704.0825892857143,921,1072.2857142857142,612.0825892857143,1022.3,1192.2857142857142,332.0825892857143,1125.8,1250.2857142857142,206.08258928571428,1226.3,1256.2857142857142,150.08258928571428,1326.7,1260.2857142857142,142.08258928571428,1430.5,1260.2857142857142,140.08258928571428,1530.6,1262.2857142857142,140.08258928571428,1631.4,1262.2857142857142,140.08258928571428,1731.7,1262.2857142857142,140.08258928571428,1836.5,1262.2857142857142,140.08258928571428,1941.2,1284.2857142857142,160.08258928571428,2041.3,1310.2857142857142,176.08258928571428,2146.2,1310.2857142857142,176.08258928571428,2246.2,1310.2857142857142,176.08258928571428,2346.6,1310.2857142857142,176.08258928571428,2450.8,1310.2857142857142,176.08258928571428,2551.2,1310.2857142857142,176.08258928571428,2651.5,1310.2857142857142,176.08258928571428,2757.7,1310.2857142857142,176.08258928571428,2861.4,1310.2857142857142,176.08258928571428,2966,1310.2857142857142,176.08258928571428,3071.6,1310.2857142857142,176.08258928571428,3173.9,1310.2857142857142,176.08258928571428,3275.7,1310.2857142857142,176.08258928571428,3380.4,1310.2857142857142,176.08258928571428,3480.9,1310.2857142857142,176.08258928571428,3581.3,1310.2857142857142,176.08258928571428,3685.6,1310.2857142857142,176.08258928571428,3789.8,1310.2857142857142,176.08258928571428,3890.3,1308.2857142857142,176.08258928571428,3991.6,1308.2857142857142,176.08258928571428,4095.5,1308.2857142857142,176.08258928571428,4196.5,1308.2857142857142,176.08258928571428,4300.9,1308.2857142857142,176.08258928571428,4408.1,1308.2857142857142,176.08258928571428,4514.6,1308.2857142857142,176.08258928571428,4616,1308.2857142857142,176.08258928571428,4720.6,1308.2857142857142,176.08258928571428,4821,1308.2857142857142,176.08258928571428,4921.1]","[1465.7,1465.7,1000,0,465.7,""oops"",""up"",""left"",""bad_move"",3688.3,2222.4,1718.1,1465.9,504.3,""smooth"",""up"",""up"",""good_move"",14122.2,10433.7,3037.3,10654.6,430.3,""oops"",""up"",""down"",""bad_move"",14325.1,202.8,3150.2,14122.3,-2947.4,""error"",""-"",""-"",""no_move"",18767.9,4442.6,2117.6,15329.4,1320.9,""smooth"",""up"",""up"",""good_move"",19134.1,365.9,2302.2,18768.2,-1936.3,""error"",""-"",""-"",""no_move"",19372.9,238.7,2302.2,18768.2,-1697.5,""while_red"",""-"",""-"",""no_move""]","",""
"18970","","<div style=""width:500px;"">
  <p>What determined the result of this run?</p>
  </div>","1","html-slider-response","79","1659209","0.0-10.0-1.8","50","1","2025-07-09 09:07:15","7701e855f2ef39aa3fd6c71abdc6918a","41.150.37.225","Mozilla/5.0 (Macintosh; Intel Mac OS X 10_15_7) AppleWebKit/537.36 (KHTML, like Gecko) Chrome/137.0.0.0 Safari/537.36","Macintosh","Chrome","137.0.0.0","OS X","10_15_7","https://app.prolific.com/","en-US,en;q=0.9","61196260ae747a4f82d37217","686d226cabeef709c732f8e1","686e313b6fd82e036846dd16","61196260ae747a4f82d37217","2025-07-09T09:34:57.081Z","","","","","","AttribQ","","","","","","","","","","","","","","","","","","","","","","","","","","","","","","","","","","","","","","50"
"4565","","<div style=""width:500px;"">
  <p>How much control did you have over the ball?</p>
  </div>","0","html-slider-response","80","1663775","0.0-10.0-2.8","50","1","2025-07-09 09:07:15","7701e855f2ef39aa3fd6c71abdc6918a","41.150.37.225","Mozilla/5.0 (Macintosh; Intel Mac OS X 10_15_7) AppleWebKit/537.36 (KHTML, like Gecko) Chrome/137.0.0.0 Safari/537.36","Macintosh","Chrome","137.0.0.0","OS X","10_15_7","https://app.prolific.com/","en-US,en;q=0.9","61196260ae747a4f82d37217","686d226cabeef709c732f8e1","686e313b6fd82e036846dd16","61196260ae747a4f82d37217","2025-07-09T09:35:01.647Z","","","","","","ControlQ","","","","","","","","","","","","","","","","","","","","","","","","","","","","","","","","","","","","","","50"
"5983","","<div style=""width:500px;"">
  <p>How would you describe your current emotional state?</p>
  </div>","81","html-slider-response","81","1669759","0.0-10.0-3.8","50","1","2025-07-09 09:07:15","7701e855f2ef39aa3fd6c71abdc6918a","41.150.37.225","Mozilla/5.0 (Macintosh; Intel Mac OS X 10_15_7) AppleWebKit/537.36 (KHTML, like Gecko) Chrome/137.0.0.0 Safari/537.36","Macintosh","Chrome","137.0.0.0","OS X","10_15_7","https://app.prolific.com/","en-US,en;q=0.9","61196260ae747a4f82d37217","686d226cabeef709c732f8e1","686e313b6fd82e036846dd16","61196260ae747a4f82d37217","2025-07-09T09:35:07.631Z","","","","","","StressQ","","","","","","","","","","","","","","","","","","","","","","","","","","","","","","","","","","","","","","50"
"3616","","<div style=""width:500px;"">
  <p>What best describes how you currently feel?</p>
  </div>","81","html-slider-response","82","1673376","0.0-10.0-4.8","50","1","2025-07-09 09:07:15","7701e855f2ef39aa3fd6c71abdc6918a","41.150.37.225","Mozilla/5.0 (Macintosh; Intel Mac OS X 10_15_7) AppleWebKit/537.36 (KHTML, like Gecko) Chrome/137.0.0.0 Safari/537.36","Macintosh","Chrome","137.0.0.0","OS X","10_15_7","https://app.prolific.com/","en-US,en;q=0.9","61196260ae747a4f82d37217","686d226cabeef709c732f8e1","686e313b6fd82e036846dd16","61196260ae747a4f82d37217","2025-07-09T09:35:11.248Z","","","","","","MotivationQ","","","","","","","","","","","","","","","","","","","","","","","","","","","","","","","","","","","","","","50"
"","","","","ctl-task-cpt","83","1704061","0.0-10.0-0.9","50","1","2025-07-09 09:07:15","7701e855f2ef39aa3fd6c71abdc6918a","41.150.37.225","Mozilla/5.0 (Macintosh; Intel Mac OS X 10_15_7) AppleWebKit/537.36 (KHTML, like Gecko) Chrome/137.0.0.0 Safari/537.36","Macintosh","Chrome","137.0.0.0","OS X","10_15_7","https://app.prolific.com/","en-US,en;q=0.9","61196260ae747a4f82d37217","686d226cabeef709c732f8e1","686e313b6fd82e036846dd16","61196260ae747a4f82d37217","2025-07-09T09:35:41.934Z","","","","","","","","","","","","","","","","win-only","3","g1:SW,g2:NE","0.4","10","0","1677598.5","1500.7","6506.5","27675.2","1","4","4","6","2","-4","-4","0","0","0","5005.8","3000","-2960","[""up"",""right""]","{""num_key_presses"":4,""num_perfect"":3,""num_errors"":0,""num_randdir"":1,""num_randdir_good_moves"":0,""num_whilered"":0,""num_whileblue"":0,""num_blue"":2,""num_good_moves"":3}","[678.2857142857143,694.0825892857143,0.1,678.2857142857143,694.0825892857143,104.9,678.2857142857143,694.0825892857143,205,678.2857142857143,694.0825892857143,305.2,678.2857142857143,694.0825892857143,410.1,678.2857142857143,694.0825892857143,514.5,738.2857142857143,644.0825892857143,615.3,892.2857142857143,594.0825892857143,720.2,896.2857142857143,594.0825892857143,821.8,898.2857142857143,594.0825892857143,924.7,898.2857142857143,594.0825892857143,1024.7,898.2857142857143,594.0825892857143,1125.3,1214.2857142857142,316.0825892857143,1226.2,1214.2857142857142,316.0825892857143,1330.5,1214.2857142857142,316.0825892857143,1437.5,1214.2857142857142,316.0825892857143,1540.3,1216.2857142857142,310.0825892857143,1645.3,1218.2857142857142,306.0825892857143,1750.1,1218.2857142857142,304.0825892857143,1854.5,1220.2857142857142,298.0825892857143,1954.9,1232.2857142857142,280.0825892857143,2055,1236.2857142857142,272.0825892857143,2160.3,1236.2857142857142,270.0825892857143,2260.3,1236.2857142857142,268.0825892857143,2360.4,1236.2857142857142,268.0825892857143,2464.9,1236.2857142857142,268.0825892857143,2567.7,1236.2857142857142,268.0825892857143,2672.7,1236.2857142857142,268.0825892857143,2775.2,1236.2857142857142,266.0825892857143,2884,1242.2857142857142,262.0825892857143,2989.1,1244.2857142857142,258.0825892857143,3090.2,1244.2857142857142,258.0825892857143,3195.6,1244.2857142857142,258.0825892857143,3304,1244.2857142857142,258.0825892857143,3404.6,1244.2857142857142,258.0825892857143,3504.8,1244.2857142857142,258.0825892857143,3605.3,1244.2857142857142,258.0825892857143,3710.2,1244.2857142857142,258.0825892857143,3810.2,1244.2857142857142,258.0825892857143,3915.1,1244.2857142857142,258.0825892857143,4021.3,1244.2857142857142,258.0825892857143,4125.3,1244.2857142857142,258.0825892857143,4229.6,1244.2857142857142,258.0825892857143,4329.7,1244.2857142857142,258.0825892857143,4430.3,1244.2857142857142,258.0825892857143,4538.1,1244.2857142857142,258.0825892857143,4639.3,1244.2857142857142,258.0825892857143,4739.5,1244.2857142857142,258.0825892857143,4839.7,1244.2857142857142,258.0825892857143,4940.4]","[2693.1,2693.1,1000,0,1693.1,""smooth"",""up"",""up"",""good_move"",5570.2,2876.7,2434,2693.5,442.7,""smooth"",""up"",""up"",""good_move"",11650.5,6080.2,2189.3,9052.2,409,""smooth"",""up"",""up"",""good_move"",14163.6,2512.9,2075.2,11650.8,437.7,""oops"",""right"",""down"",""bad_move""]","",""
"2982","","<div style=""width:500px;"">
  <p>What determined the result of this run?</p>
