"rt","response_timestamp","stimulus","response","trial_type","trial_index","time_elapsed","internal_node_id","run_id","condition","recorded_at","source_code_version","ip","user_agent","device","browser","browser_version","platform","platform_version","referer","accept_language","PROLIFIC_PID","STUDY_ID","SESSION_ID","prolific_id","realtime","view_history","question_order","consent","success","question_id","eventType","responses","item_order","radio_event_ids","radio_event_times","key_event_times","mouse_event_times","straightlining","zigzagging","honeypot","which_type","canvas_config","goals_layout","control_level","trial_number","tutorial_trial_number","trial_start_time","phase1_start_time","phase2_start_time","phase3_start_time","goal_1_value","goal_1_distance","goal_2_value","goal_2_distance","goal_selected","outcome","outcome_total","participant_final_score","participant_initial_score","participant_final_score_prop","goal_choice_rt","allocated_time","allocated_time_remaining","goal_direction","counts","mouse_movements","key_presses","correct","slider_start"
"11727","1752052071364","<p style='font-size:40px;line-height:1.25'><strong>Welcome to the experiment!</strong></p><p style='font-size:1.1em;line-height:1.25'>Thank you for your interest in our experiment! Before you begin, it is important that we obtain your informed consent to participate in the study.</p><p style='font-size:1.1em;line-height:1.25'>On the next screen will be an <strong>information sheet</strong> for you to read. To participate in the study we need you to read this information sheet and the following consent form carefully. If you agree with all the statements, please click the <strong>I agree</strong> button.</p><p style='font-size:1.1em;line-height:1.25'>Press <strong>Next</strong> to read the information sheet.</p>","0","custom-html-button-response","0","11730","0.0-0.0","63","1","2025-07-09 09:07:22","7701e855f2ef39aa3fd6c71abdc6918a","90.212.166.118","Mozilla/5.0 (Windows NT 10.0; Win64; x64) AppleWebKit/537.36 (KHTML, like Gecko) Chrome/138.0.0.0 Safari/537.36","WebKit","Chrome","138.0.0.0","Windows","10.0","https://app.prolific.com/","en-GB,en-US;q=0.9,en;q=0.8","59dd90f6e75b450001a68dac","686d226cabeef709c732f8e1","686e3140426a6ff658a0b2b2","59dd90f6e75b450001a68dac","2025-07-09T09:07:51.365Z","","","","","","","","","","","","","","","","","","","","","","","","","","","","","","","","","","","","","","","","","","","",""
"51961","","","","instructions","1","63691","0.0-1.0","63","1","2025-07-09 09:07:22","7701e855f2ef39aa3fd6c71abdc6918a","90.212.166.118","Mozilla/5.0 (Windows NT 10.0; Win64; x64) AppleWebKit/537.36 (KHTML, like Gecko) Chrome/138.0.0.0 Safari/537.36","WebKit","Chrome","138.0.0.0","Windows","10.0","https://app.prolific.com/","en-GB,en-US;q=0.9,en;q=0.8","59dd90f6e75b450001a68dac","686d226cabeef709c732f8e1","686e3140426a6ff658a0b2b2","59dd90f6e75b450001a68dac","","[{""page_index"":0,""viewing_time"":50425},{""page_index"":1,""viewing_time"":1535}]","","","","","","","","","","","","","","","","","","","","","","","","","","","","","","","","","","","","","","","","","","",""
"6470","","","{""Q0"":"""",""Q1"":"""",""Q2"":"""",""Q3"":"""",""Q4"":"""",""Q5"":"""",""Q6"":""I agree""}","survey-multi-choice","2","70163","0.0-2.0","63","1","2025-07-09 09:07:22","7701e855f2ef39aa3fd6c71abdc6918a","90.212.166.118","Mozilla/5.0 (Windows NT 10.0; Win64; x64) AppleWebKit/537.36 (KHTML, like Gecko) Chrome/138.0.0.0 Safari/537.36","WebKit","Chrome","138.0.0.0","Windows","10.0","https://app.prolific.com/","en-GB,en-US;q=0.9,en;q=0.8","59dd90f6e75b450001a68dac","686d226cabeef709c732f8e1","686e3140426a6ff658a0b2b2","59dd90f6e75b450001a68dac","","","[0,1,2,3,4,5,6]","true","","","","","","","","","","","","","","","","","","","","","","","","","","","","","","","","","","","","","","","","",""
"4497","","","","fullscreen","3","75673","0.0-4.0","63","1","2025-07-09 09:07:22","7701e855f2ef39aa3fd6c71abdc6918a","90.212.166.118","Mozilla/5.0 (Windows NT 10.0; Win64; x64) AppleWebKit/537.36 (KHTML, like Gecko) Chrome/138.0.0.0 Safari/537.36","WebKit","Chrome","138.0.0.0","Windows","10.0","https://app.prolific.com/","en-GB,en-US;q=0.9,en;q=0.8","59dd90f6e75b450001a68dac","686d226cabeef709c732f8e1","686e3140426a6ff658a0b2b2","59dd90f6e75b450001a68dac","","","","","true","","","","","","","","","","","","","","","","","","","","","","","","","","","","","","","","","","","","","","","",""
"4230","1752052139540"," <p style='font-size:1.1em;line-height:1.25'>Thank you for completing the consent form and closing all other tabs.</p><p style='font-size:1.1em;line-height:1.25'>We will now invite you to fill in some demographic information and questionnaires, before starting the game.<br>This will take about 5 minutes.<br></p><p style='font-size:1.1em;line-height:1.25'>Press the <strong>Next</strong> button to continue.</p>","0","custom-html-button-response","4","79905","0.0-5.0","63","1","2025-07-09 09:07:22","7701e855f2ef39aa3fd6c71abdc6918a","90.212.166.118","Mozilla/5.0 (Windows NT 10.0; Win64; x64) AppleWebKit/537.36 (KHTML, like Gecko) Chrome/138.0.0.0 Safari/537.36","WebKit","Chrome","138.0.0.0","Windows","10.0","https://app.prolific.com/","en-GB,en-US;q=0.9,en;q=0.8","59dd90f6e75b450001a68dac","686d226cabeef709c732f8e1","686e3140426a6ff658a0b2b2","59dd90f6e75b450001a68dac","2025-07-09T09:08:59.540Z","","","","","","","","","","","","","","","","","","","","","","","","","","","","","","","","","","","","","","","","","","","",""
"3808","","","{""age"":""37""}","survey-text","5","83716","0.0-6.0-0.0","63","1","2025-07-09 09:07:22","7701e855f2ef39aa3fd6c71abdc6918a","90.212.166.118","Mozilla/5.0 (Windows NT 10.0; Win64; x64) AppleWebKit/537.36 (KHTML, like Gecko) Chrome/138.0.0.0 Safari/537.36","WebKit","Chrome","138.0.0.0","Windows","10.0","https://app.prolific.com/","en-GB,en-US;q=0.9,en;q=0.8","59dd90f6e75b450001a68dac","686d226cabeef709c732f8e1","686e3140426a6ff658a0b2b2","59dd90f6e75b450001a68dac","","","","","","0","demographics","","","","","","","","","","","","","","","","","","","","","","","","","","","","","","","","","","","","","",""
"2133","","","{""gender_identity"":""female/woman""}","survey-multi-choice","6","85850","0.0-6.0-1.0","63","1","2025-07-09 09:07:22","7701e855f2ef39aa3fd6c71abdc6918a","90.212.166.118","Mozilla/5.0 (Windows NT 10.0; Win64; x64) AppleWebKit/537.36 (KHTML, like Gecko) Chrome/138.0.0.0 Safari/537.36","WebKit","Chrome","138.0.0.0","Windows","10.0","https://app.prolific.com/","en-GB,en-US;q=0.9,en;q=0.8","59dd90f6e75b450001a68dac","686d226cabeef709c732f8e1","686e3140426a6ff658a0b2b2","59dd90f6e75b450001a68dac","","","[0]","","","1","demographics","","","","","","","","","","","","","","","","","","","","","","","","","","","","","","","","","","","","","",""
"2266","","","{""assigned_sex"":""female""}","survey-multi-choice","7","88118","0.0-6.0-2.0","63","1","2025-07-09 09:07:22","7701e855f2ef39aa3fd6c71abdc6918a","90.212.166.118","Mozilla/5.0 (Windows NT 10.0; Win64; x64) AppleWebKit/537.36 (KHTML, like Gecko) Chrome/138.0.0.0 Safari/537.36","WebKit","Chrome","138.0.0.0","Windows","10.0","https://app.prolific.com/","en-GB,en-US;q=0.9,en;q=0.8","59dd90f6e75b450001a68dac","686d226cabeef709c732f8e1","686e3140426a6ff658a0b2b2","59dd90f6e75b450001a68dac","","","[0]","","","2","demographics","","","","","","","","","","","","","","","","","","","","","","","","","","","","","","","","","","","","","",""
"2481","","","{""menstrual_cycle"":""Yes""}","survey-multi-choice","8","90600","0.0-6.0-3.0","63","1","2025-07-09 09:07:22","7701e855f2ef39aa3fd6c71abdc6918a","90.212.166.118","Mozilla/5.0 (Windows NT 10.0; Win64; x64) AppleWebKit/537.36 (KHTML, like Gecko) Chrome/138.0.0.0 Safari/537.36","WebKit","Chrome","138.0.0.0","Windows","10.0","https://app.prolific.com/","en-GB,en-US;q=0.9,en;q=0.8","59dd90f6e75b450001a68dac","686d226cabeef709c732f8e1","686e3140426a6ff658a0b2b2","59dd90f6e75b450001a68dac","","","[0]","","","4","demographics","","","","","","","","","","","","","","","","","","","","","","","","","","","","","","","","","","","","","",""
"2269","","","{""education"":""Bachelor's Degree (e.g., BA)""}","survey-multi-choice","9","92870","0.0-6.0-4.0","63","1","2025-07-09 09:07:22","7701e855f2ef39aa3fd6c71abdc6918a","90.212.166.118","Mozilla/5.0 (Windows NT 10.0; Win64; x64) AppleWebKit/537.36 (KHTML, like Gecko) Chrome/138.0.0.0 Safari/537.36","WebKit","Chrome","138.0.0.0","Windows","10.0","https://app.prolific.com/","en-GB,en-US;q=0.9,en;q=0.8","59dd90f6e75b450001a68dac","686d226cabeef709c732f8e1","686e3140426a6ff658a0b2b2","59dd90f6e75b450001a68dac","","","[0]","","","5","demographics","","","","","","","","","","","","","","","","","","","","","","","","","","","","","","","","","","","","","",""
"2921","","","{""education"":""Bachelor's Degree (e.g., BA)""}","survey-multi-choice","10","95792","0.0-6.0-5.0","63","1","2025-07-09 09:07:22","7701e855f2ef39aa3fd6c71abdc6918a","90.212.166.118","Mozilla/5.0 (Windows NT 10.0; Win64; x64) AppleWebKit/537.36 (KHTML, like Gecko) Chrome/138.0.0.0 Safari/537.36","WebKit","Chrome","138.0.0.0","Windows","10.0","https://app.prolific.com/","en-GB,en-US;q=0.9,en;q=0.8","59dd90f6e75b450001a68dac","686d226cabeef709c732f8e1","686e3140426a6ff658a0b2b2","59dd90f6e75b450001a68dac","2025-07-09T09:09:15.427Z","","[0]","","","6","demographics","","","","","","","","","","","","","","","","","","","","","","","","","","","","","","","","","","","","","",""
"13609","","","{""mental_health_condition"":""No"",""mental_health_treatment"":""No"",""psychiatric_medication"":""N/A""}","survey-text","11","109402","0.0-7.0-0.0","63","1","2025-07-09 09:07:22","7701e855f2ef39aa3fd6c71abdc6918a","90.212.166.118","Mozilla/5.0 (Windows NT 10.0; Win64; x64) AppleWebKit/537.36 (KHTML, like Gecko) Chrome/138.0.0.0 Safari/537.36","WebKit","Chrome","138.0.0.0","Windows","10.0","https://app.prolific.com/","en-GB,en-US;q=0.9,en;q=0.8","59dd90f6e75b450001a68dac","686d226cabeef709c732f8e1","686e3140426a6ff658a0b2b2","59dd90f6e75b450001a68dac","2025-07-09T09:09:29.037Z","","","","","1","mental_health","","","","","","","","","","","","","","","","","","","","","","","","","","","","","","","","","","","","","",""
"5977","","","{""depression_history"":[""Yes""]}","survey-multi-select","12","115383","0.0-7.0-1.0","63","1","2025-07-09 09:07:22","7701e855f2ef39aa3fd6c71abdc6918a","90.212.166.118","Mozilla/5.0 (Windows NT 10.0; Win64; x64) AppleWebKit/537.36 (KHTML, like Gecko) Chrome/138.0.0.0 Safari/537.36","WebKit","Chrome","138.0.0.0","Windows","10.0","https://app.prolific.com/","en-GB,en-US;q=0.9,en;q=0.8","59dd90f6e75b450001a68dac","686d226cabeef709c732f8e1","686e3140426a6ff658a0b2b2","59dd90f6e75b450001a68dac","","","[0]","","","","mental_health","","","","","","","","","","","","","","","","","","","","","","","","","","","","","","","","","","","","","",""
"6787","","","{""depression_episodes"":""more than 5"",""depression_recent"":""Currently experiencing an episode""}","survey-multi-choice","13","122172","0.0-7.0-2.0-0.0","63","1","2025-07-09 09:07:22","7701e855f2ef39aa3fd6c71abdc6918a","90.212.166.118","Mozilla/5.0 (Windows NT 10.0; Win64; x64) AppleWebKit/537.36 (KHTML, like Gecko) Chrome/138.0.0.0 Safari/537.36","WebKit","Chrome","138.0.0.0","Windows","10.0","https://app.prolific.com/","en-GB,en-US;q=0.9,en;q=0.8","59dd90f6e75b450001a68dac","686d226cabeef709c732f8e1","686e3140426a6ff658a0b2b2","59dd90f6e75b450001a68dac","2025-07-09T09:09:41.807Z","","[0,1]","","","3","mental_health","","","","","","","","","","","","","","","","","","","","","","","","","","","","","","","","","","","","","",""
"48657.5","","","","survey-template","14","170832","0.0-7.0-3.0","63","1","2025-07-09 09:07:22","7701e855f2ef39aa3fd6c71abdc6918a","90.212.166.118","Mozilla/5.0 (Windows NT 10.0; Win64; x64) AppleWebKit/537.36 (KHTML, like Gecko) Chrome/138.0.0.0 Safari/537.36","WebKit","Chrome","138.0.0.0","Windows","10.0","https://app.prolific.com/","en-GB,en-US;q=0.9,en;q=0.8","59dd90f6e75b450001a68dac","686d226cabeef709c732f8e1","686e3140426a6ff658a0b2b2","59dd90f6e75b450001a68dac","2025-07-09T09:10:30.467Z","","","","","","ius","{""Q01"":""3"",""Q02"":""4"",""Q03"":""4"",""Q04"":""4"",""Q05"":""3"",""Q06"":""4"",""Q07"":""4"",""Q08"":""0"",""Q09"":""2"",""Q10"":""2"",""Q11"":""4"",""Q12"":""4"",""Q13"":""3""}","[0,1,2,3,4,5,6,7,8,9,10,11,12]","[""Q01"",""Q02"",""Q03"",""Q04"",""Q05"",""Q06"",""Q07"",""Q08"",""Q09"",""Q10"",""Q10"",""Q11"",""Q12"",""Q13""]","[14699.200000001118,19792.900000000373,21645.700000001118,24295.200000001118,26517,28267.200000001118,30086,33848.70000000112,36930.59999999963,41116.70000000112,42879,44261.59999999963,45950.800000000745,47737.20000000112]","[]","[14699.200000001118,19792.900000000373,21645.700000001118,24295.200000001118,26517,28267.200000001118,30086,33848.70000000112,36930.59999999963,41116.70000000112,42879,44261.59999999963,45950.800000000745,47737.20000000112,48655.300000000745]","0.5384615384615384","0.4166666666666667","0","","","","","","","","","","","","","","","","","","","","","","","","","","","","",""
"2223","1752052232691","<p style='font-size:1.1em;line-height:1.25'>In the following, we will ask you a few questions relating to your experiences over the past month.<br></p><p style='font-size:1.1em;line-height:1.25'>Press the <strong>Next</strong> button to continue.</p>","0","custom-html-button-response","15","173056","0.0-7.0-4.0","63","1","2025-07-09 09:07:22","7701e855f2ef39aa3fd6c71abdc6918a","90.212.166.118","Mozilla/5.0 (Windows NT 10.0; Win64; x64) AppleWebKit/537.36 (KHTML, like Gecko) Chrome/138.0.0.0 Safari/537.36","WebKit","Chrome","138.0.0.0","Windows","10.0","https://app.prolific.com/","en-GB,en-US;q=0.9,en;q=0.8","59dd90f6e75b450001a68dac","686d226cabeef709c732f8e1","686e3140426a6ff658a0b2b2","59dd90f6e75b450001a68dac","2025-07-09T09:10:32.691Z","","","","","","","","","","","","","","","","","","","","","","","","","","","","","","","","","","","","","","","","","","","",""
"73651.30000000075","","","","survey-template","16","246709","0.0-7.0-5.0","63","1","2025-07-09 09:07:22","7701e855f2ef39aa3fd6c71abdc6918a","90.212.166.118","Mozilla/5.0 (Windows NT 10.0; Win64; x64) AppleWebKit/537.36 (KHTML, like Gecko) Chrome/138.0.0.0 Safari/537.36","WebKit","Chrome","138.0.0.0","Windows","10.0","https://app.prolific.com/","en-GB,en-US;q=0.9,en;q=0.8","59dd90f6e75b450001a68dac","686d226cabeef709c732f8e1","686e3140426a6ff658a0b2b2","59dd90f6e75b450001a68dac","2025-07-09T09:11:46.344Z","","","","","","pss","{""Q01"":""3"",""Q02"":""3"",""Q03"":""4"",""Q04"":""4"",""Q05"":""3"",""Q06"":""4"",""Q07"":""3"",""Q08"":""4"",""Q09"":""2"",""Q10"":""4""}","[0,1,2,3,4,5,6,7,8,9]","[""Q02"",""Q01"",""Q03"",""Q04"",""Q05"",""Q05"",""Q06"",""Q07"",""Q08"",""Q09"",""Q10""]","[42026.90000000037,42567.20000000112,45823.800000000745,49622.60000000149,54707.70000000112,56429.60000000149,60480.70000000112,62596.60000000149,67346.70000000112,70709.20000000112,72939.20000000112]","[]","[0,40895.20000000112,41495.40000000037,42026.90000000037,42567.20000000112,44249.70000000112,45823.800000000745,49622.60000000149,50921.10000000149,53131.10000000149,54707.70000000112,56429.60000000149,58171.20000000112,60480.70000000112,62596.60000000149,67346.70000000112,70709.20000000112,72939.20000000112,73649.10000000149]","0.3","0.4444444444444444","0","","","","","","","","","","","","","","","","","","","","","","","","","","","","",""
"65374","1752052371719","<p style='font-size:1.1em;line-height:1.25'>Thank you for your answers! Now we will ask you a few more questions relating to your feelings in the last 24 hours.<br></p><p style='font-size:1.1em;line-height:1.25'>Press the <strong>Next</strong> button to continue.</p>","0","custom-html-button-response","17","312085","0.0-7.0-6.0","63","1","2025-07-09 09:07:22","7701e855f2ef39aa3fd6c71abdc6918a","90.212.166.118","Mozilla/5.0 (Windows NT 10.0; Win64; x64) AppleWebKit/537.36 (KHTML, like Gecko) Chrome/138.0.0.0 Safari/537.36","WebKit","Chrome","138.0.0.0","Windows","10.0","https://app.prolific.com/","en-GB,en-US;q=0.9,en;q=0.8","59dd90f6e75b450001a68dac","686d226cabeef709c732f8e1","686e3140426a6ff658a0b2b2","59dd90f6e75b450001a68dac","2025-07-09T09:12:51.720Z","","","","","","","","","","","","","","","","","","","","","","","","","","","","","","","","","","","","","","","","","","","",""
"73874.5","","","","survey-template","18","385962","0.0-7.0-7.0","63","1","2025-07-09 09:07:22","7701e855f2ef39aa3fd6c71abdc6918a","90.212.166.118","Mozilla/5.0 (Windows NT 10.0; Win64; x64) AppleWebKit/537.36 (KHTML, like Gecko) Chrome/138.0.0.0 Safari/537.36","WebKit","Chrome","138.0.0.0","Windows","10.0","https://app.prolific.com/","en-GB,en-US;q=0.9,en;q=0.8","59dd90f6e75b450001a68dac","686d226cabeef709c732f8e1","686e3140426a6ff658a0b2b2","59dd90f6e75b450001a68dac","2025-07-09T09:14:05.597Z","","","","","","drsp","{""Q01"":""4"",""Q02"":""4"",""Q03"":""3"",""Q04"":""3"",""Q05"":""1"",""Q06"":""2"",""Q07"":""4"",""Q08"":""2"",""Q09"":""3"",""Q10"":""4"",""Q11"":""5"",""Q12"":""3"",""Q13"":""4"",""Q14"":""2"",""Q15"":""0"",""Q16"":""4"",""Q17"":""2"",""Q18"":""1"",""Q19"":""3"",""Q20"":""4"",""Q21"":""3""}","[0,1,2,3,4,5,6,7,8,9,10,11,12,13,14,15,16,17,18,19,20]","[""Q01"",""Q02"",""Q04"",""Q03"",""Q05"",""Q06"",""Q07"",""Q08"",""Q09"",""Q21"",""Q20"",""Q19"",""Q18"",""Q18"",""Q17"",""Q16"",""Q15"",""Q14"",""Q13"",""Q12"",""Q11"",""Q10""]","[8641.900000000373,11853.900000000373,15913.800000000745,19761.800000000745,22553.5,24931.5,26323.900000000373,28838.200000001118,33431.800000000745,39120.10000000149,42681.70000000112,47116.90000000037,49112.10000000149,50137.300000000745,53837.800000000745,55829.300000000745,57975.10000000149,60173.70000000112,63909.800000000745,66649.5,68004.80000000075,70019]","[]","[0,8641.900000000373,11853.900000000373,15913.800000000745,19761.800000000745,22553.5,24931.5,26323.900000000373,28446.60000000149,28838.200000001118,33431.800000000745,39120.10000000149,42006.40000000037,42681.70000000112,47116.90000000037,49112.10000000149,50137.300000000745,53837.800000000745,55829.300000000745,57975.10000000149,60173.70000000112,63909.800000000745,66649.5,68004.80000000075,70019,73871.20000000112]","0.3333333333333333","0.45","0","","","","","","","","","","","","","","","","","","","","","","","","","","","","",""
"9935.599999999627","","","","survey-template","19","395899","0.0-7.0-8.0","63","1","2025-07-09 09:07:22","7701e855f2ef39aa3fd6c71abdc6918a","90.212.166.118","Mozilla/5.0 (Windows NT 10.0; Win64; x64) AppleWebKit/537.36 (KHTML, like Gecko) Chrome/138.0.0.0 Safari/537.36","WebKit","Chrome","138.0.0.0","Windows","10.0","https://app.prolific.com/","en-GB,en-US;q=0.9,en;q=0.8","59dd90f6e75b450001a68dac","686d226cabeef709c732f8e1","686e3140426a6ff658a0b2b2","59dd90f6e75b450001a68dac","2025-07-09T09:14:15.535Z","","","","","","stress","{""Q01"":""4"",""Q02"":""5"",""Q03"":""4""}","[0,1,2]","[""Q02"",""Q01"",""Q03""]","[6356.699999999255,8256.299999998882,9363]","[]","[6356.699999999255,8256.299999998882,9363,9934.799999998882]","0.6666666666666666","0","0","","","","","","","","","","","","","","","","","","","","","","","","","","","","",""
"84325","","","","instructions","20","480226","0.0-8.0-0.0","63","1","2025-07-09 09:07:22","7701e855f2ef39aa3fd6c71abdc6918a","90.212.166.118","Mozilla/5.0 (Windows NT 10.0; Win64; x64) AppleWebKit/537.36 (KHTML, like Gecko) Chrome/138.0.0.0 Safari/537.36","WebKit","Chrome","138.0.0.0","Windows","10.0","https://app.prolific.com/","en-GB,en-US;q=0.9,en;q=0.8","59dd90f6e75b450001a68dac","686d226cabeef709c732f8e1","686e3140426a6ff658a0b2b2","59dd90f6e75b450001a68dac","","[{""page_index"":0,""viewing_time"":23325},{""page_index"":1,""viewing_time"":24712},{""page_index"":2,""viewing_time"":16066},{""page_index"":3,""viewing_time"":20222}]","","","","","","","","","","","","","","","","","","","","","","","","","","","","","","","","","","","","","","","","","","",""
"","","","","ctl-task-cpt","21","515970","0.0-8.0-1.0","63","1","2025-07-09 09:07:22","7701e855f2ef39aa3fd6c71abdc6918a","90.212.166.118","Mozilla/5.0 (Windows NT 10.0; Win64; x64) AppleWebKit/537.36 (KHTML, like Gecko) Chrome/138.0.0.0 Safari/537.36","WebKit","Chrome","138.0.0.0","Windows","10.0","https://app.prolific.com/","en-GB,en-US;q=0.9,en;q=0.8","59dd90f6e75b450001a68dac","686d226cabeef709c732f8e1","686e3140426a6ff658a0b2b2","59dd90f6e75b450001a68dac","","","","","","","","","","","","","","","","","win-only","2","g1:SE,g2:NW","1","0","1","499067.9","10657.5","14658.8","32732","2","4","4","6","1","2","0","0","0","0","3616.8","4000","1850","[""down"",""right""]","{""num_key_presses"":6,""num_perfect"":4,""num_errors"":2,""num_randdir"":0,""num_randdir_good_moves"":0,""num_whilered"":0,""num_whileblue"":0,""num_blue"":1,""num_good_moves"":4}","[408.57142857142856,418.47767857142856,0.2,408.57142857142856,418.47767857142856,100.4,408.57142857142856,418.47767857142856,200.7,408.57142857142856,418.47767857142856,303.2,408.57142857142856,418.47767857142856,403.6,408.57142857142856,418.47767857142856,508.8,408.57142857142856,418.47767857142856,617.4,408.57142857142856,418.47767857142856,718,408.57142857142856,418.47767857142856,818.1,408.57142857142856,418.47767857142856,918.4,408.57142857142856,418.47767857142856,1023.6,408.57142857142856,418.47767857142856,1134,408.57142857142856,418.47767857142856,1237.8,408.57142857142856,418.47767857142856,1338.7,408.57142857142856,418.47767857142856,1449.3,408.57142857142856,418.47767857142856,1550.1,408.57142857142856,418.47767857142856,1650.5,408.57142857142856,418.47767857142856,1752.9,408.57142857142856,418.47767857142856,1853.9,408.57142857142856,418.47767857142856,1957.9,408.57142857142856,418.47767857142856,2066.9,408.57142857142856,418.47767857142856,2167.5,408.57142857142856,418.47767857142856,2268,408.57142857142856,418.47767857142856,2368.1,408.57142857142856,418.47767857142856,2473,408.57142857142856,418.47767857142856,2573,408.57142857142856,418.47767857142856,2673.2,408.57142857142856,418.47767857142856,2773.7,408.57142857142856,418.47767857142856,2883.7,408.57142857142856,418.47767857142856,2983.9,434.57142857142856,417.47767857142856,3084.1,802.5714285714286,483.47767857142856,3189.6,822.5714285714286,529.4776785714286,3293.5,828.5714285714286,608.4776785714286,3393.5,807.5714285714286,689.4776785714286,3500.7,783.5714285714286,714.4776785714286,3601.6,783.5714285714286,714.4776785714286,3705.3,784.5714285714286,719.4776785714286,3808.9,783.5714285714286,719.4776785714286,3917.7]","[765.7,765.7,1000,0,-234.3,""error"",""-"",""-"",""no_move"",5365.7,4599.7,2891.5,1766.6,707.6,""smooth"",""down"",""down"",""good_move"",5701.3,335.3,2172.4,5366.1,-1837.2,""error"",""-"",""-"",""no_move"",9148.7,3447.3,1819.7,6702.2,626.9,""smooth"",""right"",""right"",""good_move"",15149,5999.9,2701.8,11915.8,531.4,""smooth"",""right"",""right"",""good_move"",17982.4,2833.3,2255.1,15149.1,578.2,""smooth"",""down"",""down"",""good_move""]","",""
"8991","","","","instructions","22","524961","0.0-8.0-2.0","63","1","2025-07-09 09:07:22","7701e855f2ef39aa3fd6c71abdc6918a","90.212.166.118","Mozilla/5.0 (Windows NT 10.0; Win64; x64) AppleWebKit/537.36 (KHTML, like Gecko) Chrome/138.0.0.0 Safari/537.36","WebKit","Chrome","138.0.0.0","Windows","10.0","https://app.prolific.com/","en-GB,en-US;q=0.9,en;q=0.8","59dd90f6e75b450001a68dac","686d226cabeef709c732f8e1","686e3140426a6ff658a0b2b2","59dd90f6e75b450001a68dac","","[{""page_index"":0,""viewing_time"":8991}]","","","","","","","","","","","","","","","","","","","","","","","","","","","","","","","","","","","","","","","","","","",""
"","","","","ctl-task-cpt","23","575104","0.0-8.0-3.0","63","1","2025-07-09 09:07:22","7701e855f2ef39aa3fd6c71abdc6918a","90.212.166.118","Mozilla/5.0 (Windows NT 10.0; Win64; x64) AppleWebKit/537.36 (KHTML, like Gecko) Chrome/138.0.0.0 Safari/537.36","WebKit","Chrome","138.0.0.0","Windows","10.0","https://app.prolific.com/","en-GB,en-US;q=0.9,en;q=0.8","59dd90f6e75b450001a68dac","686d226cabeef709c732f8e1","686e3140426a6ff658a0b2b2","59dd90f6e75b450001a68dac","","","","","","","","","","","","","","","","","win-only","2","g1:SE,g2:NW","0.35","0","3","543802.1","1892.2","5896","47130.8","2","4","8","6","2","-8","-8","0","0","0","1286.4","4000","-2980","[""left"",""up""]","{""num_key_presses"":8,""num_perfect"":4,""num_errors"":0,""num_randdir"":4,""num_randdir_good_moves"":2,""num_whilered"":0,""num_whileblue"":0,""num_blue"":4,""num_good_moves"":6}","[422.57142857142856,421.47767857142856,0.3,422.57142857142856,421.47767857142856,103.2,422.57142857142856,421.47767857142856,209.1,422.57142857142856,421.47767857142856,309.1,422.57142857142856,421.47767857142856,413.4,225.57142857142856,305.47767857142856,513.7,139.57142857142856,189.47767857142856,613.9,127.57142857142857,123.47767857142857,714.4,118.57142857142857,91.47767857142857,815.7,113.57142857142857,84.47767857142857,919.1,113.57142857142857,84.47767857142857,1023.8,113.57142857142857,84.47767857142857,1124.2,113.57142857142857,84.47767857142857,1228.7,113.57142857142857,84.47767857142857,1328.8,113.57142857142857,84.47767857142857,1433.4,113.57142857142857,84.47767857142857,1533.4,113.57142857142857,84.47767857142857,1633.5,113.57142857142857,84.47767857142857,1733.5,113.57142857142857,84.47767857142857,1834,113.57142857142857,84.47767857142857,1938.5,113.57142857142857,84.47767857142857,2038.6,113.57142857142857,84.47767857142857,2139.1,113.57142857142857,84.47767857142857,2239.5,113.57142857142857,84.47767857142857,2343.7,113.57142857142857,84.47767857142857,2449,113.57142857142857,84.47767857142857,2553.9,113.57142857142857,84.47767857142857,2654.6,113.57142857142857,84.47767857142857,2758.7,113.57142857142857,84.47767857142857,2863.6,113.57142857142857,84.47767857142857,2968.8,113.57142857142857,84.47767857142857,3069,113.57142857142857,84.47767857142857,3173.7,113.57142857142857,84.47767857142857,3273.7,113.57142857142857,84.47767857142857,3378.2,113.57142857142857,84.47767857142857,3478.9,113.57142857142857,84.47767857142857,3580.1,113.57142857142857,84.47767857142857,3684.5,113.57142857142857,84.47767857142857,3788.6,113.57142857142857,84.47767857142857,3894.9,113.57142857142857,84.47767857142857,3998.6]","[1591.3,1591.3,1000,0,591.3,""oops"",""up"",""left"",""good_move"",18991.6,17399.9,2376.7,16150.2,464.7,""smooth"",""up"",""up"",""good_move"",22736.1,3744.2,3101.3,18991.9,642.9,""smooth"",""up"",""up"",""good_move"",25247,2510.6,2030.8,22736.4,479.8,""oops"",""up"",""up"",""good_move"",28457.6,3210.3,2820.8,25247.3,389.5,""oops"",""left"",""right"",""bad_move"",31703.5,3245.5,2874.2,28458,371.3,""oops"",""left"",""down"",""bad_move"",35311,3606.9,3214.4,31704.1,392.5,""smooth"",""left"",""left"",""good_move"",38657.2,3345.9,2982.2,35311.3,363.7,""smooth"",""left"",""left"",""good_move""]","",""
"21264","","","","instructions","24","596369","0.0-8.0-4.0","63","1","2025-07-09 09:07:22","7701e855f2ef39aa3fd6c71abdc6918a","90.212.166.118","Mozilla/5.0 (Windows NT 10.0; Win64; x64) AppleWebKit/537.36 (KHTML, like Gecko) Chrome/138.0.0.0 Safari/537.36","WebKit","Chrome","138.0.0.0","Windows","10.0","https://app.prolific.com/","en-GB,en-US;q=0.9,en;q=0.8","59dd90f6e75b450001a68dac","686d226cabeef709c732f8e1","686e3140426a6ff658a0b2b2","59dd90f6e75b450001a68dac","","[{""page_index"":0,""viewing_time"":5270},{""page_index"":1,""viewing_time"":15994}]","","","","","","","","","","","","","","","","","","","","","","","","","","","","","","","","","","","","","","","","","","",""
"11740","","","{""green_ball"":[""Ball sometimes shakes and moves in a random direction""]}","survey-multi-select","25","608111","0.0-8.0-5.0-0.0","63","1","2025-07-09 09:07:22","7701e855f2ef39aa3fd6c71abdc6918a","90.212.166.118","Mozilla/5.0 (Windows NT 10.0; Win64; x64) AppleWebKit/537.36 (KHTML, like Gecko) Chrome/138.0.0.0 Safari/537.36","WebKit","Chrome","138.0.0.0","Windows","10.0","https://app.prolific.com/","en-GB,en-US;q=0.9,en;q=0.8","59dd90f6e75b450001a68dac","686d226cabeef709c732f8e1","686e3140426a6ff658a0b2b2","59dd90f6e75b450001a68dac","","","[0]","","","","quiz","","","","","","","","","","","","","","","","","","","","","","","","","","","","","","","","","","","","","true",""
"1224","","<p align='center'><b>CORRECT!</b> Indeed, the green ball may sometimes shake and move in a random direction.</p>","0","html-button-response","26","609336","0.0-8.0-5.0-1.0","63","1","2025-07-09 09:07:22","7701e855f2ef39aa3fd6c71abdc6918a","90.212.166.118","Mozilla/5.0 (Windows NT 10.0; Win64; x64) AppleWebKit/537.36 (KHTML, like Gecko) Chrome/138.0.0.0 Safari/537.36","WebKit","Chrome","138.0.0.0","Windows","10.0","https://app.prolific.com/","en-GB,en-US;q=0.9,en;q=0.8","59dd90f6e75b450001a68dac","686d226cabeef709c732f8e1","686e3140426a6ff658a0b2b2","59dd90f6e75b450001a68dac","","","","","","","","","","","","","","","","","","","","","","","","","","","","","","","","","","","","","","","","","","","","",""
"4358","","","{""yellow_ball"":[""Ball doesn‘t move and I get -1 penalty point""]}","survey-multi-select","27","613696","0.0-8.0-6.0-0.0","63","1","2025-07-09 09:07:22","7701e855f2ef39aa3fd6c71abdc6918a","90.212.166.118","Mozilla/5.0 (Windows NT 10.0; Win64; x64) AppleWebKit/537.36 (KHTML, like Gecko) Chrome/138.0.0.0 Safari/537.36","WebKit","Chrome","138.0.0.0","Windows","10.0","https://app.prolific.com/","en-GB,en-US;q=0.9,en;q=0.8","59dd90f6e75b450001a68dac","686d226cabeef709c732f8e1","686e3140426a6ff658a0b2b2","59dd90f6e75b450001a68dac","","","[0]","","","","quiz","","","","","","","","","","","","","","","","","","","","","","","","","","","","","","","","","","","","","true",""
"1001","","<p align='center'><b>CORRECT!</b> Indeed, the yellow ball never moves and you receive a penalty.</p>","0","html-button-response","28","614698","0.0-8.0-6.0-1.0","63","1","2025-07-09 09:07:22","7701e855f2ef39aa3fd6c71abdc6918a","90.212.166.118","Mozilla/5.0 (Windows NT 10.0; Win64; x64) AppleWebKit/537.36 (KHTML, like Gecko) Chrome/138.0.0.0 Safari/537.36","WebKit","Chrome","138.0.0.0","Windows","10.0","https://app.prolific.com/","en-GB,en-US;q=0.9,en;q=0.8","59dd90f6e75b450001a68dac","686d226cabeef709c732f8e1","686e3140426a6ff658a0b2b2","59dd90f6e75b450001a68dac","","","","","","","","","","","","","","","","","","","","","","","","","","","","","","","","","","","","","","","","","","","","",""
"2575","","","{""blue_ball"":[""Ball doesn‘t move and I get -1 penalty point""]}","survey-multi-select","29","617274","0.0-8.0-7.0-0.0","63","1","2025-07-09 09:07:22","7701e855f2ef39aa3fd6c71abdc6918a","90.212.166.118","Mozilla/5.0 (Windows NT 10.0; Win64; x64) AppleWebKit/537.36 (KHTML, like Gecko) Chrome/138.0.0.0 Safari/537.36","WebKit","Chrome","138.0.0.0","Windows","10.0","https://app.prolific.com/","en-GB,en-US;q=0.9,en;q=0.8","59dd90f6e75b450001a68dac","686d226cabeef709c732f8e1","686e3140426a6ff658a0b2b2","59dd90f6e75b450001a68dac","","","[0]","","","","quiz","","","","","","","","","","","","","","","","","","","","","","","","","","","","","","","","","","","","","false",""
"4004","","<p align='center'><b>INCORRECT.</b> The blue ball always shakes and moves randomly.</p>","0","html-button-response","30","621280","0.0-8.0-7.0-1.0","63","1","2025-07-09 09:07:22","7701e855f2ef39aa3fd6c71abdc6918a","90.212.166.118","Mozilla/5.0 (Windows NT 10.0; Win64; x64) AppleWebKit/537.36 (KHTML, like Gecko) Chrome/138.0.0.0 Safari/537.36","WebKit","Chrome","138.0.0.0","Windows","10.0","https://app.prolific.com/","en-GB,en-US;q=0.9,en;q=0.8","59dd90f6e75b450001a68dac","686d226cabeef709c732f8e1","686e3140426a6ff658a0b2b2","59dd90f6e75b450001a68dac","","","","","","","","","","","","","","","","","","","","","","","","","","","","","","","","","","","","","","","","","","","","",""
"5482","","","{""blue_ball"":[""Ball always shakes and moves in a random direction""]}","survey-multi-select","31","626763","0.0-8.0-7.1-0.1","63","1","2025-07-09 09:07:22","7701e855f2ef39aa3fd6c71abdc6918a","90.212.166.118","Mozilla/5.0 (Windows NT 10.0; Win64; x64) AppleWebKit/537.36 (KHTML, like Gecko) Chrome/138.0.0.0 Safari/537.36","WebKit","Chrome","138.0.0.0","Windows","10.0","https://app.prolific.com/","en-GB,en-US;q=0.9,en;q=0.8","59dd90f6e75b450001a68dac","686d226cabeef709c732f8e1","686e3140426a6ff658a0b2b2","59dd90f6e75b450001a68dac","","","[0]","","","","quiz","","","","","","","","","","","","","","","","","","","","","","","","","","","","","","","","","","","","","true",""
"3060","","<p align='center'><b>CORRECT!</b> Indeed, the blue ball always shakes and moves in a random direction. Also there is a penalty of -1 point.</p>","0","html-button-response","32","629825","0.0-8.0-7.1-1.1","63","1","2025-07-09 09:07:22","7701e855f2ef39aa3fd6c71abdc6918a","90.212.166.118","Mozilla/5.0 (Windows NT 10.0; Win64; x64) AppleWebKit/537.36 (KHTML, like Gecko) Chrome/138.0.0.0 Safari/537.36","WebKit","Chrome","138.0.0.0","Windows","10.0","https://app.prolific.com/","en-GB,en-US;q=0.9,en;q=0.8","59dd90f6e75b450001a68dac","686d226cabeef709c732f8e1","686e3140426a6ff658a0b2b2","59dd90f6e75b450001a68dac","","","","","","","","","","","","","","","","","","","","","","","","","","","","","","","","","","","","","","","","","","","","",""
"2946","","","{""bonus"":[""When I reach 50% of points""]}","survey-multi-select","33","632772","0.0-8.0-8.0-0.0","63","1","2025-07-09 09:07:22","7701e855f2ef39aa3fd6c71abdc6918a","90.212.166.118","Mozilla/5.0 (Windows NT 10.0; Win64; x64) AppleWebKit/537.36 (KHTML, like Gecko) Chrome/138.0.0.0 Safari/537.36","WebKit","Chrome","138.0.0.0","Windows","10.0","https://app.prolific.com/","en-GB,en-US;q=0.9,en;q=0.8","59dd90f6e75b450001a68dac","686d226cabeef709c732f8e1","686e3140426a6ff658a0b2b2","59dd90f6e75b450001a68dac","","","[0]","","","","quiz","","","","","","","","","","","","","","","","","","","","","","","","","","","","","","","","","","","","","true",""
"930","","<p align='center'><b>CORRECT!</b> Indeed, you receive 2 pounds extra when you reach 50% of points.</p>","0","html-button-response","34","633703","0.0-8.0-8.0-1.0","63","1","2025-07-09 09:07:22","7701e855f2ef39aa3fd6c71abdc6918a","90.212.166.118","Mozilla/5.0 (Windows NT 10.0; Win64; x64) AppleWebKit/537.36 (KHTML, like Gecko) Chrome/138.0.0.0 Safari/537.36","WebKit","Chrome","138.0.0.0","Windows","10.0","https://app.prolific.com/","en-GB,en-US;q=0.9,en;q=0.8","59dd90f6e75b450001a68dac","686d226cabeef709c732f8e1","686e3140426a6ff658a0b2b2","59dd90f6e75b450001a68dac","","","","","","","","","","","","","","","","","","","","","","","","","","","","","","","","","","","","","","","","","","","","",""
"4411","","","","instructions","35","638114","0.0-8.0-9.0","63","1","2025-07-09 09:07:22","7701e855f2ef39aa3fd6c71abdc6918a","90.212.166.118","Mozilla/5.0 (Windows NT 10.0; Win64; x64) AppleWebKit/537.36 (KHTML, like Gecko) Chrome/138.0.0.0 Safari/537.36","WebKit","Chrome","138.0.0.0","Windows","10.0","https://app.prolific.com/","en-GB,en-US;q=0.9,en;q=0.8","59dd90f6e75b450001a68dac","686d226cabeef709c732f8e1","686e3140426a6ff658a0b2b2","59dd90f6e75b450001a68dac","","[{""page_index"":0,""viewing_time"":4410}]","","","","","","","","","","","","","","","","","","","","","","","","","","","","","","","","","","","","","","","","","","",""
"10820","","<p>Before you start with this game please answer the following three questions yourself. </p>
  <p>Through this game, we measure several aspects of your cognitive performance, such as reaction times, multi-tasking capabilities </p>
  <p>and the ability to assess the situation you are in.</p>
  <p></p>
  <p><b>How good do you usually are in such tasks?</b></p>","67","html-slider-response","36","648939","0.0-9.0-0.0","63","1","2025-07-09 09:07:22","7701e855f2ef39aa3fd6c71abdc6918a","90.212.166.118","Mozilla/5.0 (Windows NT 10.0; Win64; x64) AppleWebKit/537.36 (KHTML, like Gecko) Chrome/138.0.0.0 Safari/537.36","WebKit","Chrome","138.0.0.0","Windows","10.0","https://app.prolific.com/","en-GB,en-US;q=0.9,en;q=0.8","59dd90f6e75b450001a68dac","686d226cabeef709c732f8e1","686e3140426a6ff658a0b2b2","59dd90f6e75b450001a68dac","2025-07-09T09:18:28.574Z","","","","","","PreSkillQ","","","","","","","","","","","","","","","","","","","","","","","","","","","","","","","","","","","","","","50"
"4428","","<div style=""width:500px;"">
  <p>How well do you think you will perform in this task compared to other participants?</p>
  </div>","63","html-slider-response","37","653368","0.0-9.0-1.0","63","1","2025-07-09 09:07:22","7701e855f2ef39aa3fd6c71abdc6918a","90.212.166.118","Mozilla/5.0 (Windows NT 10.0; Win64; x64) AppleWebKit/537.36 (KHTML, like Gecko) Chrome/138.0.0.0 Safari/537.36","WebKit","Chrome","138.0.0.0","Windows","10.0","https://app.prolific.com/","en-GB,en-US;q=0.9,en;q=0.8","59dd90f6e75b450001a68dac","686d226cabeef709c732f8e1","686e3140426a6ff658a0b2b2","59dd90f6e75b450001a68dac","2025-07-09T09:18:33.003Z","","","","","","PrePerfQ","","","","","","","","","","","","","","","","","","","","","","","","","","","","","","","","","","","","","","50"
"3413","","<div style=""width:500px;"">
  <p>What best describes how you currently feel?</p>
  </div>","70","html-slider-response","38","656782","0.0-9.0-2.0","63","1","2025-07-09 09:07:22","7701e855f2ef39aa3fd6c71abdc6918a","90.212.166.118","Mozilla/5.0 (Windows NT 10.0; Win64; x64) AppleWebKit/537.36 (KHTML, like Gecko) Chrome/138.0.0.0 Safari/537.36","WebKit","Chrome","138.0.0.0","Windows","10.0","https://app.prolific.com/","en-GB,en-US;q=0.9,en;q=0.8","59dd90f6e75b450001a68dac","686d226cabeef709c732f8e1","686e3140426a6ff658a0b2b2","59dd90f6e75b450001a68dac","2025-07-09T09:18:36.417Z","","","","","","PreMotivationQ","","","","","","","","","","","","","","","","","","","","","","","","","","","","","","","","","","","","","","50"
"","","","","ctl-task-cpt","39","687870","0.0-10.0-0.0","63","1","2025-07-09 09:07:22","7701e855f2ef39aa3fd6c71abdc6918a","90.212.166.118","Mozilla/5.0 (Windows NT 10.0; Win64; x64) AppleWebKit/537.36 (KHTML, like Gecko) Chrome/138.0.0.0 Safari/537.36","WebKit","Chrome","138.0.0.0","Windows","10.0","https://app.prolific.com/","en-GB,en-US;q=0.9,en;q=0.8","59dd90f6e75b450001a68dac","686d226cabeef709c732f8e1","686e3140426a6ff658a0b2b2","59dd90f6e75b450001a68dac","2025-07-09T09:19:07.505Z","","","","","","","","","","","","","","","","win-only","2","g1:SE,g2:NW","1","1","0","675624.3","2494.3","7496.3","28070.5","1","4","4","6","2","4","4","4","0","0.030303030303030304","1205.5","3000","370","[""left"",""up""]","{""num_key_presses"":6,""num_perfect"":6,""num_errors"":0,""num_randdir"":0,""num_randdir_good_moves"":0,""num_whilered"":0,""num_whileblue"":0,""num_blue"":1,""num_good_moves"":6}","[416.57142857142856,420.47767857142856,0.1,416.57142857142856,420.47767857142856,101.8,416.57142857142856,420.47767857142856,206.6,416.57142857142856,420.47767857142856,307.6,416.57142857142856,420.47767857142856,411.8,416.57142857142856,420.47767857142856,516.3,416.57142857142856,423.47767857142856,616.7,405.57142857142856,420.47767857142856,720.9,171.57142857142856,259.47767857142856,821.2,114.57142857142857,163.47767857142856,921.4,90.57142857142857,120.47767857142857,1026.2,85.57142857142857,91.47767857142857,1131,85.57142857142857,88.47767857142857,1231,85.57142857142857,88.47767857142857,1337.6,85.57142857142857,88.47767857142857,1442,85.57142857142857,88.47767857142857,1542.9,85.57142857142857,88.47767857142857,1646.7,85.57142857142857,88.47767857142857,1751.5,85.57142857142857,88.47767857142857,1856.5,85.57142857142857,88.47767857142857,1961.7,85.57142857142857,88.47767857142857,2066.5,85.57142857142857,88.47767857142857,2166.5,85.57142857142857,88.47767857142857,2266.5,85.57142857142857,88.47767857142857,2366.9,85.57142857142857,88.47767857142857,2472.3,85.57142857142857,88.47767857142857,2576.8,85.57142857142857,88.47767857142857,2677.8,85.57142857142857,88.47767857142857,2782.2,85.57142857142857,88.47767857142857,2886.8,85.57142857142857,88.47767857142857,2992.7,85.57142857142857,88.47767857142857,3096.4,85.57142857142857,88.47767857142857,3197.6,85.57142857142857,88.47767857142857,3301.1,85.57142857142857,88.47767857142857,3402.1,85.57142857142857,88.47767857142857,3502.8,85.57142857142857,88.47767857142857,3606.3,85.57142857142857,88.47767857142857,3711.6,85.57142857142857,88.47767857142857,3816,85.57142857142857,88.47767857142857,3916.1,85.57142857142857,88.47767857142857,4021.8,85.57142857142857,88.47767857142857,4122.5,85.57142857142857,88.47767857142857,4226.2,85.57142857142857,88.47767857142857,4326.3,85.57142857142857,88.47767857142857,4432.7,85.57142857142857,88.47767857142857,4537.3,85.57142857142857,88.47767857142857,4641.5,85.57142857142857,88.47767857142857,4741.7,85.57142857142857,88.47767857142857,4846.6,85.57142857142857,88.47767857142857,4951.4]","[1433.5,1433.5,1000,0,433.5,""smooth"",""up"",""up"",""good_move"",4040.2,2606.3,2181.7,1433.9,424.6,""smooth"",""up"",""up"",""good_move"",7370.4,3329.9,2862.2,4040.5,467.7,""smooth"",""up"",""up"",""good_move"",10096.3,2725.5,2333.4,7370.8,392.1,""smooth"",""left"",""left"",""good_move"",13824.4,3727.8,3257.6,10096.6,470.2,""smooth"",""left"",""left"",""good_move"",20472.4,6647.8,2559.4,17430.4,482.6,""smooth"",""left"",""left"",""good_move""]","",""
"13260","","<div style=""width:500px;"">
  <p>What determined the result of this run?</p>
  </div>","26","html-slider-response","40","701132","0.0-10.0-1.0","63","1","2025-07-09 09:07:22","7701e855f2ef39aa3fd6c71abdc6918a","90.212.166.118","Mozilla/5.0 (Windows NT 10.0; Win64; x64) AppleWebKit/537.36 (KHTML, like Gecko) Chrome/138.0.0.0 Safari/537.36","WebKit","Chrome","138.0.0.0","Windows","10.0","https://app.prolific.com/","en-GB,en-US;q=0.9,en;q=0.8","59dd90f6e75b450001a68dac","686d226cabeef709c732f8e1","686e3140426a6ff658a0b2b2","59dd90f6e75b450001a68dac","2025-07-09T09:19:20.767Z","","","","","","AttribQ","","","","","","","","","","","","","","","","","","","","","","","","","","","","","","","","","","","","","","50"
"6323","","<div style=""width:500px;"">
  <p>How much control did you have over the ball?</p>
  </div>","100","html-slider-response","41","707456","0.0-10.0-2.0","63","1","2025-07-09 09:07:22","7701e855f2ef39aa3fd6c71abdc6918a","90.212.166.118","Mozilla/5.0 (Windows NT 10.0; Win64; x64) AppleWebKit/537.36 (KHTML, like Gecko) Chrome/138.0.0.0 Safari/537.36","WebKit","Chrome","138.0.0.0","Windows","10.0","https://app.prolific.com/","en-GB,en-US;q=0.9,en;q=0.8","59dd90f6e75b450001a68dac","686d226cabeef709c732f8e1","686e3140426a6ff658a0b2b2","59dd90f6e75b450001a68dac","2025-07-09T09:19:27.091Z","","","","","","ControlQ","","","","","","","","","","","","","","","","","","","","","","","","","","","","","","","","","","","","","","50"
"4151","","<div style=""width:500px;"">
  <p>How would you describe your current emotional state?</p>
  </div>","33","html-slider-response","42","711608","0.0-10.0-3.0","63","1","2025-07-09 09:07:22","7701e855f2ef39aa3fd6c71abdc6918a","90.212.166.118","Mozilla/5.0 (Windows NT 10.0; Win64; x64) AppleWebKit/537.36 (KHTML, like Gecko) Chrome/138.0.0.0 Safari/537.36","WebKit","Chrome","138.0.0.0","Windows","10.0","https://app.prolific.com/","en-GB,en-US;q=0.9,en;q=0.8","59dd90f6e75b450001a68dac","686d226cabeef709c732f8e1","686e3140426a6ff658a0b2b2","59dd90f6e75b450001a68dac","2025-07-09T09:19:31.243Z","","","","","","StressQ","","","","","","","","","","","","","","","","","","","","","","","","","","","","","","","","","","","","","","50"
"5181","","<div style=""width:500px;"">
  <p>What best describes how you currently feel?</p>
  </div>","58","html-slider-response","43","716790","0.0-10.0-4.0","63","1","2025-07-09 09:07:22","7701e855f2ef39aa3fd6c71abdc6918a","90.212.166.118","Mozilla/5.0 (Windows NT 10.0; Win64; x64) AppleWebKit/537.36 (KHTML, like Gecko) Chrome/138.0.0.0 Safari/537.36","WebKit","Chrome","138.0.0.0","Windows","10.0","https://app.prolific.com/","en-GB,en-US;q=0.9,en;q=0.8","59dd90f6e75b450001a68dac","686d226cabeef709c732f8e1","686e3140426a6ff658a0b2b2","59dd90f6e75b450001a68dac","2025-07-09T09:19:36.425Z","","","","","","MotivationQ","","","","","","","","","","","","","","","","","","","","","","","","","","","","","","","","","","","","","","50"
"","","","","ctl-task-cpt","44","740319","0.0-10.0-0.1","63","1","2025-07-09 09:07:22","7701e855f2ef39aa3fd6c71abdc6918a","90.212.166.118","Mozilla/5.0 (Windows NT 10.0; Win64; x64) AppleWebKit/537.36 (KHTML, like Gecko) Chrome/138.0.0.0 Safari/537.36","WebKit","Chrome","138.0.0.0","Windows","10.0","https://app.prolific.com/","en-GB,en-US;q=0.9,en;q=0.8","59dd90f6e75b450001a68dac","686d226cabeef709c732f8e1","686e3140426a6ff658a0b2b2","59dd90f6e75b450001a68dac","2025-07-09T09:19:59.954Z","","","","","","","","","","","","","","","","win-only","0","g1:NW,g2:SE","0.9","2","0","735631.7","2190.2","7190.4","20516.3","1","4","8","6","1","1","1","5","4","0.03787878787878788","1594.4","3000","1230","[""left"",""up""]","{""num_key_presses"":4,""num_perfect"":3,""num_errors"":0,""num_randdir"":1,""num_randdir_good_moves"":1,""num_whilered"":0,""num_whileblue"":0,""num_blue"":1,""num_good_moves"":4}","[416.57142857142856,419.47767857142856,0.2,416.57142857142856,419.47767857142856,100.2,416.57142857142856,419.47767857142856,201.2,416.57142857142856,419.47767857142856,306.1,416.57142857142856,419.47767857142856,411.3,416.57142857142856,419.47767857142856,516.1,416.57142857142856,419.47767857142856,621.6,468.57142857142856,449.47767857142856,725.2,709.5714285714286,614.4776785714286,825.2,717.5714285714286,659.4776785714286,925.7,717.5714285714286,691.4776785714286,1030.6,662.5714285714286,686.4776785714286,1135.9,212.57142857142856,328.47767857142856,1240.9,99.57142857142857,186.47767857142856,1345.7,93.57142857142857,113.47767857142857,1450.6,88.57142857142857,78.47767857142857,1550.7,86.57142857142857,75.47767857142857,1650.9,86.57142857142857,75.47767857142857,1756.6,90.57142857142857,98.47767857142857,1861.8,53.57142857142857,147.47767857142856,1966.1,53.57142857142857,147.47767857142856,2066.1,53.57142857142857,147.47767857142856,2166.1,53.57142857142857,147.47767857142856,2270.8,53.57142857142857,147.47767857142856,2375.1,53.57142857142857,147.47767857142856,2475.3,53.57142857142857,147.47767857142856,2577.6,53.57142857142857,147.47767857142856,2681.7,53.57142857142857,147.47767857142856,2785.4,53.57142857142857,147.47767857142856,2887,53.57142857142857,147.47767857142856,2991.2,53.57142857142857,147.47767857142856,3095.4,53.57142857142857,147.47767857142856,3196.1,53.57142857142857,147.47767857142856,3300.9,53.57142857142857,147.47767857142856,3403.4,53.57142857142857,147.47767857142856,3505.6,53.57142857142857,147.47767857142856,3610.8,53.57142857142857,147.47767857142856,3715.5,53.57142857142857,147.47767857142856,3815.5,53.57142857142857,147.47767857142856,3921.1,53.57142857142857,147.47767857142856,4024,53.57142857142857,147.47767857142856,4126,53.57142857142857,147.47767857142856,4230.4,53.57142857142857,147.47767857142856,4331.1,53.57142857142857,147.47767857142856,4436.2,53.57142857142857,147.47767857142856,4536.2,53.57142857142857,147.47767857142856,4636.2,53.57142857142857,147.47767857142856,4741.1,53.57142857142857,147.47767857142856,4846.4,53.57142857142857,147.47767857142856,4950.6]","[5211.4,5211.4,2801.6,2005.4,404.4,""smooth"",""up"",""up"",""good_move"",8091.1,2879.4,2379.3,5211.7,500.1,""smooth"",""up"",""up"",""good_move"",10835.1,2743.8,2302,8091.3,441.8,""oops"",""left"",""left"",""good_move"",13235.5,2400.2,1958.8,10835.3,441.4,""smooth"",""left"",""left"",""good_move""]","",""
"3743","","<div style=""width:500px;"">
  <p>What determined the result of this run?</p>
  </div>","57","html-slider-response","45","744064","0.0-10.0-1.1","63","1","2025-07-09 09:07:22","7701e855f2ef39aa3fd6c71abdc6918a","90.212.166.118","Mozilla/5.0 (Windows NT 10.0; Win64; x64) AppleWebKit/537.36 (KHTML, like Gecko) Chrome/138.0.0.0 Safari/537.36","WebKit","Chrome","138.0.0.0","Windows","10.0","https://app.prolific.com/","en-GB,en-US;q=0.9,en;q=0.8","59dd90f6e75b450001a68dac","686d226cabeef709c732f8e1","686e3140426a6ff658a0b2b2","59dd90f6e75b450001a68dac","2025-07-09T09:20:03.699Z","","","","","","AttribQ","","","","","","","","","","","","","","","","","","","","","","","","","","","","","","","","","","","","","","50"
"3270","","<div style=""width:500px;"">
  <p>How much control did you have over the ball?</p>
  </div>","100","html-slider-response","46","747334","0.0-10.0-2.1","63","1","2025-07-09 09:07:22","7701e855f2ef39aa3fd6c71abdc6918a","90.212.166.118","Mozilla/5.0 (Windows NT 10.0; Win64; x64) AppleWebKit/537.36 (KHTML, like Gecko) Chrome/138.0.0.0 Safari/537.36","WebKit","Chrome","138.0.0.0","Windows","10.0","https://app.prolific.com/","en-GB,en-US;q=0.9,en;q=0.8","59dd90f6e75b450001a68dac","686d226cabeef709c732f8e1","686e3140426a6ff658a0b2b2","59dd90f6e75b450001a68dac","2025-07-09T09:20:06.969Z","","","","","","ControlQ","","","","","","","","","","","","","","","","","","","","","","","","","","","","","","","","","","","","","","50"
"4174","","<div style=""width:500px;"">
  <p>How would you describe your current emotional state?</p>
  </div>","27","html-slider-response","47","751510","0.0-10.0-3.1","63","1","2025-07-09 09:07:22","7701e855f2ef39aa3fd6c71abdc6918a","90.212.166.118","Mozilla/5.0 (Windows NT 10.0; Win64; x64) AppleWebKit/537.36 (KHTML, like Gecko) Chrome/138.0.0.0 Safari/537.36","WebKit","Chrome","138.0.0.0","Windows","10.0","https://app.prolific.com/","en-GB,en-US;q=0.9,en;q=0.8","59dd90f6e75b450001a68dac","686d226cabeef709c732f8e1","686e3140426a6ff658a0b2b2","59dd90f6e75b450001a68dac","2025-07-09T09:20:11.145Z","","","","","","StressQ","","","","","","","","","","","","","","","","","","","","","","","","","","","","","","","","","","","","","","50"
"3821","","<div style=""width:500px;"">
  <p>What best describes how you currently feel?</p>
  </div>","66","html-slider-response","48","755332","0.0-10.0-4.1","63","1","2025-07-09 09:07:22","7701e855f2ef39aa3fd6c71abdc6918a","90.212.166.118","Mozilla/5.0 (Windows NT 10.0; Win64; x64) AppleWebKit/537.36 (KHTML, like Gecko) Chrome/138.0.0.0 Safari/537.36","WebKit","Chrome","138.0.0.0","Windows","10.0","https://app.prolific.com/","en-GB,en-US;q=0.9,en;q=0.8","59dd90f6e75b450001a68dac","686d226cabeef709c732f8e1","686e3140426a6ff658a0b2b2","59dd90f6e75b450001a68dac","2025-07-09T09:20:14.967Z","","","","","","MotivationQ","","","","","","","","","","","","","","","","","","","","","","","","","","","","","","","","","","","","","","50"
"","","","","ctl-task-cpt","49","808254","0.0-10.0-0.2","63","1","2025-07-09 09:07:22","7701e855f2ef39aa3fd6c71abdc6918a","90.212.166.118","Mozilla/5.0 (Windows NT 10.0; Win64; x64) AppleWebKit/537.36 (KHTML, like Gecko) Chrome/138.0.0.0 Safari/537.36","WebKit","Chrome","138.0.0.0","Windows","10.0","https://app.prolific.com/","en-GB,en-US;q=0.9,en;q=0.8","59dd90f6e75b450001a68dac","686d226cabeef709c732f8e1","686e3140426a6ff658a0b2b2","59dd90f6e75b450001a68dac","2025-07-09T09:21:07.889Z","","","","","","","","","","","","","","","","win-only","1","g1:NE,g2:SW","0.8","3","0","774173.2","3206.5","8211.1","49906.3","1","4","4","6","2","-4","-5","0","5","0","1162.9","3000","-2710","[""down"",""left""]","{""num_key_presses"":8,""num_perfect"":6,""num_errors"":1,""num_randdir"":1,""num_randdir_good_moves"":0,""num_whilered"":0,""num_whileblue"":1,""num_blue"":5,""num_good_moves"":6}","[412.57142857142856,415.47767857142856,0.3,412.57142857142856,415.47767857142856,103.7,412.57142857142856,415.47767857142856,205.9,412.57142857142856,415.47767857142856,308.7,412.57142857142856,415.47767857142856,414.6,412.57142857142856,415.47767857142856,514.6,391.57142857142856,428.47767857142856,620.1,212.57142857142856,578.4776785714286,723.8,160.57142857142856,675.4776785714286,824.3,141.57142857142856,716.4776785714286,926.4,111.57142857142857,741.4776785714286,1031.3,86.57142857142857,746.4776785714286,1131.4,86.57142857142857,746.4776785714286,1231.6,86.57142857142857,746.4776785714286,1331.6,-34.42857142857143,690.4776785714286,1431.9,-515.4285714285714,442.47767857142856,1533.7,-537.4285714285714,430.47767857142856,1634.3,-537.4285714285714,430.47767857142856,1735.3,-537.4285714285714,430.47767857142856,1838.8,-537.4285714285714,430.47767857142856,1939.6,-537.4285714285714,430.47767857142856,2039.9,-537.4285714285714,430.47767857142856,2147.9,-537.4285714285714,430.47767857142856,2249.6,-537.4285714285714,430.47767857142856,2353.5,-537.4285714285714,430.47767857142856,2455.6,-537.4285714285714,430.47767857142856,2564.4,-537.4285714285714,430.47767857142856,2670,-537.4285714285714,430.47767857142856,2774.7,-537.4285714285714,430.47767857142856,2881.5,-537.4285714285714,430.47767857142856,2981.6,-537.4285714285714,430.47767857142856,3084.1,-537.4285714285714,430.47767857142856,3185.9,-537.4285714285714,430.47767857142856,3288.7,-537.4285714285714,430.47767857142856,3389,-537.4285714285714,430.47767857142856,3497.5,-537.4285714285714,430.47767857142856,3599.7,-537.4285714285714,430.47767857142856,3704,-537.4285714285714,430.47767857142856,3805.1,-537.4285714285714,430.47767857142856,3905.6,-537.4285714285714,430.47767857142856,4014.4,-537.4285714285714,430.47767857142856,4114.7,-537.4285714285714,430.47767857142856,4214.7,-537.4285714285714,430.47767857142856,4320.2,-537.4285714285714,430.47767857142856,4424.1,-537.4285714285714,430.47767857142856,4524.1,-537.4285714285714,430.47767857142856,4624.6,-537.4285714285714,430.47767857142856,4724.7,-537.4285714285714,430.47767857142856,4831.3,-537.4285714285714,430.47767857142856,4933.6]","[1513.2,1513.2,1000,0,513.2,""smooth"",""down"",""down"",""good_move"",8158,6644.5,2737.5,4964.7,455.8,""smooth"",""down"",""down"",""good_move"",14077.3,5919.1,2647.1,11014.5,415.7,""smooth"",""down"",""down"",""good_move"",17592.7,3515.1,3099,14077.6,416.1,""oops"",""left"",""right"",""bad_move"",21041.6,3448.6,3059.2,17593,389.4,""smooth"",""left"",""left"",""good_move"",23960.4,2918.5,2485,21041.9,433.5,""while_blue"",""left"",""right"",""bad_move"",30925.6,6965,2472.2,28030.3,423.1,""smooth"",""left"",""left"",""good_move"",34508.3,3582.6,3160.7,30925.8,421.8,""smooth"",""left"",""left"",""good_move""]","",""
"5347","","<div style=""width:500px;"">
  <p>What determined the result of this run?</p>
  </div>","63","html-slider-response","50","813602","0.0-10.0-1.2","63","1","2025-07-09 09:07:22","7701e855f2ef39aa3fd6c71abdc6918a","90.212.166.118","Mozilla/5.0 (Windows NT 10.0; Win64; x64) AppleWebKit/537.36 (KHTML, like Gecko) Chrome/138.0.0.0 Safari/537.36","WebKit","Chrome","138.0.0.0","Windows","10.0","https://app.prolific.com/","en-GB,en-US;q=0.9,en;q=0.8","59dd90f6e75b450001a68dac","686d226cabeef709c732f8e1","686e3140426a6ff658a0b2b2","59dd90f6e75b450001a68dac","2025-07-09T09:21:13.238Z","","","","","","AttribQ","","","","","","","","","","","","","","","","","","","","","","","","","","","","","","","","","","","","","","50"
"5212","","<div style=""width:500px;"">
  <p>How much control did you have over the ball?</p>
  </div>","48","html-slider-response","51","818816","0.0-10.0-2.2","63","1","2025-07-09 09:07:22","7701e855f2ef39aa3fd6c71abdc6918a","90.212.166.118","Mozilla/5.0 (Windows NT 10.0; Win64; x64) AppleWebKit/537.36 (KHTML, like Gecko) Chrome/138.0.0.0 Safari/537.36","WebKit","Chrome","138.0.0.0","Windows","10.0","https://app.prolific.com/","en-GB,en-US;q=0.9,en;q=0.8","59dd90f6e75b450001a68dac","686d226cabeef709c732f8e1","686e3140426a6ff658a0b2b2","59dd90f6e75b450001a68dac","2025-07-09T09:21:18.451Z","","","","","","ControlQ","","","","","","","","","","","","","","","","","","","","","","","","","","","","","","","","","","","","","","50"
"4747","","<div style=""width:500px;"">
  <p>How would you describe your current emotional state?</p>
  </div>","57","html-slider-response","52","823564","0.0-10.0-3.2","63","1","2025-07-09 09:07:22","7701e855f2ef39aa3fd6c71abdc6918a","90.212.166.118","Mozilla/5.0 (Windows NT 10.0; Win64; x64) AppleWebKit/537.36 (KHTML, like Gecko) Chrome/138.0.0.0 Safari/537.36","WebKit","Chrome","138.0.0.0","Windows","10.0","https://app.prolific.com/","en-GB,en-US;q=0.9,en;q=0.8","59dd90f6e75b450001a68dac","686d226cabeef709c732f8e1","686e3140426a6ff658a0b2b2","59dd90f6e75b450001a68dac","2025-07-09T09:21:23.199Z","","","","","","StressQ","","","","","","","","","","","","","","","","","","","","","","","","","","","","","","","","","","","","","","50"
"3489","","<div style=""width:500px;"">
  <p>What best describes how you currently feel?</p>
  </div>","67","html-slider-response","53","827053","0.0-10.0-4.2","63","1","2025-07-09 09:07:22","7701e855f2ef39aa3fd6c71abdc6918a","90.212.166.118","Mozilla/5.0 (Windows NT 10.0; Win64; x64) AppleWebKit/537.36 (KHTML, like Gecko) Chrome/138.0.0.0 Safari/537.36","WebKit","Chrome","138.0.0.0","Windows","10.0","https://app.prolific.com/","en-GB,en-US;q=0.9,en;q=0.8","59dd90f6e75b450001a68dac","686d226cabeef709c732f8e1","686e3140426a6ff658a0b2b2","59dd90f6e75b450001a68dac","2025-07-09T09:21:26.688Z","","","","","","MotivationQ","","","","","","","","","","","","","","","","","","","","","","","","","","","","","","","","","","","","","","50"
"","","","","ctl-task-cpt","54","857905","0.0-10.0-0.3","63","1","2025-07-09 09:07:22","7701e855f2ef39aa3fd6c71abdc6918a","90.212.166.118","Mozilla/5.0 (Windows NT 10.0; Win64; x64) AppleWebKit/537.36 (KHTML, like Gecko) Chrome/138.0.0.0 Safari/537.36","WebKit","Chrome","138.0.0.0","Windows","10.0","https://app.prolific.com/","en-GB,en-US;q=0.9,en;q=0.8","59dd90f6e75b450001a68dac","686d226cabeef709c732f8e1","686e3140426a6ff658a0b2b2","59dd90f6e75b450001a68dac","2025-07-09T09:21:57.540Z","","","","","","","","","","","","","","","","win-only","3","g1:SW,g2:NE","0.7","4","0","845894.9","1501.1","6505.5","27842.1","1","4","8","6","2","8","8","8","0","0.06060606060606061","1580.7","3000","150","[""up"",""right""]","{""num_key_presses"":8,""num_perfect"":5,""num_errors"":0,""num_randdir"":3,""num_randdir_good_moves"":2,""num_whilered"":0,""num_whileblue"":0,""num_blue"":0,""num_good_moves"":7}","[422.57142857142856,418.47767857142856,0.1,422.57142857142856,418.47767857142856,100.7,422.57142857142856,418.47767857142856,205.8,422.57142857142856,418.47767857142856,310.2,422.57142857142856,418.47767857142856,415.7,422.57142857142856,418.47767857142856,519.4,422.57142857142856,418.47767857142856,620.7,467.57142857142856,392.47767857142856,724.7,652.5714285714286,229.47767857142856,831.6,690.5714285714286,178.47767857142856,934.1,711.5714285714286,164.47767857142856,1034.3,739.5714285714286,143.47767857142856,1134.8,756.5714285714286,115.47767857142857,1239.8,762.5714285714286,101.47767857142857,1348.6,763.5714285714286,95.47767857142857,1448.9,763.5714285714286,95.47767857142857,1548.9,763.5714285714286,95.47767857142857,1649.8,742.5714285714286,148.47767857142856,1754.7,310.57142857142856,592.4776785714286,1855,239.57142857142856,547.4776785714286,1960.8,-223.42857142857144,381.47767857142856,2065,-244.42857142857144,375.47767857142856,2170.3,-340.42857142857144,297.47767857142856,2270.9,-340.42857142857144,297.47767857142856,2374.5,-340.42857142857144,297.47767857142856,2474.7,-340.42857142857144,297.47767857142856,2582,-340.42857142857144,297.47767857142856,2685,-340.42857142857144,297.47767857142856,2785,-340.42857142857144,297.47767857142856,2890.6,-340.42857142857144,297.47767857142856,2998.8,-340.42857142857144,297.47767857142856,3098.9,-340.42857142857144,297.47767857142856,3199.2,-340.42857142857144,297.47767857142856,3299.6,-340.42857142857144,297.47767857142856,3400,-340.42857142857144,297.47767857142856,3505.3,-340.42857142857144,297.47767857142856,3614.3,-340.42857142857144,297.47767857142856,3714.7,-340.42857142857144,297.47767857142856,3815.3,-340.42857142857144,297.47767857142856,3919.1,-340.42857142857144,297.47767857142856,4020,-340.42857142857144,297.47767857142856,4124.4,-340.42857142857144,297.47767857142856,4232,-340.42857142857144,297.47767857142856,4335,-340.42857142857144,297.47767857142856,4435.4,-340.42857142857144,297.47767857142856,4539.1,-340.42857142857144,297.47767857142856,4640.2,-340.42857142857144,297.47767857142856,4748.2,-340.42857142857144,297.47767857142856,4849.7,-340.42857142857144,297.47767857142856,4949.9]","[1476.2,1476.2,1000,0,476.2,""smooth"",""up"",""up"",""good_move"",3826.1,2349.6,1951.2,1476.5,398.4,""smooth"",""up"",""up"",""good_move"",6552.3,2726.1,2344.2,3826.2,381.9,""oops"",""up"",""left"",""bad_move"",9210.7,2658.1,2280.9,6552.6,377.2,""smooth"",""up"",""up"",""good_move"",11968.8,2757.9,2322.1,9210.9,435.8,""smooth"",""right"",""right"",""good_move"",14810.2,2841,2425.8,11969.2,415.2,""oops"",""right"",""right"",""good_move"",17832.3,3021.9,2666.6,14810.4,355.3,""oops"",""right"",""right"",""good_move"",21242.3,3409.7,3019.8,17832.6,389.9,""smooth"",""right"",""right"",""good_move""]","",""
"8313","","<div style=""width:500px;"">
  <p>What determined the result of this run?</p>
  </div>","42","html-slider-response","55","866218","0.0-10.0-1.3","63","1","2025-07-09 09:07:22","7701e855f2ef39aa3fd6c71abdc6918a","90.212.166.118","Mozilla/5.0 (Windows NT 10.0; Win64; x64) AppleWebKit/537.36 (KHTML, like Gecko) Chrome/138.0.0.0 Safari/537.36","WebKit","Chrome","138.0.0.0","Windows","10.0","https://app.prolific.com/","en-GB,en-US;q=0.9,en;q=0.8","59dd90f6e75b450001a68dac","686d226cabeef709c732f8e1","686e3140426a6ff658a0b2b2","59dd90f6e75b450001a68dac","2025-07-09T09:22:05.853Z","","","","","","AttribQ","","","","","","","","","","","","","","","","","","","","","","","","","","","","","","","","","","","","","","50"
"5334","","<div style=""width:500px;"">
  <p>How much control did you have over the ball?</p>
  </div>","63","html-slider-response","56","871553","0.0-10.0-2.3","63","1","2025-07-09 09:07:22","7701e855f2ef39aa3fd6c71abdc6918a","90.212.166.118","Mozilla/5.0 (Windows NT 10.0; Win64; x64) AppleWebKit/537.36 (KHTML, like Gecko) Chrome/138.0.0.0 Safari/537.36","WebKit","Chrome","138.0.0.0","Windows","10.0","https://app.prolific.com/","en-GB,en-US;q=0.9,en;q=0.8","59dd90f6e75b450001a68dac","686d226cabeef709c732f8e1","686e3140426a6ff658a0b2b2","59dd90f6e75b450001a68dac","2025-07-09T09:22:11.188Z","","","","","","ControlQ","","","","","","","","","","","","","","","","","","","","","","","","","","","","","","","","","","","","","","50"
"5190","","<div style=""width:500px;"">
  <p>How would you describe your current emotional state?</p>
  </div>","48","html-slider-response","57","876744","0.0-10.0-3.3","63","1","2025-07-09 09:07:22","7701e855f2ef39aa3fd6c71abdc6918a","90.212.166.118","Mozilla/5.0 (Windows NT 10.0; Win64; x64) AppleWebKit/537.36 (KHTML, like Gecko) Chrome/138.0.0.0 Safari/537.36","WebKit","Chrome","138.0.0.0","Windows","10.0","https://app.prolific.com/","en-GB,en-US;q=0.9,en;q=0.8","59dd90f6e75b450001a68dac","686d226cabeef709c732f8e1","686e3140426a6ff658a0b2b2","59dd90f6e75b450001a68dac","2025-07-09T09:22:16.379Z","","","","","","StressQ","","","","","","","","","","","","","","","","","","","","","","","","","","","","","","","","","","","","","","50"
"2905","","<div style=""width:500px;"">
  <p>What best describes how you currently feel?</p>
  </div>","68","html-slider-response","58","879650","0.0-10.0-4.3","63","1","2025-07-09 09:07:22","7701e855f2ef39aa3fd6c71abdc6918a","90.212.166.118","Mozilla/5.0 (Windows NT 10.0; Win64; x64) AppleWebKit/537.36 (KHTML, like Gecko) Chrome/138.0.0.0 Safari/537.36","WebKit","Chrome","138.0.0.0","Windows","10.0","https://app.prolific.com/","en-GB,en-US;q=0.9,en;q=0.8","59dd90f6e75b450001a68dac","686d226cabeef709c732f8e1","686e3140426a6ff658a0b2b2","59dd90f6e75b450001a68dac","2025-07-09T09:22:19.285Z","","","","","","MotivationQ","","","","","","","","","","","","","","","","","","","","","","","","","","","","","","","","","","","","","","50"
"","","","","ctl-task-cpt","59","912979","0.0-10.0-0.4","63","1","2025-07-09 09:07:22","7701e855f2ef39aa3fd6c71abdc6918a","90.212.166.118","Mozilla/5.0 (Windows NT 10.0; Win64; x64) AppleWebKit/537.36 (KHTML, like Gecko) Chrome/138.0.0.0 Safari/537.36","WebKit","Chrome","138.0.0.0","Windows","10.0","https://app.prolific.com/","en-GB,en-US;q=0.9,en;q=0.8","59dd90f6e75b450001a68dac","686d226cabeef709c732f8e1","686e3140426a6ff658a0b2b2","59dd90f6e75b450001a68dac","2025-07-09T09:22:52.614Z","","","","","","","","","","","","","","","","win-only","2","g1:SE,g2:NW","0.6","5","0","898491.6","3409.1","8410.3","30311.1","1","4","4","6","1","-1","-1","7","8","0.05303030303030303","1307.1","3000","-3005","[""down"",""right""]","{""num_key_presses"":6,""num_perfect"":4,""num_errors"":0,""num_randdir"":2,""num_randdir_good_moves"":0,""num_whilered"":0,""num_whileblue"":0,""num_blue"":1,""num_good_moves"":4}","[417.57142857142856,412.47767857142856,0.3,417.57142857142856,412.47767857142856,101.3,417.57142857142856,412.47767857142856,202.2,417.57142857142856,412.47767857142856,308.5,417.57142857142856,412.47767857142856,411.4,417.57142857142856,412.47767857142856,511.7,328.57142857142856,363.47767857142856,611.6,319.57142857142856,361.47767857142856,712.1,326.57142857142856,361.47767857142856,817.7,380.57142857142856,380.47767857142856,922.1,704.5714285714286,639.4776785714286,1022.6,727.5714285714286,702.4776785714286,1126.5,745.5714285714286,721.4776785714286,1227.2,775.5714285714286,757.4776785714286,1331.3,775.5714285714286,757.4776785714286,1432,759.5714285714286,757.4776785714286,1536.8,209.57142857142856,588.4776785714286,1642.4,-378.42857142857144,480.47767857142856,1746.9,-445.42857142857144,472.47767857142856,1851.2,-462.42857142857144,470.47767857142856,1952.3,-462.42857142857144,470.47767857142856,2052.4,-462.42857142857144,470.47767857142856,2158.2,-462.42857142857144,470.47767857142856,2261.8,-462.42857142857144,470.47767857142856,2361.8,-462.42857142857144,470.47767857142856,2462,-462.42857142857144,470.47767857142856,2562,-462.42857142857144,470.47767857142856,2662.7,-462.42857142857144,470.47767857142856,2766.8,-462.42857142857144,470.47767857142856,2872.5,-462.42857142857144,470.47767857142856,2978.2,-462.42857142857144,470.47767857142856,3081.3,-462.42857142857144,470.47767857142856,3181.7,-462.42857142857144,470.47767857142856,3281.8,-462.42857142857144,470.47767857142856,3387.9,-462.42857142857144,470.47767857142856,3492.3,-462.42857142857144,470.47767857142856,3593.4,-462.42857142857144,470.47767857142856,3697.3,-462.42857142857144,470.47767857142856,3802,-462.42857142857144,470.47767857142856,3906.6,-462.42857142857144,470.47767857142856,4007.1,-462.42857142857144,470.47767857142856,4111.6,-462.42857142857144,470.47767857142856,4213.2,-462.42857142857144,470.47767857142856,4316.5,-462.42857142857144,470.47767857142856,4422.1,-462.42857142857144,470.47767857142856,4527.7,-462.42857142857144,470.47767857142856,4631.7,-462.42857142857144,470.47767857142856,4736,-462.42857142857144,470.47767857142856,4836.4,-462.42857142857144,470.47767857142856,4941.2]","[1507.3,1507.3,1000,0,507.3,""smooth"",""down"",""down"",""good_move"",4355.3,2847.7,2405.7,1507.6,442,""smooth"",""down"",""down"",""good_move"",7395.1,3039.6,2594.8,4355.5,444.8,""smooth"",""right"",""right"",""good_move"",10243.3,2847.7,2423.9,7395.6,423.8,""oops"",""right"",""left"",""bad_move"",16227.1,5983.3,2595,13215.2,416.9,""oops"",""right"",""up"",""bad_move"",19269.3,3041.8,2586.5,16227.5,455.3,""smooth"",""right"",""right"",""good_move""]","",""
"4624","","<div style=""width:500px;"">
  <p>What determined the result of this run?</p>
  </div>","6","html-slider-response","60","917603","0.0-10.0-1.4","63","1","2025-07-09 09:07:22","7701e855f2ef39aa3fd6c71abdc6918a","90.212.166.118","Mozilla/5.0 (Windows NT 10.0; Win64; x64) AppleWebKit/537.36 (KHTML, like Gecko) Chrome/138.0.0.0 Safari/537.36","WebKit","Chrome","138.0.0.0","Windows","10.0","https://app.prolific.com/","en-GB,en-US;q=0.9,en;q=0.8","59dd90f6e75b450001a68dac","686d226cabeef709c732f8e1","686e3140426a6ff658a0b2b2","59dd90f6e75b450001a68dac","2025-07-09T09:22:57.239Z","","","","","","AttribQ","","","","","","","","","","","","","","","","","","","","","","","","","","","","","","","","","","","","","","50"
"3263","","<div style=""width:500px;"">
  <p>How much control did you have over the ball?</p>
  </div>","18","html-slider-response","61","920868","0.0-10.0-2.4","63","1","2025-07-09 09:07:22","7701e855f2ef39aa3fd6c71abdc6918a","90.212.166.118","Mozilla/5.0 (Windows NT 10.0; Win64; x64) AppleWebKit/537.36 (KHTML, like Gecko) Chrome/138.0.0.0 Safari/537.36","WebKit","Chrome","138.0.0.0","Windows","10.0","https://app.prolific.com/","en-GB,en-US;q=0.9,en;q=0.8","59dd90f6e75b450001a68dac","686d226cabeef709c732f8e1","686e3140426a6ff658a0b2b2","59dd90f6e75b450001a68dac","2025-07-09T09:23:00.503Z","","","","","","ControlQ","","","","","","","","","","","","","","","","","","","","","","","","","","","","","","","","","","","","","","50"
"2655","","<div style=""width:500px;"">
  <p>How would you describe your current emotional state?</p>
  </div>","62","html-slider-response","62","923524","0.0-10.0-3.4","63","1","2025-07-09 09:07:22","7701e855f2ef39aa3fd6c71abdc6918a","90.212.166.118","Mozilla/5.0 (Windows NT 10.0; Win64; x64) AppleWebKit/537.36 (KHTML, like Gecko) Chrome/138.0.0.0 Safari/537.36","WebKit","Chrome","138.0.0.0","Windows","10.0","https://app.prolific.com/","en-GB,en-US;q=0.9,en;q=0.8","59dd90f6e75b450001a68dac","686d226cabeef709c732f8e1","686e3140426a6ff658a0b2b2","59dd90f6e75b450001a68dac","2025-07-09T09:23:03.159Z","","","","","","StressQ","","","","","","","","","","","","","","","","","","","","","","","","","","","","","","","","","","","","","","50"
"2239","","<div style=""width:500px;"">
  <p>What best describes how you currently feel?</p>
  </div>","69","html-slider-response","63","925763","0.0-10.0-4.4","63","1","2025-07-09 09:07:22","7701e855f2ef39aa3fd6c71abdc6918a","90.212.166.118","Mozilla/5.0 (Windows NT 10.0; Win64; x64) AppleWebKit/537.36 (KHTML, like Gecko) Chrome/138.0.0.0 Safari/537.36","WebKit","Chrome","138.0.0.0","Windows","10.0","https://app.prolific.com/","en-GB,en-US;q=0.9,en;q=0.8","59dd90f6e75b450001a68dac","686d226cabeef709c732f8e1","686e3140426a6ff658a0b2b2","59dd90f6e75b450001a68dac","2025-07-09T09:23:05.399Z","","","","","","MotivationQ","","","","","","","","","","","","","","","","","","","","","","","","","","","","","","","","","","","","","","50"
"","","","","ctl-task-cpt","64","952252","0.0-10.0-0.5","63","1","2025-07-09 09:07:22","7701e855f2ef39aa3fd6c71abdc6918a","90.212.166.118","Mozilla/5.0 (Windows NT 10.0; Win64; x64) AppleWebKit/537.36 (KHTML, like Gecko) Chrome/138.0.0.0 Safari/537.36","WebKit","Chrome","138.0.0.0","Windows","10.0","https://app.prolific.com/","en-GB,en-US;q=0.9,en;q=0.8","59dd90f6e75b450001a68dac","686d226cabeef709c732f8e1","686e3140426a6ff658a0b2b2","59dd90f6e75b450001a68dac","2025-07-09T09:23:31.887Z","","","","","","","","","","","","","","","","win-only","1","g1:NE,g2:SW","0.5","6","0","944605.4","2430.8","7437","23470.2","1","4","8","6","2","8","8","15","7","0.11363636363636363","1179.9","3000","500","[""down"",""left""]","{""num_key_presses"":6,""num_perfect"":3,""num_errors"":0,""num_randdir"":3,""num_randdir_good_moves"":3,""num_whilered"":0,""num_whileblue"":0,""num_blue"":0,""num_good_moves"":6}","[416.57142857142856,416.47767857142856,0.2,416.57142857142856,416.47767857142856,100.3,416.57142857142856,416.47767857142856,205.7,416.57142857142856,416.47767857142856,306.7,416.57142857142856,416.47767857142856,407.1,416.57142857142856,416.47767857142856,509.8,381.57142857142856,470.47767857142856,611.2,311.57142857142856,564.4776785714286,714.5,219.57142857142856,642.4776785714286,815.1,137.57142857142856,739.4776785714286,921.2,111.57142857142857,761.4776785714286,1025.1,103.57142857142857,761.4776785714286,1125.8,97.57142857142857,762.4776785714286,1230.2,97.57142857142857,762.4776785714286,1334.5,-52.42857142857143,668.4776785714286,1440.3,-390.42857142857144,453.47767857142856,1543.1,-400.42857142857144,446.47767857142856,1644.2,-400.42857142857144,446.47767857142856,1745,-400.42857142857144,446.47767857142856,1845.1,-400.42857142857144,446.47767857142856,1950.1,-400.42857142857144,446.47767857142856,2054.9,-400.42857142857144,446.47767857142856,2156.5,-400.42857142857144,446.47767857142856,2259.4,-400.42857142857144,446.47767857142856,2360.8,-400.42857142857144,446.47767857142856,2460.8,-400.42857142857144,446.47767857142856,2565.2,-400.42857142857144,446.47767857142856,2670.3,-400.42857142857144,446.47767857142856,2774.5,-400.42857142857144,446.47767857142856,2875.5,-400.42857142857144,446.47767857142856,2980.6,-400.42857142857144,446.47767857142856,3084.6,-400.42857142857144,446.47767857142856,3185.6,-400.42857142857144,446.47767857142856,3289.5,-400.42857142857144,446.47767857142856,3389.9,-400.42857142857144,446.47767857142856,3489.9,-400.42857142857144,446.47767857142856,3590.6,-400.42857142857144,446.47767857142856,3695.3,-400.42857142857144,446.47767857142856,3799.6,-400.42857142857144,446.47767857142856,3900.1,-400.42857142857144,446.47767857142856,4006.1,-400.42857142857144,446.47767857142856,4110.8,-400.42857142857144,446.47767857142856,4214.6,-400.42857142857144,446.47767857142856,4315.5,-400.42857142857144,446.47767857142856,4420,-400.42857142857144,446.47767857142856,4520.3,-400.42857142857144,446.47767857142856,4622.4,-400.42857142857144,446.47767857142856,4724.9,-400.42857142857144,446.47767857142856,4824.9,-400.42857142857144,446.47767857142856,4928]","[1430.4,1430.4,1000,0,430.4,""smooth"",""down"",""down"",""good_move"",4774.7,3344,2950.9,1430.7,393.1,""smooth"",""down"",""down"",""good_move"",7790.8,3015.9,2602.3,4774.9,413.6,""oops"",""down"",""left"",""good_move"",10470.1,2678.9,2233.7,7791.2,445.2,""oops"",""down"",""left"",""good_move"",13374.2,2904,2494.5,10470.2,409.5,""oops"",""down"",""left"",""good_move"",15942.4,2567.8,2124,13374.6,443.8,""smooth"",""down"",""down"",""good_move""]","",""
"2790","","<div style=""width:500px;"">
  <p>What determined the result of this run?</p>
  </div>","7","html-slider-response","65","955043","0.0-10.0-1.5","63","1","2025-07-09 09:07:22","7701e855f2ef39aa3fd6c71abdc6918a","90.212.166.118","Mozilla/5.0 (Windows NT 10.0; Win64; x64) AppleWebKit/537.36 (KHTML, like Gecko) Chrome/138.0.0.0 Safari/537.36","WebKit","Chrome","138.0.0.0","Windows","10.0","https://app.prolific.com/","en-GB,en-US;q=0.9,en;q=0.8","59dd90f6e75b450001a68dac","686d226cabeef709c732f8e1","686e3140426a6ff658a0b2b2","59dd90f6e75b450001a68dac","2025-07-09T09:23:34.678Z","","","","","","AttribQ","","","","","","","","","","","","","","","","","","","","","","","","","","","","","","","","","","","","","","50"
"3530","","<div style=""width:500px;"">
  <p>How much control did you have over the ball?</p>
  </div>","10","html-slider-response","66","958573","0.0-10.0-2.5","63","1","2025-07-09 09:07:22","7701e855f2ef39aa3fd6c71abdc6918a","90.212.166.118","Mozilla/5.0 (Windows NT 10.0; Win64; x64) AppleWebKit/537.36 (KHTML, like Gecko) Chrome/138.0.0.0 Safari/537.36","WebKit","Chrome","138.0.0.0","Windows","10.0","https://app.prolific.com/","en-GB,en-US;q=0.9,en;q=0.8","59dd90f6e75b450001a68dac","686d226cabeef709c732f8e1","686e3140426a6ff658a0b2b2","59dd90f6e75b450001a68dac","2025-07-09T09:23:38.209Z","","","","","","ControlQ","","","","","","","","","","","","","","","","","","","","","","","","","","","","","","","","","","","","","","50"
"3178","","<div style=""width:500px;"">
  <p>How would you describe your current emotional state?</p>
  </div>","44","html-slider-response","67","961752","0.0-10.0-3.5","63","1","2025-07-09 09:07:22","7701e855f2ef39aa3fd6c71abdc6918a","90.212.166.118","Mozilla/5.0 (Windows NT 10.0; Win64; x64) AppleWebKit/537.36 (KHTML, like Gecko) Chrome/138.0.0.0 Safari/537.36","WebKit","Chrome","138.0.0.0","Windows","10.0","https://app.prolific.com/","en-GB,en-US;q=0.9,en;q=0.8","59dd90f6e75b450001a68dac","686d226cabeef709c732f8e1","686e3140426a6ff658a0b2b2","59dd90f6e75b450001a68dac","2025-07-09T09:23:41.387Z","","","","","","StressQ","","","","","","","","","","","","","","","","","","","","","","","","","","","","","","","","","","","","","","50"
"3156","","<div style=""width:500px;"">
  <p>What best describes how you currently feel?</p>
  </div>","73","html-slider-response","68","964909","0.0-10.0-4.5","63","1","2025-07-09 09:07:22","7701e855f2ef39aa3fd6c71abdc6918a","90.212.166.118","Mozilla/5.0 (Windows NT 10.0; Win64; x64) AppleWebKit/537.36 (KHTML, like Gecko) Chrome/138.0.0.0 Safari/537.36","WebKit","Chrome","138.0.0.0","Windows","10.0","https://app.prolific.com/","en-GB,en-US;q=0.9,en;q=0.8","59dd90f6e75b450001a68dac","686d226cabeef709c732f8e1","686e3140426a6ff658a0b2b2","59dd90f6e75b450001a68dac","2025-07-09T09:23:44.544Z","","","","","","MotivationQ","","","","","","","","","","","","","","","","","","","","","","","","","","","","","","","","","","","","","","50"
"","","","","ctl-task-cpt","69","1000243","0.0-10.0-0.6","63","1","2025-07-09 09:07:22","7701e855f2ef39aa3fd6c71abdc6918a","90.212.166.118","Mozilla/5.0 (Windows NT 10.0; Win64; x64) AppleWebKit/537.36 (KHTML, like Gecko) Chrome/138.0.0.0 Safari/537.36","WebKit","Chrome","138.0.0.0","Windows","10.0","https://app.prolific.com/","en-GB,en-US;q=0.9,en;q=0.8","59dd90f6e75b450001a68dac","686d226cabeef709c732f8e1","686e3140426a6ff658a0b2b2","59dd90f6e75b450001a68dac","2025-07-09T09:24:19.878Z","","","","","","","","","","","","","","","","win-only","3","g1:SW,g2:NE","0.4","7","0","983750.9","2399.6","7400.7","32315.7","1","4","4","6","2","-4","-4","11","15","0.08333333333333333","1666.3","3000","-3010","[""up"",""right""]","{""num_key_presses"":7,""num_perfect"":3,""num_errors"":0,""num_randdir"":4,""num_randdir_good_moves"":0,""num_whilered"":0,""num_whileblue"":0,""num_blue"":1,""num_good_moves"":3}","[414.57142857142856,422.47767857142856,0.2,414.57142857142856,422.47767857142856,101.7,414.57142857142856,422.47767857142856,207.3,414.57142857142856,422.47767857142856,311.2,414.57142857142856,422.47767857142856,411.4,414.57142857142856,422.47767857142856,511.8,398.57142857142856,450.47767857142856,612.2,398.57142857142856,452.47767857142856,716.3,574.5714285714286,296.47767857142856,821.1,713.5714285714286,188.47767857142856,921.6,717.5714285714286,169.47767857142856,1026.4,733.5714285714286,122.47767857142857,1127.9,738.5714285714286,102.47767857142857,1231,743.5714285714286,96.47767857142857,1331.3,743.5714285714286,95.47767857142857,1435.6,743.5714285714286,94.47767857142857,1536.7,743.5714285714286,94.47767857142857,1642.9,743.5714285714286,94.47767857142857,1746.1,744.5714285714286,95.47767857142857,1847.4,619.5714285714286,393.47767857142856,1950.9,455.57142857142856,494.47767857142856,2053.2,-118.42857142857143,312.47767857142856,2156.6,-539.4285714285714,270.47767857142856,2260.9,-539.4285714285714,270.47767857142856,2361.6,-539.4285714285714,270.47767857142856,2461.6,-539.4285714285714,270.47767857142856,2562.4,-539.4285714285714,270.47767857142856,2666.7,-539.4285714285714,270.47767857142856,2767,-539.4285714285714,270.47767857142856,2867.2,-539.4285714285714,270.47767857142856,2971.2,-539.4285714285714,270.47767857142856,3071.3,-539.4285714285714,270.47767857142856,3176.1,-539.4285714285714,270.47767857142856,3276.5,-539.4285714285714,270.47767857142856,3377.4,-539.4285714285714,270.47767857142856,3481.7,-539.4285714285714,270.47767857142856,3582.2,-539.4285714285714,270.47767857142856,3686.3,-539.4285714285714,270.47767857142856,3786.4,-539.4285714285714,270.47767857142856,3887.2,-539.4285714285714,270.47767857142856,3992.8,-539.4285714285714,270.47767857142856,4096.6,-539.4285714285714,270.47767857142856,4197.2,-539.4285714285714,270.47767857142856,4301.9,-539.4285714285714,270.47767857142856,4406.8,-539.4285714285714,270.47767857142856,4510.9,-539.4285714285714,270.47767857142856,4611.9,-539.4285714285714,270.47767857142856,4716.2,-539.4285714285714,270.47767857142856,4822.2,-539.4285714285714,270.47767857142856,4929.4]","[1403,1403,1000,0,403,""smooth"",""up"",""up"",""good_move"",4457.2,3053.7,2671.5,1403.5,382.3,""smooth"",""up"",""up"",""good_move"",10081.3,5623.9,2552.4,7100.1,428.8,""oops"",""up"",""left"",""bad_move"",13041,2959.4,2607.4,10081.6,352,""oops"",""up"",""down"",""bad_move"",15809.3,2768.1,2391,13041.4,377,""smooth"",""up"",""up"",""good_move"",19169,3359.4,2969.2,15809.6,390.2,""oops"",""up"",""down"",""bad_move"",22457.2,3287.7,2836,19169.5,451.7,""oops"",""up"",""down"",""bad_move""]","",""
"3594","","<div style=""width:500px;"">
  <p>What determined the result of this run?</p>
  </div>","54","html-slider-response","70","1003838","0.0-10.0-1.6","63","1","2025-07-09 09:07:22","7701e855f2ef39aa3fd6c71abdc6918a","90.212.166.118","Mozilla/5.0 (Windows NT 10.0; Win64; x64) AppleWebKit/537.36 (KHTML, like Gecko) Chrome/138.0.0.0 Safari/537.36","WebKit","Chrome","138.0.0.0","Windows","10.0","https://app.prolific.com/","en-GB,en-US;q=0.9,en;q=0.8","59dd90f6e75b450001a68dac","686d226cabeef709c732f8e1","686e3140426a6ff658a0b2b2","59dd90f6e75b450001a68dac","2025-07-09T09:24:23.473Z","","","","","","AttribQ","","","","","","","","","","","","","","","","","","","","","","","","","","","","","","","","","","","","","","50"
"3559","","<div style=""width:500px;"">
  <p>How much control did you have over the ball?</p>
  </div>","1","html-slider-response","71","1007397","0.0-10.0-2.6","63","1","2025-07-09 09:07:22","7701e855f2ef39aa3fd6c71abdc6918a","90.212.166.118","Mozilla/5.0 (Windows NT 10.0; Win64; x64) AppleWebKit/537.36 (KHTML, like Gecko) Chrome/138.0.0.0 Safari/537.36","WebKit","Chrome","138.0.0.0","Windows","10.0","https://app.prolific.com/","en-GB,en-US;q=0.9,en;q=0.8","59dd90f6e75b450001a68dac","686d226cabeef709c732f8e1","686e3140426a6ff658a0b2b2","59dd90f6e75b450001a68dac","2025-07-09T09:24:27.032Z","","","","","","ControlQ","","","","","","","","","","","","","","","","","","","","","","","","","","","","","","","","","","","","","","50"
"2541","","<div style=""width:500px;"">
  <p>How would you describe your current emotional state?</p>
  </div>","63","html-slider-response","72","1009939","0.0-10.0-3.6","63","1","2025-07-09 09:07:22","7701e855f2ef39aa3fd6c71abdc6918a","90.212.166.118","Mozilla/5.0 (Windows NT 10.0; Win64; x64) AppleWebKit/537.36 (KHTML, like Gecko) Chrome/138.0.0.0 Safari/537.36","WebKit","Chrome","138.0.0.0","Windows","10.0","https://app.prolific.com/","en-GB,en-US;q=0.9,en;q=0.8","59dd90f6e75b450001a68dac","686d226cabeef709c732f8e1","686e3140426a6ff658a0b2b2","59dd90f6e75b450001a68dac","2025-07-09T09:24:29.574Z","","","","","","StressQ","","","","","","","","","","","","","","","","","","","","","","","","","","","","","","","","","","","","","","50"
"3193","","<div style=""width:500px;"">
  <p>What best describes how you currently feel?</p>
  </div>","70","html-slider-response","73","1013133","0.0-10.0-4.6","63","1","2025-07-09 09:07:22","7701e855f2ef39aa3fd6c71abdc6918a","90.212.166.118","Mozilla/5.0 (Windows NT 10.0; Win64; x64) AppleWebKit/537.36 (KHTML, like Gecko) Chrome/138.0.0.0 Safari/537.36","WebKit","Chrome","138.0.0.0","Windows","10.0","https://app.prolific.com/","en-GB,en-US;q=0.9,en;q=0.8","59dd90f6e75b450001a68dac","686d226cabeef709c732f8e1","686e3140426a6ff658a0b2b2","59dd90f6e75b450001a68dac","2025-07-09T09:24:32.768Z","","","","","","MotivationQ","","","","","","","","","","","","","","","","","","","","","","","","","","","","","","","","","","","","","","50"
"","","","","ctl-task-cpt","74","1055455","0.0-10.0-0.7","63","1","2025-07-09 09:07:22","7701e855f2ef39aa3fd6c71abdc6918a","90.212.166.118","Mozilla/5.0 (Windows NT 10.0; Win64; x64) AppleWebKit/537.36 (KHTML, like Gecko) Chrome/138.0.0.0 Safari/537.36","WebKit","Chrome","138.0.0.0","Windows","10.0","https://app.prolific.com/","en-GB,en-US;q=0.9,en;q=0.8","59dd90f6e75b450001a68dac","686d226cabeef709c732f8e1","686e3140426a6ff658a0b2b2","59dd90f6e75b450001a68dac","2025-07-09T09:25:15.090Z","","","","","","","","","","","","","","","","win-only","1","g1:NE,g2:SW","0.3","8","0","1031975.1","2603.1","7604.8","39304","1","4","8","6","2","-8","-8","3","11","0.022727272727272728","982","3000","-2665","[""down"",""left""]","{""num_key_presses"":7,""num_perfect"":2,""num_errors"":0,""num_randdir"":5,""num_randdir_good_moves"":1,""num_whilered"":0,""num_whileblue"":0,""num_blue"":3,""num_good_moves"":3}","[409.57142857142856,414.47767857142856,0.3,409.57142857142856,414.47767857142856,101.1,409.57142857142856,414.47767857142856,201.2,409.57142857142856,414.47767857142856,305.5,409.57142857142856,414.47767857142856,407.7,409.57142857142856,414.47767857142856,509.2,309.57142857142856,531.4776785714286,617.2,138.57142857142856,674.4776785714286,717.9,97.57142857142857,723.4776785714286,823.2,88.57142857142857,739.4776785714286,929.6,87.57142857142857,743.4776785714286,1034.3,87.57142857142857,743.4776785714286,1136.7,86.57142857142857,734.4776785714286,1238.3,-151.42857142857144,516.4776785714286,1339.2,-346.42857142857144,404.47767857142856,1442.4,-362.42857142857144,385.47767857142856,1551.8,-362.42857142857144,385.47767857142856,1653.3,-362.42857142857144,385.47767857142856,1754.5,-362.42857142857144,385.47767857142856,1857.2,-362.42857142857144,385.47767857142856,1958.1,-362.42857142857144,385.47767857142856,2067.5,-362.42857142857144,385.47767857142856,2173.6,-362.42857142857144,385.47767857142856,2277.9,-362.42857142857144,385.47767857142856,2379.2,-362.42857142857144,385.47767857142856,2483.4,-362.42857142857144,385.47767857142856,2585.9,-362.42857142857144,385.47767857142856,2688.8,-362.42857142857144,385.47767857142856,2793.5,-362.42857142857144,385.47767857142856,2901.3,-362.42857142857144,385.47767857142856,3001.7,-362.42857142857144,385.47767857142856,3103.9,-362.42857142857144,385.47767857142856,3207.3,-362.42857142857144,385.47767857142856,3308.1,-362.42857142857144,385.47767857142856,3408.7,-362.42857142857144,385.47767857142856,3517,-362.42857142857144,385.47767857142856,3618.3,-362.42857142857144,385.47767857142856,3723.4,-362.42857142857144,385.47767857142856,3827.5,-362.42857142857144,385.47767857142856,3928.4,-362.42857142857144,385.47767857142856,4034.3,-362.42857142857144,385.47767857142856,4138.9,-362.42857142857144,385.47767857142856,4244,-362.42857142857144,385.47767857142856,4351.1,-362.42857142857144,385.47767857142856,4454.2,-362.42857142857144,385.47767857142856,4559.1,-362.42857142857144,385.47767857142856,4665.9,-362.42857142857144,385.47767857142856,4767.2,-362.42857142857144,385.47767857142856,4867.3,-362.42857142857144,385.47767857142856,4967.5]","[1453.5,1453.5,1000,0,453.5,""oops"",""down"",""right"",""bad_move"",4429.9,2976.1,2592.2,1453.8,383.9,""smooth"",""down"",""down"",""good_move"",7580.7,3150.3,2757.8,4430.4,392.5,""oops"",""down"",""left"",""good_move"",13797.4,6216.2,2316.3,11065,416.1,""oops"",""down"",""up"",""bad_move"",16712.4,2914.8,2502.1,13797.6,412.7,""smooth"",""left"",""left"",""good_move"",23062.7,6349.9,2757.5,19781.4,523.8,""oops"",""left"",""up"",""bad_move"",29021.3,5958.3,2505.5,26092.2,423.6,""oops"",""left"",""right"",""bad_move""]","",""
"5222","","<div style=""width:500px;"">
  <p>What determined the result of this run?</p>
  </div>","30","html-slider-response","75","1060678","0.0-10.0-1.7","63","1","2025-07-09 09:07:22","7701e855f2ef39aa3fd6c71abdc6918a","90.212.166.118","Mozilla/5.0 (Windows NT 10.0; Win64; x64) AppleWebKit/537.36 (KHTML, like Gecko) Chrome/138.0.0.0 Safari/537.36","WebKit","Chrome","138.0.0.0","Windows","10.0","https://app.prolific.com/","en-GB,en-US;q=0.9,en;q=0.8","59dd90f6e75b450001a68dac","686d226cabeef709c732f8e1","686e3140426a6ff658a0b2b2","59dd90f6e75b450001a68dac","2025-07-09T09:25:20.313Z","","","","","","AttribQ","","","","","","","","","","","","","","","","","","","","","","","","","","","","","","","","","","","","","","50"
"1887","","<div style=""width:500px;"">
  <p>How much control did you have over the ball?</p>
  </div>","0","html-slider-response","76","1062565","0.0-10.0-2.7","63","1","2025-07-09 09:07:22","7701e855f2ef39aa3fd6c71abdc6918a","90.212.166.118","Mozilla/5.0 (Windows NT 10.0; Win64; x64) AppleWebKit/537.36 (KHTML, like Gecko) Chrome/138.0.0.0 Safari/537.36","WebKit","Chrome","138.0.0.0","Windows","10.0","https://app.prolific.com/","en-GB,en-US;q=0.9,en;q=0.8","59dd90f6e75b450001a68dac","686d226cabeef709c732f8e1","686e3140426a6ff658a0b2b2","59dd90f6e75b450001a68dac","2025-07-09T09:25:22.200Z","","","","","","ControlQ","","","","","","","","","","","","","","","","","","","","","","","","","","","","","","","","","","","","","","50"
"2453","","<div style=""width:500px;"">
  <p>How would you describe your current emotional state?</p>
  </div>","77","html-slider-response","77","1065019","0.0-10.0-3.7","63","1","2025-07-09 09:07:22","7701e855f2ef39aa3fd6c71abdc6918a","90.212.166.118","Mozilla/5.0 (Windows NT 10.0; Win64; x64) AppleWebKit/537.36 (KHTML, like Gecko) Chrome/138.0.0.0 Safari/537.36","WebKit","Chrome","138.0.0.0","Windows","10.0","https://app.prolific.com/","en-GB,en-US;q=0.9,en;q=0.8","59dd90f6e75b450001a68dac","686d226cabeef709c732f8e1","686e3140426a6ff658a0b2b2","59dd90f6e75b450001a68dac","2025-07-09T09:25:24.654Z","","","","","","StressQ","","","","","","","","","","","","","","","","","","","","","","","","","","","","","","","","","","","","","","50"
"2927","","<div style=""width:500px;"">
  <p>What best describes how you currently feel?</p>
  </div>","69","html-slider-response","78","1067947","0.0-10.0-4.7","63","1","2025-07-09 09:07:22","7701e855f2ef39aa3fd6c71abdc6918a","90.212.166.118","Mozilla/5.0 (Windows NT 10.0; Win64; x64) AppleWebKit/537.36 (KHTML, like Gecko) Chrome/138.0.0.0 Safari/537.36","WebKit","Chrome","138.0.0.0","Windows","10.0","https://app.prolific.com/","en-GB,en-US;q=0.9,en;q=0.8","59dd90f6e75b450001a68dac","686d226cabeef709c732f8e1","686e3140426a6ff658a0b2b2","59dd90f6e75b450001a68dac","2025-07-09T09:25:27.583Z","","","","","","MotivationQ","","","","","","","","","","","","","","","","","","","","","","","","","","","","","","","","","","","","","","50"
"","","","","ctl-task-cpt","79","1099431","0.0-10.0-0.8","63","1","2025-07-09 09:07:22","7701e855f2ef39aa3fd6c71abdc6918a","90.212.166.118","Mozilla/5.0 (Windows NT 10.0; Win64; x64) AppleWebKit/537.36 (KHTML, like Gecko) Chrome/138.0.0.0 Safari/537.36","WebKit","Chrome","138.0.0.0","Windows","10.0","https://app.prolific.com/","en-GB,en-US;q=0.9,en;q=0.8","59dd90f6e75b450001a68dac","686d226cabeef709c732f8e1","686e3140426a6ff658a0b2b2","59dd90f6e75b450001a68dac","2025-07-09T09:25:59.066Z","","","","","","","","","","","","","","","","win-only","3","g1:SW,g2:NE","0.2","9","0","1086789","1785.3","6785.8","28465.9","1","4","8","6","2","-8","-8","0","3","0","1291.7","3000","-3010","[""up"",""right""]","{""num_key_presses"":6,""num_perfect"":1,""num_errors"":0,""num_randdir"":5,""num_randdir_good_moves"":3,""num_whilered"":0,""num_whileblue"":0,""num_blue"":1,""num_good_moves"":4}","[419.57142857142856,414.47767857142856,0.2,419.57142857142856,414.47767857142856,102.4,419.57142857142856,414.47767857142856,206.2,419.57142857142856,414.47767857142856,311.3,419.57142857142856,414.47767857142856,415.5,419.57142857142856,414.47767857142856,520.1,419.57142857142856,414.47767857142856,620.5,508.57142857142856,360.47767857142856,725.6,706.5714285714286,150.47767857142856,830.9,765.5714285714286,88.47767857142857,936.6,781.5714285714286,71.47767857142857,1041.2,781.5714285714286,71.47767857142857,1141.4,770.5714285714286,78.47767857142857,1246,769.5714285714286,78.47767857142857,1346.2,792.5714285714286,94.47767857142857,1451.4,989.5714285714286,193.47767857142856,1555.3,921.5714285714286,278.47767857142856,1655.4,1023.5714285714286,292.47767857142856,1756.6,1110.5714285714287,293.47767857142856,1860,1090.5714285714287,297.47767857142856,1960.3,1090.5714285714287,297.47767857142856,2060.4,1090.5714285714287,297.47767857142856,2165.3,1090.5714285714287,297.47767857142856,2266,1090.5714285714287,297.47767857142856,2371,1090.5714285714287,297.47767857142856,2475.2,1090.5714285714287,297.47767857142856,2581,1090.5714285714287,297.47767857142856,2685.6,1090.5714285714287,297.47767857142856,2790.8,1090.5714285714287,297.47767857142856,2895.8,1090.5714285714287,297.47767857142856,2996.2,1090.5714285714287,297.47767857142856,3102,1090.5714285714287,297.47767857142856,3206,1090.5714285714287,297.47767857142856,3311,1090.5714285714287,297.47767857142856,3415.1,1090.5714285714287,297.47767857142856,3515.1,1090.5714285714287,297.47767857142856,3616.6,1090.5714285714287,297.47767857142856,3717.4,1090.5714285714287,297.47767857142856,3821.2,1090.5714285714287,297.47767857142856,3925.1,1090.5714285714287,297.47767857142856,4025.6,1090.5714285714287,297.47767857142856,4130.2,1090.5714285714287,297.47767857142856,4230.3,1090.5714285714287,297.47767857142856,4331.3,1090.5714285714287,297.47767857142856,4431.9,1090.5714285714287,297.47767857142856,4535,1090.5714285714287,297.47767857142856,4636.7,1090.5714285714287,297.47767857142856,4740.3,1090.5714285714287,297.47767857142856,4845.3,1090.5714285714287,297.47767857142856,4951.1]","[1482.8,1482.8,1000,0,482.8,""oops"",""up"",""right"",""good_move"",7658,6174.8,2069.6,5085.5,502.9,""smooth"",""up"",""up"",""good_move"",10700.6,3042.4,2666.1,7658.2,376.3,""oops"",""up"",""up"",""good_move"",13737.6,3036.7,2624.4,10700.9,412.3,""oops"",""up"",""up"",""good_move"",16233.7,2495.9,2073.8,13737.8,422.1,""oops"",""right"",""down"",""bad_move"",18674.2,2440.2,2075.6,16234.1,364.5,""oops"",""up"",""left"",""bad_move""]","",""
"3958","","<div style=""width:500px;"">
  <p>What determined the result of this run?</p>
  </div>","43","html-slider-response","80","1103391","0.0-10.0-1.8","63","1","2025-07-09 09:07:22","7701e855f2ef39aa3fd6c71abdc6918a","90.212.166.118","Mozilla/5.0 (Windows NT 10.0; Win64; x64) AppleWebKit/537.36 (KHTML, like Gecko) Chrome/138.0.0.0 Safari/537.36","WebKit","Chrome","138.0.0.0","Windows","10.0","https://app.prolific.com/","en-GB,en-US;q=0.9,en;q=0.8","59dd90f6e75b450001a68dac","686d226cabeef709c732f8e1","686e3140426a6ff658a0b2b2","59dd90f6e75b450001a68dac","2025-07-09T09:26:03.026Z","","","","","","AttribQ","","","","","","","","","","","","","","","","","","","","","","","","","","","","","","","","","","","","","","50"
"4154","","<div style=""width:500px;"">
  <p>How much control did you have over the ball?</p>
  </div>","2","html-slider-response","81","1107546","0.0-10.0-2.8","63","1","2025-07-09 09:07:22","7701e855f2ef39aa3fd6c71abdc6918a","90.212.166.118","Mozilla/5.0 (Windows NT 10.0; Win64; x64) AppleWebKit/537.36 (KHTML, like Gecko) Chrome/138.0.0.0 Safari/537.36","WebKit","Chrome","138.0.0.0","Windows","10.0","https://app.prolific.com/","en-GB,en-US;q=0.9,en;q=0.8","59dd90f6e75b450001a68dac","686d226cabeef709c732f8e1","686e3140426a6ff658a0b2b2","59dd90f6e75b450001a68dac","2025-07-09T09:26:07.181Z","","","","","","ControlQ","","","","","","","","","","","","","","","","","","","","","","","","","","","","","","","","","","","","","","50"
"3408","","<div style=""width:500px;"">
  <p>How would you describe your current emotional state?</p>
  </div>","89","html-slider-response","82","1110955","0.0-10.0-3.8","63","1","2025-07-09 09:07:22","7701e855f2ef39aa3fd6c71abdc6918a","90.212.166.118","Mozilla/5.0 (Windows NT 10.0; Win64; x64) AppleWebKit/537.36 (KHTML, like Gecko) Chrome/138.0.0.0 Safari/537.36","WebKit","Chrome","138.0.0.0","Windows","10.0","https://app.prolific.com/","en-GB,en-US;q=0.9,en;q=0.8","59dd90f6e75b450001a68dac","686d226cabeef709c732f8e1","686e3140426a6ff658a0b2b2","59dd90f6e75b450001a68dac","2025-07-09T09:26:10.590Z","","","","","","StressQ","","","","","","","","","","","","","","","","","","","","","","","","","","","","","","","","","","","","","","50"
"4993","","<div style=""width:500px;"">
  <p>What best describes how you currently feel?</p>
  </div>","56","html-slider-response","83","1115949","0.0-10.0-4.8","63","1","2025-07-09 09:07:22","7701e855f2ef39aa3fd6c71abdc6918a","90.212.166.118","Mozilla/5.0 (Windows NT 10.0; Win64; x64) AppleWebKit/537.36 (KHTML, like Gecko) Chrome/138.0.0.0 Safari/537.36","WebKit","Chrome","138.0.0.0","Windows","10.0","https://app.prolific.com/","en-GB,en-US;q=0.9,en;q=0.8","59dd90f6e75b450001a68dac","686d226cabeef709c732f8e1","686e3140426a6ff658a0b2b2","59dd90f6e75b450001a68dac","2025-07-09T09:26:15.584Z","","","","","","MotivationQ","","","","","","","","","","","","","","","","","","","","","","","","","","","","","","","","","","","","","","50"
