"rt","response_timestamp","stimulus","response","trial_type","trial_index","time_elapsed","internal_node_id","run_id","condition","recorded_at","source_code_version","ip","user_agent","device","browser","browser_version","platform","platform_version","referer","accept_language","PROLIFIC_PID","STUDY_ID","SESSION_ID","prolific_id","realtime","view_history","question_order","consent","success","question_id","eventType","responses","item_order","radio_event_ids","radio_event_times","key_event_times","mouse_event_times","straightlining","zigzagging","honeypot","which_type","canvas_config","goals_layout","control_level","trial_number","tutorial_trial_number","trial_start_time","phase1_start_time","phase2_start_time","phase3_start_time","goal_1_value","goal_1_distance","goal_2_value","goal_2_distance","goal_selected","outcome","outcome_total","participant_final_score","participant_initial_score","participant_final_score_prop","goal_choice_rt","allocated_time","allocated_time_remaining","goal_direction","counts","mouse_movements","key_presses","correct","slider_start","sub_question"
"142768","1752055852477","<p style='font-size:40px;line-height:1.25'><strong>Welcome to the experiment!</strong></p><p style='font-size:1.1em;line-height:1.25'>Thank you for your interest in our experiment! Before you begin, it is important that we obtain your informed consent to participate in the study.</p><p style='font-size:1.1em;line-height:1.25'>On the next screen will be an <strong>information sheet</strong> for you to read. To participate in the study we need you to read this information sheet and the following consent form carefully. If you agree with all the statements, please click the <strong>I agree</strong> button.</p><p style='font-size:1.1em;line-height:1.25'>Press <strong>Next</strong> to read the information sheet.</p>","0","custom-html-button-response","0","142817","0.0-0.0","257","1","2025-07-09 10:07:59","7701e855f2ef39aa3fd6c71abdc6918a","41.13.0.233","Mozilla/5.0 (Windows NT 10.0; Win64; x64) AppleWebKit/537.36 (KHTML, like Gecko) Chrome/138.0.0.0 Safari/537.36","WebKit","Chrome","138.0.0.0","Windows","10.0","https://app.prolific.com/","en-US,en;q=0.9","67e1a47dae2e2e04aa7d8417","686d226cabeef709c732f8e1","686e3d4313960e15d00379f1","67e1a47dae2e2e04aa7d8417","2025-07-09T10:10:52.484Z","","","","","","","","","","","","","","","","","","","","","","","","","","","","","","","","","","","","","","","","","","","","",""
"201628","","","","instructions","1","344742","0.0-1.0","257","1","2025-07-09 10:07:59","7701e855f2ef39aa3fd6c71abdc6918a","41.13.0.233","Mozilla/5.0 (Windows NT 10.0; Win64; x64) AppleWebKit/537.36 (KHTML, like Gecko) Chrome/138.0.0.0 Safari/537.36","WebKit","Chrome","138.0.0.0","Windows","10.0","https://app.prolific.com/","en-US,en;q=0.9","67e1a47dae2e2e04aa7d8417","686d226cabeef709c732f8e1","686e3d4313960e15d00379f1","67e1a47dae2e2e04aa7d8417","","[{""page_index"":0,""viewing_time"":109230},{""page_index"":1,""viewing_time"":92395}]","","","","","","","","","","","","","","","","","","","","","","","","","","","","","","","","","","","","","","","","","","","",""
"15782","","","{""Q0"":"""",""Q1"":"""",""Q2"":"""",""Q3"":"""",""Q4"":"""",""Q5"":"""",""Q6"":""I agree""}","survey-multi-choice","2","361878","0.0-2.0","257","1","2025-07-09 10:07:59","7701e855f2ef39aa3fd6c71abdc6918a","41.13.0.233","Mozilla/5.0 (Windows NT 10.0; Win64; x64) AppleWebKit/537.36 (KHTML, like Gecko) Chrome/138.0.0.0 Safari/537.36","WebKit","Chrome","138.0.0.0","Windows","10.0","https://app.prolific.com/","en-US,en;q=0.9","67e1a47dae2e2e04aa7d8417","686d226cabeef709c732f8e1","686e3d4313960e15d00379f1","67e1a47dae2e2e04aa7d8417","","","[0,1,2,3,4,5,6]","true","","","","","","","","","","","","","","","","","","","","","","","","","","","","","","","","","","","","","","","","","",""
"12964","","","","fullscreen","3","377956","0.0-4.0","257","1","2025-07-09 10:07:59","7701e855f2ef39aa3fd6c71abdc6918a","41.13.0.233","Mozilla/5.0 (Windows NT 10.0; Win64; x64) AppleWebKit/537.36 (KHTML, like Gecko) Chrome/138.0.0.0 Safari/537.36","WebKit","Chrome","138.0.0.0","Windows","10.0","https://app.prolific.com/","en-US,en;q=0.9","67e1a47dae2e2e04aa7d8417","686d226cabeef709c732f8e1","686e3d4313960e15d00379f1","67e1a47dae2e2e04aa7d8417","","","","","true","","","","","","","","","","","","","","","","","","","","","","","","","","","","","","","","","","","","","","","","",""
"68923","1752056156592"," <p style='font-size:1.1em;line-height:1.25'>Thank you for completing the consent form and closing all other tabs.</p><p style='font-size:1.1em;line-height:1.25'>We will now invite you to fill in some demographic information and questionnaires, before starting the game.<br>This will take about 5 minutes.<br></p><p style='font-size:1.1em;line-height:1.25'>Press the <strong>Next</strong> button to continue.</p>","0","custom-html-button-response","4","446928","0.0-5.0","257","1","2025-07-09 10:07:59","7701e855f2ef39aa3fd6c71abdc6918a","41.13.0.233","Mozilla/5.0 (Windows NT 10.0; Win64; x64) AppleWebKit/537.36 (KHTML, like Gecko) Chrome/138.0.0.0 Safari/537.36","WebKit","Chrome","138.0.0.0","Windows","10.0","https://app.prolific.com/","en-US,en;q=0.9","67e1a47dae2e2e04aa7d8417","686d226cabeef709c732f8e1","686e3d4313960e15d00379f1","67e1a47dae2e2e04aa7d8417","2025-07-09T10:15:56.634Z","","","","","","","","","","","","","","","","","","","","","","","","","","","","","","","","","","","","","","","","","","","","",""
"8054","","","{""age"":""21""}","survey-text","5","455662","0.0-6.0-0.0","257","1","2025-07-09 10:07:59","7701e855f2ef39aa3fd6c71abdc6918a","41.13.0.233","Mozilla/5.0 (Windows NT 10.0; Win64; x64) AppleWebKit/537.36 (KHTML, like Gecko) Chrome/138.0.0.0 Safari/537.36","WebKit","Chrome","138.0.0.0","Windows","10.0","https://app.prolific.com/","en-US,en;q=0.9","67e1a47dae2e2e04aa7d8417","686d226cabeef709c732f8e1","686e3d4313960e15d00379f1","67e1a47dae2e2e04aa7d8417","","","","","","0","demographics","","","","","","","","","","","","","","","","","","","","","","","","","","","","","","","","","","","","","","",""
"5344","","","{""gender_identity"":""female/woman""}","survey-multi-choice","6","461013","0.0-6.0-1.0","257","1","2025-07-09 10:07:59","7701e855f2ef39aa3fd6c71abdc6918a","41.13.0.233","Mozilla/5.0 (Windows NT 10.0; Win64; x64) AppleWebKit/537.36 (KHTML, like Gecko) Chrome/138.0.0.0 Safari/537.36","WebKit","Chrome","138.0.0.0","Windows","10.0","https://app.prolific.com/","en-US,en;q=0.9","67e1a47dae2e2e04aa7d8417","686d226cabeef709c732f8e1","686e3d4313960e15d00379f1","67e1a47dae2e2e04aa7d8417","","","[0]","","","1","demographics","","","","","","","","","","","","","","","","","","","","","","","","","","","","","","","","","","","","","","",""
"18638","","","{""assigned_sex"":""female""}","survey-multi-choice","7","479687","0.0-6.0-2.0","257","1","2025-07-09 10:07:59","7701e855f2ef39aa3fd6c71abdc6918a","41.13.0.233","Mozilla/5.0 (Windows NT 10.0; Win64; x64) AppleWebKit/537.36 (KHTML, like Gecko) Chrome/138.0.0.0 Safari/537.36","WebKit","Chrome","138.0.0.0","Windows","10.0","https://app.prolific.com/","en-US,en;q=0.9","67e1a47dae2e2e04aa7d8417","686d226cabeef709c732f8e1","686e3d4313960e15d00379f1","67e1a47dae2e2e04aa7d8417","","","[0]","","","2","demographics","","","","","","","","","","","","","","","","","","","","","","","","","","","","","","","","","","","","","","",""
"12027","","","{""menstrual_cycle"":""Yes""}","survey-multi-choice","8","491730","0.0-6.0-3.0","257","1","2025-07-09 10:07:59","7701e855f2ef39aa3fd6c71abdc6918a","41.13.0.233","Mozilla/5.0 (Windows NT 10.0; Win64; x64) AppleWebKit/537.36 (KHTML, like Gecko) Chrome/138.0.0.0 Safari/537.36","WebKit","Chrome","138.0.0.0","Windows","10.0","https://app.prolific.com/","en-US,en;q=0.9","67e1a47dae2e2e04aa7d8417","686d226cabeef709c732f8e1","686e3d4313960e15d00379f1","67e1a47dae2e2e04aa7d8417","","","[0]","","","4","demographics","","","","","","","","","","","","","","","","","","","","","","","","","","","","","","","","","","","","","","",""
"6368","","","{""education"":""Bachelor's Degree (e.g., BA)""}","survey-multi-choice","9","498109","0.0-6.0-4.0","257","1","2025-07-09 10:07:59","7701e855f2ef39aa3fd6c71abdc6918a","41.13.0.233","Mozilla/5.0 (Windows NT 10.0; Win64; x64) AppleWebKit/537.36 (KHTML, like Gecko) Chrome/138.0.0.0 Safari/537.36","WebKit","Chrome","138.0.0.0","Windows","10.0","https://app.prolific.com/","en-US,en;q=0.9","67e1a47dae2e2e04aa7d8417","686d226cabeef709c732f8e1","686e3d4313960e15d00379f1","67e1a47dae2e2e04aa7d8417","","","[0]","","","5","demographics","","","","","","","","","","","","","","","","","","","","","","","","","","","","","","","","","","","","","","",""
"5556","","","{""education"":""Bachelor's Degree (e.g., BA)""}","survey-multi-choice","10","503704","0.0-6.0-5.0","257","1","2025-07-09 10:07:59","7701e855f2ef39aa3fd6c71abdc6918a","41.13.0.233","Mozilla/5.0 (Windows NT 10.0; Win64; x64) AppleWebKit/537.36 (KHTML, like Gecko) Chrome/138.0.0.0 Safari/537.36","WebKit","Chrome","138.0.0.0","Windows","10.0","https://app.prolific.com/","en-US,en;q=0.9","67e1a47dae2e2e04aa7d8417","686d226cabeef709c732f8e1","686e3d4313960e15d00379f1","67e1a47dae2e2e04aa7d8417","2025-07-09T10:16:53.381Z","","[0]","","","6","demographics","","","","","","","","","","","","","","","","","","","","","","","","","","","","","","","","","","","","","","",""
"29854","","","{""mental_health_condition"":""No"",""mental_health_treatment"":""No"",""psychiatric_medication"":""No""}","survey-text","11","533580","0.0-7.0-0.0","257","1","2025-07-09 10:07:59","7701e855f2ef39aa3fd6c71abdc6918a","41.13.0.233","Mozilla/5.0 (Windows NT 10.0; Win64; x64) AppleWebKit/537.36 (KHTML, like Gecko) Chrome/138.0.0.0 Safari/537.36","WebKit","Chrome","138.0.0.0","Windows","10.0","https://app.prolific.com/","en-US,en;q=0.9","67e1a47dae2e2e04aa7d8417","686d226cabeef709c732f8e1","686e3d4313960e15d00379f1","67e1a47dae2e2e04aa7d8417","2025-07-09T10:17:23.271Z","","","","","1","mental_health","","","","","","","","","","","","","","","","","","","","","","","","","","","","","","","","","","","","","","",""
"26473","","","{""depression_history"":[""No""]}","survey-multi-select","12","560180","0.0-7.0-1.0","257","1","2025-07-09 10:07:59","7701e855f2ef39aa3fd6c71abdc6918a","41.13.0.233","Mozilla/5.0 (Windows NT 10.0; Win64; x64) AppleWebKit/537.36 (KHTML, like Gecko) Chrome/138.0.0.0 Safari/537.36","WebKit","Chrome","138.0.0.0","Windows","10.0","https://app.prolific.com/","en-US,en;q=0.9","67e1a47dae2e2e04aa7d8417","686d226cabeef709c732f8e1","686e3d4313960e15d00379f1","67e1a47dae2e2e04aa7d8417","","","[0]","","","","mental_health","","","","","","","","","","","","","","","","","","","","","","","","","","","","","","","","","","","","","","",""
"211075.59999996424","","","","survey-template","13","771423","0.0-7.0-3.0","257","1","2025-07-09 10:07:59","7701e855f2ef39aa3fd6c71abdc6918a","41.13.0.233","Mozilla/5.0 (Windows NT 10.0; Win64; x64) AppleWebKit/537.36 (KHTML, like Gecko) Chrome/138.0.0.0 Safari/537.36","WebKit","Chrome","138.0.0.0","Windows","10.0","https://app.prolific.com/","en-US,en;q=0.9","67e1a47dae2e2e04aa7d8417","686d226cabeef709c732f8e1","686e3d4313960e15d00379f1","67e1a47dae2e2e04aa7d8417","2025-07-09T10:21:21.227Z","","","","","","ius","{""Q01"":""1"",""Q02"":""3"",""Q03"":""1"",""Q04"":""3"",""Q05"":""3"",""Q06"":""1"",""Q07"":""1"",""Q08"":""0"",""Q09"":""2"",""Q10"":""1"",""Q11"":""1"",""Q12"":""3"",""Q13"":""2""}","[0,1,2,3,4,5,6,7,8,9,10,11,12]","[""Q01"",""Q02"",""Q03"",""Q04"",""Q05"",""Q05"",""Q05"",""Q06"",""Q07"",""Q07"",""Q08"",""Q09"",""Q10"",""Q10"",""Q10"",""Q10"",""Q10"",""Q10"",""Q10"",""Q10"",""Q10"",""Q10"",""Q10"",""Q11"",""Q12"",""Q13""]","[30364.5,39136.39999997616,45726.09999996424,63560.39999997616,69431.69999998808,72992,77089.69999998808,107526.39999997616,121732.59999996424,123138.89999997616,127301.89999997616,133524,136387.39999997616,140439.09999996424,140934.89999997616,140965.89999997616,140997.69999998808,141030.5,141061.5,141091.59999996424,141131.69999998808,141156.30000001192,141187.30000001192,175336.19999998808,187053.89999997616,198880.30000001192]","[72992,140439.09999996424,140934.89999997616,140965.89999997616,140997.69999998808,141030.5,141061.5,141091.59999996424,141131.69999998808,141156.30000001192,141187.30000001192]","[30364.5,39136.39999997616,45726.09999996424,63560.39999997616,69431.69999998808,77089.69999998808,82087.19999998808,85024.80000001192,107526.39999997616,121732.59999996424,123138.89999997616,127301.89999997616,133524,136387.39999997616,145871.19999998808,152379.30000001192,175336.19999998808,185180.30000001192,187053.89999997616,196029,198880.30000001192,210537.09999996424]","0.46153846153846156","0.25","0","","","","","","","","","","","","","","","","","","","","","","","","","","","","","",""
"4553","1752056486057","<p style='font-size:1.1em;line-height:1.25'>In the following, we will ask you a few questions relating to your experiences over the past month.<br></p><p style='font-size:1.1em;line-height:1.25'>Press the <strong>Next</strong> button to continue.</p>","0","custom-html-button-response","14","776402","0.0-7.0-4.0","257","1","2025-07-09 10:07:59","7701e855f2ef39aa3fd6c71abdc6918a","41.13.0.233","Mozilla/5.0 (Windows NT 10.0; Win64; x64) AppleWebKit/537.36 (KHTML, like Gecko) Chrome/138.0.0.0 Safari/537.36","WebKit","Chrome","138.0.0.0","Windows","10.0","https://app.prolific.com/","en-US,en;q=0.9","67e1a47dae2e2e04aa7d8417","686d226cabeef709c732f8e1","686e3d4313960e15d00379f1","67e1a47dae2e2e04aa7d8417","2025-07-09T10:21:26.071Z","","","","","","","","","","","","","","","","","","","","","","","","","","","","","","","","","","","","","","","","","","","","",""
"119190.69999998808","","","","survey-template","15","895629","0.0-7.0-5.0","257","1","2025-07-09 10:07:59","7701e855f2ef39aa3fd6c71abdc6918a","41.13.0.233","Mozilla/5.0 (Windows NT 10.0; Win64; x64) AppleWebKit/537.36 (KHTML, like Gecko) Chrome/138.0.0.0 Safari/537.36","WebKit","Chrome","138.0.0.0","Windows","10.0","https://app.prolific.com/","en-US,en;q=0.9","67e1a47dae2e2e04aa7d8417","686d226cabeef709c732f8e1","686e3d4313960e15d00379f1","67e1a47dae2e2e04aa7d8417","2025-07-09T10:23:25.309Z","","","","","","pss","{""Q01"":""1"",""Q02"":""1"",""Q03"":""2"",""Q04"":""1"",""Q05"":""1"",""Q06"":""1"",""Q07"":""1"",""Q08"":""1"",""Q09"":""2"",""Q10"":""2""}","[0,1,2,3,4,5,6,7,8,9]","[""Q01"",""Q02"",""Q03"",""Q04"",""Q05"",""Q06"",""Q07"",""Q08"",""Q09"",""Q10""]","[26158.30000001192,53282.80000001192,59627.80000001192,66109.19999998808,67547.09999996424,72235.19999998808,95309.89999997616,103167.59999996424,111403.89999997616,117543.89999997616]","[]","[0.30000001192092896,19101.19999998808,26158.30000001192,53282.80000001192,59627.80000001192,63464.69999998808,66109.19999998808,67547.09999996424,72235.19999998808,78028.69999998808,94082,95309.89999997616,100183.5,103167.59999996424,111403.89999997616,116059.69999998808,116411,117543.89999997616,119178.80000001192]","0.4","0.3333333333333333","0","","","","","","","","","","","","","","","","","","","","","","","","","","","","","",""
"4451","1752056609762","<p style='font-size:1.1em;line-height:1.25'>Thank you for your answers! Now we will ask you a few more questions relating to your feelings in the last 24 hours.<br></p><p style='font-size:1.1em;line-height:1.25'>Press the <strong>Next</strong> button to continue.</p>","0","custom-html-button-response","16","900098","0.0-7.0-6.0","257","1","2025-07-09 10:07:59","7701e855f2ef39aa3fd6c71abdc6918a","41.13.0.233","Mozilla/5.0 (Windows NT 10.0; Win64; x64) AppleWebKit/537.36 (KHTML, like Gecko) Chrome/138.0.0.0 Safari/537.36","WebKit","Chrome","138.0.0.0","Windows","10.0","https://app.prolific.com/","en-US,en;q=0.9","67e1a47dae2e2e04aa7d8417","686d226cabeef709c732f8e1","686e3d4313960e15d00379f1","67e1a47dae2e2e04aa7d8417","2025-07-09T10:23:29.764Z","","","","","","","","","","","","","","","","","","","","","","","","","","","","","","","","","","","","","","","","","","","","",""
"91808.80000001192","","","","survey-template","17","991930","0.0-7.0-7.0","257","1","2025-07-09 10:07:59","7701e855f2ef39aa3fd6c71abdc6918a","41.13.0.233","Mozilla/5.0 (Windows NT 10.0; Win64; x64) AppleWebKit/537.36 (KHTML, like Gecko) Chrome/138.0.0.0 Safari/537.36","WebKit","Chrome","138.0.0.0","Windows","10.0","https://app.prolific.com/","en-US,en;q=0.9","67e1a47dae2e2e04aa7d8417","686d226cabeef709c732f8e1","686e3d4313960e15d00379f1","67e1a47dae2e2e04aa7d8417","2025-07-09T10:25:01.613Z","","","","","","drsp","{""Q01"":""0"",""Q02"":""1"",""Q03"":""0"",""Q04"":""1"",""Q05"":""1"",""Q06"":""1"",""Q07"":""0"",""Q08"":""1"",""Q09"":""1"",""Q10"":""0"",""Q11"":""1"",""Q12"":""3"",""Q13"":""3"",""Q14"":""1"",""Q15"":""1"",""Q16"":""2"",""Q17"":""0"",""Q18"":""0"",""Q19"":""0"",""Q20"":""1"",""Q21"":""0""}","[0,1,2,3,4,5,6,7,8,9,10,11,12,13,14,15,16,17,18,19,20]","[""Q01"",""Q02"",""Q03"",""Q04"",""Q05"",""Q06"",""Q07"",""Q08"",""Q09"",""Q10"",""Q11"",""Q12"",""Q13"",""Q14"",""Q15"",""Q16"",""Q17"",""Q18"",""Q19"",""Q20"",""Q21""]","[7883,9320.100000023842,10699.900000035763,13778.800000011921,15205,22871.80000001192,24550.100000023842,26050.100000023842,40970.10000002384,42468.19999998808,46059.60000002384,48607.5,51555.19999998808,57537.69999998808,59013.60000002384,70468,75074.19999998808,76190.80000001192,80017.90000003576,85709.30000001192,90136.80000001192]","[]","[0,7883,9320.100000023842,10699.900000035763,11987.600000023842,13778.800000011921,15205,22871.80000001192,24550.100000023842,26050.100000023842,27665.69999998808,40970.10000002384,42468.19999998808,44829.5,46059.60000002384,48607.5,51555.19999998808,55129.90000003576,57537.69999998808,59013.60000002384,60854.40000003576,70468,72447,75074.19999998808,76190.80000001192,80017.90000003576,85709.30000001192,88513,90136.80000001192,91745.80000001192]","0.47619047619047616","0.5","0","","","","","","","","","","","","","","","","","","","","","","","","","","","","","",""
"15972.599999964237","","","","survey-template","18","1007935","0.0-7.0-8.0","257","1","2025-07-09 10:07:59","7701e855f2ef39aa3fd6c71abdc6918a","41.13.0.233","Mozilla/5.0 (Windows NT 10.0; Win64; x64) AppleWebKit/537.36 (KHTML, like Gecko) Chrome/138.0.0.0 Safari/537.36","WebKit","Chrome","138.0.0.0","Windows","10.0","https://app.prolific.com/","en-US,en;q=0.9","67e1a47dae2e2e04aa7d8417","686d226cabeef709c732f8e1","686e3d4313960e15d00379f1","67e1a47dae2e2e04aa7d8417","2025-07-09T10:25:17.601Z","","","","","","stress","{""Q01"":""0"",""Q02"":""2"",""Q03"":""1""}","[0,1,2]","[""Q01"",""Q02"",""Q03""]","[3979.300000011921,9913,14014.5]","[]","[3979.300000011921,9913,14014.5,15966.699999988079]","0.3333333333333333","0","0","","","","","","","","","","","","","","","","","","","","","","","","","","","","","",""
"283632","","","","instructions","19","1291599","0.0-8.0-0.0","257","1","2025-07-09 10:07:59","7701e855f2ef39aa3fd6c71abdc6918a","41.13.0.233","Mozilla/5.0 (Windows NT 10.0; Win64; x64) AppleWebKit/537.36 (KHTML, like Gecko) Chrome/138.0.0.0 Safari/537.36","WebKit","Chrome","138.0.0.0","Windows","10.0","https://app.prolific.com/","en-US,en;q=0.9","67e1a47dae2e2e04aa7d8417","686d226cabeef709c732f8e1","686e3d4313960e15d00379f1","67e1a47dae2e2e04aa7d8417","","[{""page_index"":0,""viewing_time"":103704},{""page_index"":1,""viewing_time"":137929},{""page_index"":2,""viewing_time"":16024},{""page_index"":3,""viewing_time"":25972}]","","","","","","","","","","","","","","","","","","","","","","","","","","","","","","","","","","","","","","","","","","","",""
"","","","","ctl-task-cpt","20","1341136","0.0-8.0-1.0","257","1","2025-07-09 10:07:59","7701e855f2ef39aa3fd6c71abdc6918a","41.13.0.233","Mozilla/5.0 (Windows NT 10.0; Win64; x64) AppleWebKit/537.36 (KHTML, like Gecko) Chrome/138.0.0.0 Safari/537.36","WebKit","Chrome","138.0.0.0","Windows","10.0","https://app.prolific.com/","en-US,en;q=0.9","67e1a47dae2e2e04aa7d8417","686d226cabeef709c732f8e1","686e3d4313960e15d00379f1","67e1a47dae2e2e04aa7d8417","","","","","","","","","","","","","","","","","win-only","1","g1:NE,g2:SW","1","0","1","1320815.9","11690.3","15728.8","45006.3","2","4","4","6","1","2","-3","0","0","0","3976.6","4000","2355","[""up"",""right""]","{""num_key_presses"":24,""num_perfect"":4,""num_errors"":5,""num_randdir"":0,""num_randdir_good_moves"":0,""num_whilered"":15,""num_whileblue"":0,""num_blue"":0,""num_good_moves"":4}","[293.22232142857143,299.12857142857143,115.2,293.22232142857143,299.12857142857143,767.5,293.22232142857143,299.12857142857143,1029.6,293.22232142857143,299.12857142857143,1513.3,293.22232142857143,299.12857142857143,1628.4,293.22232142857143,299.12857142857143,1731,293.22232142857143,299.12857142857143,1833.6,293.22232142857143,299.12857142857143,1941.9,293.22232142857143,299.12857142857143,2047.6,293.22232142857143,299.12857142857143,2148.1,293.22232142857143,299.12857142857143,2254.2,293.22232142857143,299.12857142857143,2360.9,293.22232142857143,299.12857142857143,2463.4,293.22232142857143,299.12857142857143,2568.7,308.22232142857143,276.12857142857143,2670.7,416.22232142857143,194.12857142857143,2770.9,426.22232142857143,183.12857142857143,2872.9,448.22232142857143,163.12857142857143,2977.1,470.22232142857143,150.12857142857143,3078.5,500.22232142857143,120.12857142857143,3193.2,511.22232142857143,109.12857142857143,3297.3,511.22232142857143,109.12857142857143,3436.1,521.2223214285714,97.12857142857143,3545.2,535.2223214285714,79.12857142857143,3656,543.2223214285714,73.12857142857143,3756.9,543.2223214285714,73.12857142857143,3858.2,543.2223214285714,73.12857142857143,3982.8]","[8268.2,8268.2,1000,0.1,7268.2,""error"",""-"",""-"",""no_move"",8340.2,54.8,1000,0.1,7340.1,""while_red"",""-"",""-"",""no_move"",8342.6,57.2,1000,0.1,7342.5,""while_red"",""-"",""-"",""no_move"",8345.2,59.8,1000,0.1,7345.1,""while_red"",""-"",""-"",""no_move"",8354.5,69.1,1000,0.1,7354.4,""while_red"",""-"",""-"",""no_move"",8356.6,71.2,1000,0.1,7356.5,""while_red"",""-"",""-"",""no_move"",8360.1,74.7,1000,0.1,7360,""while_red"",""-"",""-"",""no_move"",8362.3,77,1000,0.1,7362.4,""while_red"",""-"",""-"",""no_move"",11284.9,2999.5,3029.9,10129.6,-1874.6,""error"",""-"",""-"",""no_move"",16407.7,5079.3,3040.2,12336,1031.6,""smooth"",""up"",""up"",""good_move"",16952.5,504.5,2509.3,16448.3,-2004.8,""error"",""-"",""-"",""no_move"",16959.2,1.7,2509.3,16448.3,-1998.3,""while_red"",""-"",""-"",""no_move"",17057.6,100,2509.3,16448.3,-1900,""while_red"",""-"",""-"",""no_move"",17228.7,271.1,2509.3,16448.3,-1728.9,""while_red"",""-"",""-"",""no_move"",17392.9,435.3,2509.3,16448.3,-1564.7,""while_red"",""-"",""-"",""no_move"",17543.6,586,2509.3,16448.3,-1413.9,""while_red"",""-"",""-"",""no_move"",17710.6,753.1,2509.3,16448.3,-1246.9,""while_red"",""-"",""-"",""no_move"",17907.5,950,2509.3,16448.3,-1050,""while_red"",""-"",""-"",""no_move"",18078.4,1120.8,2637,17970.3,-2528.9,""error"",""-"",""-"",""no_move"",18361.8,281.7,2637,17970.3,-2245.4,""while_red"",""-"",""-"",""no_move"",22497.3,4417.1,2920.4,19080.3,496.6,""smooth"",""up"",""up"",""good_move"",22732.6,233.4,2355.4,22499.5,-2122.2,""error"",""-"",""-"",""no_move"",26345.7,3606,2166.3,23748,431.4,""smooth"",""right"",""right"",""good_move"",29147.3,2791.4,2282.7,26355.9,508.7,""smooth"",""right"",""right"",""good_move""]","","",""
"26479","","","","instructions","21","1367617","0.0-8.0-2.0","257","1","2025-07-09 10:07:59","7701e855f2ef39aa3fd6c71abdc6918a","41.13.0.233","Mozilla/5.0 (Windows NT 10.0; Win64; x64) AppleWebKit/537.36 (KHTML, like Gecko) Chrome/138.0.0.0 Safari/537.36","WebKit","Chrome","138.0.0.0","Windows","10.0","https://app.prolific.com/","en-US,en;q=0.9","67e1a47dae2e2e04aa7d8417","686d226cabeef709c732f8e1","686e3d4313960e15d00379f1","67e1a47dae2e2e04aa7d8417","","[{""page_index"":0,""viewing_time"":26478}]","","","","","","","","","","","","","","","","","","","","","","","","","","","","","","","","","","","","","","","","","","","",""
"","","","","ctl-task-cpt","22","1414964","0.0-8.0-3.0","257","1","2025-07-09 10:07:59","7701e855f2ef39aa3fd6c71abdc6918a","41.13.0.233","Mozilla/5.0 (Windows NT 10.0; Win64; x64) AppleWebKit/537.36 (KHTML, like Gecko) Chrome/138.0.0.0 Safari/537.36","WebKit","Chrome","138.0.0.0","Windows","10.0","https://app.prolific.com/","en-US,en;q=0.9","67e1a47dae2e2e04aa7d8417","686d226cabeef709c732f8e1","686e3d4313960e15d00379f1","67e1a47dae2e2e04aa7d8417","","","","","","","","","","","","","","","","","win-only","1","g1:NE,g2:SW","0.35","0","3","1395366.7","3486.3","7605.3","43928","2","4","8","6","1","-2","-3","0","0","0","1817.4","4000","-2070","[""up"",""right""]","{""num_key_presses"":10,""num_perfect"":3,""num_errors"":1,""num_randdir"":6,""num_randdir_good_moves"":3,""num_whilered"":0,""num_whileblue"":0,""num_blue"":1,""num_good_moves"":5}","[295.22232142857143,292.12857142857143,4.9,295.22232142857143,292.12857142857143,109,295.22232142857143,292.12857142857143,211.9,295.22232142857143,292.12857142857143,312.4,295.22232142857143,292.12857142857143,412.4,295.22232142857143,292.12857142857143,512.8,295.22232142857143,292.12857142857143,615.5,295.22232142857143,292.12857142857143,730.5,295.22232142857143,292.12857142857143,841.1,298.22232142857143,288.12857142857143,942.5,354.22232142857143,210.12857142857143,1056.7,461.22232142857143,99.12857142857143,1157.3,494.22232142857143,81.12857142857143,1265.2,522.2223214285714,71.12857142857143,1366.1,533.2223214285714,59.128571428571426,1469.2,533.2223214285714,59.128571428571426,1572.9,533.2223214285714,59.128571428571426,1673,533.2223214285714,59.128571428571426,1782.1,533.2223214285714,59.128571428571426,1884,533.2223214285714,59.128571428571426,1985.6,533.2223214285714,59.128571428571426,2085.9,533.2223214285714,59.128571428571426,2186,533.2223214285714,59.128571428571426,2287,533.2223214285714,59.128571428571426,2387.4,533.2223214285714,59.128571428571426,2490.8,533.2223214285714,59.128571428571426,2609.6,533.2223214285714,59.128571428571426,2710.3,533.2223214285714,59.128571428571426,2810.6,533.2223214285714,59.128571428571426,2915.3,533.2223214285714,59.128571428571426,3017,533.2223214285714,59.128571428571426,3124.6,533.2223214285714,59.128571428571426,3234.8,533.2223214285714,59.128571428571426,3339.9,533.2223214285714,59.128571428571426,3441.5,533.2223214285714,59.128571428571426,3549.9,533.2223214285714,59.128571428571426,3651.6,533.2223214285714,59.128571428571426,3752.2]","[1859.6,1859.6,1000,0,859.7,""oops"",""up"",""left"",""bad_move"",5500.6,3637.6,2909.3,1863.2,728.2,""oops"",""up"",""right"",""good_move"",8723.4,3217.9,2537.3,5505.5,680.7,""smooth"",""right"",""right"",""good_move"",11780.3,3053.3,2529.4,8727.2,523.7,""smooth"",""right"",""right"",""good_move"",15433.6,3650.8,2704.8,11782.9,945.9,""oops"",""up"",""up"",""good_move"",15741.2,288.8,3028.6,15452.5,-2739.9,""error"",""-"",""-"",""no_move"",23342.4,7597,1989.9,20175.2,1177.3,""oops"",""up"",""left"",""bad_move"",26752.6,3408.8,2205.1,23343.8,1203.7,""oops"",""up"",""up"",""good_move"",30418.5,3663.3,3016.7,26755.3,646.5,""oops"",""right"",""left"",""bad_move"",33652.9,3231.9,2583.8,30421,648.1,""smooth"",""left"",""left"",""bad_move""]","","",""
"82541","","","","instructions","23","1497580","0.0-8.0-4.0","257","1","2025-07-09 10:07:59","7701e855f2ef39aa3fd6c71abdc6918a","41.13.0.233","Mozilla/5.0 (Windows NT 10.0; Win64; x64) AppleWebKit/537.36 (KHTML, like Gecko) Chrome/138.0.0.0 Safari/537.36","WebKit","Chrome","138.0.0.0","Windows","10.0","https://app.prolific.com/","en-US,en;q=0.9","67e1a47dae2e2e04aa7d8417","686d226cabeef709c732f8e1","686e3d4313960e15d00379f1","67e1a47dae2e2e04aa7d8417","","[{""page_index"":0,""viewing_time"":22326},{""page_index"":1,""viewing_time"":60211}]","","","","","","","","","","","","","","","","","","","","","","","","","","","","","","","","","","","","","","","","","","","",""
"22674","","","{""green_ball"":[""Ball doesn‘t move and I get -1 penalty point""]}","survey-multi-select","24","1529432","0.0-8.0-5.0-0.0","257","1","2025-07-09 10:07:59","7701e855f2ef39aa3fd6c71abdc6918a","41.13.0.233","Mozilla/5.0 (Windows NT 10.0; Win64; x64) AppleWebKit/537.36 (KHTML, like Gecko) Chrome/138.0.0.0 Safari/537.36","WebKit","Chrome","138.0.0.0","Windows","10.0","https://app.prolific.com/","en-US,en;q=0.9","67e1a47dae2e2e04aa7d8417","686d226cabeef709c732f8e1","686e3d4313960e15d00379f1","67e1a47dae2e2e04aa7d8417","","","[0]","","","","quiz","","","","","","","","","","","","","","","","","","","","","","","","","","","","","","","","","","","","","false","",""
"16546","","<p align='center'><b>INCORRECT.</b> Usually the green ball moves in the indicated direction, but sometimes it shakes and moves randomly. </p>","0","html-button-response","25","1548458","0.0-8.0-5.0-1.0","257","1","2025-07-09 10:07:59","7701e855f2ef39aa3fd6c71abdc6918a","41.13.0.233","Mozilla/5.0 (Windows NT 10.0; Win64; x64) AppleWebKit/537.36 (KHTML, like Gecko) Chrome/138.0.0.0 Safari/537.36","WebKit","Chrome","138.0.0.0","Windows","10.0","https://app.prolific.com/","en-US,en;q=0.9","67e1a47dae2e2e04aa7d8417","686d226cabeef709c732f8e1","686e3d4313960e15d00379f1","67e1a47dae2e2e04aa7d8417","","","","","","","","","","","","","","","","","","","","","","","","","","","","","","","","","","","","","","","","","","","","","",""
"12318","","","{""green_ball"":[""Ball always shakes and moves in a random direction""]}","survey-multi-select","26","1560855","0.0-8.0-5.1-0.1","257","1","2025-07-09 10:07:59","7701e855f2ef39aa3fd6c71abdc6918a","41.13.0.233","Mozilla/5.0 (Windows NT 10.0; Win64; x64) AppleWebKit/537.36 (KHTML, like Gecko) Chrome/138.0.0.0 Safari/537.36","WebKit","Chrome","138.0.0.0","Windows","10.0","https://app.prolific.com/","en-US,en;q=0.9","67e1a47dae2e2e04aa7d8417","686d226cabeef709c732f8e1","686e3d4313960e15d00379f1","67e1a47dae2e2e04aa7d8417","","","[0]","","","","quiz","","","","","","","","","","","","","","","","","","","","","","","","","","","","","","","","","","","","","false","",""
"6085","","<p align='center'><b>INCORRECT.</b> Usually the green ball moves in the indicated direction, but sometimes it shakes and moves randomly. </p>","0","html-button-response","27","1566946","0.0-8.0-5.1-1.1","257","1","2025-07-09 10:07:59","7701e855f2ef39aa3fd6c71abdc6918a","41.13.0.233","Mozilla/5.0 (Windows NT 10.0; Win64; x64) AppleWebKit/537.36 (KHTML, like Gecko) Chrome/138.0.0.0 Safari/537.36","WebKit","Chrome","138.0.0.0","Windows","10.0","https://app.prolific.com/","en-US,en;q=0.9","67e1a47dae2e2e04aa7d8417","686d226cabeef709c732f8e1","686e3d4313960e15d00379f1","67e1a47dae2e2e04aa7d8417","","","","","","","","","","","","","","","","","","","","","","","","","","","","","","","","","","","","","","","","","","","","","",""
"3723","","","{""green_ball"":[""Ball sometimes shakes and moves in a random direction""]}","survey-multi-select","28","1570678","0.0-8.0-5.2-0.2","257","1","2025-07-09 10:07:59","7701e855f2ef39aa3fd6c71abdc6918a","41.13.0.233","Mozilla/5.0 (Windows NT 10.0; Win64; x64) AppleWebKit/537.36 (KHTML, like Gecko) Chrome/138.0.0.0 Safari/537.36","WebKit","Chrome","138.0.0.0","Windows","10.0","https://app.prolific.com/","en-US,en;q=0.9","67e1a47dae2e2e04aa7d8417","686d226cabeef709c732f8e1","686e3d4313960e15d00379f1","67e1a47dae2e2e04aa7d8417","","","[0]","","","","quiz","","","","","","","","","","","","","","","","","","","","","","","","","","","","","","","","","","","","","true","",""
"3653","","<p align='center'><b>CORRECT!</b> Indeed, the green ball may sometimes shake and move in a random direction.</p>","0","html-button-response","29","1574336","0.0-8.0-5.2-1.2","257","1","2025-07-09 10:07:59","7701e855f2ef39aa3fd6c71abdc6918a","41.13.0.233","Mozilla/5.0 (Windows NT 10.0; Win64; x64) AppleWebKit/537.36 (KHTML, like Gecko) Chrome/138.0.0.0 Safari/537.36","WebKit","Chrome","138.0.0.0","Windows","10.0","https://app.prolific.com/","en-US,en;q=0.9","67e1a47dae2e2e04aa7d8417","686d226cabeef709c732f8e1","686e3d4313960e15d00379f1","67e1a47dae2e2e04aa7d8417","","","","","","","","","","","","","","","","","","","","","","","","","","","","","","","","","","","","","","","","","","","","","",""
"7810","","","{""yellow_ball"":[""Ball doesn‘t move and I get -1 penalty point""]}","survey-multi-select","30","1582670","0.0-8.0-6.0-0.0","257","1","2025-07-09 10:07:59","7701e855f2ef39aa3fd6c71abdc6918a","41.13.0.233","Mozilla/5.0 (Windows NT 10.0; Win64; x64) AppleWebKit/537.36 (KHTML, like Gecko) Chrome/138.0.0.0 Safari/537.36","WebKit","Chrome","138.0.0.0","Windows","10.0","https://app.prolific.com/","en-US,en;q=0.9","67e1a47dae2e2e04aa7d8417","686d226cabeef709c732f8e1","686e3d4313960e15d00379f1","67e1a47dae2e2e04aa7d8417","","","[0]","","","","quiz","","","","","","","","","","","","","","","","","","","","","","","","","","","","","","","","","","","","","true","",""
"4144","","<p align='center'><b>CORRECT!</b> Indeed, the yellow ball never moves and you receive a penalty.</p>","0","html-button-response","31","1586934","0.0-8.0-6.0-1.0","257","1","2025-07-09 10:07:59","7701e855f2ef39aa3fd6c71abdc6918a","41.13.0.233","Mozilla/5.0 (Windows NT 10.0; Win64; x64) AppleWebKit/537.36 (KHTML, like Gecko) Chrome/138.0.0.0 Safari/537.36","WebKit","Chrome","138.0.0.0","Windows","10.0","https://app.prolific.com/","en-US,en;q=0.9","67e1a47dae2e2e04aa7d8417","686d226cabeef709c732f8e1","686e3d4313960e15d00379f1","67e1a47dae2e2e04aa7d8417","","","","","","","","","","","","","","","","","","","","","","","","","","","","","","","","","","","","","","","","","","","","","",""
"8406","","","{""blue_ball"":[""Ball always moves in the direction I press""]}","survey-multi-select","32","1595345","0.0-8.0-7.0-0.0","257","1","2025-07-09 10:07:59","7701e855f2ef39aa3fd6c71abdc6918a","41.13.0.233","Mozilla/5.0 (Windows NT 10.0; Win64; x64) AppleWebKit/537.36 (KHTML, like Gecko) Chrome/138.0.0.0 Safari/537.36","WebKit","Chrome","138.0.0.0","Windows","10.0","https://app.prolific.com/","en-US,en;q=0.9","67e1a47dae2e2e04aa7d8417","686d226cabeef709c732f8e1","686e3d4313960e15d00379f1","67e1a47dae2e2e04aa7d8417","","","[0]","","","","quiz","","","","","","","","","","","","","","","","","","","","","","","","","","","","","","","","","","","","","false","",""
"4959","","<p align='center'><b>INCORRECT.</b> The blue ball always shakes and moves randomly.</p>","0","html-button-response","33","1600339","0.0-8.0-7.0-1.0","257","1","2025-07-09 10:07:59","7701e855f2ef39aa3fd6c71abdc6918a","41.13.0.233","Mozilla/5.0 (Windows NT 10.0; Win64; x64) AppleWebKit/537.36 (KHTML, like Gecko) Chrome/138.0.0.0 Safari/537.36","WebKit","Chrome","138.0.0.0","Windows","10.0","https://app.prolific.com/","en-US,en;q=0.9","67e1a47dae2e2e04aa7d8417","686d226cabeef709c732f8e1","686e3d4313960e15d00379f1","67e1a47dae2e2e04aa7d8417","","","","","","","","","","","","","","","","","","","","","","","","","","","","","","","","","","","","","","","","","","","","","",""
"9967","","","{""blue_ball"":[""Ball always shakes and moves in a random direction""]}","survey-multi-select","34","1610334","0.0-8.0-7.1-0.1","257","1","2025-07-09 10:07:59","7701e855f2ef39aa3fd6c71abdc6918a","41.13.0.233","Mozilla/5.0 (Windows NT 10.0; Win64; x64) AppleWebKit/537.36 (KHTML, like Gecko) Chrome/138.0.0.0 Safari/537.36","WebKit","Chrome","138.0.0.0","Windows","10.0","https://app.prolific.com/","en-US,en;q=0.9","67e1a47dae2e2e04aa7d8417","686d226cabeef709c732f8e1","686e3d4313960e15d00379f1","67e1a47dae2e2e04aa7d8417","","","[0]","","","","quiz","","","","","","","","","","","","","","","","","","","","","","","","","","","","","","","","","","","","","true","",""
"8733","","<p align='center'><b>CORRECT!</b> Indeed, the blue ball always shakes and moves in a random direction. Also there is a penalty of -1 point.</p>","0","html-button-response","35","1619074","0.0-8.0-7.1-1.1","257","1","2025-07-09 10:07:59","7701e855f2ef39aa3fd6c71abdc6918a","41.13.0.233","Mozilla/5.0 (Windows NT 10.0; Win64; x64) AppleWebKit/537.36 (KHTML, like Gecko) Chrome/138.0.0.0 Safari/537.36","WebKit","Chrome","138.0.0.0","Windows","10.0","https://app.prolific.com/","en-US,en;q=0.9","67e1a47dae2e2e04aa7d8417","686d226cabeef709c732f8e1","686e3d4313960e15d00379f1","67e1a47dae2e2e04aa7d8417","","","","","","","","","","","","","","","","","","","","","","","","","","","","","","","","","","","","","","","","","","","","","",""
"7839","","","{""bonus"":[""When I reach 50% of points""]}","survey-multi-select","36","1626921","0.0-8.0-8.0-0.0","257","1","2025-07-09 10:07:59","7701e855f2ef39aa3fd6c71abdc6918a","41.13.0.233","Mozilla/5.0 (Windows NT 10.0; Win64; x64) AppleWebKit/537.36 (KHTML, like Gecko) Chrome/138.0.0.0 Safari/537.36","WebKit","Chrome","138.0.0.0","Windows","10.0","https://app.prolific.com/","en-US,en;q=0.9","67e1a47dae2e2e04aa7d8417","686d226cabeef709c732f8e1","686e3d4313960e15d00379f1","67e1a47dae2e2e04aa7d8417","","","[0]","","","","quiz","","","","","","","","","","","","","","","","","","","","","","","","","","","","","","","","","","","","","true","",""
"2979","","<p align='center'><b>CORRECT!</b> Indeed, you receive 2 pounds extra when you reach 50% of points.</p>","0","html-button-response","37","1629945","0.0-8.0-8.0-1.0","257","1","2025-07-09 10:07:59","7701e855f2ef39aa3fd6c71abdc6918a","41.13.0.233","Mozilla/5.0 (Windows NT 10.0; Win64; x64) AppleWebKit/537.36 (KHTML, like Gecko) Chrome/138.0.0.0 Safari/537.36","WebKit","Chrome","138.0.0.0","Windows","10.0","https://app.prolific.com/","en-US,en;q=0.9","67e1a47dae2e2e04aa7d8417","686d226cabeef709c732f8e1","686e3d4313960e15d00379f1","67e1a47dae2e2e04aa7d8417","","","","","","","","","","","","","","","","","","","","","","","","","","","","","","","","","","","","","","","","","","","","","",""
"17942","","","","instructions","38","1647913","0.0-8.0-9.0","257","1","2025-07-09 10:07:59","7701e855f2ef39aa3fd6c71abdc6918a","41.13.0.233","Mozilla/5.0 (Windows NT 10.0; Win64; x64) AppleWebKit/537.36 (KHTML, like Gecko) Chrome/138.0.0.0 Safari/537.36","WebKit","Chrome","138.0.0.0","Windows","10.0","https://app.prolific.com/","en-US,en;q=0.9","67e1a47dae2e2e04aa7d8417","686d226cabeef709c732f8e1","686e3d4313960e15d00379f1","67e1a47dae2e2e04aa7d8417","","[{""page_index"":0,""viewing_time"":17940}]","","","","","","","","","","","","","","","","","","","","","","","","","","","","","","","","","","","","","","","","","","","",""
"20524","","<p>Before you start with this game please answer the following three questions yourself. </p>
  <p>Through this game, we measure several aspects of your cognitive performance, such as reaction times, multi-tasking capabilities </p>
  <p>and the ability to assess the situation you are in.</p>
  <p></p>
  <p><b>How good do you usually are in such tasks?</b></p>","83","html-slider-response","39","1671900","0.0-9.0-0.0","257","1","2025-07-09 10:07:59","7701e855f2ef39aa3fd6c71abdc6918a","41.13.0.233","Mozilla/5.0 (Windows NT 10.0; Win64; x64) AppleWebKit/537.36 (KHTML, like Gecko) Chrome/138.0.0.0 Safari/537.36","WebKit","Chrome","138.0.0.0","Windows","10.0","https://app.prolific.com/","en-US,en;q=0.9","67e1a47dae2e2e04aa7d8417","686d226cabeef709c732f8e1","686e3d4313960e15d00379f1","67e1a47dae2e2e04aa7d8417","2025-07-09T10:36:21.662Z","","","","","","PreSkillQ","","","","","","","","","","","","","","","","","","","","","","","","","","","","","","","","","","","","","","50",""
"7587","","<div style=""width:500px;"">
  <p>How well do you think you will perform in this task compared to other participants?</p>
  </div>","95","html-slider-response","40","1679862","0.0-9.0-1.0","257","1","2025-07-09 10:07:59","7701e855f2ef39aa3fd6c71abdc6918a","41.13.0.233","Mozilla/5.0 (Windows NT 10.0; Win64; x64) AppleWebKit/537.36 (KHTML, like Gecko) Chrome/138.0.0.0 Safari/537.36","WebKit","Chrome","138.0.0.0","Windows","10.0","https://app.prolific.com/","en-US,en;q=0.9","67e1a47dae2e2e04aa7d8417","686d226cabeef709c732f8e1","686e3d4313960e15d00379f1","67e1a47dae2e2e04aa7d8417","2025-07-09T10:36:29.528Z","","","","","","PrePerfQ","","","","","","","","","","","","","","","","","","","","","","","","","","","","","","","","","","","","","","50",""
"7558","","<div style=""width:500px;"">
  <p>What best describes how you currently feel?</p>
  </div>","93","html-slider-response","41","1687426","0.0-9.0-2.0","257","1","2025-07-09 10:07:59","7701e855f2ef39aa3fd6c71abdc6918a","41.13.0.233","Mozilla/5.0 (Windows NT 10.0; Win64; x64) AppleWebKit/537.36 (KHTML, like Gecko) Chrome/138.0.0.0 Safari/537.36","WebKit","Chrome","138.0.0.0","Windows","10.0","https://app.prolific.com/","en-US,en;q=0.9","67e1a47dae2e2e04aa7d8417","686d226cabeef709c732f8e1","686e3d4313960e15d00379f1","67e1a47dae2e2e04aa7d8417","2025-07-09T10:36:37.093Z","","","","","","PreMotivationQ","","","","","","","","","","","","","","","","","","","","","","","","","","","","","","","","","","","","","","50",""
"","","","","ctl-task-cpt","42","1752429","0.0-10.0-0.0","257","1","2025-07-09 10:07:59","7701e855f2ef39aa3fd6c71abdc6918a","41.13.0.233","Mozilla/5.0 (Windows NT 10.0; Win64; x64) AppleWebKit/537.36 (KHTML, like Gecko) Chrome/138.0.0.0 Safari/537.36","WebKit","Chrome","138.0.0.0","Windows","10.0","https://app.prolific.com/","en-US,en;q=0.9","67e1a47dae2e2e04aa7d8417","686d226cabeef709c732f8e1","686e3d4313960e15d00379f1","67e1a47dae2e2e04aa7d8417","2025-07-09T10:37:42.096Z","","","","","","","","","","","","","","","","win-only","2","g1:SE,g2:NW","1","1","0","1721309","10304.7","15521.3","55721.8","1","4","8","6","1","-1","-4","0","0","0","5216.6","3000","-595","[""down"",""right""]","{""num_key_presses"":10,""num_perfect"":7,""num_errors"":3,""num_randdir"":0,""num_randdir_good_moves"":0,""num_whilered"":0,""num_whileblue"":1,""num_blue"":3,""num_good_moves"":1}","[294.22232142857143,299.12857142857143,356.6,294.22232142857143,299.12857142857143,1033.5,294.22232142857143,299.12857142857143,1833.5,294.22232142857143,299.12857142857143,1941.8,294.22232142857143,299.12857142857143,2875.2,294.22232142857143,299.12857142857143,3082.7,294.22232142857143,299.12857142857143,3183,294.22232142857143,299.12857142857143,3292.9,294.22232142857143,299.12857142857143,3414.9,294.22232142857143,299.12857142857143,3555.4,294.22232142857143,299.12857142857143,3656.8,294.22232142857143,299.12857142857143,3758.9,294.22232142857143,299.12857142857143,3859.3]","[4071.7,4071.6,2903.4,2921.4,-1753.1,""error"",""-"",""-"",""no_move"",8561.1,4481.4,2482.5,5091.4,987.2,""smooth"",""up"",""up"",""bad_move"",12694.5,3894.2,2998.3,8800.3,895.9,""smooth"",""up"",""up"",""bad_move"",17197.2,4214.9,2460.1,12982.4,1754.7,""smooth"",""up"",""up"",""bad_move"",20491,3290.6,2924.1,20385.7,-2818.8,""error"",""-"",""-"",""no_move"",24320.4,3813.4,2249.4,21507.8,564.4,""while_blue"",""left"",""down"",""good_move"",27901.2,3576.8,2080.8,24324.4,1496,""smooth"",""up"",""up"",""bad_move"",31505.4,3602,2819.2,27903.4,782.8,""smooth"",""left"",""left"",""bad_move"",34813.8,3299.5,2824.9,31514.3,474.6,""smooth"",""left"",""left"",""bad_move"",37618.2,2794.6,2311.3,34823.6,483.3,""smooth"",""left"",""left"",""bad_move""]","","",""
"53396","","<div style=""width:500px;"">
  <p>What determined the result of this run?</p>
  </div>","72","html-slider-response","43","1806446","0.0-10.0-1.0","257","1","2025-07-09 10:07:59","7701e855f2ef39aa3fd6c71abdc6918a","41.13.0.233","Mozilla/5.0 (Windows NT 10.0; Win64; x64) AppleWebKit/537.36 (KHTML, like Gecko) Chrome/138.0.0.0 Safari/537.36","WebKit","Chrome","138.0.0.0","Windows","10.0","https://app.prolific.com/","en-US,en;q=0.9","67e1a47dae2e2e04aa7d8417","686d226cabeef709c732f8e1","686e3d4313960e15d00379f1","67e1a47dae2e2e04aa7d8417","2025-07-09T10:38:36.123Z","","","","","","AttribQ","","","","","","","","","","","","","","","","","","","","","","","","","","","","","","","","","","","","","","50",""
"5587","","<div style=""width:500px;"">
  <p>How much control did you have over the ball?</p>
  </div>","81","html-slider-response","44","1812050","0.0-10.0-2.0","257","1","2025-07-09 10:07:59","7701e855f2ef39aa3fd6c71abdc6918a","41.13.0.233","Mozilla/5.0 (Windows NT 10.0; Win64; x64) AppleWebKit/537.36 (KHTML, like Gecko) Chrome/138.0.0.0 Safari/537.36","WebKit","Chrome","138.0.0.0","Windows","10.0","https://app.prolific.com/","en-US,en;q=0.9","67e1a47dae2e2e04aa7d8417","686d226cabeef709c732f8e1","686e3d4313960e15d00379f1","67e1a47dae2e2e04aa7d8417","2025-07-09T10:38:41.716Z","","","","","","ControlQ","","","","","","","","","","","","","","","","","","","","","","","","","","","","","","","","","","","","","","50",""
"10746","","<div style=""width:500px;"">
  <p>How would you describe your current emotional state?</p>
  </div>","3","html-slider-response","45","1822982","0.0-10.0-3.0","257","1","2025-07-09 10:07:59","7701e855f2ef39aa3fd6c71abdc6918a","41.13.0.233","Mozilla/5.0 (Windows NT 10.0; Win64; x64) AppleWebKit/537.36 (KHTML, like Gecko) Chrome/138.0.0.0 Safari/537.36","WebKit","Chrome","138.0.0.0","Windows","10.0","https://app.prolific.com/","en-US,en;q=0.9","67e1a47dae2e2e04aa7d8417","686d226cabeef709c732f8e1","686e3d4313960e15d00379f1","67e1a47dae2e2e04aa7d8417","2025-07-09T10:38:52.690Z","","","","","","StressQ","","","","","","","","","","","","","","","","","","","","","","","","","","","","","","","","","","","","","","50",""
"6524","","<div style=""width:500px;"">
  <p>What best describes how you currently feel?</p>
  </div>","89","html-slider-response","46","1830482","0.0-10.0-4.0","257","1","2025-07-09 10:07:59","7701e855f2ef39aa3fd6c71abdc6918a","41.13.0.233","Mozilla/5.0 (Windows NT 10.0; Win64; x64) AppleWebKit/537.36 (KHTML, like Gecko) Chrome/138.0.0.0 Safari/537.36","WebKit","Chrome","138.0.0.0","Windows","10.0","https://app.prolific.com/","en-US,en;q=0.9","67e1a47dae2e2e04aa7d8417","686d226cabeef709c732f8e1","686e3d4313960e15d00379f1","67e1a47dae2e2e04aa7d8417","2025-07-09T10:39:00.150Z","","","","","","MotivationQ","","","","","","","","","","","","","","","","","","","","","","","","","","","","","","","","","","","","","","50",""
"","","","","ctl-task-cpt","47","1884390","0.0-10.0-0.1","257","1","2025-07-09 10:07:59","7701e855f2ef39aa3fd6c71abdc6918a","41.13.0.233","Mozilla/5.0 (Windows NT 10.0; Win64; x64) AppleWebKit/537.36 (KHTML, like Gecko) Chrome/138.0.0.0 Safari/537.36","WebKit","Chrome","138.0.0.0","Windows","10.0","https://app.prolific.com/","en-US,en;q=0.9","67e1a47dae2e2e04aa7d8417","686d226cabeef709c732f8e1","686e3d4313960e15d00379f1","67e1a47dae2e2e04aa7d8417","2025-07-09T10:39:54.056Z","","","","","","","","","","","","","","","","win-only","3","g1:SW,g2:NE","0.9","2","0","1858245.6","13449.2","18457.8","50857.3","1","4","4","6","2","4","4","4","0","0.030303030303030304","3962.9","3000","955","[""up"",""right""]","{""num_key_presses"":8,""num_perfect"":7,""num_errors"":0,""num_randdir"":1,""num_randdir_good_moves"":0,""num_whilered"":0,""num_whileblue"":0,""num_blue"":1,""num_good_moves"":7}","[296.22232142857143,300.12857142857143,0.5,296.22232142857143,300.12857142857143,451.7,296.22232142857143,300.12857142857143,1070.7,296.22232142857143,300.12857142857143,3295.9,497.22232142857143,64.12857142857143,3400.4,497.22232142857143,64.12857142857143,3506.2,509.22232142857143,68.12857142857143,3611.8,509.22232142857143,68.12857142857143,3714.6,509.22232142857143,68.12857142857143,3814.8,509.22232142857143,68.12857142857143,3920,509.22232142857143,68.12857142857143,4032.9,509.22232142857143,68.12857142857143,4142.7,509.22232142857143,68.12857142857143,4250,509.22232142857143,68.12857142857143,4350.6,509.22232142857143,68.12857142857143,4453.7,509.22232142857143,68.12857142857143,4559.7,509.22232142857143,68.12857142857143,4663.6,509.22232142857143,68.12857142857143,4770.5,509.22232142857143,68.12857142857143,4878.6,509.22232142857143,68.12857142857143,4989.9]","[2968.3,2968.3,1000,0,1968.3,""smooth"",""up"",""up"",""good_move"",5629.8,2650.7,1874.3,2979.2,776.4,""smooth"",""up"",""up"",""good_move"",12545.4,6909.6,2679.3,9372.5,493.6,""smooth"",""up"",""up"",""good_move"",16619.3,4066,2443.2,12553.3,1622.8,""smooth"",""right"",""right"",""good_move"",20955,4331.6,3332.6,16623.4,999,""oops"",""right"",""left"",""bad_move"",24593.5,3632.6,2964,20961,668.6,""smooth"",""right"",""right"",""good_move"",27758.9,3162.8,2383,24596.2,779.7,""smooth"",""right"",""right"",""good_move"",30985.5,3219.4,2723.2,27766.1,496.2,""smooth"",""right"",""right"",""good_move""]","","",""
"5813","","<div style=""width:500px;"">
  <p>What determined the result of this run?</p>
  </div>","87","html-slider-response","48","1890210","0.0-10.0-1.1","257","1","2025-07-09 10:07:59","7701e855f2ef39aa3fd6c71abdc6918a","41.13.0.233","Mozilla/5.0 (Windows NT 10.0; Win64; x64) AppleWebKit/537.36 (KHTML, like Gecko) Chrome/138.0.0.0 Safari/537.36","WebKit","Chrome","138.0.0.0","Windows","10.0","https://app.prolific.com/","en-US,en;q=0.9","67e1a47dae2e2e04aa7d8417","686d226cabeef709c732f8e1","686e3d4313960e15d00379f1","67e1a47dae2e2e04aa7d8417","2025-07-09T10:39:59.877Z","","","","","","AttribQ","","","","","","","","","","","","","","","","","","","","","","","","","","","","","","","","","","","","","","50",""
"4730","","<div style=""width:500px;"">
  <p>How much control did you have over the ball?</p>
  </div>","87","html-slider-response","49","1894946","0.0-10.0-2.1","257","1","2025-07-09 10:07:59","7701e855f2ef39aa3fd6c71abdc6918a","41.13.0.233","Mozilla/5.0 (Windows NT 10.0; Win64; x64) AppleWebKit/537.36 (KHTML, like Gecko) Chrome/138.0.0.0 Safari/537.36","WebKit","Chrome","138.0.0.0","Windows","10.0","https://app.prolific.com/","en-US,en;q=0.9","67e1a47dae2e2e04aa7d8417","686d226cabeef709c732f8e1","686e3d4313960e15d00379f1","67e1a47dae2e2e04aa7d8417","2025-07-09T10:40:04.613Z","","","","","","ControlQ","","","","","","","","","","","","","","","","","","","","","","","","","","","","","","","","","","","","","","50",""
"15181","","<div style=""width:500px;"">
  <p>How would you describe your current emotional state?</p>
  </div>","79","html-slider-response","50","1910142","0.0-10.0-3.1","257","1","2025-07-09 10:07:59","7701e855f2ef39aa3fd6c71abdc6918a","41.13.0.233","Mozilla/5.0 (Windows NT 10.0; Win64; x64) AppleWebKit/537.36 (KHTML, like Gecko) Chrome/138.0.0.0 Safari/537.36","WebKit","Chrome","138.0.0.0","Windows","10.0","https://app.prolific.com/","en-US,en;q=0.9","67e1a47dae2e2e04aa7d8417","686d226cabeef709c732f8e1","686e3d4313960e15d00379f1","67e1a47dae2e2e04aa7d8417","2025-07-09T10:40:19.811Z","","","","","","StressQ","","","","","","","","","","","","","","","","","","","","","","","","","","","","","","","","","","","","","","50",""
"10496","","<div style=""width:500px;"">
  <p>What best describes how you currently feel?</p>
  </div>","76","html-slider-response","51","1920652","0.0-10.0-4.1","257","1","2025-07-09 10:07:59","7701e855f2ef39aa3fd6c71abdc6918a","41.13.0.233","Mozilla/5.0 (Windows NT 10.0; Win64; x64) AppleWebKit/537.36 (KHTML, like Gecko) Chrome/138.0.0.0 Safari/537.36","WebKit","Chrome","138.0.0.0","Windows","10.0","https://app.prolific.com/","en-US,en;q=0.9","67e1a47dae2e2e04aa7d8417","686d226cabeef709c732f8e1","686e3d4313960e15d00379f1","67e1a47dae2e2e04aa7d8417","2025-07-09T10:40:30.318Z","","","","","","MotivationQ","","","","","","","","","","","","","","","","","","","","","","","","","","","","","","","","","","","","","","50",""
"","","","","ctl-task-cpt","52","1945358","0.0-10.0-0.2","257","1","2025-07-09 10:07:59","7701e855f2ef39aa3fd6c71abdc6918a","41.13.0.233","Mozilla/5.0 (Windows NT 10.0; Win64; x64) AppleWebKit/537.36 (KHTML, like Gecko) Chrome/138.0.0.0 Safari/537.36","WebKit","Chrome","138.0.0.0","Windows","10.0","https://app.prolific.com/","en-US,en;q=0.9","67e1a47dae2e2e04aa7d8417","686d226cabeef709c732f8e1","686e3d4313960e15d00379f1","67e1a47dae2e2e04aa7d8417","2025-07-09T10:40:55.024Z","","","","","","","","","","","","","","","","win-only","1","g1:NE,g2:SW","0.8","3","0","1948402.6","2704.8","7730.4","21677","1","4","4","6","1","1","1","5","4","0.03787878787878788","1901.7","3000","2080","[""up"",""right""]","{""num_key_presses"":4,""num_perfect"":4,""num_errors"":0,""num_randdir"":0,""num_randdir_good_moves"":0,""num_whilered"":0,""num_whileblue"":0,""num_blue"":1,""num_good_moves"":4}","[292.22232142857143,300.12857142857143,3.1,292.22232142857143,300.12857142857143,113.4,292.22232142857143,300.12857142857143,218.1,292.22232142857143,300.12857142857143,324.8,292.22232142857143,300.12857142857143,433.1,292.22232142857143,300.12857142857143,546.7,292.22232142857143,300.12857142857143,651.3,292.22232142857143,300.12857142857143,752.3,515.2223214285714,70.12857142857143,1535.8,515.2223214285714,70.12857142857143,1650.7,515.2223214285714,70.12857142857143,1786.5,515.2223214285714,70.12857142857143,1889.9,515.2223214285714,70.12857142857143,2011,515.2223214285714,70.12857142857143,2115.3,515.2223214285714,70.12857142857143,2218.8,515.2223214285714,70.12857142857143,3005.2,511.22232142857143,70.12857142857143,3136.5,463.22232142857143,100.12857142857143,3245.5,409.22232142857143,149.12857142857143,3376.2,401.22232142857143,150.12857142857143,3634,390.22232142857143,154.12857142857143,3742.3,390.22232142857143,154.12857142857143,3854.4,390.22232142857143,154.12857142857143,3965.8,390.22232142857143,154.12857142857143,4076.1,390.22232142857143,154.12857142857143,4183.5,365.22232142857143,157.12857142857143,4290.9,365.22232142857143,157.12857142857143,4837.7,358.22232142857143,157.12857142857143,4939.1]","[1688.3,1688.2,1000,0.1,688.3,""smooth"",""up"",""up"",""good_move"",5616.4,3924.6,3263,1691.9,661.6,""smooth"",""up"",""up"",""good_move"",8789.9,3166.2,2651.6,5623.8,514.5,""smooth"",""right"",""right"",""good_move"",13712.3,4914.1,1875.1,11211.9,625.3,""smooth"",""right"",""right"",""good_move""]","","",""
"5177","","<div style=""width:500px;"">
  <p>What determined the result of this run?</p>
  </div>","90","html-slider-response","53","1950546","0.0-10.0-1.2","257","1","2025-07-09 10:07:59","7701e855f2ef39aa3fd6c71abdc6918a","41.13.0.233","Mozilla/5.0 (Windows NT 10.0; Win64; x64) AppleWebKit/537.36 (KHTML, like Gecko) Chrome/138.0.0.0 Safari/537.36","WebKit","Chrome","138.0.0.0","Windows","10.0","https://app.prolific.com/","en-US,en;q=0.9","67e1a47dae2e2e04aa7d8417","686d226cabeef709c732f8e1","686e3d4313960e15d00379f1","67e1a47dae2e2e04aa7d8417","2025-07-09T10:41:00.212Z","","","","","","AttribQ","","","","","","","","","","","","","","","","","","","","","","","","","","","","","","","","","","","","","","50",""
"6911","","<div style=""width:500px;"">
  <p>How much control did you have over the ball?</p>
  </div>","90","html-slider-response","54","1958777","0.0-10.0-2.2","257","1","2025-07-09 10:07:59","7701e855f2ef39aa3fd6c71abdc6918a","41.13.0.233","Mozilla/5.0 (Windows NT 10.0; Win64; x64) AppleWebKit/537.36 (KHTML, like Gecko) Chrome/138.0.0.0 Safari/537.36","WebKit","Chrome","138.0.0.0","Windows","10.0","https://app.prolific.com/","en-US,en;q=0.9","67e1a47dae2e2e04aa7d8417","686d226cabeef709c732f8e1","686e3d4313960e15d00379f1","67e1a47dae2e2e04aa7d8417","2025-07-09T10:41:08.448Z","","","","","","ControlQ","","","","","","","","","","","","","","","","","","","","","","","","","","","","","","","","","","","","","","50",""
"4809","","<div style=""width:500px;"">
  <p>How would you describe your current emotional state?</p>
  </div>","2","html-slider-response","55","1963604","0.0-10.0-3.2","257","1","2025-07-09 10:07:59","7701e855f2ef39aa3fd6c71abdc6918a","41.13.0.233","Mozilla/5.0 (Windows NT 10.0; Win64; x64) AppleWebKit/537.36 (KHTML, like Gecko) Chrome/138.0.0.0 Safari/537.36","WebKit","Chrome","138.0.0.0","Windows","10.0","https://app.prolific.com/","en-US,en;q=0.9","67e1a47dae2e2e04aa7d8417","686d226cabeef709c732f8e1","686e3d4313960e15d00379f1","67e1a47dae2e2e04aa7d8417","2025-07-09T10:41:13.271Z","","","","","","StressQ","","","","","","","","","","","","","","","","","","","","","","","","","","","","","","","","","","","","","","50",""
"5499","","<div style=""width:500px;"">
  <p>What best describes how you currently feel?</p>
  </div>","88","html-slider-response","56","1969111","0.0-10.0-4.2","257","1","2025-07-09 10:07:59","7701e855f2ef39aa3fd6c71abdc6918a","41.13.0.233","Mozilla/5.0 (Windows NT 10.0; Win64; x64) AppleWebKit/537.36 (KHTML, like Gecko) Chrome/138.0.0.0 Safari/537.36","WebKit","Chrome","138.0.0.0","Windows","10.0","https://app.prolific.com/","en-US,en;q=0.9","67e1a47dae2e2e04aa7d8417","686d226cabeef709c732f8e1","686e3d4313960e15d00379f1","67e1a47dae2e2e04aa7d8417","2025-07-09T10:41:18.783Z","","","","","","MotivationQ","","","","","","","","","","","","","","","","","","","","","","","","","","","","","","","","","","","","","","50",""
"","","","","ctl-task-cpt","57","2011270","0.0-10.0-0.3","257","1","2025-07-09 10:07:59","7701e855f2ef39aa3fd6c71abdc6918a","41.13.0.233","Mozilla/5.0 (Windows NT 10.0; Win64; x64) AppleWebKit/537.36 (KHTML, like Gecko) Chrome/138.0.0.0 Safari/537.36","WebKit","Chrome","138.0.0.0","Windows","10.0","https://app.prolific.com/","en-US,en;q=0.9","67e1a47dae2e2e04aa7d8417","686d226cabeef709c732f8e1","686e3d4313960e15d00379f1","67e1a47dae2e2e04aa7d8417","2025-07-09T10:42:00.937Z","","","","","","","","","","","","","","","","win-only","3","g1:SW,g2:NE","0.7","4","0","1997529.1","2486.5","7496.5","36938.2","1","4","8","6","2","8","8","13","5","0.09848484848484848","1923.5","3000","705","[""up"",""right""]","{""num_key_presses"":8,""num_perfect"":6,""num_errors"":0,""num_randdir"":2,""num_randdir_good_moves"":1,""num_whilered"":0,""num_whileblue"":0,""num_blue"":1,""num_good_moves"":7}","[287.22232142857143,297.12857142857143,5.4,287.22232142857143,297.12857142857143,103.1,287.22232142857143,297.12857142857143,209.6,287.22232142857143,297.12857142857143,319.7,287.22232142857143,297.12857142857143,433.7,287.22232142857143,297.12857142857143,535,287.22232142857143,297.12857142857143,637.1,287.22232142857143,295.12857142857143,750.8,395.22232142857143,148.12857142857143,857.3,420.22232142857143,125.12857142857143,969,451.22232142857143,114.12857142857143,1073.4,504.22232142857143,78.12857142857143,1182,507.22232142857143,77.12857142857143,1282.6,507.22232142857143,77.12857142857143,1401.3,507.22232142857143,77.12857142857143,1508.3,507.22232142857143,77.12857142857143,1617.2,507.22232142857143,77.12857142857143,1717.3,507.22232142857143,77.12857142857143,1840.8,507.22232142857143,77.12857142857143,1944.4,507.22232142857143,77.12857142857143,2061.8,489.22232142857143,93.12857142857143,2820.2,346.22232142857143,193.12857142857143,2936.1,261.22232142857143,268.12857142857143,3068.2,261.22232142857143,268.12857142857143,3203.7,261.22232142857143,268.12857142857143,3316.3,261.22232142857143,268.12857142857143,3429.5,261.22232142857143,268.12857142857143,3553.6,261.22232142857143,268.12857142857143,3673.4,261.22232142857143,268.12857142857143,3792.7,258.22232142857143,258.12857142857143,3901.7,257.22232142857143,253.12857142857143,4021.5,257.22232142857143,253.12857142857143,4139.5,257.22232142857143,253.12857142857143,4242.9,257.22232142857143,253.12857142857143,4351.7,257.22232142857143,253.12857142857143,4457.1,257.22232142857143,253.12857142857143,4576.4,257.22232142857143,253.12857142857143,4679.1,257.22232142857143,253.12857142857143,4790.6,257.22232142857143,253.12857142857143,4899.9]","[2269.6,2269.6,1000,0,1269.6,""oops"",""up"",""down"",""bad_move"",5658.8,3192.9,2293.5,2466.1,899.3,""smooth"",""up"",""up"",""good_move"",14266.5,8603.8,2717.6,9853.8,1695.2,""smooth"",""up"",""up"",""good_move"",17298.4,3028.6,2151.5,14269.8,877.1,""smooth"",""up"",""up"",""good_move"",20098.3,2796.8,1971.7,17301.5,825.1,""smooth"",""up"",""up"",""good_move"",22998.4,2896.1,2016.4,20102.3,879.7,""smooth"",""right"",""right"",""good_move"",26168,3165.8,2714.1,23002.2,451.7,""oops"",""right"",""right"",""good_move"",29167.1,2991.5,2388.8,26175.6,602.7,""smooth"",""right"",""right"",""good_move""]","","",""
"7032","","<div style=""width:500px;"">
  <p>What determined the result of this run?</p>
  </div>","90","html-slider-response","58","2018318","0.0-10.0-1.3","257","1","2025-07-09 10:07:59","7701e855f2ef39aa3fd6c71abdc6918a","41.13.0.233","Mozilla/5.0 (Windows NT 10.0; Win64; x64) AppleWebKit/537.36 (KHTML, like Gecko) Chrome/138.0.0.0 Safari/537.36","WebKit","Chrome","138.0.0.0","Windows","10.0","https://app.prolific.com/","en-US,en;q=0.9","67e1a47dae2e2e04aa7d8417","686d226cabeef709c732f8e1","686e3d4313960e15d00379f1","67e1a47dae2e2e04aa7d8417","2025-07-09T10:42:07.985Z","","","","","","AttribQ","","","","","","","","","","","","","","","","","","","","","","","","","","","","","","","","","","","","","","50",""
"6537","","<div style=""width:500px;"">
  <p>How much control did you have over the ball?</p>
  </div>","89","html-slider-response","59","2024866","0.0-10.0-2.3","257","1","2025-07-09 10:07:59","7701e855f2ef39aa3fd6c71abdc6918a","41.13.0.233","Mozilla/5.0 (Windows NT 10.0; Win64; x64) AppleWebKit/537.36 (KHTML, like Gecko) Chrome/138.0.0.0 Safari/537.36","WebKit","Chrome","138.0.0.0","Windows","10.0","https://app.prolific.com/","en-US,en;q=0.9","67e1a47dae2e2e04aa7d8417","686d226cabeef709c732f8e1","686e3d4313960e15d00379f1","67e1a47dae2e2e04aa7d8417","2025-07-09T10:42:14.533Z","","","","","","ControlQ","","","","","","","","","","","","","","","","","","","","","","","","","","","","","","","","","","","","","","50",""
"4218","","<div style=""width:500px;"">
  <p>How would you describe your current emotional state?</p>
  </div>","6","html-slider-response","60","2029090","0.0-10.0-3.3","257","1","2025-07-09 10:07:59","7701e855f2ef39aa3fd6c71abdc6918a","41.13.0.233","Mozilla/5.0 (Windows NT 10.0; Win64; x64) AppleWebKit/537.36 (KHTML, like Gecko) Chrome/138.0.0.0 Safari/537.36","WebKit","Chrome","138.0.0.0","Windows","10.0","https://app.prolific.com/","en-US,en;q=0.9","67e1a47dae2e2e04aa7d8417","686d226cabeef709c732f8e1","686e3d4313960e15d00379f1","67e1a47dae2e2e04aa7d8417","2025-07-09T10:42:18.757Z","","","","","","StressQ","","","","","","","","","","","","","","","","","","","","","","","","","","","","","","","","","","","","","","50",""
"3428","","<div style=""width:500px;"">
  <p>What best describes how you currently feel?</p>
  </div>","89","html-slider-response","61","2032526","0.0-10.0-4.3","257","1","2025-07-09 10:07:59","7701e855f2ef39aa3fd6c71abdc6918a","41.13.0.233","Mozilla/5.0 (Windows NT 10.0; Win64; x64) AppleWebKit/537.36 (KHTML, like Gecko) Chrome/138.0.0.0 Safari/537.36","WebKit","Chrome","138.0.0.0","Windows","10.0","https://app.prolific.com/","en-US,en;q=0.9","67e1a47dae2e2e04aa7d8417","686d226cabeef709c732f8e1","686e3d4313960e15d00379f1","67e1a47dae2e2e04aa7d8417","2025-07-09T10:42:22.192Z","","","","","","MotivationQ","","","","","","","","","","","","","","","","","","","","","","","","","","","","","","","","","","","","","","50",""
"","","","","ctl-task-cpt","62","2073158","0.0-10.0-0.4","257","1","2025-07-09 10:07:59","7701e855f2ef39aa3fd6c71abdc6918a","41.13.0.233","Mozilla/5.0 (Windows NT 10.0; Win64; x64) AppleWebKit/537.36 (KHTML, like Gecko) Chrome/138.0.0.0 Safari/537.36","WebKit","Chrome","138.0.0.0","Windows","10.0","https://app.prolific.com/","en-US,en;q=0.9","67e1a47dae2e2e04aa7d8417","686d226cabeef709c732f8e1","686e3d4313960e15d00379f1","67e1a47dae2e2e04aa7d8417","2025-07-09T10:43:02.824Z","","","","","","","","","","","","","","","","win-only","3","g1:SW,g2:NE","0.6","5","0","2060873.3","2353.7","7371.7","36993.5","1","4","4","6","2","4","4","17","13","0.12878787878787878","3408","3000","705","[""up"",""right""]","{""num_key_presses"":8,""num_perfect"":6,""num_errors"":0,""num_randdir"":2,""num_randdir_good_moves"":1,""num_whilered"":0,""num_whileblue"":0,""num_blue"":0,""num_good_moves"":7}","[290.22232142857143,299.12857142857143,1.5,290.22232142857143,299.12857142857143,113.9,290.22232142857143,299.12857142857143,220.4,290.22232142857143,299.12857142857143,1069.2,307.22232142857143,273.12857142857143,1207.8,313.22232142857143,265.12857142857143,1401.7,305.22232142857143,264.12857142857143,1533.7,275.22232142857143,264.12857142857143,1644.2,271.22232142857143,264.12857142857143,1748.2,271.22232142857143,264.12857142857143,1863.5,271.22232142857143,264.12857142857143,1971,271.22232142857143,264.12857142857143,2088.8,271.22232142857143,264.12857142857143,2192.6,271.22232142857143,264.12857142857143,2297.8,344.22232142857143,165.12857142857143,2408.7,439.22232142857143,88.12857142857143,2523.3,465.22232142857143,71.12857142857143,2644.2,497.22232142857143,60.128571428571426,2755.3,499.22232142857143,60.128571428571426,2865.6,499.22232142857143,60.128571428571426,2975.8,517.2223214285714,54.128571428571426,3105.9,521.2223214285714,60.128571428571426,3209.9,521.2223214285714,60.128571428571426,3311.4,521.2223214285714,60.128571428571426,3425.8,521.2223214285714,60.128571428571426,3541.4,521.2223214285714,60.128571428571426,3643.5,521.2223214285714,60.128571428571426,3758.6,521.2223214285714,60.128571428571426,3876.7,521.2223214285714,60.128571428571426,3992,521.2223214285714,60.128571428571426,4102.8,521.2223214285714,60.128571428571426,4206.2,521.2223214285714,60.128571428571426,4310.8,521.2223214285714,60.128571428571426,4431,521.2223214285714,60.128571428571426,4543.5,503.22232142857143,81.12857142857143,4654,443.22232142857143,140.12857142857143,4756.3,386.22232142857143,167.12857142857143,4864,344.22232142857143,191.12857142857143,4974.1]","[4228.6,4228.6,1000,0,3228.6,""oops"",""up"",""left"",""bad_move"",8827.5,4592.9,2553.7,4234.7,2039.1,""oops"",""up"",""right"",""good_move"",12037.9,3199.9,2486.8,8838,713.1,""smooth"",""up"",""up"",""good_move"",15573.8,3528.5,1964.6,12045.3,1563.9,""smooth"",""up"",""up"",""good_move"",19073.1,3497,2754.1,15576.1,742.9,""smooth"",""up"",""up"",""good_move"",22462.2,3385.8,2329.5,19076.4,1056.3,""smooth"",""right"",""right"",""good_move"",25749.2,3284.6,2673,22464.7,611.5,""smooth"",""right"",""right"",""good_move"",29196,3444.7,2830.5,25751.4,614.1,""smooth"",""right"",""right"",""good_move""]","","",""
"6790","","<div style=""width:500px;"">
  <p>What determined the result of this run?</p>
  </div>","80","html-slider-response","63","2079958","0.0-10.0-1.4","257","1","2025-07-09 10:07:59","7701e855f2ef39aa3fd6c71abdc6918a","41.13.0.233","Mozilla/5.0 (Windows NT 10.0; Win64; x64) AppleWebKit/537.36 (KHTML, like Gecko) Chrome/138.0.0.0 Safari/537.36","WebKit","Chrome","138.0.0.0","Windows","10.0","https://app.prolific.com/","en-US,en;q=0.9","67e1a47dae2e2e04aa7d8417","686d226cabeef709c732f8e1","686e3d4313960e15d00379f1","67e1a47dae2e2e04aa7d8417","2025-07-09T10:43:09.624Z","","","","","","AttribQ","","","","","","","","","","","","","","","","","","","","","","","","","","","","","","","","","","","","","","50",""
"4378","","<div style=""width:500px;"">
  <p>How much control did you have over the ball?</p>
  </div>","92","html-slider-response","64","2084342","0.0-10.0-2.4","257","1","2025-07-09 10:07:59","7701e855f2ef39aa3fd6c71abdc6918a","41.13.0.233","Mozilla/5.0 (Windows NT 10.0; Win64; x64) AppleWebKit/537.36 (KHTML, like Gecko) Chrome/138.0.0.0 Safari/537.36","WebKit","Chrome","138.0.0.0","Windows","10.0","https://app.prolific.com/","en-US,en;q=0.9","67e1a47dae2e2e04aa7d8417","686d226cabeef709c732f8e1","686e3d4313960e15d00379f1","67e1a47dae2e2e04aa7d8417","2025-07-09T10:43:14.009Z","","","","","","ControlQ","","","","","","","","","","","","","","","","","","","","","","","","","","","","","","","","","","","","","","50",""
"3878","","<div style=""width:500px;"">
  <p>How would you describe your current emotional state?</p>
  </div>","3","html-slider-response","65","2088231","0.0-10.0-3.4","257","1","2025-07-09 10:07:59","7701e855f2ef39aa3fd6c71abdc6918a","41.13.0.233","Mozilla/5.0 (Windows NT 10.0; Win64; x64) AppleWebKit/537.36 (KHTML, like Gecko) Chrome/138.0.0.0 Safari/537.36","WebKit","Chrome","138.0.0.0","Windows","10.0","https://app.prolific.com/","en-US,en;q=0.9","67e1a47dae2e2e04aa7d8417","686d226cabeef709c732f8e1","686e3d4313960e15d00379f1","67e1a47dae2e2e04aa7d8417","2025-07-09T10:43:17.898Z","","","","","","StressQ","","","","","","","","","","","","","","","","","","","","","","","","","","","","","","","","","","","","","","50",""
"4821","","<div style=""width:500px;"">
  <p>What best describes how you currently feel?</p>
  </div>","90","html-slider-response","66","2093817","0.0-10.0-4.4","257","1","2025-07-09 10:07:59","7701e855f2ef39aa3fd6c71abdc6918a","41.13.0.233","Mozilla/5.0 (Windows NT 10.0; Win64; x64) AppleWebKit/537.36 (KHTML, like Gecko) Chrome/138.0.0.0 Safari/537.36","WebKit","Chrome","138.0.0.0","Windows","10.0","https://app.prolific.com/","en-US,en;q=0.9","67e1a47dae2e2e04aa7d8417","686d226cabeef709c732f8e1","686e3d4313960e15d00379f1","67e1a47dae2e2e04aa7d8417","2025-07-09T10:43:23.487Z","","","","","","MotivationQ","","","","","","","","","","","","","","","","","","","","","","","","","","","","","","","","","","","","","","50",""
"","","","","ctl-task-cpt","67","2133846","0.0-10.0-0.5","257","1","2025-07-09 10:07:59","7701e855f2ef39aa3fd6c71abdc6918a","41.13.0.233","Mozilla/5.0 (Windows NT 10.0; Win64; x64) AppleWebKit/537.36 (KHTML, like Gecko) Chrome/138.0.0.0 Safari/537.36","WebKit","Chrome","138.0.0.0","Windows","10.0","https://app.prolific.com/","en-US,en;q=0.9","67e1a47dae2e2e04aa7d8417","686d226cabeef709c732f8e1","686e3d4313960e15d00379f1","67e1a47dae2e2e04aa7d8417","2025-07-09T10:44:03.512Z","","","","","","","","","","","","","","","","win-only","1","g1:NE,g2:SW","0.5","6","0","2121701.7","9708.8","14731.5","36856.1","1","4","8","6","1","1","1","18","17","0.13636363636363635","1534.5","3000","1845","[""up"",""right""]","{""num_key_presses"":6,""num_perfect"":5,""num_errors"":0,""num_randdir"":1,""num_randdir_good_moves"":0,""num_whilered"":0,""num_whileblue"":0,""num_blue"":1,""num_good_moves"":5}","[294.22232142857143,298.12857142857143,0.1,294.22232142857143,298.12857142857143,110.4,294.22232142857143,298.12857142857143,218.7,294.22232142857143,298.12857142857143,325.1,294.22232142857143,298.12857142857143,425.1,294.22232142857143,298.12857142857143,606.9,330.22232142857143,259.12857142857143,715.6,438.22232142857143,162.12857142857143,819.2,512.2223214285714,107.12857142857143,933.1,544.2223214285714,82.12857142857143,1043.7,550.2223214285714,82.12857142857143,1145.2,550.2223214285714,81.12857142857143,1253.4,550.2223214285714,81.12857142857143,1354.2,550.2223214285714,80.12857142857143,1457.8,550.2223214285714,80.12857142857143,2029.9,550.2223214285714,80.12857142857143,2140.8,550.2223214285714,80.12857142857143,2258.2,550.2223214285714,80.12857142857143,2376.3,550.2223214285714,80.12857142857143,2490.8,550.2223214285714,80.12857142857143,2593.4,550.2223214285714,80.12857142857143,2698.7,550.2223214285714,80.12857142857143,2846.9,355.22232142857143,170.12857142857143,4226.2,355.22232142857143,170.12857142857143,4330.5,355.22232142857143,170.12857142857143,4454.1,355.22232142857143,170.12857142857143,4558.7,355.22232142857143,170.12857142857143,4686.1,355.22232142857143,170.12857142857143,4792.5,355.22232142857143,170.12857142857143,4912.1]","[1837.3,1837.3,1000,0,837.3,""smooth"",""up"",""up"",""good_move"",8223.8,6382.3,1871,5717.7,635.1,""smooth"",""up"",""up"",""good_move"",11905.2,3678.3,2695.6,8226.9,982.7,""oops"",""right"",""left"",""bad_move"",15440.9,3531.7,2344,11909.2,1187.7,""smooth"",""right"",""right"",""good_move"",19012.9,3568.6,2849.7,15444.3,719,""smooth"",""right"",""right"",""good_move"",21776.9,2760.3,1788.4,19016.6,972,""smooth"",""right"",""right"",""good_move""]","","",""
"6302","","<div style=""width:500px;"">
  <p>What determined the result of this run?</p>
  </div>","86","html-slider-response","68","2140157","0.0-10.0-1.5","257","1","2025-07-09 10:07:59","7701e855f2ef39aa3fd6c71abdc6918a","41.13.0.233","Mozilla/5.0 (Windows NT 10.0; Win64; x64) AppleWebKit/537.36 (KHTML, like Gecko) Chrome/138.0.0.0 Safari/537.36","WebKit","Chrome","138.0.0.0","Windows","10.0","https://app.prolific.com/","en-US,en;q=0.9","67e1a47dae2e2e04aa7d8417","686d226cabeef709c732f8e1","686e3d4313960e15d00379f1","67e1a47dae2e2e04aa7d8417","2025-07-09T10:44:09.834Z","","","","","","AttribQ","","","","","","","","","","","","","","","","","","","","","","","","","","","","","","","","","","","","","","50",""
"5787","","<div style=""width:500px;"">
  <p>How much control did you have over the ball?</p>
  </div>","100","html-slider-response","69","2145966","0.0-10.0-2.5","257","1","2025-07-09 10:07:59","7701e855f2ef39aa3fd6c71abdc6918a","41.13.0.233","Mozilla/5.0 (Windows NT 10.0; Win64; x64) AppleWebKit/537.36 (KHTML, like Gecko) Chrome/138.0.0.0 Safari/537.36","WebKit","Chrome","138.0.0.0","Windows","10.0","https://app.prolific.com/","en-US,en;q=0.9","67e1a47dae2e2e04aa7d8417","686d226cabeef709c732f8e1","686e3d4313960e15d00379f1","67e1a47dae2e2e04aa7d8417","2025-07-09T10:44:15.632Z","","","","","","ControlQ","","","","","","","","","","","","","","","","","","","","","","","","","","","","","","","","","","","","","","50",""
"3973","","<div style=""width:500px;"">
  <p>How would you describe your current emotional state?</p>
  </div>","0","html-slider-response","70","2149946","0.0-10.0-3.5","257","1","2025-07-09 10:07:59","7701e855f2ef39aa3fd6c71abdc6918a","41.13.0.233","Mozilla/5.0 (Windows NT 10.0; Win64; x64) AppleWebKit/537.36 (KHTML, like Gecko) Chrome/138.0.0.0 Safari/537.36","WebKit","Chrome","138.0.0.0","Windows","10.0","https://app.prolific.com/","en-US,en;q=0.9","67e1a47dae2e2e04aa7d8417","686d226cabeef709c732f8e1","686e3d4313960e15d00379f1","67e1a47dae2e2e04aa7d8417","2025-07-09T10:44:19.613Z","","","","","","StressQ","","","","","","","","","","","","","","","","","","","","","","","","","","","","","","","","","","","","","","50",""
"4233","","<div style=""width:500px;"">
  <p>What best describes how you currently feel?</p>
  </div>","99","html-slider-response","71","2154188","0.0-10.0-4.5","257","1","2025-07-09 10:07:59","7701e855f2ef39aa3fd6c71abdc6918a","41.13.0.233","Mozilla/5.0 (Windows NT 10.0; Win64; x64) AppleWebKit/537.36 (KHTML, like Gecko) Chrome/138.0.0.0 Safari/537.36","WebKit","Chrome","138.0.0.0","Windows","10.0","https://app.prolific.com/","en-US,en;q=0.9","67e1a47dae2e2e04aa7d8417","686d226cabeef709c732f8e1","686e3d4313960e15d00379f1","67e1a47dae2e2e04aa7d8417","2025-07-09T10:44:23.855Z","","","","","","MotivationQ","","","","","","","","","","","","","","","","","","","","","","","","","","","","","","","","","","","","","","50",""
"","","","","ctl-task-cpt","72","2223651","0.0-10.0-0.6","257","1","2025-07-09 10:07:59","7701e855f2ef39aa3fd6c71abdc6918a","41.13.0.233","Mozilla/5.0 (Windows NT 10.0; Win64; x64) AppleWebKit/537.36 (KHTML, like Gecko) Chrome/138.0.0.0 Safari/537.36","WebKit","Chrome","138.0.0.0","Windows","10.0","https://app.prolific.com/","en-US,en;q=0.9","67e1a47dae2e2e04aa7d8417","686d226cabeef709c732f8e1","686e3d4313960e15d00379f1","67e1a47dae2e2e04aa7d8417","2025-07-09T10:45:33.319Z","","","","","","","","","","","","","","","","win-only","2","g1:SE,g2:NW","0.4","7","0","2181941.7","2976.7","8004.2","66396.5","1","4","4","6","2","-4","-4","14","18","0.10606060606060606","2380.8","3000","-400","[""left"",""up""]","{""num_key_presses"":12,""num_perfect"":5,""num_errors"":0,""num_randdir"":7,""num_randdir_good_moves"":3,""num_whilered"":0,""num_whileblue"":0,""num_blue"":2,""num_good_moves"":8}","[294.22232142857143,302.12857142857143,10.8,294.22232142857143,302.12857142857143,117.6,294.22232142857143,302.12857142857143,229.5,294.22232142857143,302.12857142857143,342.1,294.22232142857143,302.12857142857143,451.8,294.22232142857143,302.12857142857143,554.1,294.22232142857143,302.12857142857143,660.4,32.222321428571426,127.12857142857143,1649.3,32.222321428571426,127.12857142857143,1765.8,28.222321428571426,108.12857142857143,1893.1,40.222321428571426,87.12857142857143,2012.1,46.222321428571426,81.12857142857143,2134.6,46.222321428571426,81.12857142857143,2248,46.222321428571426,81.12857142857143,2356,46.222321428571426,81.12857142857143,2467.7,46.222321428571426,81.12857142857143,2578.7,46.222321428571426,81.12857142857143,2680.5,46.222321428571426,81.12857142857143,2795.7,46.222321428571426,81.12857142857143,2912.9,46.222321428571426,81.12857142857143,3020.9,47.222321428571426,80.12857142857143,3121.9,117.22232142857143,110.12857142857143,3235.8,203.22232142857143,182.12857142857143,3351.7,227.22232142857143,196.12857142857143,3458.6,227.22232142857143,196.12857142857143,3577.3,227.22232142857143,196.12857142857143,3692.4,235.22232142857143,194.12857142857143,3795.7,356.22232142857143,213.12857142857143,3902,400.22232142857143,256.12857142857143,4017.7,400.22232142857143,256.12857142857143,4129.9,400.22232142857143,256.12857142857143,4246.2,400.22232142857143,256.12857142857143,4361.3,400.22232142857143,256.12857142857143,4467.7,400.22232142857143,256.12857142857143,4593.1,400.22232142857143,256.12857142857143,4711.6,400.22232142857143,256.12857142857143,4817.3,400.22232142857143,256.12857142857143,4927.5]","[5094.5,5094.5,2525.3,2016.7,552.5,""oops"",""up"",""down"",""bad_move"",11932.9,6835.9,2957.3,8199.7,775.9,""oops"",""up"",""down"",""bad_move"",15734.9,3798.6,2788.6,11936.3,1010,""smooth"",""up"",""up"",""good_move"",19642.8,3907.2,2949.1,15735.7,958.1,""smooth"",""up"",""up"",""good_move"",23476.6,3831.8,2877.6,19645,954,""oops"",""up"",""down"",""bad_move"",27246,3765.5,2344.2,23480.6,1421.2,""oops"",""up"",""up"",""good_move"",33919.8,6667.1,1295.9,27252.8,5371.2,""oops"",""up"",""left"",""good_move"",39557.3,4212.2,3060.5,35345.1,1151.7,""smooth"",""up"",""up"",""good_move"",44454.9,4246.3,2155.8,40208.7,2090.4,""oops"",""up"",""up"",""good_move"",48075.4,3609.8,2556,44465.7,1053.8,""smooth"",""up"",""up"",""good_move"",51749.9,3670.9,2400.8,48079.2,1270,""smooth"",""left"",""left"",""good_move"",55533.5,3779.9,2558.1,51753.6,1221.8,""oops"",""left"",""right"",""bad_move""]","","",""
"5722","","<div style=""width:500px;"">
  <p>What determined the result of this run?</p>
  </div>","85","html-slider-response","73","2229400","0.0-10.0-1.6","257","1","2025-07-09 10:07:59","7701e855f2ef39aa3fd6c71abdc6918a","41.13.0.233","Mozilla/5.0 (Windows NT 10.0; Win64; x64) AppleWebKit/537.36 (KHTML, like Gecko) Chrome/138.0.0.0 Safari/537.36","WebKit","Chrome","138.0.0.0","Windows","10.0","https://app.prolific.com/","en-US,en;q=0.9","67e1a47dae2e2e04aa7d8417","686d226cabeef709c732f8e1","686e3d4313960e15d00379f1","67e1a47dae2e2e04aa7d8417","2025-07-09T10:45:39.066Z","","","","","","AttribQ","","","","","","","","","","","","","","","","","","","","","","","","","","","","","","","","","","","","","","50",""
"3222","","<div style=""width:500px;"">
  <p>How much control did you have over the ball?</p>
  </div>","93","html-slider-response","74","2232632","0.0-10.0-2.6","257","1","2025-07-09 10:07:59","7701e855f2ef39aa3fd6c71abdc6918a","41.13.0.233","Mozilla/5.0 (Windows NT 10.0; Win64; x64) AppleWebKit/537.36 (KHTML, like Gecko) Chrome/138.0.0.0 Safari/537.36","WebKit","Chrome","138.0.0.0","Windows","10.0","https://app.prolific.com/","en-US,en;q=0.9","67e1a47dae2e2e04aa7d8417","686d226cabeef709c732f8e1","686e3d4313960e15d00379f1","67e1a47dae2e2e04aa7d8417","2025-07-09T10:45:42.300Z","","","","","","ControlQ","","","","","","","","","","","","","","","","","","","","","","","","","","","","","","","","","","","","","","50",""
"4181","","<div style=""width:500px;"">
  <p>How would you describe your current emotional state?</p>
  </div>","6","html-slider-response","75","2236832","0.0-10.0-3.6","257","1","2025-07-09 10:07:59","7701e855f2ef39aa3fd6c71abdc6918a","41.13.0.233","Mozilla/5.0 (Windows NT 10.0; Win64; x64) AppleWebKit/537.36 (KHTML, like Gecko) Chrome/138.0.0.0 Safari/537.36","WebKit","Chrome","138.0.0.0","Windows","10.0","https://app.prolific.com/","en-US,en;q=0.9","67e1a47dae2e2e04aa7d8417","686d226cabeef709c732f8e1","686e3d4313960e15d00379f1","67e1a47dae2e2e04aa7d8417","2025-07-09T10:45:46.498Z","","","","","","StressQ","","","","","","","","","","","","","","","","","","","","","","","","","","","","","","","","","","","","","","50",""
"13023","","<div style=""width:500px;"">
  <p>What best describes how you currently feel?</p>
  </div>","91","html-slider-response","76","2249861","0.0-10.0-4.6","257","1","2025-07-09 10:07:59","7701e855f2ef39aa3fd6c71abdc6918a","41.13.0.233","Mozilla/5.0 (Windows NT 10.0; Win64; x64) AppleWebKit/537.36 (KHTML, like Gecko) Chrome/138.0.0.0 Safari/537.36","WebKit","Chrome","138.0.0.0","Windows","10.0","https://app.prolific.com/","en-US,en;q=0.9","67e1a47dae2e2e04aa7d8417","686d226cabeef709c732f8e1","686e3d4313960e15d00379f1","67e1a47dae2e2e04aa7d8417","2025-07-09T10:45:59.527Z","","","","","","MotivationQ","","","","","","","","","","","","","","","","","","","","","","","","","","","","","","","","","","","","","","50",""
"","","","","ctl-task-cpt","77","2314653","0.0-10.0-0.7","257","1","2025-07-09 10:07:59","7701e855f2ef39aa3fd6c71abdc6918a","41.13.0.233","Mozilla/5.0 (Windows NT 10.0; Win64; x64) AppleWebKit/537.36 (KHTML, like Gecko) Chrome/138.0.0.0 Safari/537.36","WebKit","Chrome","138.0.0.0","Windows","10.0","https://app.prolific.com/","en-US,en;q=0.9","67e1a47dae2e2e04aa7d8417","686d226cabeef709c732f8e1","686e3d4313960e15d00379f1","67e1a47dae2e2e04aa7d8417","2025-07-09T10:47:04.320Z","","","","","","","","","","","","","","","","win-only","0","g1:NW,g2:SE","0.3","8","0","2277612.3","3656.9","9272.9","61764.3","1","4","8","6","2","-8","-8","6","14","0.045454545454545456","5615.8","3000","-735","[""down"",""right""]","{""num_key_presses"":11,""num_perfect"":3,""num_errors"":0,""num_randdir"":8,""num_randdir_good_moves"":6,""num_whilered"":0,""num_whileblue"":0,""num_blue"":2,""num_good_moves"":6}","[292.22232142857143,299.12857142857143,2.5,292.22232142857143,299.12857142857143,131.5,292.22232142857143,299.12857142857143,255.5,292.22232142857143,299.12857142857143,395,292.22232142857143,299.12857142857143,500,292.22232142857143,299.12857142857143,618.2,292.22232142857143,299.12857142857143,729.6,292.22232142857143,299.12857142857143,830.4,292.22232142857143,299.12857142857143,937.4,292.22232142857143,299.12857142857143,1044.8,292.22232142857143,299.12857142857143,1144.9,292.22232142857143,299.12857142857143,1261.4,250.22232142857143,242.12857142857143,1446.3,129.22232142857143,84.12857142857143,1566.3,129.22232142857143,84.12857142857143,1673.1,126.22232142857143,84.12857142857143,1793.3,86.22232142857143,63.128571428571426,1909.6,71.22232142857143,56.128571428571426,2029.9,70.22232142857143,56.128571428571426,2146.1,70.22232142857143,56.128571428571426,2253.9,70.22232142857143,56.128571428571426,2367.4,70.22232142857143,56.128571428571426,2468,70.22232142857143,56.128571428571426,2569.8,70.22232142857143,56.128571428571426,2671.3,70.22232142857143,56.128571428571426,2780.7,70.22232142857143,56.128571428571426,2889.7,70.22232142857143,56.128571428571426,2989.7,70.22232142857143,56.128571428571426,3102.3,70.22232142857143,56.128571428571426,3215,70.22232142857143,56.128571428571426,3317.6,70.22232142857143,56.128571428571426,3431,70.22232142857143,56.128571428571426,3545.1,70.22232142857143,56.128571428571426,3655.8,70.22232142857143,56.128571428571426,3769.3,70.22232142857143,56.128571428571426,3882.3,70.22232142857143,56.128571428571426,3989.4,70.22232142857143,56.128571428571426,4102.2,70.22232142857143,56.128571428571426,4215.3,70.22232142857143,56.128571428571426,4328.7,70.22232142857143,56.128571428571426,4438.3,70.22232142857143,56.128571428571426,4556.1,70.22232142857143,56.128571428571426,4680.6,70.22232142857143,56.128571428571426,4799.8,70.22232142857143,56.128571428571426,4913.9]","[4492.9,4492.9,1000,0.1,3492.8,""oops"",""up"",""left"",""bad_move"",9732,5228.5,2431.5,4503.5,2797,""smooth"",""up"",""up"",""bad_move"",17095.1,7357.5,2443.4,14067.9,583.9,""smooth"",""up"",""up"",""bad_move"",21079.4,3979.9,2019.5,17099.5,1960.4,""oops"",""left"",""right"",""good_move"",24469.6,3384.3,2609.9,21085.3,774.4,""oops"",""left"",""down"",""good_move"",27144.6,2670.4,1968.7,24474.2,701.7,""oops"",""left"",""right"",""good_move"",29524.2,2367.2,1451.5,27157,915.7,""smooth"",""left"",""left"",""bad_move"",36779.5,7241.8,2244.6,34012.7,522.2,""oops"",""left"",""down"",""good_move"",40481.1,3695,2196.2,36786.1,1498.8,""oops"",""up"",""down"",""good_move"",44855.5,4365.3,2987.2,40490.2,1378.1,""oops"",""up"",""down"",""good_move"",48178.6,3319.4,2557.4,44859.4,761.9,""oops"",""up"",""left"",""bad_move""]","","",""
"7152","","<div style=""width:500px;"">
  <p>What determined the result of this run?</p>
  </div>","75","html-slider-response","78","2321810","0.0-10.0-1.7","257","1","2025-07-09 10:07:59","7701e855f2ef39aa3fd6c71abdc6918a","41.13.0.233","Mozilla/5.0 (Windows NT 10.0; Win64; x64) AppleWebKit/537.36 (KHTML, like Gecko) Chrome/138.0.0.0 Safari/537.36","WebKit","Chrome","138.0.0.0","Windows","10.0","https://app.prolific.com/","en-US,en;q=0.9","67e1a47dae2e2e04aa7d8417","686d226cabeef709c732f8e1","686e3d4313960e15d00379f1","67e1a47dae2e2e04aa7d8417","2025-07-09T10:47:11.476Z","","","","","","AttribQ","","","","","","","","","","","","","","","","","","","","","","","","","","","","","","","","","","","","","","50",""
"3531","","<div style=""width:500px;"">
  <p>How much control did you have over the ball?</p>
  </div>","77","html-slider-response","79","2325347","0.0-10.0-2.7","257","1","2025-07-09 10:07:59","7701e855f2ef39aa3fd6c71abdc6918a","41.13.0.233","Mozilla/5.0 (Windows NT 10.0; Win64; x64) AppleWebKit/537.36 (KHTML, like Gecko) Chrome/138.0.0.0 Safari/537.36","WebKit","Chrome","138.0.0.0","Windows","10.0","https://app.prolific.com/","en-US,en;q=0.9","67e1a47dae2e2e04aa7d8417","686d226cabeef709c732f8e1","686e3d4313960e15d00379f1","67e1a47dae2e2e04aa7d8417","2025-07-09T10:47:15.013Z","","","","","","ControlQ","","","","","","","","","","","","","","","","","","","","","","","","","","","","","","","","","","","","","","50",""
"4571","","<div style=""width:500px;"">
  <p>How would you describe your current emotional state?</p>
  </div>","3","html-slider-response","80","2329923","0.0-10.0-3.7","257","1","2025-07-09 10:07:59","7701e855f2ef39aa3fd6c71abdc6918a","41.13.0.233","Mozilla/5.0 (Windows NT 10.0; Win64; x64) AppleWebKit/537.36 (KHTML, like Gecko) Chrome/138.0.0.0 Safari/537.36","WebKit","Chrome","138.0.0.0","Windows","10.0","https://app.prolific.com/","en-US,en;q=0.9","67e1a47dae2e2e04aa7d8417","686d226cabeef709c732f8e1","686e3d4313960e15d00379f1","67e1a47dae2e2e04aa7d8417","2025-07-09T10:47:19.590Z","","","","","","StressQ","","","","","","","","","","","","","","","","","","","","","","","","","","","","","","","","","","","","","","50",""
"4622","","<div style=""width:500px;"">
  <p>What best describes how you currently feel?</p>
  </div>","83","html-slider-response","81","2334556","0.0-10.0-4.7","257","1","2025-07-09 10:07:59","7701e855f2ef39aa3fd6c71abdc6918a","41.13.0.233","Mozilla/5.0 (Windows NT 10.0; Win64; x64) AppleWebKit/537.36 (KHTML, like Gecko) Chrome/138.0.0.0 Safari/537.36","WebKit","Chrome","138.0.0.0","Windows","10.0","https://app.prolific.com/","en-US,en;q=0.9","67e1a47dae2e2e04aa7d8417","686d226cabeef709c732f8e1","686e3d4313960e15d00379f1","67e1a47dae2e2e04aa7d8417","2025-07-09T10:47:24.223Z","","","","","","MotivationQ","","","","","","","","","","","","","","","","","","","","","","","","","","","","","","","","","","","","","","50",""
"","","","","ctl-task-cpt","82","2411809","0.0-10.0-0.8","257","1","2025-07-09 10:07:59","7701e855f2ef39aa3fd6c71abdc6918a","41.13.0.233","Mozilla/5.0 (Windows NT 10.0; Win64; x64) AppleWebKit/537.36 (KHTML, like Gecko) Chrome/138.0.0.0 Safari/537.36","WebKit","Chrome","138.0.0.0","Windows","10.0","https://app.prolific.com/","en-US,en;q=0.9","67e1a47dae2e2e04aa7d8417","686d226cabeef709c732f8e1","686e3d4313960e15d00379f1","67e1a47dae2e2e04aa7d8417","2025-07-09T10:48:41.475Z","","","","","","","","","","","","","","","","win-only","3","g1:SW,g2:NE","0.2","9","0","2362308.8","2710.5","7746.9","74215.2","1","4","4","6","2","4","3","9","6","0.06818181818181818","2384.8","3000","1220","[""up"",""right""]","{""num_key_presses"":12,""num_perfect"":3,""num_errors"":1,""num_randdir"":8,""num_randdir_good_moves"":5,""num_whilered"":0,""num_whileblue"":1,""num_blue"":6,""num_good_moves"":9}","[297.22232142857143,297.12857142857143,1.2,297.22232142857143,297.12857142857143,118.9,297.22232142857143,297.12857142857143,251.2,297.22232142857143,297.12857142857143,373.9,297.22232142857143,297.12857142857143,485.1,297.22232142857143,297.12857142857143,594.5,297.22232142857143,297.12857142857143,700.8,297.22232142857143,297.12857142857143,817.6,297.22232142857143,297.12857142857143,924.7,297.22232142857143,297.12857142857143,1034,297.22232142857143,297.12857142857143,1168.6,297.22232142857143,297.12857142857143,1273.3,297.22232142857143,297.12857142857143,1387.4,297.22232142857143,296.12857142857143,1495.7,450.22232142857143,82.12857142857143,1609,539.2223214285714,10.128571428571426,1714.9,544.2223214285714,9.128571428571426,1821.2,544.2223214285714,32.128571428571426,1942.9,544.2223214285714,40.128571428571426,2053.7,544.2223214285714,40.128571428571426,2161.1,544.2223214285714,40.128571428571426,2267.3,544.2223214285714,40.128571428571426,2390.9,544.2223214285714,40.128571428571426,2496.5,544.2223214285714,40.128571428571426,2613,544.2223214285714,40.128571428571426,2732.6,544.2223214285714,40.128571428571426,2835.9,544.2223214285714,40.128571428571426,2950.7,544.2223214285714,40.128571428571426,3068.7,544.2223214285714,40.128571428571426,3184.9,544.2223214285714,40.128571428571426,3287.2,544.2223214285714,40.128571428571426,3400.2,544.2223214285714,40.128571428571426,3502.9,544.2223214285714,40.128571428571426,3613.3,544.2223214285714,40.128571428571426,3714.3,544.2223214285714,40.128571428571426,3819.1,544.2223214285714,40.128571428571426,3939.6,544.2223214285714,40.128571428571426,4053,544.2223214285714,40.128571428571426,4171.5,544.2223214285714,40.128571428571426,4490]","[1981.2,1981.2,1000,0.1,981.1,""smooth"",""up"",""up"",""good_move"",6497.1,4513.1,1362.4,1984,3150.7,""oops"",""up"",""right"",""good_move"",10092.2,3591.3,2764.8,6500.9,826.5,""oops"",""up"",""up"",""good_move"",15884.6,5787.9,2309.5,10096.8,3478.3,""oops"",""up"",""down"",""bad_move"",21958.5,6071.7,2246.9,19216.4,495.2,""oops"",""up"",""down"",""bad_move"",25310.1,3347.8,2664.2,21965.2,680.7,""oops"",""up"",""down"",""bad_move"",35944.3,10628.2,2499.4,32905.9,539,""smooth"",""up"",""up"",""good_move"",44119.5,8165.2,2066.7,41508.3,544.5,""oops"",""up"",""right"",""good_move"",49996,5858.1,1735.2,48054.1,206.7,""while_blue"",""right"",""up"",""good_move"",57606.8,7608,2193.4,49998.9,5414.6,""oops"",""up"",""up"",""good_move"",62791.3,5182.6,2216.8,57608.8,2966,""oops"",""up"",""right"",""good_move"",65958.5,3164.8,2022.7,62793.7,1142.1,""smooth"",""up"",""up"",""good_move""]","","",""
"30306","","<div style=""width:500px;"">
  <p>What determined the result of this run?</p>
  </div>","84","html-slider-response","83","2442119","0.0-10.0-1.8","257","1","2025-07-09 10:07:59","7701e855f2ef39aa3fd6c71abdc6918a","41.13.0.233","Mozilla/5.0 (Windows NT 10.0; Win64; x64) AppleWebKit/537.36 (KHTML, like Gecko) Chrome/138.0.0.0 Safari/537.36","WebKit","Chrome","138.0.0.0","Windows","10.0","https://app.prolific.com/","en-US,en;q=0.9","67e1a47dae2e2e04aa7d8417","686d226cabeef709c732f8e1","686e3d4313960e15d00379f1","67e1a47dae2e2e04aa7d8417","2025-07-09T10:49:11.785Z","","","","","","AttribQ","","","","","","","","","","","","","","","","","","","","","","","","","","","","","","","","","","","","","","50",""
"3141","","<div style=""width:500px;"">
  <p>How much control did you have over the ball?</p>
  </div>","81","html-slider-response","84","2445269","0.0-10.0-2.8","257","1","2025-07-09 10:07:59","7701e855f2ef39aa3fd6c71abdc6918a","41.13.0.233","Mozilla/5.0 (Windows NT 10.0; Win64; x64) AppleWebKit/537.36 (KHTML, like Gecko) Chrome/138.0.0.0 Safari/537.36","WebKit","Chrome","138.0.0.0","Windows","10.0","https://app.prolific.com/","en-US,en;q=0.9","67e1a47dae2e2e04aa7d8417","686d226cabeef709c732f8e1","686e3d4313960e15d00379f1","67e1a47dae2e2e04aa7d8417","2025-07-09T10:49:14.936Z","","","","","","ControlQ","","","","","","","","","","","","","","","","","","","","","","","","","","","","","","","","","","","","","","50",""
"2972","","<div style=""width:500px;"">
  <p>How would you describe your current emotional state?</p>
  </div>","7","html-slider-response","85","2448252","0.0-10.0-3.8","257","1","2025-07-09 10:07:59","7701e855f2ef39aa3fd6c71abdc6918a","41.13.0.233","Mozilla/5.0 (Windows NT 10.0; Win64; x64) AppleWebKit/537.36 (KHTML, like Gecko) Chrome/138.0.0.0 Safari/537.36","WebKit","Chrome","138.0.0.0","Windows","10.0","https://app.prolific.com/","en-US,en;q=0.9","67e1a47dae2e2e04aa7d8417","686d226cabeef709c732f8e1","686e3d4313960e15d00379f1","67e1a47dae2e2e04aa7d8417","2025-07-09T10:49:17.918Z","","","","","","StressQ","","","","","","","","","","","","","","","","","","","","","","","","","","","","","","","","","","","","","","50",""
"3889","","<div style=""width:500px;"">
  <p>What best describes how you currently feel?</p>
  </div>","89","html-slider-response","86","2452461","0.0-10.0-4.8","257","1","2025-07-09 10:07:59","7701e855f2ef39aa3fd6c71abdc6918a","41.13.0.233","Mozilla/5.0 (Windows NT 10.0; Win64; x64) AppleWebKit/537.36 (KHTML, like Gecko) Chrome/138.0.0.0 Safari/537.36","WebKit","Chrome","138.0.0.0","Windows","10.0","https://app.prolific.com/","en-US,en;q=0.9","67e1a47dae2e2e04aa7d8417","686d226cabeef709c732f8e1","686e3d4313960e15d00379f1","67e1a47dae2e2e04aa7d8417","2025-07-09T10:49:22.129Z","","","","","","MotivationQ","","","","","","","","","","","","","","","","","","","","","","","","","","","","","","","","","","","","","","50",""
"","","","","ctl-task-cpt","87","2483165","0.0-10.0-0.9","257","1","2025-07-09 10:07:59","7701e855f2ef39aa3fd6c71abdc6918a","41.13.0.233","Mozilla/5.0 (Windows NT 10.0; Win64; x64) AppleWebKit/537.36 (KHTML, like Gecko) Chrome/138.0.0.0 Safari/537.36","WebKit","Chrome","138.0.0.0","Windows","10.0","https://app.prolific.com/","en-US,en;q=0.9","67e1a47dae2e2e04aa7d8417","686d226cabeef709c732f8e1","686e3d4313960e15d00379f1","67e1a47dae2e2e04aa7d8417","2025-07-09T10:49:52.831Z","","","","","","","","","","","","","","","","win-only","0","g1:NW,g2:SE","0.4","10","0","2480235.9","2214.1","7218.3","27640.3","1","4","8","6","1","1","1","10","9","0.07575757575757576","2513.8","3000","1985","[""left"",""up""]","{""num_key_presses"":4,""num_perfect"":3,""num_errors"":0,""num_randdir"":1,""num_randdir_good_moves"":1,""num_whilered"":0,""num_whileblue"":0,""num_blue"":0,""num_good_moves"":4}","[295.22232142857143,289.12857142857143,1.2,295.22232142857143,289.12857142857143,104.6,295.22232142857143,289.12857142857143,227.7,295.22232142857143,289.12857142857143,334.9,295.22232142857143,289.12857142857143,455,295.22232142857143,289.12857142857143,579,295.22232142857143,289.12857142857143,693.4,295.22232142857143,289.12857142857143,813.9,295.22232142857143,289.12857142857143,928.7,295.22232142857143,289.12857142857143,1038.9,295.22232142857143,289.12857142857143,1150.4,295.22232142857143,289.12857142857143,1267,295.22232142857143,289.12857142857143,1369.8,295.22232142857143,289.12857142857143,1481.3,295.22232142857143,289.12857142857143,1596.9,295.22232142857143,289.12857142857143,1713.6,185.22232142857143,198.12857142857143,1827.7,95.22232142857143,119.12857142857143,1978.2,67.22232142857143,83.12857142857143,2114.1,64.22232142857143,82.12857142857143,2229.3,64.22232142857143,82.12857142857143,2336.2,64.22232142857143,82.12857142857143,2452.1,64.22232142857143,82.12857142857143,2553.4,64.22232142857143,82.12857142857143,2677.3,64.22232142857143,82.12857142857143,2780.9,64.22232142857143,82.12857142857143,2901.4,64.22232142857143,82.12857142857143,3012,64.22232142857143,82.12857142857143,3122.1,64.22232142857143,82.12857142857143,3231.7,64.22232142857143,82.12857142857143,3355,64.22232142857143,82.12857142857143,3469.8,64.22232142857143,82.12857142857143,3582.4,63.222321428571426,77.12857142857143,3704.4,65.22232142857143,46.128571428571426,3808.2,79.22232142857143,25.128571428571426,3935.9,89.22232142857143,27.128571428571426,4043.9,95.22232142857143,36.128571428571426,4145.9,94.22232142857143,41.128571428571426,4269,73.22232142857143,59.128571428571426,4383.4,68.22232142857143,69.12857142857143,4484,68.22232142857143,69.12857142857143,4592.1,68.22232142857143,69.12857142857143,4714.7,68.22232142857143,69.12857142857143,4831.4,68.22232142857143,69.12857142857143,4981]","[2700.5,2700.5,1000,0,1700.5,""oops"",""up"",""left"",""good_move"",9166.2,6454.2,2378.4,2712,4075.8,""smooth"",""up"",""up"",""good_move"",15303.9,6135.8,2043.3,9168.1,4092.5,""smooth"",""up"",""up"",""good_move"",19971.1,4660.4,1965.3,15310.8,2695.1,""smooth"",""left"",""left"",""good_move""]","","",""
"5796","","<div style=""width:500px;"">
  <p>What determined the result of this run?</p>
  </div>","93","html-slider-response","88","2488967","0.0-10.0-1.9","257","1","2025-07-09 10:07:59","7701e855f2ef39aa3fd6c71abdc6918a","41.13.0.233","Mozilla/5.0 (Windows NT 10.0; Win64; x64) AppleWebKit/537.36 (KHTML, like Gecko) Chrome/138.0.0.0 Safari/537.36","WebKit","Chrome","138.0.0.0","Windows","10.0","https://app.prolific.com/","en-US,en;q=0.9","67e1a47dae2e2e04aa7d8417","686d226cabeef709c732f8e1","686e3d4313960e15d00379f1","67e1a47dae2e2e04aa7d8417","2025-07-09T10:49:58.634Z","","","","","","AttribQ","","","","","","","","","","","","","","","","","","","","","","","","","","","","","","","","","","","","","","50",""
"3495","","<div style=""width:500px;"">
  <p>How much control did you have over the ball?</p>
  </div>","88","html-slider-response","89","2492472","0.0-10.0-2.9","257","1","2025-07-09 10:07:59","7701e855f2ef39aa3fd6c71abdc6918a","41.13.0.233","Mozilla/5.0 (Windows NT 10.0; Win64; x64) AppleWebKit/537.36 (KHTML, like Gecko) Chrome/138.0.0.0 Safari/537.36","WebKit","Chrome","138.0.0.0","Windows","10.0","https://app.prolific.com/","en-US,en;q=0.9","67e1a47dae2e2e04aa7d8417","686d226cabeef709c732f8e1","686e3d4313960e15d00379f1","67e1a47dae2e2e04aa7d8417","2025-07-09T10:50:02.138Z","","","","","","ControlQ","","","","","","","","","","","","","","","","","","","","","","","","","","","","","","","","","","","","","","50",""
"3306","","<div style=""width:500px;"">
  <p>How would you describe your current emotional state?</p>
  </div>","1","html-slider-response","90","2495786","0.0-10.0-3.9","257","1","2025-07-09 10:07:59","7701e855f2ef39aa3fd6c71abdc6918a","41.13.0.233","Mozilla/5.0 (Windows NT 10.0; Win64; x64) AppleWebKit/537.36 (KHTML, like Gecko) Chrome/138.0.0.0 Safari/537.36","WebKit","Chrome","138.0.0.0","Windows","10.0","https://app.prolific.com/","en-US,en;q=0.9","67e1a47dae2e2e04aa7d8417","686d226cabeef709c732f8e1","686e3d4313960e15d00379f1","67e1a47dae2e2e04aa7d8417","2025-07-09T10:50:05.452Z","","","","","","StressQ","","","","","","","","","","","","","","","","","","","","","","","","","","","","","","","","","","","","","","50",""
"3764","","<div style=""width:500px;"">
  <p>What best describes how you currently feel?</p>
  </div>","90","html-slider-response","91","2499555","0.0-10.0-4.9","257","1","2025-07-09 10:07:59","7701e855f2ef39aa3fd6c71abdc6918a","41.13.0.233","Mozilla/5.0 (Windows NT 10.0; Win64; x64) AppleWebKit/537.36 (KHTML, like Gecko) Chrome/138.0.0.0 Safari/537.36","WebKit","Chrome","138.0.0.0","Windows","10.0","https://app.prolific.com/","en-US,en;q=0.9","67e1a47dae2e2e04aa7d8417","686d226cabeef709c732f8e1","686e3d4313960e15d00379f1","67e1a47dae2e2e04aa7d8417","2025-07-09T10:50:09.222Z","","","","","","MotivationQ","","","","","","","","","","","","","","","","","","","","","","","","","","","","","","","","","","","","","","50",""
