"rt","response_timestamp","stimulus","response","trial_type","trial_index","time_elapsed","internal_node_id","run_id","condition","recorded_at","source_code_version","ip","user_agent","device","browser","browser_version","platform","platform_version","referer","accept_language","PROLIFIC_PID","STUDY_ID","SESSION_ID","prolific_id","realtime","view_history","question_order","consent","success","question_id","eventType","responses","item_order","radio_event_ids","radio_event_times","key_event_times","mouse_event_times","straightlining","zigzagging","honeypot","which_type","canvas_config","goals_layout","control_level","trial_number","tutorial_trial_number","trial_start_time","phase1_start_time","phase2_start_time","phase3_start_time","goal_1_value","goal_1_distance","goal_2_value","goal_2_distance","goal_selected","outcome","outcome_total","participant_final_score","participant_initial_score","participant_final_score_prop","goal_choice_rt","allocated_time","allocated_time_remaining","goal_direction","counts","mouse_movements","key_presses","correct","slider_start"
"3129","1752052439558","<p style='font-size:40px;line-height:1.25'><strong>Welcome to the experiment!</strong></p><p style='font-size:1.1em;line-height:1.25'>Thank you for your interest in our experiment! Before you begin, it is important that we obtain your informed consent to participate in the study.</p><p style='font-size:1.1em;line-height:1.25'>On the next screen will be an <strong>information sheet</strong> for you to read. To participate in the study we need you to read this information sheet and the following consent form carefully. If you agree with all the statements, please click the <strong>I agree</strong> button.</p><p style='font-size:1.1em;line-height:1.25'>Press <strong>Next</strong> to read the information sheet.</p>","0","custom-html-button-response","0","3138","0.0-0.0","182","1","2025-07-09 09:13:17","7701e855f2ef39aa3fd6c71abdc6918a","78.145.195.194","Mozilla/5.0 (Windows NT 10.0; Win64; x64) AppleWebKit/537.36 (KHTML, like Gecko) Chrome/138.0.0.0 Safari/537.36","WebKit","Chrome","138.0.0.0","Windows","10.0","https://app.prolific.com/","en-US,en;q=0.9","5cab22cd68194f001511b2d6","686d226cabeef709c732f8e1","686e30f1b246e7c2a789cf0b","5cab22cd68194f001511b2d6","2025-07-09T09:13:59.562Z","","","","","","","","","","","","","","","","","","","","","","","","","","","","","","","","","","","","","","","","","","","",""
"22438","","","","instructions","1","25582","0.0-1.0","182","1","2025-07-09 09:13:17","7701e855f2ef39aa3fd6c71abdc6918a","78.145.195.194","Mozilla/5.0 (Windows NT 10.0; Win64; x64) AppleWebKit/537.36 (KHTML, like Gecko) Chrome/138.0.0.0 Safari/537.36","WebKit","Chrome","138.0.0.0","Windows","10.0","https://app.prolific.com/","en-US,en;q=0.9","5cab22cd68194f001511b2d6","686d226cabeef709c732f8e1","686e30f1b246e7c2a789cf0b","5cab22cd68194f001511b2d6","","[{""page_index"":0,""viewing_time"":10195},{""page_index"":1,""viewing_time"":12242}]","","","","","","","","","","","","","","","","","","","","","","","","","","","","","","","","","","","","","","","","","","",""
"10871","","","{""Q0"":"""",""Q1"":"""",""Q2"":"""",""Q3"":"""",""Q4"":"""",""Q5"":"""",""Q6"":""I agree""}","survey-multi-choice","2","36464","0.0-2.0","182","1","2025-07-09 09:13:17","7701e855f2ef39aa3fd6c71abdc6918a","78.145.195.194","Mozilla/5.0 (Windows NT 10.0; Win64; x64) AppleWebKit/537.36 (KHTML, like Gecko) Chrome/138.0.0.0 Safari/537.36","WebKit","Chrome","138.0.0.0","Windows","10.0","https://app.prolific.com/","en-US,en;q=0.9","5cab22cd68194f001511b2d6","686d226cabeef709c732f8e1","686e30f1b246e7c2a789cf0b","5cab22cd68194f001511b2d6","","","[0,1,2,3,4,5,6]","true","","","","","","","","","","","","","","","","","","","","","","","","","","","","","","","","","","","","","","","","",""
"3451","","","","fullscreen","3","40955","0.0-4.0","182","1","2025-07-09 09:13:17","7701e855f2ef39aa3fd6c71abdc6918a","78.145.195.194","Mozilla/5.0 (Windows NT 10.0; Win64; x64) AppleWebKit/537.36 (KHTML, like Gecko) Chrome/138.0.0.0 Safari/537.36","WebKit","Chrome","138.0.0.0","Windows","10.0","https://app.prolific.com/","en-US,en;q=0.9","5cab22cd68194f001511b2d6","686d226cabeef709c732f8e1","686e30f1b246e7c2a789cf0b","5cab22cd68194f001511b2d6","","","","","true","","","","","","","","","","","","","","","","","","","","","","","","","","","","","","","","","","","","","","","",""
"1621","1752052479000"," <p style='font-size:1.1em;line-height:1.25'>Thank you for completing the consent form and closing all other tabs.</p><p style='font-size:1.1em;line-height:1.25'>We will now invite you to fill in some demographic information and questionnaires, before starting the game.<br>This will take about 5 minutes.<br></p><p style='font-size:1.1em;line-height:1.25'>Press the <strong>Next</strong> button to continue.</p>","0","custom-html-button-response","4","42579","0.0-5.0","182","1","2025-07-09 09:13:17","7701e855f2ef39aa3fd6c71abdc6918a","78.145.195.194","Mozilla/5.0 (Windows NT 10.0; Win64; x64) AppleWebKit/537.36 (KHTML, like Gecko) Chrome/138.0.0.0 Safari/537.36","WebKit","Chrome","138.0.0.0","Windows","10.0","https://app.prolific.com/","en-US,en;q=0.9","5cab22cd68194f001511b2d6","686d226cabeef709c732f8e1","686e30f1b246e7c2a789cf0b","5cab22cd68194f001511b2d6","2025-07-09T09:14:39.003Z","","","","","","","","","","","","","","","","","","","","","","","","","","","","","","","","","","","","","","","","","","","",""
"3245","","","{""age"":""37""}","survey-text","5","45846","0.0-6.0-0.0","182","1","2025-07-09 09:13:17","7701e855f2ef39aa3fd6c71abdc6918a","78.145.195.194","Mozilla/5.0 (Windows NT 10.0; Win64; x64) AppleWebKit/537.36 (KHTML, like Gecko) Chrome/138.0.0.0 Safari/537.36","WebKit","Chrome","138.0.0.0","Windows","10.0","https://app.prolific.com/","en-US,en;q=0.9","5cab22cd68194f001511b2d6","686d226cabeef709c732f8e1","686e30f1b246e7c2a789cf0b","5cab22cd68194f001511b2d6","","","","","","0","demographics","","","","","","","","","","","","","","","","","","","","","","","","","","","","","","","","","","","","","",""
"2284","","","{""gender_identity"":""female/woman""}","survey-multi-choice","6","48135","0.0-6.0-1.0","182","1","2025-07-09 09:13:17","7701e855f2ef39aa3fd6c71abdc6918a","78.145.195.194","Mozilla/5.0 (Windows NT 10.0; Win64; x64) AppleWebKit/537.36 (KHTML, like Gecko) Chrome/138.0.0.0 Safari/537.36","WebKit","Chrome","138.0.0.0","Windows","10.0","https://app.prolific.com/","en-US,en;q=0.9","5cab22cd68194f001511b2d6","686d226cabeef709c732f8e1","686e30f1b246e7c2a789cf0b","5cab22cd68194f001511b2d6","","","[0]","","","1","demographics","","","","","","","","","","","","","","","","","","","","","","","","","","","","","","","","","","","","","",""
"2563","","","{""assigned_sex"":""female""}","survey-multi-choice","7","50704","0.0-6.0-2.0","182","1","2025-07-09 09:13:17","7701e855f2ef39aa3fd6c71abdc6918a","78.145.195.194","Mozilla/5.0 (Windows NT 10.0; Win64; x64) AppleWebKit/537.36 (KHTML, like Gecko) Chrome/138.0.0.0 Safari/537.36","WebKit","Chrome","138.0.0.0","Windows","10.0","https://app.prolific.com/","en-US,en;q=0.9","5cab22cd68194f001511b2d6","686d226cabeef709c732f8e1","686e30f1b246e7c2a789cf0b","5cab22cd68194f001511b2d6","","","[0]","","","2","demographics","","","","","","","","","","","","","","","","","","","","","","","","","","","","","","","","","","","","","",""
"2856","","","{""menstrual_cycle"":""Yes""}","survey-multi-choice","8","53564","0.0-6.0-3.0","182","1","2025-07-09 09:13:17","7701e855f2ef39aa3fd6c71abdc6918a","78.145.195.194","Mozilla/5.0 (Windows NT 10.0; Win64; x64) AppleWebKit/537.36 (KHTML, like Gecko) Chrome/138.0.0.0 Safari/537.36","WebKit","Chrome","138.0.0.0","Windows","10.0","https://app.prolific.com/","en-US,en;q=0.9","5cab22cd68194f001511b2d6","686d226cabeef709c732f8e1","686e30f1b246e7c2a789cf0b","5cab22cd68194f001511b2d6","","","[0]","","","4","demographics","","","","","","","","","","","","","","","","","","","","","","","","","","","","","","","","","","","","","",""
"5151","","","{""education"":""Vocational Qualifications (e.g. City & Guilds)""}","survey-multi-choice","9","58722","0.0-6.0-4.0","182","1","2025-07-09 09:13:17","7701e855f2ef39aa3fd6c71abdc6918a","78.145.195.194","Mozilla/5.0 (Windows NT 10.0; Win64; x64) AppleWebKit/537.36 (KHTML, like Gecko) Chrome/138.0.0.0 Safari/537.36","WebKit","Chrome","138.0.0.0","Windows","10.0","https://app.prolific.com/","en-US,en;q=0.9","5cab22cd68194f001511b2d6","686d226cabeef709c732f8e1","686e30f1b246e7c2a789cf0b","5cab22cd68194f001511b2d6","","","[0]","","","5","demographics","","","","","","","","","","","","","","","","","","","","","","","","","","","","","","","","","","","","","",""
"4351","","","{""education"":""GCSE/Standard Grades""}","survey-multi-choice","10","63078","0.0-6.0-5.0","182","1","2025-07-09 09:13:17","7701e855f2ef39aa3fd6c71abdc6918a","78.145.195.194","Mozilla/5.0 (Windows NT 10.0; Win64; x64) AppleWebKit/537.36 (KHTML, like Gecko) Chrome/138.0.0.0 Safari/537.36","WebKit","Chrome","138.0.0.0","Windows","10.0","https://app.prolific.com/","en-US,en;q=0.9","5cab22cd68194f001511b2d6","686d226cabeef709c732f8e1","686e30f1b246e7c2a789cf0b","5cab22cd68194f001511b2d6","2025-07-09T09:14:59.501Z","","[0]","","","6","demographics","","","","","","","","","","","","","","","","","","","","","","","","","","","","","","","","","","","","","",""
"13761","","","{""mental_health_condition"":""social anxiety"",""mental_health_treatment"":""no"",""psychiatric_medication"":""no""}","survey-text","11","76862","0.0-7.0-0.0","182","1","2025-07-09 09:13:17","7701e855f2ef39aa3fd6c71abdc6918a","78.145.195.194","Mozilla/5.0 (Windows NT 10.0; Win64; x64) AppleWebKit/537.36 (KHTML, like Gecko) Chrome/138.0.0.0 Safari/537.36","WebKit","Chrome","138.0.0.0","Windows","10.0","https://app.prolific.com/","en-US,en;q=0.9","5cab22cd68194f001511b2d6","686d226cabeef709c732f8e1","686e30f1b246e7c2a789cf0b","5cab22cd68194f001511b2d6","2025-07-09T09:15:13.285Z","","","","","1","mental_health","","","","","","","","","","","","","","","","","","","","","","","","","","","","","","","","","","","","","",""
"4228","","","{""depression_history"":[""Yes""]}","survey-multi-select","12","81097","0.0-7.0-1.0","182","1","2025-07-09 09:13:17","7701e855f2ef39aa3fd6c71abdc6918a","78.145.195.194","Mozilla/5.0 (Windows NT 10.0; Win64; x64) AppleWebKit/537.36 (KHTML, like Gecko) Chrome/138.0.0.0 Safari/537.36","WebKit","Chrome","138.0.0.0","Windows","10.0","https://app.prolific.com/","en-US,en;q=0.9","5cab22cd68194f001511b2d6","686d226cabeef709c732f8e1","686e30f1b246e7c2a789cf0b","5cab22cd68194f001511b2d6","","","[0]","","","","mental_health","","","","","","","","","","","","","","","","","","","","","","","","","","","","","","","","","","","","","",""
"6997","","","{""depression_episodes"":""more than 5"",""depression_recent"":""Within the past year""}","survey-multi-choice","13","88098","0.0-7.0-2.0-0.0","182","1","2025-07-09 09:13:17","7701e855f2ef39aa3fd6c71abdc6918a","78.145.195.194","Mozilla/5.0 (Windows NT 10.0; Win64; x64) AppleWebKit/537.36 (KHTML, like Gecko) Chrome/138.0.0.0 Safari/537.36","WebKit","Chrome","138.0.0.0","Windows","10.0","https://app.prolific.com/","en-US,en;q=0.9","5cab22cd68194f001511b2d6","686d226cabeef709c732f8e1","686e30f1b246e7c2a789cf0b","5cab22cd68194f001511b2d6","2025-07-09T09:15:24.522Z","","[0,1]","","","3","mental_health","","","","","","","","","","","","","","","","","","","","","","","","","","","","","","","","","","","","","",""
"35551.699999809265","","","","survey-template","14","123769","0.0-7.0-3.0","182","1","2025-07-09 09:13:17","7701e855f2ef39aa3fd6c71abdc6918a","78.145.195.194","Mozilla/5.0 (Windows NT 10.0; Win64; x64) AppleWebKit/537.36 (KHTML, like Gecko) Chrome/138.0.0.0 Safari/537.36","WebKit","Chrome","138.0.0.0","Windows","10.0","https://app.prolific.com/","en-US,en;q=0.9","5cab22cd68194f001511b2d6","686d226cabeef709c732f8e1","686e30f1b246e7c2a789cf0b","5cab22cd68194f001511b2d6","2025-07-09T09:16:00.193Z","","","","","","ius","{""Q01"":""2"",""Q02"":""3"",""Q03"":""4"",""Q04"":""4"",""Q05"":""3"",""Q06"":""3"",""Q07"":""4"",""Q08"":""0"",""Q09"":""4"",""Q10"":""3"",""Q11"":""3"",""Q12"":""4"",""Q13"":""4""}","[0,1,2,3,4,5,6,7,8,9,10,11,12]","[""Q01"",""Q02"",""Q03"",""Q04"",""Q05"",""Q06"",""Q07"",""Q08"",""Q09"",""Q10"",""Q11"",""Q12"",""Q13""]","[2991.699999809265,5398.599999904633,7389.699999809265,9585.800000190735,12165.5,17464.099999904633,19005.400000095367,20785.099999904633,25513.5,27193.300000190735,29453.900000095367,32551.099999904633,34429.40000009537]","[]","[2991.699999809265,5398.599999904633,7389.699999809265,9585.800000190735,11206.099999904633,12165.5,17464.099999904633,19005.400000095367,20785.099999904633,25513.5,27193.300000190735,29453.900000095367,32551.099999904633,34429.40000009537,35545.40000009537]","0.46153846153846156","0.6666666666666666","0","","","","","","","","","","","","","","","","","","","","","","","","","","","","",""
"2317","1752052562555","<p style='font-size:1.1em;line-height:1.25'>In the following, we will ask you a few questions relating to your experiences over the past month.<br></p><p style='font-size:1.1em;line-height:1.25'>Press the <strong>Next</strong> button to continue.</p>","0","custom-html-button-response","15","126133","0.0-7.0-4.0","182","1","2025-07-09 09:13:17","7701e855f2ef39aa3fd6c71abdc6918a","78.145.195.194","Mozilla/5.0 (Windows NT 10.0; Win64; x64) AppleWebKit/537.36 (KHTML, like Gecko) Chrome/138.0.0.0 Safari/537.36","WebKit","Chrome","138.0.0.0","Windows","10.0","https://app.prolific.com/","en-US,en;q=0.9","5cab22cd68194f001511b2d6","686d226cabeef709c732f8e1","686e30f1b246e7c2a789cf0b","5cab22cd68194f001511b2d6","2025-07-09T09:16:02.556Z","","","","","","","","","","","","","","","","","","","","","","","","","","","","","","","","","","","","","","","","","","","",""
"38950.199999809265","","","","survey-template","16","165096","0.0-7.0-5.0","182","1","2025-07-09 09:13:17","7701e855f2ef39aa3fd6c71abdc6918a","78.145.195.194","Mozilla/5.0 (Windows NT 10.0; Win64; x64) AppleWebKit/537.36 (KHTML, like Gecko) Chrome/138.0.0.0 Safari/537.36","WebKit","Chrome","138.0.0.0","Windows","10.0","https://app.prolific.com/","en-US,en;q=0.9","5cab22cd68194f001511b2d6","686d226cabeef709c732f8e1","686e30f1b246e7c2a789cf0b","5cab22cd68194f001511b2d6","2025-07-09T09:16:41.520Z","","","","","","pss","{""Q01"":""2"",""Q02"":""2"",""Q03"":""3"",""Q04"":""2"",""Q05"":""2"",""Q06"":""2"",""Q07"":""1"",""Q08"":""2"",""Q09"":""2"",""Q10"":""1""}","[0,1,2,3,4,5,6,7,8,9]","[""Q01"",""Q02"",""Q03"",""Q04"",""Q05"",""Q06"",""Q07"",""Q08"",""Q09"",""Q10""]","[4847.199999809265,8108.099999904633,9649.099999904633,12595.400000095367,14943.400000095367,17623.799999713898,26036.199999809265,31364.099999904633,34723.5,36492.199999809265]","[]","[0.19999980926513672,4847.199999809265,8108.099999904633,9649.099999904633,12595.400000095367,14943.400000095367,17623.799999713898,22305.199999809265,26036.199999809265,31364.099999904633,34723.5,36492.199999809265,38934.5]","0.7","0.5555555555555556","0","","","","","","","","","","","","","","","","","","","","","","","","","","","","",""
"2058","1752052603582","<p style='font-size:1.1em;line-height:1.25'>Thank you for your answers! Now we will ask you a few more questions relating to your feelings in the last 24 hours.<br></p><p style='font-size:1.1em;line-height:1.25'>Press the <strong>Next</strong> button to continue.</p>","0","custom-html-button-response","17","167162","0.0-7.0-6.0","182","1","2025-07-09 09:13:17","7701e855f2ef39aa3fd6c71abdc6918a","78.145.195.194","Mozilla/5.0 (Windows NT 10.0; Win64; x64) AppleWebKit/537.36 (KHTML, like Gecko) Chrome/138.0.0.0 Safari/537.36","WebKit","Chrome","138.0.0.0","Windows","10.0","https://app.prolific.com/","en-US,en;q=0.9","5cab22cd68194f001511b2d6","686d226cabeef709c732f8e1","686e30f1b246e7c2a789cf0b","5cab22cd68194f001511b2d6","2025-07-09T09:16:43.585Z","","","","","","","","","","","","","","","","","","","","","","","","","","","","","","","","","","","","","","","","","","","",""
"44314.40000009537","","","","survey-template","18","211503","0.0-7.0-7.0","182","1","2025-07-09 09:13:17","7701e855f2ef39aa3fd6c71abdc6918a","78.145.195.194","Mozilla/5.0 (Windows NT 10.0; Win64; x64) AppleWebKit/537.36 (KHTML, like Gecko) Chrome/138.0.0.0 Safari/537.36","WebKit","Chrome","138.0.0.0","Windows","10.0","https://app.prolific.com/","en-US,en;q=0.9","5cab22cd68194f001511b2d6","686d226cabeef709c732f8e1","686e30f1b246e7c2a789cf0b","5cab22cd68194f001511b2d6","2025-07-09T09:17:27.927Z","","","","","","drsp","{""Q01"":""2"",""Q02"":""2"",""Q03"":""0"",""Q04"":""3"",""Q05"":""0"",""Q06"":""0"",""Q07"":""0"",""Q08"":""0"",""Q09"":""1"",""Q10"":""1"",""Q11"":""3"",""Q12"":""0"",""Q13"":""0"",""Q14"":""0"",""Q15"":""3"",""Q16"":""3"",""Q17"":""1"",""Q18"":""3"",""Q19"":""1"",""Q20"":""3"",""Q21"":""0""}","[0,1,2,3,4,5,6,7,8,9,10,11,12,13,14,15,16,17,18,19,20]","[""Q01"",""Q02"",""Q03"",""Q04"",""Q05"",""Q06"",""Q07"",""Q08"",""Q09"",""Q10"",""Q11"",""Q12"",""Q13"",""Q14"",""Q15"",""Q16"",""Q17"",""Q18"",""Q19"",""Q20"",""Q21""]","[2712,3882.4000000953674,4997.699999809265,6436.699999809265,7796.199999809265,8690.099999904633,9587.800000190735,10641,14433.099999904633,15871.5,17379,19292.300000190735,20267.400000095367,23027.099999904633,26959.099999904633,28965.099999904633,29966.400000095367,35241.90000009537,39246.59999990463,41553.59999990463,43188.59999990463]","[]","[0.09999990463256836,2712,3882.4000000953674,4997.699999809265,6436.699999809265,7796.199999809265,8690.099999904633,9587.800000190735,10641,14433.099999904633,15871.5,17379,19292.300000190735,20267.400000095367,23027.099999904633,26959.099999904633,28081.800000190735,28965.099999904633,29966.400000095367,35241.90000009537,39246.59999990463,41553.59999990463,43188.59999990463,44303.40000009537]","0.42857142857142855","0.05","0","","","","","","","","","","","","","","","","","","","","","","","","","","","","",""
"7839.200000286102","","","","survey-template","19","219349","0.0-7.0-8.0","182","1","2025-07-09 09:13:17","7701e855f2ef39aa3fd6c71abdc6918a","78.145.195.194","Mozilla/5.0 (Windows NT 10.0; Win64; x64) AppleWebKit/537.36 (KHTML, like Gecko) Chrome/138.0.0.0 Safari/537.36","WebKit","Chrome","138.0.0.0","Windows","10.0","https://app.prolific.com/","en-US,en;q=0.9","5cab22cd68194f001511b2d6","686d226cabeef709c732f8e1","686e30f1b246e7c2a789cf0b","5cab22cd68194f001511b2d6","2025-07-09T09:17:35.772Z","","","","","","stress","{""Q01"":""2"",""Q02"":""3"",""Q03"":""1""}","[0,1,2]","[""Q01"",""Q02"",""Q03""]","[3495.300000190735,5006.300000190735,6877.400000095367]","[]","[3495.300000190735,5006.300000190735,6877.400000095367,7837.400000095367]","0.6666666666666666","0.5","0","","","","","","","","","","","","","","","","","","","","","","","","","","","","",""
"42228","","","","instructions","20","261582","0.0-8.0-0.0","182","1","2025-07-09 09:13:17","7701e855f2ef39aa3fd6c71abdc6918a","78.145.195.194","Mozilla/5.0 (Windows NT 10.0; Win64; x64) AppleWebKit/537.36 (KHTML, like Gecko) Chrome/138.0.0.0 Safari/537.36","WebKit","Chrome","138.0.0.0","Windows","10.0","https://app.prolific.com/","en-US,en;q=0.9","5cab22cd68194f001511b2d6","686d226cabeef709c732f8e1","686e30f1b246e7c2a789cf0b","5cab22cd68194f001511b2d6","","[{""page_index"":0,""viewing_time"":11032},{""page_index"":1,""viewing_time"":9543},{""page_index"":2,""viewing_time"":11602},{""page_index"":3,""viewing_time"":10050}]","","","","","","","","","","","","","","","","","","","","","","","","","","","","","","","","","","","","","","","","","","",""
"","","","","ctl-task-cpt","21","286972","0.0-8.0-1.0","182","1","2025-07-09 09:13:17","7701e855f2ef39aa3fd6c71abdc6918a","78.145.195.194","Mozilla/5.0 (Windows NT 10.0; Win64; x64) AppleWebKit/537.36 (KHTML, like Gecko) Chrome/138.0.0.0 Safari/537.36","WebKit","Chrome","138.0.0.0","Windows","10.0","https://app.prolific.com/","en-US,en;q=0.9","5cab22cd68194f001511b2d6","686d226cabeef709c732f8e1","686e30f1b246e7c2a789cf0b","5cab22cd68194f001511b2d6","","","","","","","","","","","","","","","","","win-only","0","g1:NW,g2:SE","1","0","1","272437.1","5246.3","9251.9","22042.6","2","4","4","6","1","2","1","1","0","0.007575757575757576","2262","4000","2235","[""left"",""up""]","{""num_key_presses"":5,""num_perfect"":4,""num_errors"":1,""num_randdir"":0,""num_randdir_good_moves"":0,""num_whilered"":0,""num_whileblue"":0,""num_blue"":0,""num_good_moves"":4}","[295.22232142857143,300.12857142857143,49.5,295.22232142857143,300.12857142857143,113.6,295.22232142857143,300.12857142857143,226,295.22232142857143,300.12857142857143,326,295.22232142857143,300.12857142857143,429.9,295.22232142857143,300.12857142857143,647.9,295.22232142857143,300.12857142857143,749.8,295.22232142857143,300.12857142857143,910.8,295.22232142857143,300.12857142857143,1021.2,295.22232142857143,300.12857142857143,1121.8,295.22232142857143,300.12857142857143,1224.9,295.22232142857143,300.12857142857143,1331.3,295.22232142857143,300.12857142857143,1435.8,295.22232142857143,300.12857142857143,1540,257.22232142857143,257.12857142857143,1642,170.22232142857143,188.12857142857143,1744.5,45.222321428571426,21.128571428571426,1851.1,42.222321428571426,12.128571428571426,1951.2,53.222321428571426,14.128571428571426,2054.2,56.222321428571426,38.128571428571426,2173.6,52.222321428571426,39.128571428571426,2383.1,52.222321428571426,39.128571428571426,2488.1,51.222321428571426,42.128571428571426,2590.8,51.222321428571426,42.128571428571426,2691.7,51.222321428571426,42.128571428571426,2798,51.222321428571426,42.128571428571426,2899.7,51.222321428571426,42.128571428571426,3000.7,51.222321428571426,42.128571428571426,3104.8,51.222321428571426,42.128571428571426,3482.4,51.222321428571426,42.128571428571426,3601.6,51.222321428571426,42.128571428571426,3704.2,51.222321428571426,42.128571428571426,3957.9]","[1462.8,1462.8,1000,0,462.8,""smooth"",""up"",""up"",""good_move"",2116.5,651.2,2395.5,1465.3,-1744.3,""error"",""-"",""-"",""no_move"",6833.2,4715.5,3139,3119.5,574.7,""smooth"",""up"",""up"",""good_move"",9937.4,3103.4,2470.1,6834.2,633.1,""smooth"",""left"",""left"",""good_move"",12667.7,2728.7,2301.9,9939,426.8,""smooth"",""left"",""left"",""good_move""]","",""
"7053","","","","instructions","22","294027","0.0-8.0-2.0","182","1","2025-07-09 09:13:17","7701e855f2ef39aa3fd6c71abdc6918a","78.145.195.194","Mozilla/5.0 (Windows NT 10.0; Win64; x64) AppleWebKit/537.36 (KHTML, like Gecko) Chrome/138.0.0.0 Safari/537.36","WebKit","Chrome","138.0.0.0","Windows","10.0","https://app.prolific.com/","en-US,en;q=0.9","5cab22cd68194f001511b2d6","686d226cabeef709c732f8e1","686e30f1b246e7c2a789cf0b","5cab22cd68194f001511b2d6","","[{""page_index"":0,""viewing_time"":7053}]","","","","","","","","","","","","","","","","","","","","","","","","","","","","","","","","","","","","","","","","","","",""
"","","","","ctl-task-cpt","23","346205","0.0-8.0-3.0","182","1","2025-07-09 09:13:17","7701e855f2ef39aa3fd6c71abdc6918a","78.145.195.194","Mozilla/5.0 (Windows NT 10.0; Win64; x64) AppleWebKit/537.36 (KHTML, like Gecko) Chrome/138.0.0.0 Safari/537.36","WebKit","Chrome","138.0.0.0","Windows","10.0","https://app.prolific.com/","en-US,en;q=0.9","5cab22cd68194f001511b2d6","686d226cabeef709c732f8e1","686e30f1b246e7c2a789cf0b","5cab22cd68194f001511b2d6","","","","","","","","","","","","","","","","","win-only","0","g1:NW,g2:SE","0.35","0","3","304545.8","1610.1","5614.2","49162.2","2","4","8","6","2","-8","-8","0","0","0","1641.1","4000","-2370","[""down"",""right""]","{""num_key_presses"":12,""num_perfect"":5,""num_errors"":0,""num_randdir"":7,""num_randdir_good_moves"":3,""num_whilered"":0,""num_whileblue"":0,""num_blue"":2,""num_good_moves"":8}","[293.22232142857143,296.12857142857143,32.5,293.22232142857143,296.12857142857143,101.7,293.22232142857143,296.12857142857143,209.2,293.22232142857143,296.12857142857143,312.7,293.22232142857143,296.12857142857143,413.5,293.22232142857143,296.12857142857143,519.3,293.22232142857143,296.12857142857143,621.3,278.22232142857143,292.12857142857143,723.2,213.22232142857143,275.12857142857143,833.9,197.22232142857143,265.12857142857143,935.8,241.22232142857143,300.12857142857143,1036.8,427.22232142857143,418.12857142857143,1136.9,622.2223214285714,559.1285714285714,1239.7,609.2223214285714,578.1285714285714,1351,555.2223214285714,572.1285714285714,1460.6,531.2223214285714,543.1285714285714,1561.7,530.2223214285714,543.1285714285714,1664.7,530.2223214285714,543.1285714285714,1771.9,530.2223214285714,543.1285714285714,1876.7,530.2223214285714,543.1285714285714,1977.1,561.2223214285714,531.1285714285714,2081.7,779.2223214285714,396.12857142857143,2189.6,948.2223214285714,252.12857142857143,2292.5,948.2223214285714,252.12857142857143,2398.9,948.2223214285714,252.12857142857143,2503.4,948.2223214285714,252.12857142857143,2613.5,948.2223214285714,252.12857142857143,2716.6,948.2223214285714,252.12857142857143,2819.8,948.2223214285714,252.12857142857143,2921.8,948.2223214285714,252.12857142857143,3022.2,948.2223214285714,252.12857142857143,3122.9,948.2223214285714,252.12857142857143,3233.5,948.2223214285714,252.12857142857143,3334,948.2223214285714,252.12857142857143,3438,948.2223214285714,252.12857142857143,3549.3,948.2223214285714,252.12857142857143,3651.6,948.2223214285714,252.12857142857143,3757.9,948.2223214285714,252.12857142857143,3858.1,948.2223214285714,252.12857142857143,3968.1]","[1511.2,1511.2,1000,0,511.2,""oops"",""down"",""right"",""good_move"",4337.5,2824.9,2312.5,1512.6,512.4,""smooth"",""down"",""down"",""good_move"",10847.2,6509.3,2945.5,7496.5,405.2,""oops"",""right"",""down"",""good_move"",14468.2,3617.4,3151.8,10850.8,465.6,""oops"",""right"",""up"",""bad_move"",17144.5,2671.9,2038.4,14472.7,633.5,""smooth"",""right"",""right"",""good_move"",19378.6,2227.8,1808.5,17150.9,419.2,""smooth"",""down"",""down"",""good_move"",21744.8,2364,1942.5,19380.8,421.5,""smooth"",""right"",""right"",""good_move"",25395.2,3649.1,3216.9,21746.1,432.2,""oops"",""down"",""left"",""bad_move"",28906.1,3509.3,3134,25396.9,375.2,""oops"",""down"",""right"",""good_move"",31962.6,3050.9,2653.4,28911.8,397.5,""oops"",""down"",""left"",""bad_move"",38533.7,6569.6,3125.9,35059.4,348.4,""oops"",""down"",""up"",""bad_move"",41545.5,3009.8,2571.3,38535.7,438.5,""smooth"",""right"",""right"",""good_move""]","",""
"18345","","","","instructions","24","364552","0.0-8.0-4.0","182","1","2025-07-09 09:13:17","7701e855f2ef39aa3fd6c71abdc6918a","78.145.195.194","Mozilla/5.0 (Windows NT 10.0; Win64; x64) AppleWebKit/537.36 (KHTML, like Gecko) Chrome/138.0.0.0 Safari/537.36","WebKit","Chrome","138.0.0.0","Windows","10.0","https://app.prolific.com/","en-US,en;q=0.9","5cab22cd68194f001511b2d6","686d226cabeef709c732f8e1","686e30f1b246e7c2a789cf0b","5cab22cd68194f001511b2d6","","[{""page_index"":0,""viewing_time"":5406},{""page_index"":1,""viewing_time"":12938}]","","","","","","","","","","","","","","","","","","","","","","","","","","","","","","","","","","","","","","","","","","",""
"12764","","","{""green_ball"":[""Ball always moves in the direction I press"",""Ball sometimes shakes and moves in a random direction""]}","survey-multi-select","25","377387","0.0-8.0-5.0-0.0","182","1","2025-07-09 09:13:17","7701e855f2ef39aa3fd6c71abdc6918a","78.145.195.194","Mozilla/5.0 (Windows NT 10.0; Win64; x64) AppleWebKit/537.36 (KHTML, like Gecko) Chrome/138.0.0.0 Safari/537.36","WebKit","Chrome","138.0.0.0","Windows","10.0","https://app.prolific.com/","en-US,en;q=0.9","5cab22cd68194f001511b2d6","686d226cabeef709c732f8e1","686e30f1b246e7c2a789cf0b","5cab22cd68194f001511b2d6","","","[0]","","","","quiz","","","","","","","","","","","","","","","","","","","","","","","","","","","","","","","","","","","","","false",""
"3137","","<p align='center'><b>INCORRECT.</b> Usually the green ball moves in the indicated direction, but sometimes it shakes and moves randomly. </p>","0","html-button-response","26","380634","0.0-8.0-5.0-1.0","182","1","2025-07-09 09:13:17","7701e855f2ef39aa3fd6c71abdc6918a","78.145.195.194","Mozilla/5.0 (Windows NT 10.0; Win64; x64) AppleWebKit/537.36 (KHTML, like Gecko) Chrome/138.0.0.0 Safari/537.36","WebKit","Chrome","138.0.0.0","Windows","10.0","https://app.prolific.com/","en-US,en;q=0.9","5cab22cd68194f001511b2d6","686d226cabeef709c732f8e1","686e30f1b246e7c2a789cf0b","5cab22cd68194f001511b2d6","","","","","","","","","","","","","","","","","","","","","","","","","","","","","","","","","","","","","","","","","","","","",""
"7688","","","{""green_ball"":[""Ball sometimes shakes and moves in a random direction""]}","survey-multi-select","27","388328","0.0-8.0-5.1-0.1","182","1","2025-07-09 09:13:17","7701e855f2ef39aa3fd6c71abdc6918a","78.145.195.194","Mozilla/5.0 (Windows NT 10.0; Win64; x64) AppleWebKit/537.36 (KHTML, like Gecko) Chrome/138.0.0.0 Safari/537.36","WebKit","Chrome","138.0.0.0","Windows","10.0","https://app.prolific.com/","en-US,en;q=0.9","5cab22cd68194f001511b2d6","686d226cabeef709c732f8e1","686e30f1b246e7c2a789cf0b","5cab22cd68194f001511b2d6","","","[0]","","","","quiz","","","","","","","","","","","","","","","","","","","","","","","","","","","","","","","","","","","","","true",""
"1299","","<p align='center'><b>CORRECT!</b> Indeed, the green ball may sometimes shake and move in a random direction.</p>","0","html-button-response","28","389632","0.0-8.0-5.1-1.1","182","1","2025-07-09 09:13:17","7701e855f2ef39aa3fd6c71abdc6918a","78.145.195.194","Mozilla/5.0 (Windows NT 10.0; Win64; x64) AppleWebKit/537.36 (KHTML, like Gecko) Chrome/138.0.0.0 Safari/537.36","WebKit","Chrome","138.0.0.0","Windows","10.0","https://app.prolific.com/","en-US,en;q=0.9","5cab22cd68194f001511b2d6","686d226cabeef709c732f8e1","686e30f1b246e7c2a789cf0b","5cab22cd68194f001511b2d6","","","","","","","","","","","","","","","","","","","","","","","","","","","","","","","","","","","","","","","","","","","","",""
"3842","","","{""yellow_ball"":[""Ball doesn‘t move and I get -1 penalty point""]}","survey-multi-select","29","393480","0.0-8.0-6.0-0.0","182","1","2025-07-09 09:13:17","7701e855f2ef39aa3fd6c71abdc6918a","78.145.195.194","Mozilla/5.0 (Windows NT 10.0; Win64; x64) AppleWebKit/537.36 (KHTML, like Gecko) Chrome/138.0.0.0 Safari/537.36","WebKit","Chrome","138.0.0.0","Windows","10.0","https://app.prolific.com/","en-US,en;q=0.9","5cab22cd68194f001511b2d6","686d226cabeef709c732f8e1","686e30f1b246e7c2a789cf0b","5cab22cd68194f001511b2d6","","","[0]","","","","quiz","","","","","","","","","","","","","","","","","","","","","","","","","","","","","","","","","","","","","true",""
"1025","","<p align='center'><b>CORRECT!</b> Indeed, the yellow ball never moves and you receive a penalty.</p>","0","html-button-response","30","394513","0.0-8.0-6.0-1.0","182","1","2025-07-09 09:13:17","7701e855f2ef39aa3fd6c71abdc6918a","78.145.195.194","Mozilla/5.0 (Windows NT 10.0; Win64; x64) AppleWebKit/537.36 (KHTML, like Gecko) Chrome/138.0.0.0 Safari/537.36","WebKit","Chrome","138.0.0.0","Windows","10.0","https://app.prolific.com/","en-US,en;q=0.9","5cab22cd68194f001511b2d6","686d226cabeef709c732f8e1","686e30f1b246e7c2a789cf0b","5cab22cd68194f001511b2d6","","","","","","","","","","","","","","","","","","","","","","","","","","","","","","","","","","","","","","","","","","","","",""
"7085","","","{""blue_ball"":[""Ball always shakes and moves in a random direction""]}","survey-multi-select","31","401612","0.0-8.0-7.0-0.0","182","1","2025-07-09 09:13:17","7701e855f2ef39aa3fd6c71abdc6918a","78.145.195.194","Mozilla/5.0 (Windows NT 10.0; Win64; x64) AppleWebKit/537.36 (KHTML, like Gecko) Chrome/138.0.0.0 Safari/537.36","WebKit","Chrome","138.0.0.0","Windows","10.0","https://app.prolific.com/","en-US,en;q=0.9","5cab22cd68194f001511b2d6","686d226cabeef709c732f8e1","686e30f1b246e7c2a789cf0b","5cab22cd68194f001511b2d6","","","[0]","","","","quiz","","","","","","","","","","","","","","","","","","","","","","","","","","","","","","","","","","","","","true",""
"1285","","<p align='center'><b>CORRECT!</b> Indeed, the blue ball always shakes and moves in a random direction. Also there is a penalty of -1 point.</p>","0","html-button-response","32","402900","0.0-8.0-7.0-1.0","182","1","2025-07-09 09:13:17","7701e855f2ef39aa3fd6c71abdc6918a","78.145.195.194","Mozilla/5.0 (Windows NT 10.0; Win64; x64) AppleWebKit/537.36 (KHTML, like Gecko) Chrome/138.0.0.0 Safari/537.36","WebKit","Chrome","138.0.0.0","Windows","10.0","https://app.prolific.com/","en-US,en;q=0.9","5cab22cd68194f001511b2d6","686d226cabeef709c732f8e1","686e30f1b246e7c2a789cf0b","5cab22cd68194f001511b2d6","","","","","","","","","","","","","","","","","","","","","","","","","","","","","","","","","","","","","","","","","","","","",""
"3028","","","{""bonus"":[""When I reach 50% of points""]}","survey-multi-select","33","405937","0.0-8.0-8.0-0.0","182","1","2025-07-09 09:13:17","7701e855f2ef39aa3fd6c71abdc6918a","78.145.195.194","Mozilla/5.0 (Windows NT 10.0; Win64; x64) AppleWebKit/537.36 (KHTML, like Gecko) Chrome/138.0.0.0 Safari/537.36","WebKit","Chrome","138.0.0.0","Windows","10.0","https://app.prolific.com/","en-US,en;q=0.9","5cab22cd68194f001511b2d6","686d226cabeef709c732f8e1","686e30f1b246e7c2a789cf0b","5cab22cd68194f001511b2d6","","","[0]","","","","quiz","","","","","","","","","","","","","","","","","","","","","","","","","","","","","","","","","","","","","true",""
"1241","","<p align='center'><b>CORRECT!</b> Indeed, you receive 2 pounds extra when you reach 50% of points.</p>","0","html-button-response","34","407181","0.0-8.0-8.0-1.0","182","1","2025-07-09 09:13:17","7701e855f2ef39aa3fd6c71abdc6918a","78.145.195.194","Mozilla/5.0 (Windows NT 10.0; Win64; x64) AppleWebKit/537.36 (KHTML, like Gecko) Chrome/138.0.0.0 Safari/537.36","WebKit","Chrome","138.0.0.0","Windows","10.0","https://app.prolific.com/","en-US,en;q=0.9","5cab22cd68194f001511b2d6","686d226cabeef709c732f8e1","686e30f1b246e7c2a789cf0b","5cab22cd68194f001511b2d6","","","","","","","","","","","","","","","","","","","","","","","","","","","","","","","","","","","","","","","","","","","","",""
"2430","","","","instructions","35","409614","0.0-8.0-9.0","182","1","2025-07-09 09:13:17","7701e855f2ef39aa3fd6c71abdc6918a","78.145.195.194","Mozilla/5.0 (Windows NT 10.0; Win64; x64) AppleWebKit/537.36 (KHTML, like Gecko) Chrome/138.0.0.0 Safari/537.36","WebKit","Chrome","138.0.0.0","Windows","10.0","https://app.prolific.com/","en-US,en;q=0.9","5cab22cd68194f001511b2d6","686d226cabeef709c732f8e1","686e30f1b246e7c2a789cf0b","5cab22cd68194f001511b2d6","","[{""page_index"":0,""viewing_time"":2429}]","","","","","","","","","","","","","","","","","","","","","","","","","","","","","","","","","","","","","","","","","","",""
"5812","","<p>Before you start with this game please answer the following three questions yourself. </p>
  <p>Through this game, we measure several aspects of your cognitive performance, such as reaction times, multi-tasking capabilities </p>
  <p>and the ability to assess the situation you are in.</p>
  <p></p>
  <p><b>How good do you usually are in such tasks?</b></p>","81","html-slider-response","36","416075","0.0-9.0-0.0","182","1","2025-07-09 09:13:17","7701e855f2ef39aa3fd6c71abdc6918a","78.145.195.194","Mozilla/5.0 (Windows NT 10.0; Win64; x64) AppleWebKit/537.36 (KHTML, like Gecko) Chrome/138.0.0.0 Safari/537.36","WebKit","Chrome","138.0.0.0","Windows","10.0","https://app.prolific.com/","en-US,en;q=0.9","5cab22cd68194f001511b2d6","686d226cabeef709c732f8e1","686e30f1b246e7c2a789cf0b","5cab22cd68194f001511b2d6","2025-07-09T09:20:52.499Z","","","","","","PreSkillQ","","","","","","","","","","","","","","","","","","","","","","","","","","","","","","","","","","","","","","50"
"4594","","<div style=""width:500px;"">
  <p>How well do you think you will perform in this task compared to other participants?</p>
  </div>","51","html-slider-response","37","420675","0.0-9.0-1.0","182","1","2025-07-09 09:13:17","7701e855f2ef39aa3fd6c71abdc6918a","78.145.195.194","Mozilla/5.0 (Windows NT 10.0; Win64; x64) AppleWebKit/537.36 (KHTML, like Gecko) Chrome/138.0.0.0 Safari/537.36","WebKit","Chrome","138.0.0.0","Windows","10.0","https://app.prolific.com/","en-US,en;q=0.9","5cab22cd68194f001511b2d6","686d226cabeef709c732f8e1","686e30f1b246e7c2a789cf0b","5cab22cd68194f001511b2d6","2025-07-09T09:20:57.098Z","","","","","","PrePerfQ","","","","","","","","","","","","","","","","","","","","","","","","","","","","","","","","","","","","","","50"
"3654","","<div style=""width:500px;"">
  <p>What best describes how you currently feel?</p>
  </div>","87","html-slider-response","38","424332","0.0-9.0-2.0","182","1","2025-07-09 09:13:17","7701e855f2ef39aa3fd6c71abdc6918a","78.145.195.194","Mozilla/5.0 (Windows NT 10.0; Win64; x64) AppleWebKit/537.36 (KHTML, like Gecko) Chrome/138.0.0.0 Safari/537.36","WebKit","Chrome","138.0.0.0","Windows","10.0","https://app.prolific.com/","en-US,en;q=0.9","5cab22cd68194f001511b2d6","686d226cabeef709c732f8e1","686e30f1b246e7c2a789cf0b","5cab22cd68194f001511b2d6","2025-07-09T09:21:00.755Z","","","","","","PreMotivationQ","","","","","","","","","","","","","","","","","","","","","","","","","","","","","","","","","","","","","","50"
"","","","","ctl-task-cpt","39","447935","0.0-10.0-0.0","182","1","2025-07-09 09:13:17","7701e855f2ef39aa3fd6c71abdc6918a","78.145.195.194","Mozilla/5.0 (Windows NT 10.0; Win64; x64) AppleWebKit/537.36 (KHTML, like Gecko) Chrome/138.0.0.0 Safari/537.36","WebKit","Chrome","138.0.0.0","Windows","10.0","https://app.prolific.com/","en-US,en;q=0.9","5cab22cd68194f001511b2d6","686d226cabeef709c732f8e1","686e30f1b246e7c2a789cf0b","5cab22cd68194f001511b2d6","2025-07-09T09:21:24.358Z","","","","","","","","","","","","","","","","win-only","1","g1:NE,g2:SW","1","1","0","434875.4","1229.9","6234.1","20570.6","1","4","8","6","1","1","1","1","0","0.007575757575757576","1531.7","3000","1655","[""up"",""right""]","{""num_key_presses"":4,""num_perfect"":4,""num_errors"":0,""num_randdir"":0,""num_randdir_good_moves"":0,""num_whilered"":0,""num_whileblue"":0,""num_blue"":1,""num_good_moves"":4}","[292.22232142857143,297.12857142857143,0.7,292.22232142857143,297.12857142857143,115.4,292.22232142857143,297.12857142857143,233.2,292.22232142857143,297.12857142857143,333.6,312.22232142857143,278.12857142857143,437.5,372.22232142857143,224.12857142857143,542.8,421.22232142857143,180.12857142857143,648.6,421.22232142857143,180.12857142857143,748.9,421.22232142857143,180.12857142857143,861.8,504.22232142857143,94.12857142857143,964.5,523.2223214285714,79.12857142857143,1069.3,544.2223214285714,56.128571428571426,1176.7,544.2223214285714,56.128571428571426,1280.4,544.2223214285714,56.128571428571426,1391.7,544.2223214285714,56.128571428571426,1493.7,544.2223214285714,56.128571428571426,1599.8,544.2223214285714,56.128571428571426,1717.7,544.2223214285714,56.128571428571426,1819.7,544.2223214285714,56.128571428571426,1922.4,544.2223214285714,56.128571428571426,2025.2,544.2223214285714,56.128571428571426,2131.9,544.2223214285714,56.128571428571426,2232.9,544.2223214285714,56.128571428571426,2336.5,544.2223214285714,56.128571428571426,2437.7,544.2223214285714,56.128571428571426,2546.7,544.2223214285714,56.128571428571426,2647.4,544.2223214285714,56.128571428571426,2751.5,544.2223214285714,56.128571428571426,2860,544.2223214285714,56.128571428571426,2960.3,544.2223214285714,56.128571428571426,3063.6,544.2223214285714,56.128571428571426,3168.5,544.2223214285714,56.128571428571426,3272.6,544.2223214285714,56.128571428571426,3372.6,544.2223214285714,56.128571428571426,3483.8,544.2223214285714,56.128571428571426,3589.2,544.2223214285714,56.128571428571426,3692,544.2223214285714,56.128571428571426,3793.6,544.2223214285714,56.128571428571426,3897.7,544.2223214285714,56.128571428571426,4011.2,544.2223214285714,56.128571428571426,4112.9,544.2223214285714,56.128571428571426,4216.3,544.2223214285714,56.128571428571426,4316.8,544.2223214285714,56.128571428571426,4417.2,544.2223214285714,56.128571428571426,4517.6,544.2223214285714,56.128571428571426,4618.6,544.2223214285714,56.128571428571426,4721.2,544.2223214285714,56.128571428571426,4823.3,544.2223214285714,56.128571428571426,4927.4]","[1459.6,1459.6,1000,0,459.6,""smooth"",""up"",""up"",""good_move"",7979.5,6518.4,2812.7,4690.8,476,""smooth"",""right"",""right"",""good_move"",11271.8,3289.8,2712,7982.1,577.7,""smooth"",""up"",""up"",""good_move"",14185,2911.9,2435,11273.2,476.9,""smooth"",""right"",""right"",""good_move""]","",""
"4215","","<div style=""width:500px;"">
  <p>What determined the result of this run?</p>
  </div>","95","html-slider-response","40","452153","0.0-10.0-1.0","182","1","2025-07-09 09:13:17","7701e855f2ef39aa3fd6c71abdc6918a","78.145.195.194","Mozilla/5.0 (Windows NT 10.0; Win64; x64) AppleWebKit/537.36 (KHTML, like Gecko) Chrome/138.0.0.0 Safari/537.36","WebKit","Chrome","138.0.0.0","Windows","10.0","https://app.prolific.com/","en-US,en;q=0.9","5cab22cd68194f001511b2d6","686d226cabeef709c732f8e1","686e30f1b246e7c2a789cf0b","5cab22cd68194f001511b2d6","2025-07-09T09:21:28.577Z","","","","","","AttribQ","","","","","","","","","","","","","","","","","","","","","","","","","","","","","","","","","","","","","","50"
"4158","","<div style=""width:500px;"">
  <p>How much control did you have over the ball?</p>
  </div>","100","html-slider-response","41","456316","0.0-10.0-2.0","182","1","2025-07-09 09:13:17","7701e855f2ef39aa3fd6c71abdc6918a","78.145.195.194","Mozilla/5.0 (Windows NT 10.0; Win64; x64) AppleWebKit/537.36 (KHTML, like Gecko) Chrome/138.0.0.0 Safari/537.36","WebKit","Chrome","138.0.0.0","Windows","10.0","https://app.prolific.com/","en-US,en;q=0.9","5cab22cd68194f001511b2d6","686d226cabeef709c732f8e1","686e30f1b246e7c2a789cf0b","5cab22cd68194f001511b2d6","2025-07-09T09:21:32.739Z","","","","","","ControlQ","","","","","","","","","","","","","","","","","","","","","","","","","","","","","","","","","","","","","","50"
"4390","","<div style=""width:500px;"">
  <p>How would you describe your current emotional state?</p>
  </div>","3","html-slider-response","42","460709","0.0-10.0-3.0","182","1","2025-07-09 09:13:17","7701e855f2ef39aa3fd6c71abdc6918a","78.145.195.194","Mozilla/5.0 (Windows NT 10.0; Win64; x64) AppleWebKit/537.36 (KHTML, like Gecko) Chrome/138.0.0.0 Safari/537.36","WebKit","Chrome","138.0.0.0","Windows","10.0","https://app.prolific.com/","en-US,en;q=0.9","5cab22cd68194f001511b2d6","686d226cabeef709c732f8e1","686e30f1b246e7c2a789cf0b","5cab22cd68194f001511b2d6","2025-07-09T09:21:37.132Z","","","","","","StressQ","","","","","","","","","","","","","","","","","","","","","","","","","","","","","","","","","","","","","","50"
"3796","","<div style=""width:500px;"">
  <p>What best describes how you currently feel?</p>
  </div>","95","html-slider-response","43","464508","0.0-10.0-4.0","182","1","2025-07-09 09:13:17","7701e855f2ef39aa3fd6c71abdc6918a","78.145.195.194","Mozilla/5.0 (Windows NT 10.0; Win64; x64) AppleWebKit/537.36 (KHTML, like Gecko) Chrome/138.0.0.0 Safari/537.36","WebKit","Chrome","138.0.0.0","Windows","10.0","https://app.prolific.com/","en-US,en;q=0.9","5cab22cd68194f001511b2d6","686d226cabeef709c732f8e1","686e30f1b246e7c2a789cf0b","5cab22cd68194f001511b2d6","2025-07-09T09:21:40.931Z","","","","","","MotivationQ","","","","","","","","","","","","","","","","","","","","","","","","","","","","","","","","","","","","","","50"
"","","","","ctl-task-cpt","44","498636","0.0-10.0-0.1","182","1","2025-07-09 09:13:17","7701e855f2ef39aa3fd6c71abdc6918a","78.145.195.194","Mozilla/5.0 (Windows NT 10.0; Win64; x64) AppleWebKit/537.36 (KHTML, like Gecko) Chrome/138.0.0.0 Safari/537.36","WebKit","Chrome","138.0.0.0","Windows","10.0","https://app.prolific.com/","en-US,en;q=0.9","5cab22cd68194f001511b2d6","686d226cabeef709c732f8e1","686e30f1b246e7c2a789cf0b","5cab22cd68194f001511b2d6","2025-07-09T09:22:15.059Z","","","","","","","","","","","","","","","","win-only","0","g1:NW,g2:SE","0.9","2","0","475031.6","1525.5","6527.6","31099.3","1","4","4","6","2","4","4","5","1","0.03787878787878788","1133.3","3000","1255","[""down"",""right""]","{""num_key_presses"":8,""num_perfect"":7,""num_errors"":0,""num_randdir"":1,""num_randdir_good_moves"":0,""num_whilered"":0,""num_whileblue"":0,""num_blue"":1,""num_good_moves"":7}","[297.22232142857143,294.12857142857143,0.1,297.22232142857143,294.12857142857143,107.6,297.22232142857143,294.12857142857143,208.6,297.22232142857143,294.12857142857143,318.4,297.22232142857143,294.12857142857143,426.1,340.22232142857143,317.12857142857143,527.8,587.2223214285714,505.12857142857143,645.9,610.2223214285714,529.1285714285714,745.9,583.2223214285714,541.1285714285714,847,565.2223214285714,535.1285714285714,951,561.2223214285714,533.1285714285714,1055.8,561.2223214285714,533.1285714285714,1156.3,561.2223214285714,533.1285714285714,1263.4,561.2223214285714,533.1285714285714,1373.6,408.22232142857143,533.1285714285714,1484.3,206.22232142857143,471.12857142857143,1587,180.22232142857143,468.12857142857143,1708.9,180.22232142857143,468.12857142857143,1813.1,180.22232142857143,468.12857142857143,1923.7,180.22232142857143,468.12857142857143,2026.7,180.22232142857143,468.12857142857143,2129.8,180.22232142857143,468.12857142857143,2232.8,180.22232142857143,468.12857142857143,2339.1,180.22232142857143,468.12857142857143,2443.2,180.22232142857143,468.12857142857143,2546.3,180.22232142857143,468.12857142857143,2646.4,180.22232142857143,468.12857142857143,2752.3,180.22232142857143,468.12857142857143,2853.3,180.22232142857143,468.12857142857143,2955.4,180.22232142857143,468.12857142857143,3058.2,180.22232142857143,468.12857142857143,3163.1,180.22232142857143,468.12857142857143,3270.8,180.22232142857143,468.12857142857143,3376.6,180.22232142857143,468.12857142857143,3478.3,180.22232142857143,468.12857142857143,3579.5,180.22232142857143,468.12857142857143,3680.1,180.22232142857143,468.12857142857143,3787.2,180.22232142857143,468.12857142857143,3908.3,180.22232142857143,468.12857142857143,4015,180.22232142857143,468.12857142857143,4120.7,180.22232142857143,468.12857142857143,4223.8,180.22232142857143,468.12857142857143,4326.1,180.22232142857143,468.12857142857143,4429.7,180.22232142857143,468.12857142857143,4534.4,180.22232142857143,468.12857142857143,4637.6,180.22232142857143,468.12857142857143,4740.3,180.22232142857143,468.12857142857143,4846.2,180.22232142857143,468.12857142857143,4949.8]","[1423.8,1423.8,1000,0,423.8,""smooth"",""right"",""right"",""good_move"",4275.8,2849.9,2433.9,1425.9,416,""oops"",""right"",""left"",""bad_move"",10747.1,6470.8,2502.2,7848.4,396.5,""smooth"",""right"",""right"",""good_move"",13569.8,2814.6,2396.1,10755.3,418.5,""smooth"",""down"",""down"",""good_move"",16564.2,2978.7,2578.4,13585.9,399.9,""smooth"",""right"",""right"",""good_move"",19224.5,2658.7,2175.1,16565.8,483.6,""smooth"",""down"",""down"",""good_move"",21684.1,2435.1,1926.4,19249,508.7,""smooth"",""right"",""right"",""good_move"",24407.6,2722.1,2295.1,21685.7,426.9,""smooth"",""down"",""down"",""good_move""]","",""
"7269","","<div style=""width:500px;"">
  <p>What determined the result of this run?</p>
  </div>","94","html-slider-response","45","505914","0.0-10.0-1.1","182","1","2025-07-09 09:13:17","7701e855f2ef39aa3fd6c71abdc6918a","78.145.195.194","Mozilla/5.0 (Windows NT 10.0; Win64; x64) AppleWebKit/537.36 (KHTML, like Gecko) Chrome/138.0.0.0 Safari/537.36","WebKit","Chrome","138.0.0.0","Windows","10.0","https://app.prolific.com/","en-US,en;q=0.9","5cab22cd68194f001511b2d6","686d226cabeef709c732f8e1","686e30f1b246e7c2a789cf0b","5cab22cd68194f001511b2d6","2025-07-09T09:22:22.337Z","","","","","","AttribQ","","","","","","","","","","","","","","","","","","","","","","","","","","","","","","","","","","","","","","50"
"3177","","<div style=""width:500px;"">
  <p>How much control did you have over the ball?</p>
  </div>","96","html-slider-response","46","509096","0.0-10.0-2.1","182","1","2025-07-09 09:13:17","7701e855f2ef39aa3fd6c71abdc6918a","78.145.195.194","Mozilla/5.0 (Windows NT 10.0; Win64; x64) AppleWebKit/537.36 (KHTML, like Gecko) Chrome/138.0.0.0 Safari/537.36","WebKit","Chrome","138.0.0.0","Windows","10.0","https://app.prolific.com/","en-US,en;q=0.9","5cab22cd68194f001511b2d6","686d226cabeef709c732f8e1","686e30f1b246e7c2a789cf0b","5cab22cd68194f001511b2d6","2025-07-09T09:22:25.519Z","","","","","","ControlQ","","","","","","","","","","","","","","","","","","","","","","","","","","","","","","","","","","","","","","50"
"2933","","<div style=""width:500px;"">
  <p>How would you describe your current emotional state?</p>
  </div>","4","html-slider-response","47","512033","0.0-10.0-3.1","182","1","2025-07-09 09:13:17","7701e855f2ef39aa3fd6c71abdc6918a","78.145.195.194","Mozilla/5.0 (Windows NT 10.0; Win64; x64) AppleWebKit/537.36 (KHTML, like Gecko) Chrome/138.0.0.0 Safari/537.36","WebKit","Chrome","138.0.0.0","Windows","10.0","https://app.prolific.com/","en-US,en;q=0.9","5cab22cd68194f001511b2d6","686d226cabeef709c732f8e1","686e30f1b246e7c2a789cf0b","5cab22cd68194f001511b2d6","2025-07-09T09:22:28.456Z","","","","","","StressQ","","","","","","","","","","","","","","","","","","","","","","","","","","","","","","","","","","","","","","50"
"3102","","<div style=""width:500px;"">
  <p>What best describes how you currently feel?</p>
  </div>","96","html-slider-response","48","515141","0.0-10.0-4.1","182","1","2025-07-09 09:13:17","7701e855f2ef39aa3fd6c71abdc6918a","78.145.195.194","Mozilla/5.0 (Windows NT 10.0; Win64; x64) AppleWebKit/537.36 (KHTML, like Gecko) Chrome/138.0.0.0 Safari/537.36","WebKit","Chrome","138.0.0.0","Windows","10.0","https://app.prolific.com/","en-US,en;q=0.9","5cab22cd68194f001511b2d6","686d226cabeef709c732f8e1","686e30f1b246e7c2a789cf0b","5cab22cd68194f001511b2d6","2025-07-09T09:22:31.564Z","","","","","","MotivationQ","","","","","","","","","","","","","","","","","","","","","","","","","","","","","","","","","","","","","","50"
"","","","","ctl-task-cpt","49","545337","0.0-10.0-0.2","182","1","2025-07-09 09:13:17","7701e855f2ef39aa3fd6c71abdc6918a","78.145.195.194","Mozilla/5.0 (Windows NT 10.0; Win64; x64) AppleWebKit/537.36 (KHTML, like Gecko) Chrome/138.0.0.0 Safari/537.36","WebKit","Chrome","138.0.0.0","Windows","10.0","https://app.prolific.com/","en-US,en;q=0.9","5cab22cd68194f001511b2d6","686d226cabeef709c732f8e1","686e30f1b246e7c2a789cf0b","5cab22cd68194f001511b2d6","2025-07-09T09:23:01.760Z","","","","","","","","","","","","","","","","win-only","0","g1:NW,g2:SE","0.8","3","0","525666","2487.1","7497","27159.7","1","4","4","6","2","4","4","9","5","0.06818181818181818","1997.2","3000","1895","[""down"",""right""]","{""num_key_presses"":6,""num_perfect"":6,""num_errors"":0,""num_randdir"":0,""num_randdir_good_moves"":0,""num_whilered"":0,""num_whileblue"":0,""num_blue"":1,""num_good_moves"":6}","[296.22232142857143,297.12857142857143,0.5,296.22232142857143,297.12857142857143,106.7,296.22232142857143,297.12857142857143,211.5,296.22232142857143,297.12857142857143,320,307.22232142857143,299.12857142857143,435.4,444.22232142857143,438.12857142857143,553.2,518.2223214285714,521.1285714285714,664.1,550.2223214285714,534.1285714285714,773.7,552.2223214285714,528.1285714285714,879.1,477.22232142857143,493.12857142857143,988,81.22232142857143,139.12857142857143,1102.6,59.222321428571426,114.12857142857143,1209.3,60.222321428571426,110.12857142857143,1314.2,61.222321428571426,109.12857142857143,1417.8,128.22232142857143,146.12857142857143,1520.9,435.22232142857143,396.12857142857143,1624.6,567.2223214285714,512.1285714285714,1735.7,570.2223214285714,530.1285714285714,1836.1,571.2223214285714,534.1285714285714,1937.6,571.2223214285714,534.1285714285714,2048.4,571.2223214285714,534.1285714285714,2154.6,571.2223214285714,534.1285714285714,2261.1,539.2223214285714,448.12857142857143,2364.7,544.2223214285714,215.12857142857143,2480.9,571.2223214285714,151.12857142857143,2587.8,571.2223214285714,151.12857142857143,2689.6,571.2223214285714,151.12857142857143,2790.4,571.2223214285714,151.12857142857143,2902.1,571.2223214285714,151.12857142857143,3006,571.2223214285714,151.12857142857143,3114.3,571.2223214285714,151.12857142857143,3216.5,571.2223214285714,151.12857142857143,3321.7,571.2223214285714,151.12857142857143,3435.4,571.2223214285714,151.12857142857143,3544.9,571.2223214285714,151.12857142857143,3644.9,571.2223214285714,151.12857142857143,3772.8,571.2223214285714,151.12857142857143,3878.6,571.2223214285714,151.12857142857143,3981.9,571.2223214285714,151.12857142857143,4083.4,571.2223214285714,151.12857142857143,4190.1,571.2223214285714,151.12857142857143,4301.4,571.2223214285714,151.12857142857143,4406.5,571.2223214285714,151.12857142857143,4518.7,571.2223214285714,151.12857142857143,4624.5,571.2223214285714,151.12857142857143,4729.8,571.2223214285714,151.12857142857143,4834.2,571.2223214285714,151.12857142857143,4934.2]","[1551.6,1551.6,1000,0,551.6,""smooth"",""down"",""down"",""good_move"",4292.2,2734.3,2224.8,1557.9,509.5,""smooth"",""right"",""right"",""good_move"",10450,6157.2,2598.5,7430.9,420.6,""smooth"",""down"",""down"",""good_move"",13418.3,2968.1,2575.5,10450.2,392.6,""smooth"",""right"",""right"",""good_move"",16278,2859.6,2423.7,13418.4,436,""smooth"",""down"",""down"",""good_move"",19367.4,3089.2,2644.1,16278.2,445.1,""smooth"",""right"",""right"",""good_move""]","",""
"3711","","<div style=""width:500px;"">
  <p>What determined the result of this run?</p>
  </div>","100","html-slider-response","50","549053","0.0-10.0-1.2","182","1","2025-07-09 09:13:17","7701e855f2ef39aa3fd6c71abdc6918a","78.145.195.194","Mozilla/5.0 (Windows NT 10.0; Win64; x64) AppleWebKit/537.36 (KHTML, like Gecko) Chrome/138.0.0.0 Safari/537.36","WebKit","Chrome","138.0.0.0","Windows","10.0","https://app.prolific.com/","en-US,en;q=0.9","5cab22cd68194f001511b2d6","686d226cabeef709c732f8e1","686e30f1b246e7c2a789cf0b","5cab22cd68194f001511b2d6","2025-07-09T09:23:05.476Z","","","","","","AttribQ","","","","","","","","","","","","","","","","","","","","","","","","","","","","","","","","","","","","","","50"
"2487","","<div style=""width:500px;"">
  <p>How much control did you have over the ball?</p>
  </div>","100","html-slider-response","51","551544","0.0-10.0-2.2","182","1","2025-07-09 09:13:17","7701e855f2ef39aa3fd6c71abdc6918a","78.145.195.194","Mozilla/5.0 (Windows NT 10.0; Win64; x64) AppleWebKit/537.36 (KHTML, like Gecko) Chrome/138.0.0.0 Safari/537.36","WebKit","Chrome","138.0.0.0","Windows","10.0","https://app.prolific.com/","en-US,en;q=0.9","5cab22cd68194f001511b2d6","686d226cabeef709c732f8e1","686e30f1b246e7c2a789cf0b","5cab22cd68194f001511b2d6","2025-07-09T09:23:07.967Z","","","","","","ControlQ","","","","","","","","","","","","","","","","","","","","","","","","","","","","","","","","","","","","","","50"
"2927","","<div style=""width:500px;"">
  <p>How would you describe your current emotional state?</p>
  </div>","3","html-slider-response","52","554475","0.0-10.0-3.2","182","1","2025-07-09 09:13:17","7701e855f2ef39aa3fd6c71abdc6918a","78.145.195.194","Mozilla/5.0 (Windows NT 10.0; Win64; x64) AppleWebKit/537.36 (KHTML, like Gecko) Chrome/138.0.0.0 Safari/537.36","WebKit","Chrome","138.0.0.0","Windows","10.0","https://app.prolific.com/","en-US,en;q=0.9","5cab22cd68194f001511b2d6","686d226cabeef709c732f8e1","686e30f1b246e7c2a789cf0b","5cab22cd68194f001511b2d6","2025-07-09T09:23:10.899Z","","","","","","StressQ","","","","","","","","","","","","","","","","","","","","","","","","","","","","","","","","","","","","","","50"
"2788","","<div style=""width:500px;"">
  <p>What best describes how you currently feel?</p>
  </div>","96","html-slider-response","53","557270","0.0-10.0-4.2","182","1","2025-07-09 09:13:17","7701e855f2ef39aa3fd6c71abdc6918a","78.145.195.194","Mozilla/5.0 (Windows NT 10.0; Win64; x64) AppleWebKit/537.36 (KHTML, like Gecko) Chrome/138.0.0.0 Safari/537.36","WebKit","Chrome","138.0.0.0","Windows","10.0","https://app.prolific.com/","en-US,en;q=0.9","5cab22cd68194f001511b2d6","686d226cabeef709c732f8e1","686e30f1b246e7c2a789cf0b","5cab22cd68194f001511b2d6","2025-07-09T09:23:13.694Z","","","","","","MotivationQ","","","","","","","","","","","","","","","","","","","","","","","","","","","","","","","","","","","","","","50"
"","","","","ctl-task-cpt","54","580583","0.0-10.0-0.3","182","1","2025-07-09 09:13:17","7701e855f2ef39aa3fd6c71abdc6918a","78.145.195.194","Mozilla/5.0 (Windows NT 10.0; Win64; x64) AppleWebKit/537.36 (KHTML, like Gecko) Chrome/138.0.0.0 Safari/537.36","WebKit","Chrome","138.0.0.0","Windows","10.0","https://app.prolific.com/","en-US,en;q=0.9","5cab22cd68194f001511b2d6","686d226cabeef709c732f8e1","686e30f1b246e7c2a789cf0b","5cab22cd68194f001511b2d6","2025-07-09T09:23:37.007Z","","","","","","","","","","","","","","","","win-only","1","g1:NE,g2:SW","0.7","4","0","567825.1","1050.3","6056.6","20256.9","1","4","8","6","1","1","1","10","9","0.07575757575757576","2904","3000","2320","[""up"",""right""]","{""num_key_presses"":4,""num_perfect"":3,""num_errors"":0,""num_randdir"":1,""num_randdir_good_moves"":1,""num_whilered"":0,""num_whileblue"":0,""num_blue"":1,""num_good_moves"":4}","[295.22232142857143,301.12857142857143,2.4,295.22232142857143,301.12857142857143,117.9,295.22232142857143,301.12857142857143,223.9,295.22232142857143,301.12857142857143,328,295.22232142857143,301.12857142857143,428.3,295.22232142857143,301.12857142857143,529.9,295.22232142857143,301.12857142857143,643.7,295.22232142857143,301.12857142857143,750.4,318.22232142857143,310.12857142857143,854.2,355.22232142857143,363.12857142857143,957.3,359.22232142857143,396.12857142857143,1065.2,350.22232142857143,400.12857142857143,1177.2,338.22232142857143,352.12857142857143,1280,420.22232142857143,222.12857142857143,1388.5,539.2223214285714,107.12857142857143,1490.7,543.2223214285714,100.12857142857143,1597.5,543.2223214285714,100.12857142857143,1704.7,543.2223214285714,100.12857142857143,1814.1,543.2223214285714,100.12857142857143,1920.4,543.2223214285714,100.12857142857143,2021.6,543.2223214285714,100.12857142857143,2123.8,543.2223214285714,100.12857142857143,2230.4,553.2223214285714,100.12857142857143,2330.8,553.2223214285714,100.12857142857143,2431.3,553.2223214285714,100.12857142857143,2534.4,551.2223214285714,91.12857142857143,2636.6,547.2223214285714,85.12857142857143,2748.4,547.2223214285714,85.12857142857143,2862.1,547.2223214285714,85.12857142857143,2969.9,547.2223214285714,85.12857142857143,3076.8,547.2223214285714,85.12857142857143,3180.4,547.2223214285714,85.12857142857143,3286.3,547.2223214285714,85.12857142857143,3389.9,547.2223214285714,85.12857142857143,3498.4,547.2223214285714,85.12857142857143,3602,547.2223214285714,85.12857142857143,3710.4,547.2223214285714,85.12857142857143,3821.6,547.2223214285714,85.12857142857143,3935.8,547.2223214285714,85.12857142857143,4055.3,547.2223214285714,85.12857142857143,4162.2,547.2223214285714,85.12857142857143,4266.9,547.2223214285714,85.12857142857143,4370.5,547.2223214285714,85.12857142857143,4477.4,547.2223214285714,85.12857142857143,4582.7,547.2223214285714,85.12857142857143,4688.9,547.2223214285714,85.12857142857143,4798.4,547.2223214285714,85.12857142857143,4903.3]","[1447.9,1447.9,1000,0,448,""smooth"",""up"",""up"",""good_move"",4317.9,2868,2475.8,1449.9,392.2,""oops"",""right"",""up"",""good_move"",10899.4,6581.3,2653.4,7776.9,469.1,""smooth"",""right"",""right"",""good_move"",13979.4,3079.6,2634.4,10899.8,445.2,""smooth"",""right"",""right"",""good_move""]","",""
"4220","","<div style=""width:500px;"">
  <p>What determined the result of this run?</p>
  </div>","91","html-slider-response","55","584807","0.0-10.0-1.3","182","1","2025-07-09 09:13:17","7701e855f2ef39aa3fd6c71abdc6918a","78.145.195.194","Mozilla/5.0 (Windows NT 10.0; Win64; x64) AppleWebKit/537.36 (KHTML, like Gecko) Chrome/138.0.0.0 Safari/537.36","WebKit","Chrome","138.0.0.0","Windows","10.0","https://app.prolific.com/","en-US,en;q=0.9","5cab22cd68194f001511b2d6","686d226cabeef709c732f8e1","686e30f1b246e7c2a789cf0b","5cab22cd68194f001511b2d6","2025-07-09T09:23:41.230Z","","","","","","AttribQ","","","","","","","","","","","","","","","","","","","","","","","","","","","","","","","","","","","","","","50"
"3684","","<div style=""width:500px;"">
  <p>How much control did you have over the ball?</p>
  </div>","95","html-slider-response","56","588497","0.0-10.0-2.3","182","1","2025-07-09 09:13:17","7701e855f2ef39aa3fd6c71abdc6918a","78.145.195.194","Mozilla/5.0 (Windows NT 10.0; Win64; x64) AppleWebKit/537.36 (KHTML, like Gecko) Chrome/138.0.0.0 Safari/537.36","WebKit","Chrome","138.0.0.0","Windows","10.0","https://app.prolific.com/","en-US,en;q=0.9","5cab22cd68194f001511b2d6","686d226cabeef709c732f8e1","686e30f1b246e7c2a789cf0b","5cab22cd68194f001511b2d6","2025-07-09T09:23:44.920Z","","","","","","ControlQ","","","","","","","","","","","","","","","","","","","","","","","","","","","","","","","","","","","","","","50"
"3537","","<div style=""width:500px;"">
  <p>How would you describe your current emotional state?</p>
  </div>","3","html-slider-response","57","592039","0.0-10.0-3.3","182","1","2025-07-09 09:13:17","7701e855f2ef39aa3fd6c71abdc6918a","78.145.195.194","Mozilla/5.0 (Windows NT 10.0; Win64; x64) AppleWebKit/537.36 (KHTML, like Gecko) Chrome/138.0.0.0 Safari/537.36","WebKit","Chrome","138.0.0.0","Windows","10.0","https://app.prolific.com/","en-US,en;q=0.9","5cab22cd68194f001511b2d6","686d226cabeef709c732f8e1","686e30f1b246e7c2a789cf0b","5cab22cd68194f001511b2d6","2025-07-09T09:23:48.462Z","","","","","","StressQ","","","","","","","","","","","","","","","","","","","","","","","","","","","","","","","","","","","","","","50"
"2945","","<div style=""width:500px;"">
  <p>What best describes how you currently feel?</p>
  </div>","96","html-slider-response","58","594989","0.0-10.0-4.3","182","1","2025-07-09 09:13:17","7701e855f2ef39aa3fd6c71abdc6918a","78.145.195.194","Mozilla/5.0 (Windows NT 10.0; Win64; x64) AppleWebKit/537.36 (KHTML, like Gecko) Chrome/138.0.0.0 Safari/537.36","WebKit","Chrome","138.0.0.0","Windows","10.0","https://app.prolific.com/","en-US,en;q=0.9","5cab22cd68194f001511b2d6","686d226cabeef709c732f8e1","686e30f1b246e7c2a789cf0b","5cab22cd68194f001511b2d6","2025-07-09T09:23:51.412Z","","","","","","MotivationQ","","","","","","","","","","","","","","","","","","","","","","","","","","","","","","","","","","","","","","50"
"","","","","ctl-task-cpt","59","655859","0.0-10.0-0.4","182","1","2025-07-09 09:13:17","7701e855f2ef39aa3fd6c71abdc6918a","78.145.195.194","Mozilla/5.0 (Windows NT 10.0; Win64; x64) AppleWebKit/537.36 (KHTML, like Gecko) Chrome/138.0.0.0 Safari/537.36","WebKit","Chrome","138.0.0.0","Windows","10.0","https://app.prolific.com/","en-US,en;q=0.9","5cab22cd68194f001511b2d6","686d226cabeef709c732f8e1","686e30f1b246e7c2a789cf0b","5cab22cd68194f001511b2d6","2025-07-09T09:24:52.282Z","","","","","","","","","","","","","","","","win-only","3","g1:SW,g2:NE","0.6","5","0","605513.8","1091.3","6093.5","57829.4","1","4","8","6","2","8","8","18","10","0.13636363636363635","1606.7","3000","1855","[""up"",""right""]","{""num_key_presses"":10,""num_perfect"":6,""num_errors"":0,""num_randdir"":4,""num_randdir_good_moves"":2,""num_whilered"":0,""num_whileblue"":0,""num_blue"":6,""num_good_moves"":8}","[290.22232142857143,292.12857142857143,1.1,290.22232142857143,292.12857142857143,119,290.22232142857143,292.12857142857143,229.7,290.22232142857143,292.12857142857143,331.2,290.22232142857143,292.12857142857143,431.2,290.22232142857143,292.12857142857143,540.5,319.22232142857143,277.12857142857143,673.3,462.22232142857143,191.12857142857143,784.5,496.22232142857143,163.12857142857143,890.3,496.22232142857143,163.12857142857143,1016,509.22232142857143,139.12857142857143,1132.9,571.2223214285714,42.128571428571426,1257.3,571.2223214285714,42.128571428571426,1361.7,571.2223214285714,42.128571428571426,1475.1,571.2223214285714,42.128571428571426,1590.1,571.2223214285714,42.128571428571426,1705,576.2223214285714,39.128571428571426,1831.9,745.2223214285714,-10.871428571428574,1962.4,785.2223214285714,-4.871428571428574,2081.8,785.2223214285714,-4.871428571428574,2187.3,785.2223214285714,-4.871428571428574,2289.4,785.2223214285714,-4.871428571428574,2392.9,785.2223214285714,-4.871428571428574,2500.5,785.2223214285714,-4.871428571428574,2611.5,785.2223214285714,-4.871428571428574,2722.2,785.2223214285714,-4.871428571428574,2825.9,785.2223214285714,-4.871428571428574,2932.2,785.2223214285714,-4.871428571428574,3035.7,785.2223214285714,-4.871428571428574,3142.8,785.2223214285714,-4.871428571428574,3248,785.2223214285714,-4.871428571428574,3355.3,785.2223214285714,-4.871428571428574,3462.3,785.2223214285714,-4.871428571428574,3570.2,785.2223214285714,-4.871428571428574,3673,785.2223214285714,-4.871428571428574,3782,785.2223214285714,-4.871428571428574,3888.1,785.2223214285714,-4.871428571428574,3994.2,785.2223214285714,-4.871428571428574,4102.5,785.2223214285714,-4.871428571428574,4219.8,785.2223214285714,-4.871428571428574,4322.9,785.2223214285714,-4.871428571428574,4433.6,785.2223214285714,-4.871428571428574,4537.2,785.2223214285714,-4.871428571428574,4644.8,785.2223214285714,-4.871428571428574,4759.8,785.2223214285714,-4.871428571428574,4870.1,785.2223214285714,-4.871428571428574,4971.4]","[4445.6,4445.6,1922.1,2019.7,503.8,""oops"",""up"",""up"",""good_move"",8173.1,3725.3,3135.2,4447.8,590.1,""smooth"",""right"",""right"",""good_move"",13842.8,5667,2163.7,11238,441.1,""smooth"",""up"",""up"",""good_move"",20514,6669.1,1766.1,18220.4,527.5,""oops"",""right"",""left"",""bad_move"",31637.4,11121,2462.3,28672.8,502.4,""oops"",""up"",""right"",""good_move"",35126,3478.9,2935.3,31647.1,543.6,""oops"",""up"",""down"",""bad_move"",37760.9,2632.4,2151.9,35128.6,480.4,""smooth"",""up"",""up"",""good_move"",43753.4,5990.4,1514.3,41878.6,360.5,""smooth"",""right"",""right"",""good_move"",47103.9,3349.1,2835.6,43754.9,513.5,""smooth"",""up"",""up"",""good_move"",51283,4177.5,2193.6,47105.5,1983.9,""smooth"",""right"",""right"",""good_move""]","",""
"3819","","<div style=""width:500px;"">
  <p>What determined the result of this run?</p>
  </div>","90","html-slider-response","60","659682","0.0-10.0-1.4","182","1","2025-07-09 09:13:17","7701e855f2ef39aa3fd6c71abdc6918a","78.145.195.194","Mozilla/5.0 (Windows NT 10.0; Win64; x64) AppleWebKit/537.36 (KHTML, like Gecko) Chrome/138.0.0.0 Safari/537.36","WebKit","Chrome","138.0.0.0","Windows","10.0","https://app.prolific.com/","en-US,en;q=0.9","5cab22cd68194f001511b2d6","686d226cabeef709c732f8e1","686e30f1b246e7c2a789cf0b","5cab22cd68194f001511b2d6","2025-07-09T09:24:56.105Z","","","","","","AttribQ","","","","","","","","","","","","","","","","","","","","","","","","","","","","","","","","","","","","","","50"
"3264","","<div style=""width:500px;"">
  <p>How much control did you have over the ball?</p>
  </div>","91","html-slider-response","61","662953","0.0-10.0-2.4","182","1","2025-07-09 09:13:17","7701e855f2ef39aa3fd6c71abdc6918a","78.145.195.194","Mozilla/5.0 (Windows NT 10.0; Win64; x64) AppleWebKit/537.36 (KHTML, like Gecko) Chrome/138.0.0.0 Safari/537.36","WebKit","Chrome","138.0.0.0","Windows","10.0","https://app.prolific.com/","en-US,en;q=0.9","5cab22cd68194f001511b2d6","686d226cabeef709c732f8e1","686e30f1b246e7c2a789cf0b","5cab22cd68194f001511b2d6","2025-07-09T09:24:59.376Z","","","","","","ControlQ","","","","","","","","","","","","","","","","","","","","","","","","","","","","","","","","","","","","","","50"
"3017","","<div style=""width:500px;"">
  <p>How would you describe your current emotional state?</p>
  </div>","4","html-slider-response","62","665977","0.0-10.0-3.4","182","1","2025-07-09 09:13:17","7701e855f2ef39aa3fd6c71abdc6918a","78.145.195.194","Mozilla/5.0 (Windows NT 10.0; Win64; x64) AppleWebKit/537.36 (KHTML, like Gecko) Chrome/138.0.0.0 Safari/537.36","WebKit","Chrome","138.0.0.0","Windows","10.0","https://app.prolific.com/","en-US,en;q=0.9","5cab22cd68194f001511b2d6","686d226cabeef709c732f8e1","686e30f1b246e7c2a789cf0b","5cab22cd68194f001511b2d6","2025-07-09T09:25:02.400Z","","","","","","StressQ","","","","","","","","","","","","","","","","","","","","","","","","","","","","","","","","","","","","","","50"
"2719","","<div style=""width:500px;"">
  <p>What best describes how you currently feel?</p>
  </div>","98","html-slider-response","63","668704","0.0-10.0-4.4","182","1","2025-07-09 09:13:17","7701e855f2ef39aa3fd6c71abdc6918a","78.145.195.194","Mozilla/5.0 (Windows NT 10.0; Win64; x64) AppleWebKit/537.36 (KHTML, like Gecko) Chrome/138.0.0.0 Safari/537.36","WebKit","Chrome","138.0.0.0","Windows","10.0","https://app.prolific.com/","en-US,en;q=0.9","5cab22cd68194f001511b2d6","686d226cabeef709c732f8e1","686e30f1b246e7c2a789cf0b","5cab22cd68194f001511b2d6","2025-07-09T09:25:05.127Z","","","","","","MotivationQ","","","","","","","","","","","","","","","","","","","","","","","","","","","","","","","","","","","","","","50"
"","","","","ctl-task-cpt","64","693238","0.0-10.0-0.5","182","1","2025-07-09 09:13:17","7701e855f2ef39aa3fd6c71abdc6918a","78.145.195.194","Mozilla/5.0 (Windows NT 10.0; Win64; x64) AppleWebKit/537.36 (KHTML, like Gecko) Chrome/138.0.0.0 Safari/537.36","WebKit","Chrome","138.0.0.0","Windows","10.0","https://app.prolific.com/","en-US,en;q=0.9","5cab22cd68194f001511b2d6","686d226cabeef709c732f8e1","686e30f1b246e7c2a789cf0b","5cab22cd68194f001511b2d6","2025-07-09T09:25:29.661Z","","","","","","","","","","","","","","","","win-only","1","g1:NE,g2:SW","0.5","6","0","679230.7","963.1","5977.9","21505.4","1","4","4","6","1","1","1","19","18","0.14393939393939395","1246.3","3000","2555","[""up"",""right""]","{""num_key_presses"":4,""num_perfect"":1,""num_errors"":0,""num_randdir"":3,""num_randdir_good_moves"":3,""num_whilered"":0,""num_whileblue"":0,""num_blue"":1,""num_good_moves"":4}","[292.22232142857143,301.12857142857143,0.6,292.22232142857143,301.12857142857143,112.8,292.22232142857143,301.12857142857143,217.4,292.22232142857143,301.12857142857143,343,292.22232142857143,301.12857142857143,467.3,292.22232142857143,301.12857142857143,597.4,518.2223214285714,127.12857142857143,746.6,590.2223214285714,75.12857142857143,864.9,590.2223214285714,61.128571428571426,982,566.2223214285714,59.128571428571426,1108,563.2223214285714,61.128571428571426,1212.8,563.2223214285714,61.128571428571426,1315.4,563.2223214285714,61.128571428571426,1424.9,537.2223214285714,72.12857142857143,1529.8,414.22232142857143,107.12857142857143,1647.4,329.22232142857143,51.128571428571426,1756.6,329.22232142857143,51.128571428571426,1883,329.22232142857143,51.128571428571426,2006.8,329.22232142857143,51.128571428571426,2108.2,329.22232142857143,51.128571428571426,2239.9,329.22232142857143,51.128571428571426,2353.1,329.22232142857143,51.128571428571426,2463.9,329.22232142857143,51.128571428571426,2596.4,329.22232142857143,51.128571428571426,2700.5,329.22232142857143,51.128571428571426,2804.2,329.22232142857143,51.128571428571426,2921.2,329.22232142857143,51.128571428571426,3028.7,329.22232142857143,51.128571428571426,3148.2,329.22232142857143,51.128571428571426,3256.5,329.22232142857143,51.128571428571426,3367.5,329.22232142857143,51.128571428571426,3473.9,329.22232142857143,51.128571428571426,3587.5,329.22232142857143,51.128571428571426,3702.9,329.22232142857143,51.128571428571426,3807.3,329.22232142857143,51.128571428571426,3912.3,329.22232142857143,51.128571428571426,4026.1,329.22232142857143,51.128571428571426,4130.7,329.22232142857143,51.128571428571426,4262.1,329.22232142857143,51.128571428571426,4365.4,329.22232142857143,51.128571428571426,4471.5,329.22232142857143,51.128571428571426,4574.4,329.22232142857143,51.128571428571426,4679.9,329.22232142857143,51.128571428571426,4793.6,329.22232142857143,51.128571428571426,4901.9]","[1446.9,1446.9,1000,0,446.9,""oops"",""up"",""right"",""good_move"",8197.4,6749.1,3046.5,4682.1,468.8,""oops"",""up"",""up"",""good_move"",11592.7,3393.6,2595.1,8199.1,798.5,""smooth"",""up"",""up"",""good_move"",15263.3,3669.1,2865.6,11594.3,803.5,""oops"",""right"",""right"",""good_move""]","",""
"4524","","<div style=""width:500px;"">
  <p>What determined the result of this run?</p>
  </div>","93","html-slider-response","65","697766","0.0-10.0-1.5","182","1","2025-07-09 09:13:17","7701e855f2ef39aa3fd6c71abdc6918a","78.145.195.194","Mozilla/5.0 (Windows NT 10.0; Win64; x64) AppleWebKit/537.36 (KHTML, like Gecko) Chrome/138.0.0.0 Safari/537.36","WebKit","Chrome","138.0.0.0","Windows","10.0","https://app.prolific.com/","en-US,en;q=0.9","5cab22cd68194f001511b2d6","686d226cabeef709c732f8e1","686e30f1b246e7c2a789cf0b","5cab22cd68194f001511b2d6","2025-07-09T09:25:34.189Z","","","","","","AttribQ","","","","","","","","","","","","","","","","","","","","","","","","","","","","","","","","","","","","","","50"
"2678","","<div style=""width:500px;"">
  <p>How much control did you have over the ball?</p>
  </div>","94","html-slider-response","66","700450","0.0-10.0-2.5","182","1","2025-07-09 09:13:17","7701e855f2ef39aa3fd6c71abdc6918a","78.145.195.194","Mozilla/5.0 (Windows NT 10.0; Win64; x64) AppleWebKit/537.36 (KHTML, like Gecko) Chrome/138.0.0.0 Safari/537.36","WebKit","Chrome","138.0.0.0","Windows","10.0","https://app.prolific.com/","en-US,en;q=0.9","5cab22cd68194f001511b2d6","686d226cabeef709c732f8e1","686e30f1b246e7c2a789cf0b","5cab22cd68194f001511b2d6","2025-07-09T09:25:36.873Z","","","","","","ControlQ","","","","","","","","","","","","","","","","","","","","","","","","","","","","","","","","","","","","","","50"
"3677","","<div style=""width:500px;"">
  <p>How would you describe your current emotional state?</p>
  </div>","4","html-slider-response","67","704134","0.0-10.0-3.5","182","1","2025-07-09 09:13:17","7701e855f2ef39aa3fd6c71abdc6918a","78.145.195.194","Mozilla/5.0 (Windows NT 10.0; Win64; x64) AppleWebKit/537.36 (KHTML, like Gecko) Chrome/138.0.0.0 Safari/537.36","WebKit","Chrome","138.0.0.0","Windows","10.0","https://app.prolific.com/","en-US,en;q=0.9","5cab22cd68194f001511b2d6","686d226cabeef709c732f8e1","686e30f1b246e7c2a789cf0b","5cab22cd68194f001511b2d6","2025-07-09T09:25:40.557Z","","","","","","StressQ","","","","","","","","","","","","","","","","","","","","","","","","","","","","","","","","","","","","","","50"
"2694","","<div style=""width:500px;"">
  <p>What best describes how you currently feel?</p>
  </div>","96","html-slider-response","68","706834","0.0-10.0-4.5","182","1","2025-07-09 09:13:17","7701e855f2ef39aa3fd6c71abdc6918a","78.145.195.194","Mozilla/5.0 (Windows NT 10.0; Win64; x64) AppleWebKit/537.36 (KHTML, like Gecko) Chrome/138.0.0.0 Safari/537.36","WebKit","Chrome","138.0.0.0","Windows","10.0","https://app.prolific.com/","en-US,en;q=0.9","5cab22cd68194f001511b2d6","686d226cabeef709c732f8e1","686e30f1b246e7c2a789cf0b","5cab22cd68194f001511b2d6","2025-07-09T09:25:43.257Z","","","","","","MotivationQ","","","","","","","","","","","","","","","","","","","","","","","","","","","","","","","","","","","","","","50"
"","","","","ctl-task-cpt","69","841932","0.0-10.0-0.6","182","1","2025-07-09 09:13:17","7701e855f2ef39aa3fd6c71abdc6918a","78.145.195.194","Mozilla/5.0 (Windows NT 10.0; Win64; x64) AppleWebKit/537.36 (KHTML, like Gecko) Chrome/138.0.0.0 Safari/537.36","WebKit","Chrome","138.0.0.0","Windows","10.0","https://app.prolific.com/","en-US,en;q=0.9","5cab22cd68194f001511b2d6","686d226cabeef709c732f8e1","686e30f1b246e7c2a789cf0b","5cab22cd68194f001511b2d6","2025-07-09T09:27:58.355Z","","","","","","","","","","","","","","","","win-only","3","g1:SW,g2:NE","0.4","7","0","717357.4","1040.6","6054.4","132053.4","1","4","8","6","2","8","7","26","19","0.19696969696969696","1056.7","3000","1295","[""up"",""right""]","{""num_key_presses"":24,""num_perfect"":9,""num_errors"":1,""num_randdir"":14,""num_randdir_good_moves"":6,""num_whilered"":0,""num_whileblue"":1,""num_blue"":6,""num_good_moves"":15}","[293.22232142857143,299.12857142857143,2.4,293.22232142857143,299.12857142857143,119.9,293.22232142857143,299.12857142857143,221.2,293.22232142857143,299.12857142857143,326.3,293.22232142857143,299.12857142857143,432.5,363.22232142857143,238.12857142857143,553.4,586.2223214285714,66.12857142857143,667.3,606.2223214285714,48.128571428571426,782.3,576.2223214285714,56.128571428571426,907.2,555.2223214285714,61.128571428571426,1026.8,555.2223214285714,61.128571428571426,1135.3,555.2223214285714,61.128571428571426,1236.3,514.2223214285714,85.12857142857143,1356.3,285.22232142857143,137.12857142857143,1469.8,136.22232142857143,201.12857142857143,1587.1,136.22232142857143,201.12857142857143,1703.9,136.22232142857143,201.12857142857143,1814.7,136.22232142857143,201.12857142857143,1919.8,136.22232142857143,201.12857142857143,2020.3,136.22232142857143,201.12857142857143,2141.6,136.22232142857143,201.12857142857143,2248.1,136.22232142857143,201.12857142857143,2367.5,136.22232142857143,201.12857142857143,2486.8,136.22232142857143,201.12857142857143,2604.5,136.22232142857143,201.12857142857143,2727.8,136.22232142857143,201.12857142857143,2867.4,136.22232142857143,201.12857142857143,2991.8,136.22232142857143,201.12857142857143,3104.4,136.22232142857143,201.12857142857143,3210.6,136.22232142857143,201.12857142857143,3319.4,136.22232142857143,201.12857142857143,3446.2,136.22232142857143,201.12857142857143,3547,136.22232142857143,201.12857142857143,3666.7,136.22232142857143,201.12857142857143,3784,136.22232142857143,201.12857142857143,3899.1,136.22232142857143,201.12857142857143,4007.1,136.22232142857143,201.12857142857143,4124.6,136.22232142857143,201.12857142857143,4241.2,136.22232142857143,201.12857142857143,4360.1,136.22232142857143,201.12857142857143,4480.5,136.22232142857143,201.12857142857143,4596.1,136.22232142857143,201.12857142857143,4714.7,136.22232142857143,201.12857142857143,4829.9,136.22232142857143,201.12857142857143,4939.5]","[1456.3,1456.3,1000,0,456.3,""oops"",""right"",""up"",""good_move"",6370.1,4912.5,2489.1,1457.6,2423.4,""oops"",""right"",""down"",""bad_move"",16749.7,10379.2,2018.2,14327.6,404,""smooth"",""right"",""right"",""good_move"",20025.6,3274.3,2718.2,16751.3,556.1,""smooth"",""up"",""up"",""good_move"",26781.5,6754.5,2767.1,20027.1,3987.4,""oops"",""right"",""left"",""bad_move"",33810.4,7027.5,2418.5,26782.9,4609,""smooth"",""up"",""up"",""good_move"",41244.5,7433.2,1904.8,33811.3,5528.4,""oops"",""right"",""up"",""good_move"",48739.9,7494.2,2778,41245.7,4716.2,""oops"",""right"",""down"",""bad_move"",53606.3,4865.4,2928,48740.9,1937.4,""oops"",""right"",""up"",""good_move"",62267.8,8659.9,3291.9,53608,5367.9,""smooth"",""right"",""right"",""good_move"",68688.1,6419.4,1972.1,66249.5,466.5,""oops"",""right"",""right"",""good_move"",71777.3,3087.6,2333.9,68689.7,753.7,""oops"",""right"",""down"",""bad_move"",75386.2,3605.3,3100.8,71780.9,504.5,""oops"",""right"",""left"",""bad_move"",79798,4410.4,2400.2,75387.7,2010.1,""oops"",""right"",""down"",""bad_move"",82734,2933.5,2469.5,79800.6,463.9,""oops"",""right"",""left"",""bad_move"",87682.1,4946.4,4583.9,82735.8,362.4,""while_blue"",""up"",""left"",""bad_move"",93749.7,6066,3168.4,87683.7,2897.6,""oops"",""up"",""up"",""good_move"",99991.2,6240.1,2712.4,93751.1,3527.7,""smooth"",""right"",""right"",""good_move"",102085.6,2092.6,1496.4,99993,596.2,""smooth"",""right"",""right"",""good_move"",107998.2,5910.9,2253.5,105228.8,515.9,""smooth"",""right"",""right"",""good_move"",111780.5,3780.5,3118.5,108000,662,""smooth"",""right"",""right"",""good_move"",115362.6,3579.3,3165.2,111783.4,414,""oops"",""up"",""down"",""bad_move"",117822.4,2458.4,1824.8,115364.1,633.6,""smooth"",""up"",""up"",""good_move"",125721,7897.1,3000.1,122254.4,466.5,""oops"",""up"",""up"",""good_move""]","",""
"3622","","<div style=""width:500px;"">
  <p>What determined the result of this run?</p>
  </div>","64","html-slider-response","70","845557","0.0-10.0-1.6","182","1","2025-07-09 09:13:17","7701e855f2ef39aa3fd6c71abdc6918a","78.145.195.194","Mozilla/5.0 (Windows NT 10.0; Win64; x64) AppleWebKit/537.36 (KHTML, like Gecko) Chrome/138.0.0.0 Safari/537.36","WebKit","Chrome","138.0.0.0","Windows","10.0","https://app.prolific.com/","en-US,en;q=0.9","5cab22cd68194f001511b2d6","686d226cabeef709c732f8e1","686e30f1b246e7c2a789cf0b","5cab22cd68194f001511b2d6","2025-07-09T09:28:01.980Z","","","","","","AttribQ","","","","","","","","","","","","","","","","","","","","","","","","","","","","","","","","","","","","","","50"
"2846","","<div style=""width:500px;"">
  <p>How much control did you have over the ball?</p>
  </div>","64","html-slider-response","71","848407","0.0-10.0-2.6","182","1","2025-07-09 09:13:17","7701e855f2ef39aa3fd6c71abdc6918a","78.145.195.194","Mozilla/5.0 (Windows NT 10.0; Win64; x64) AppleWebKit/537.36 (KHTML, like Gecko) Chrome/138.0.0.0 Safari/537.36","WebKit","Chrome","138.0.0.0","Windows","10.0","https://app.prolific.com/","en-US,en;q=0.9","5cab22cd68194f001511b2d6","686d226cabeef709c732f8e1","686e30f1b246e7c2a789cf0b","5cab22cd68194f001511b2d6","2025-07-09T09:28:04.830Z","","","","","","ControlQ","","","","","","","","","","","","","","","","","","","","","","","","","","","","","","","","","","","","","","50"
"2764","","<div style=""width:500px;"">
  <p>How would you describe your current emotional state?</p>
  </div>","6","html-slider-response","72","851175","0.0-10.0-3.6","182","1","2025-07-09 09:13:17","7701e855f2ef39aa3fd6c71abdc6918a","78.145.195.194","Mozilla/5.0 (Windows NT 10.0; Win64; x64) AppleWebKit/537.36 (KHTML, like Gecko) Chrome/138.0.0.0 Safari/537.36","WebKit","Chrome","138.0.0.0","Windows","10.0","https://app.prolific.com/","en-US,en;q=0.9","5cab22cd68194f001511b2d6","686d226cabeef709c732f8e1","686e30f1b246e7c2a789cf0b","5cab22cd68194f001511b2d6","2025-07-09T09:28:07.598Z","","","","","","StressQ","","","","","","","","","","","","","","","","","","","","","","","","","","","","","","","","","","","","","","50"
"3529","","<div style=""width:500px;"">
  <p>What best describes how you currently feel?</p>
  </div>","96","html-slider-response","73","854708","0.0-10.0-4.6","182","1","2025-07-09 09:13:17","7701e855f2ef39aa3fd6c71abdc6918a","78.145.195.194","Mozilla/5.0 (Windows NT 10.0; Win64; x64) AppleWebKit/537.36 (KHTML, like Gecko) Chrome/138.0.0.0 Safari/537.36","WebKit","Chrome","138.0.0.0","Windows","10.0","https://app.prolific.com/","en-US,en;q=0.9","5cab22cd68194f001511b2d6","686d226cabeef709c732f8e1","686e30f1b246e7c2a789cf0b","5cab22cd68194f001511b2d6","2025-07-09T09:28:11.132Z","","","","","","MotivationQ","","","","","","","","","","","","","","","","","","","","","","","","","","","","","","","","","","","","","","50"
"","","","","ctl-task-cpt","74","1038536","0.0-10.0-0.7","182","1","2025-07-09 09:13:17","7701e855f2ef39aa3fd6c71abdc6918a","78.145.195.194","Mozilla/5.0 (Windows NT 10.0; Win64; x64) AppleWebKit/537.36 (KHTML, like Gecko) Chrome/138.0.0.0 Safari/537.36","WebKit","Chrome","138.0.0.0","Windows","10.0","https://app.prolific.com/","en-US,en;q=0.9","5cab22cd68194f001511b2d6","686d226cabeef709c732f8e1","686e30f1b246e7c2a789cf0b","5cab22cd68194f001511b2d6","2025-07-09T09:31:14.960Z","","","","","","","","","","","","","","","","win-only","0","g1:NW,g2:SE","0.3","8","0","865232.6","2119.7","7160.5","180798.7","1","4","4","6","1","-1","-1","25","26","0.1893939393939394","2181.6","3000","-720","[""left"",""up""]","{""num_key_presses"":35,""num_perfect"":11,""num_errors"":0,""num_randdir"":24,""num_randdir_good_moves"":8,""num_whilered"":0,""num_whileblue"":0,""num_blue"":8,""num_good_moves"":19}","[294.22232142857143,299.12857142857143,1.9,294.22232142857143,299.12857142857143,110.4,294.22232142857143,299.12857142857143,254.1,294.22232142857143,299.12857142857143,360,294.22232142857143,299.12857142857143,473,294.22232142857143,299.12857142857143,603.7,294.22232142857143,299.12857142857143,715.1,389.22232142857143,367.12857142857143,838.5,301.22232142857143,302.12857142857143,967.2,32.222321428571426,89.12857142857143,1068.8,6.222321428571426,46.128571428571426,1199,21.222321428571426,35.128571428571426,1312.7,35.222321428571426,47.128571428571426,1437.2,81.22232142857143,101.12857142857143,1579.9,343.22232142857143,297.12857142857143,1716.6,125.22232142857143,152.12857142857143,1848.1,49.222321428571426,72.12857142857143,1978.3,49.222321428571426,70.12857142857143,2097.8,50.222321428571426,63.128571428571426,2205.1,50.222321428571426,63.128571428571426,2331.3,50.222321428571426,63.128571428571426,2448.8,50.222321428571426,63.128571428571426,2562.5,50.222321428571426,63.128571428571426,2672.9,50.222321428571426,63.128571428571426,2789.5,50.222321428571426,63.128571428571426,2901.5,50.222321428571426,63.128571428571426,3013.2,50.222321428571426,63.128571428571426,3132.3,50.222321428571426,63.128571428571426,3246.6,50.222321428571426,63.128571428571426,3358.5,50.222321428571426,63.128571428571426,3474.5,50.222321428571426,63.128571428571426,3594.5,50.222321428571426,63.128571428571426,3704.9,50.222321428571426,63.128571428571426,3806.1,50.222321428571426,63.128571428571426,3913.3,50.222321428571426,63.128571428571426,4024,50.222321428571426,63.128571428571426,4132.5,50.222321428571426,63.128571428571426,4255.4,50.222321428571426,63.128571428571426,4362.6,50.222321428571426,63.128571428571426,4466.6,50.222321428571426,63.128571428571426,4572.8,50.222321428571426,63.128571428571426,4688.8,50.222321428571426,63.128571428571426,4793.1,50.222321428571426,63.128571428571426,4902.4]","[1452.5,1452.5,1000,0,452.5,""oops"",""up"",""left"",""good_move"",5312.6,3855.6,2370.8,1457,1484.8,""smooth"",""up"",""up"",""good_move"",9005.2,3679.6,2402.9,5325.7,1276.6,""oops"",""up"",""right"",""bad_move"",15514.4,6507.2,2932.6,12152.3,429.7,""oops"",""left"",""right"",""bad_move"",18691.8,3173.3,2659,15518.6,514.2,""smooth"",""left"",""left"",""good_move"",23590.5,4896.5,2869.9,18694.1,2026.5,""oops"",""left"",""right"",""bad_move"",27040.8,3447,2900.9,23593.8,546.1,""oops"",""left"",""down"",""bad_move"",30486.1,3442.5,2997,27043.6,445.6,""smooth"",""left"",""left"",""good_move"",36854.8,6366.9,2997.4,30487.9,3369.5,""oops"",""left"",""up"",""good_move"",47401.2,10538,2722.5,44260.4,418.3,""oops"",""left"",""down"",""bad_move"",58236.5,10834.3,2909.2,54892.3,435,""smooth"",""left"",""left"",""good_move"",66560.9,8323.5,2554.7,63545.1,461.1,""oops"",""left"",""down"",""bad_move"",69764.7,3202.6,1775.9,66562.1,1426.7,""oops"",""up"",""right"",""bad_move"",72719.3,2952.5,2472.7,69766.8,479.8,""smooth"",""up"",""up"",""good_move"",79301.3,6580.7,1769.1,72720.7,4811.5,""smooth"",""up"",""up"",""good_move"",85978.4,6674.8,3420.1,79303.6,3254.7,""oops"",""up"",""down"",""bad_move"",92633.5,6645,2920.6,89237.6,475.3,""oops"",""up"",""up"",""good_move"",103163.3,10528.7,2150.3,100595.5,417.5,""oops"",""up"",""down"",""bad_move"",106682.6,3518.2,2939.8,103164.5,578.4,""oops"",""left"",""right"",""bad_move"",109595.6,2911.6,2427.7,106684,483.9,""oops"",""left"",""left"",""good_move"",113952.5,4355.1,2027.8,109597.4,2327.3,""oops"",""left"",""down"",""bad_move"",117030.4,3074.9,2530.5,113955.7,544.3,""oops"",""left"",""right"",""bad_move"",120864.8,3825.5,3470.3,117039.3,355.2,""oops"",""up"",""down"",""bad_move"",126859.6,5993.4,2708.6,123762.5,388.5,""oops"",""left"",""down"",""bad_move"",129845.6,2984.8,2556.5,126860.9,428.2,""smooth"",""left"",""left"",""good_move"",134866.8,5019.8,2777.2,129847.1,2242.6,""oops"",""left"",""left"",""good_move"",138394.2,3525.5,1811.3,134868.8,1714.2,""oops"",""left"",""up"",""good_move"",142469.3,4073.7,1869.8,138395.7,2203.9,""oops"",""up"",""left"",""good_move"",147238.5,4767,2662.1,142471.6,2104.9,""smooth"",""up"",""up"",""good_move"",152449.4,5209.4,2354.2,147240,2855.2,""smooth"",""up"",""up"",""good_move"",156640.5,4189.1,2248.9,152451.5,1940.1,""oops"",""up"",""up"",""good_move"",161184.8,4540.7,2927.1,156644.2,1613.5,""oops"",""up"",""down"",""bad_move"",164341,3148.9,2685.8,161192.1,463.1,""oops"",""up"",""right"",""bad_move"",166858.7,2515.3,2057.7,164343.4,457.6,""smooth"",""up"",""up"",""good_move"",170368,3507.6,2614.4,166860.4,893.2,""smooth"",""up"",""up"",""good_move""]","",""
"4747","","<div style=""width:500px;"">
  <p>What determined the result of this run?</p>
  </div>","5","html-slider-response","75","1043287","0.0-10.0-1.7","182","1","2025-07-09 09:13:17","7701e855f2ef39aa3fd6c71abdc6918a","78.145.195.194","Mozilla/5.0 (Windows NT 10.0; Win64; x64) AppleWebKit/537.36 (KHTML, like Gecko) Chrome/138.0.0.0 Safari/537.36","WebKit","Chrome","138.0.0.0","Windows","10.0","https://app.prolific.com/","en-US,en;q=0.9","5cab22cd68194f001511b2d6","686d226cabeef709c732f8e1","686e30f1b246e7c2a789cf0b","5cab22cd68194f001511b2d6","2025-07-09T09:31:19.710Z","","","","","","AttribQ","","","","","","","","","","","","","","","","","","","","","","","","","","","","","","","","","","","","","","50"
"2681","","<div style=""width:500px;"">
  <p>How much control did you have over the ball?</p>
  </div>","5","html-slider-response","76","1045972","0.0-10.0-2.7","182","1","2025-07-09 09:13:17","7701e855f2ef39aa3fd6c71abdc6918a","78.145.195.194","Mozilla/5.0 (Windows NT 10.0; Win64; x64) AppleWebKit/537.36 (KHTML, like Gecko) Chrome/138.0.0.0 Safari/537.36","WebKit","Chrome","138.0.0.0","Windows","10.0","https://app.prolific.com/","en-US,en;q=0.9","5cab22cd68194f001511b2d6","686d226cabeef709c732f8e1","686e30f1b246e7c2a789cf0b","5cab22cd68194f001511b2d6","2025-07-09T09:31:22.395Z","","","","","","ControlQ","","","","","","","","","","","","","","","","","","","","","","","","","","","","","","","","","","","","","","50"
"3250","","<div style=""width:500px;"">
  <p>How would you describe your current emotional state?</p>
  </div>","9","html-slider-response","77","1049229","0.0-10.0-3.7","182","1","2025-07-09 09:13:17","7701e855f2ef39aa3fd6c71abdc6918a","78.145.195.194","Mozilla/5.0 (Windows NT 10.0; Win64; x64) AppleWebKit/537.36 (KHTML, like Gecko) Chrome/138.0.0.0 Safari/537.36","WebKit","Chrome","138.0.0.0","Windows","10.0","https://app.prolific.com/","en-US,en;q=0.9","5cab22cd68194f001511b2d6","686d226cabeef709c732f8e1","686e30f1b246e7c2a789cf0b","5cab22cd68194f001511b2d6","2025-07-09T09:31:25.653Z","","","","","","StressQ","","","","","","","","","","","","","","","","","","","","","","","","","","","","","","","","","","","","","","50"
"2905","","<div style=""width:500px;"">
  <p>What best describes how you currently feel?</p>
  </div>","97","html-slider-response","78","1052139","0.0-10.0-4.7","182","1","2025-07-09 09:13:17","7701e855f2ef39aa3fd6c71abdc6918a","78.145.195.194","Mozilla/5.0 (Windows NT 10.0; Win64; x64) AppleWebKit/537.36 (KHTML, like Gecko) Chrome/138.0.0.0 Safari/537.36","WebKit","Chrome","138.0.0.0","Windows","10.0","https://app.prolific.com/","en-US,en;q=0.9","5cab22cd68194f001511b2d6","686d226cabeef709c732f8e1","686e30f1b246e7c2a789cf0b","5cab22cd68194f001511b2d6","2025-07-09T09:31:28.563Z","","","","","","MotivationQ","","","","","","","","","","","","","","","","","","","","","","","","","","","","","","","","","","","","","","50"
"","","","","ctl-task-cpt","79","1102704","0.0-10.0-0.8","182","1","2025-07-09 09:13:17","7701e855f2ef39aa3fd6c71abdc6918a","78.145.195.194","Mozilla/5.0 (Windows NT 10.0; Win64; x64) AppleWebKit/537.36 (KHTML, like Gecko) Chrome/138.0.0.0 Safari/537.36","WebKit","Chrome","138.0.0.0","Windows","10.0","https://app.prolific.com/","en-US,en;q=0.9","5cab22cd68194f001511b2d6","686d226cabeef709c732f8e1","686e30f1b246e7c2a789cf0b","5cab22cd68194f001511b2d6","2025-07-09T09:32:19.127Z","","","","","","","","","","","","","","","","win-only","3","g1:SW,g2:NE","0.2","9","0","1062667.3","1249","6274.4","47485.5","1","4","4","6","1","1","0","25","25","0.1893939393939394","1647.6","3000","2745","[""down"",""left""]","{""num_key_presses"":6,""num_perfect"":1,""num_errors"":1,""num_randdir"":4,""num_randdir_good_moves"":3,""num_whilered"":0,""num_whileblue"":1,""num_blue"":3,""num_good_moves"":5}","[297.22232142857143,299.12857142857143,2.6,297.22232142857143,299.12857142857143,123.1,297.22232142857143,299.12857142857143,248.3,297.22232142857143,299.12857142857143,365.8,297.22232142857143,299.12857142857143,490.4,297.22232142857143,299.12857142857143,621.9,297.22232142857143,299.12857142857143,755.5,364.22232142857143,226.12857142857143,866.4,427.22232142857143,198.12857142857143,1013.5,170.22232142857143,491.12857142857143,1115.7,15.222321428571426,614.1285714285714,1272.4,1.2223214285714263,609.1285714285714,1416.3,56.222321428571426,527.1285714285714,1553.8,60.222321428571426,525.1285714285714,1695,60.222321428571426,525.1285714285714,1815.6,60.222321428571426,525.1285714285714,1928.2,60.222321428571426,525.1285714285714,2037.7,60.222321428571426,525.1285714285714,2166.3,60.222321428571426,525.1285714285714,2275.2,60.222321428571426,525.1285714285714,2383.2,60.222321428571426,525.1285714285714,2490.8,60.222321428571426,525.1285714285714,2602.5,60.222321428571426,525.1285714285714,2708.9,60.222321428571426,525.1285714285714,2820.8,60.222321428571426,525.1285714285714,2928,60.222321428571426,525.1285714285714,3039.3,60.222321428571426,525.1285714285714,3153.9,60.222321428571426,525.1285714285714,3266.2,60.222321428571426,525.1285714285714,3368.9,60.222321428571426,525.1285714285714,3482.7,60.222321428571426,525.1285714285714,3590.3,60.222321428571426,525.1285714285714,3694.3,60.222321428571426,525.1285714285714,3802.1,60.222321428571426,525.1285714285714,3909.2,60.222321428571426,525.1285714285714,4024.4,60.222321428571426,525.1285714285714,4165.4,60.222321428571426,525.1285714285714,4281.7,60.222321428571426,525.1285714285714,4396.3,60.222321428571426,525.1285714285714,4528.6,60.222321428571426,525.1285714285714,4651.1,60.222321428571426,525.1285714285714,4765.4,60.222321428571426,525.1285714285714,4881.7,60.222321428571426,525.1285714285714,4990.5]","[1531.7,1531.7,1000,0,531.8,""oops"",""down"",""down"",""good_move"",7960.9,6427.8,2988.6,4500.5,471.8,""oops"",""left"",""up"",""bad_move"",15573.1,7611.3,7206.7,7961.8,404.6,""while_blue"",""left"",""down"",""good_move"",18431.7,2856.8,2240.5,15574.9,616.3,""oops"",""left"",""left"",""good_move"",26628,8194.7,2492.5,18433.3,5702.2,""smooth"",""left"",""left"",""good_move"",39978.2,13341,2542.1,36943.6,492.5,""oops"",""down"",""down"",""good_move""]","",""
"5048","","<div style=""width:500px;"">
  <p>What determined the result of this run?</p>
  </div>","82","html-slider-response","80","1107759","0.0-10.0-1.8","182","1","2025-07-09 09:13:17","7701e855f2ef39aa3fd6c71abdc6918a","78.145.195.194","Mozilla/5.0 (Windows NT 10.0; Win64; x64) AppleWebKit/537.36 (KHTML, like Gecko) Chrome/138.0.0.0 Safari/537.36","WebKit","Chrome","138.0.0.0","Windows","10.0","https://app.prolific.com/","en-US,en;q=0.9","5cab22cd68194f001511b2d6","686d226cabeef709c732f8e1","686e30f1b246e7c2a789cf0b","5cab22cd68194f001511b2d6","2025-07-09T09:32:24.182Z","","","","","","AttribQ","","","","","","","","","","","","","","","","","","","","","","","","","","","","","","","","","","","","","","50"
"4229","","<div style=""width:500px;"">
  <p>How much control did you have over the ball?</p>
  </div>","81","html-slider-response","81","1111996","0.0-10.0-2.8","182","1","2025-07-09 09:13:17","7701e855f2ef39aa3fd6c71abdc6918a","78.145.195.194","Mozilla/5.0 (Windows NT 10.0; Win64; x64) AppleWebKit/537.36 (KHTML, like Gecko) Chrome/138.0.0.0 Safari/537.36","WebKit","Chrome","138.0.0.0","Windows","10.0","https://app.prolific.com/","en-US,en;q=0.9","5cab22cd68194f001511b2d6","686d226cabeef709c732f8e1","686e30f1b246e7c2a789cf0b","5cab22cd68194f001511b2d6","2025-07-09T09:32:28.419Z","","","","","","ControlQ","","","","","","","","","","","","","","","","","","","","","","","","","","","","","","","","","","","","","","50"
"3779","","<div style=""width:500px;"">
  <p>How would you describe your current emotional state?</p>
  </div>","9","html-slider-response","82","1115782","0.0-10.0-3.8","182","1","2025-07-09 09:13:17","7701e855f2ef39aa3fd6c71abdc6918a","78.145.195.194","Mozilla/5.0 (Windows NT 10.0; Win64; x64) AppleWebKit/537.36 (KHTML, like Gecko) Chrome/138.0.0.0 Safari/537.36","WebKit","Chrome","138.0.0.0","Windows","10.0","https://app.prolific.com/","en-US,en;q=0.9","5cab22cd68194f001511b2d6","686d226cabeef709c732f8e1","686e30f1b246e7c2a789cf0b","5cab22cd68194f001511b2d6","2025-07-09T09:32:32.205Z","","","","","","StressQ","","","","","","","","","","","","","","","","","","","","","","","","","","","","","","","","","","","","","","50"
"3710","","<div style=""width:500px;"">
  <p>What best describes how you currently feel?</p>
  </div>","93","html-slider-response","83","1119510","0.0-10.0-4.8","182","1","2025-07-09 09:13:17","7701e855f2ef39aa3fd6c71abdc6918a","78.145.195.194","Mozilla/5.0 (Windows NT 10.0; Win64; x64) AppleWebKit/537.36 (KHTML, like Gecko) Chrome/138.0.0.0 Safari/537.36","WebKit","Chrome","138.0.0.0","Windows","10.0","https://app.prolific.com/","en-US,en;q=0.9","5cab22cd68194f001511b2d6","686d226cabeef709c732f8e1","686e30f1b246e7c2a789cf0b","5cab22cd68194f001511b2d6","2025-07-09T09:32:35.933Z","","","","","","MotivationQ","","","","","","","","","","","","","","","","","","","","","","","","","","","","","","","","","","","","","","50"
