"rt","response_timestamp","stimulus","response","trial_type","trial_index","time_elapsed","internal_node_id","run_id","condition","recorded_at","source_code_version","ip","user_agent","device","browser","browser_version","platform","platform_version","referer","accept_language","PROLIFIC_PID","STUDY_ID","SESSION_ID","prolific_id","realtime","view_history","question_order","consent","success","question_id","eventType","responses","item_order","radio_event_ids","radio_event_times","key_event_times","mouse_event_times","straightlining","zigzagging","honeypot","which_type","canvas_config","goals_layout","control_level","trial_number","tutorial_trial_number","trial_start_time","phase1_start_time","phase2_start_time","phase3_start_time","goal_1_value","goal_1_distance","goal_2_value","goal_2_distance","goal_selected","outcome","outcome_total","participant_final_score","participant_initial_score","participant_final_score_prop","goal_choice_rt","allocated_time","allocated_time_remaining","goal_direction","counts","mouse_movements","key_presses","correct","slider_start"
"19073","1752052059428","<p style='font-size:40px;line-height:1.25'><strong>Welcome to the experiment!</strong></p><p style='font-size:1.1em;line-height:1.25'>Thank you for your interest in our experiment! Before you begin, it is important that we obtain your informed consent to participate in the study.</p><p style='font-size:1.1em;line-height:1.25'>On the next screen will be an <strong>information sheet</strong> for you to read. To participate in the study we need you to read this information sheet and the following consent form carefully. If you agree with all the statements, please click the <strong>I agree</strong> button.</p><p style='font-size:1.1em;line-height:1.25'>Press <strong>Next</strong> to read the information sheet.</p>","0","custom-html-button-response","0","19076","0.0-0.0","62","1","2025-07-09 09:07:20","7701e855f2ef39aa3fd6c71abdc6918a","154.0.11.214","Mozilla/5.0 (Windows NT 10.0; Win64; x64) AppleWebKit/537.36 (KHTML, like Gecko) Chrome/138.0.0.0 Safari/537.36","WebKit","Chrome","138.0.0.0","Windows","10.0","https://app.prolific.com/","en-US,en;q=0.9","669a686f263cbcb8e321ed85","686d226cabeef709c732f8e1","686e3138a06fe5d94aece684","669a686f263cbcb8e321ed85","2025-07-09T09:07:39.429Z","","","","","","","","","","","","","","","","","","","","","","","","","","","","","","","","","","","","","","","","","","","",""
"35906","","","","instructions","1","54985","0.0-1.0","62","1","2025-07-09 09:07:20","7701e855f2ef39aa3fd6c71abdc6918a","154.0.11.214","Mozilla/5.0 (Windows NT 10.0; Win64; x64) AppleWebKit/537.36 (KHTML, like Gecko) Chrome/138.0.0.0 Safari/537.36","WebKit","Chrome","138.0.0.0","Windows","10.0","https://app.prolific.com/","en-US,en;q=0.9","669a686f263cbcb8e321ed85","686d226cabeef709c732f8e1","686e3138a06fe5d94aece684","669a686f263cbcb8e321ed85","","[{""page_index"":0,""viewing_time"":29936},{""page_index"":1,""viewing_time"":5969}]","","","","","","","","","","","","","","","","","","","","","","","","","","","","","","","","","","","","","","","","","","",""
"9831","","","{""Q0"":"""",""Q1"":"""",""Q2"":"""",""Q3"":"""",""Q4"":"""",""Q5"":"""",""Q6"":""I agree""}","survey-multi-choice","2","64820","0.0-2.0","62","1","2025-07-09 09:07:20","7701e855f2ef39aa3fd6c71abdc6918a","154.0.11.214","Mozilla/5.0 (Windows NT 10.0; Win64; x64) AppleWebKit/537.36 (KHTML, like Gecko) Chrome/138.0.0.0 Safari/537.36","WebKit","Chrome","138.0.0.0","Windows","10.0","https://app.prolific.com/","en-US,en;q=0.9","669a686f263cbcb8e321ed85","686d226cabeef709c732f8e1","686e3138a06fe5d94aece684","669a686f263cbcb8e321ed85","","","[0,1,2,3,4,5,6]","true","","","","","","","","","","","","","","","","","","","","","","","","","","","","","","","","","","","","","","","","",""
"12769","","","","fullscreen","3","78602","0.0-4.0","62","1","2025-07-09 09:07:20","7701e855f2ef39aa3fd6c71abdc6918a","154.0.11.214","Mozilla/5.0 (Windows NT 10.0; Win64; x64) AppleWebKit/537.36 (KHTML, like Gecko) Chrome/138.0.0.0 Safari/537.36","WebKit","Chrome","138.0.0.0","Windows","10.0","https://app.prolific.com/","en-US,en;q=0.9","669a686f263cbcb8e321ed85","686d226cabeef709c732f8e1","686e3138a06fe5d94aece684","669a686f263cbcb8e321ed85","","","","","true","","","","","","","","","","","","","","","","","","","","","","","","","","","","","","","","","","","","","","","",""
"4943","1752052123898"," <p style='font-size:1.1em;line-height:1.25'>Thank you for completing the consent form and closing all other tabs.</p><p style='font-size:1.1em;line-height:1.25'>We will now invite you to fill in some demographic information and questionnaires, before starting the game.<br>This will take about 5 minutes.<br></p><p style='font-size:1.1em;line-height:1.25'>Press the <strong>Next</strong> button to continue.</p>","0","custom-html-button-response","4","83546","0.0-5.0","62","1","2025-07-09 09:07:20","7701e855f2ef39aa3fd6c71abdc6918a","154.0.11.214","Mozilla/5.0 (Windows NT 10.0; Win64; x64) AppleWebKit/537.36 (KHTML, like Gecko) Chrome/138.0.0.0 Safari/537.36","WebKit","Chrome","138.0.0.0","Windows","10.0","https://app.prolific.com/","en-US,en;q=0.9","669a686f263cbcb8e321ed85","686d226cabeef709c732f8e1","686e3138a06fe5d94aece684","669a686f263cbcb8e321ed85","2025-07-09T09:08:43.899Z","","","","","","","","","","","","","","","","","","","","","","","","","","","","","","","","","","","","","","","","","","","",""
"6162","","","{""age"":""35""}","survey-text","5","89711","0.0-6.0-0.0","62","1","2025-07-09 09:07:20","7701e855f2ef39aa3fd6c71abdc6918a","154.0.11.214","Mozilla/5.0 (Windows NT 10.0; Win64; x64) AppleWebKit/537.36 (KHTML, like Gecko) Chrome/138.0.0.0 Safari/537.36","WebKit","Chrome","138.0.0.0","Windows","10.0","https://app.prolific.com/","en-US,en;q=0.9","669a686f263cbcb8e321ed85","686d226cabeef709c732f8e1","686e3138a06fe5d94aece684","669a686f263cbcb8e321ed85","","","","","","0","demographics","","","","","","","","","","","","","","","","","","","","","","","","","","","","","","","","","","","","","",""
"6808","","","{""gender_identity"":""female/woman""}","survey-multi-choice","6","96521","0.0-6.0-1.0","62","1","2025-07-09 09:07:20","7701e855f2ef39aa3fd6c71abdc6918a","154.0.11.214","Mozilla/5.0 (Windows NT 10.0; Win64; x64) AppleWebKit/537.36 (KHTML, like Gecko) Chrome/138.0.0.0 Safari/537.36","WebKit","Chrome","138.0.0.0","Windows","10.0","https://app.prolific.com/","en-US,en;q=0.9","669a686f263cbcb8e321ed85","686d226cabeef709c732f8e1","686e3138a06fe5d94aece684","669a686f263cbcb8e321ed85","","","[0]","","","1","demographics","","","","","","","","","","","","","","","","","","","","","","","","","","","","","","","","","","","","","",""
"4072","","","{""assigned_sex"":""female""}","survey-multi-choice","7","100594","0.0-6.0-2.0","62","1","2025-07-09 09:07:20","7701e855f2ef39aa3fd6c71abdc6918a","154.0.11.214","Mozilla/5.0 (Windows NT 10.0; Win64; x64) AppleWebKit/537.36 (KHTML, like Gecko) Chrome/138.0.0.0 Safari/537.36","WebKit","Chrome","138.0.0.0","Windows","10.0","https://app.prolific.com/","en-US,en;q=0.9","669a686f263cbcb8e321ed85","686d226cabeef709c732f8e1","686e3138a06fe5d94aece684","669a686f263cbcb8e321ed85","","","[0]","","","2","demographics","","","","","","","","","","","","","","","","","","","","","","","","","","","","","","","","","","","","","",""
"4650","","","{""menstrual_cycle"":""Yes""}","survey-multi-choice","8","105244","0.0-6.0-3.0","62","1","2025-07-09 09:07:20","7701e855f2ef39aa3fd6c71abdc6918a","154.0.11.214","Mozilla/5.0 (Windows NT 10.0; Win64; x64) AppleWebKit/537.36 (KHTML, like Gecko) Chrome/138.0.0.0 Safari/537.36","WebKit","Chrome","138.0.0.0","Windows","10.0","https://app.prolific.com/","en-US,en;q=0.9","669a686f263cbcb8e321ed85","686d226cabeef709c732f8e1","686e3138a06fe5d94aece684","669a686f263cbcb8e321ed85","","","[0]","","","4","demographics","","","","","","","","","","","","","","","","","","","","","","","","","","","","","","","","","","","","","",""
"14818","","","{""education"":""Higher National Diploma""}","survey-multi-choice","9","120063","0.0-6.0-4.0","62","1","2025-07-09 09:07:20","7701e855f2ef39aa3fd6c71abdc6918a","154.0.11.214","Mozilla/5.0 (Windows NT 10.0; Win64; x64) AppleWebKit/537.36 (KHTML, like Gecko) Chrome/138.0.0.0 Safari/537.36","WebKit","Chrome","138.0.0.0","Windows","10.0","https://app.prolific.com/","en-US,en;q=0.9","669a686f263cbcb8e321ed85","686d226cabeef709c732f8e1","686e3138a06fe5d94aece684","669a686f263cbcb8e321ed85","","","[0]","","","5","demographics","","","","","","","","","","","","","","","","","","","","","","","","","","","","","","","","","","","","","",""
"6569","","","{""education"":""A-level/National Diploma/Highers""}","survey-multi-choice","10","126633","0.0-6.0-5.0","62","1","2025-07-09 09:07:20","7701e855f2ef39aa3fd6c71abdc6918a","154.0.11.214","Mozilla/5.0 (Windows NT 10.0; Win64; x64) AppleWebKit/537.36 (KHTML, like Gecko) Chrome/138.0.0.0 Safari/537.36","WebKit","Chrome","138.0.0.0","Windows","10.0","https://app.prolific.com/","en-US,en;q=0.9","669a686f263cbcb8e321ed85","686d226cabeef709c732f8e1","686e3138a06fe5d94aece684","669a686f263cbcb8e321ed85","2025-07-09T09:09:26.986Z","","[0]","","","6","demographics","","","","","","","","","","","","","","","","","","","","","","","","","","","","","","","","","","","","","",""
"35068","","","{""mental_health_condition"":""No"",""mental_health_treatment"":""No"",""psychiatric_medication"":""N/A""}","survey-text","11","161703","0.0-7.0-0.0","62","1","2025-07-09 09:07:20","7701e855f2ef39aa3fd6c71abdc6918a","154.0.11.214","Mozilla/5.0 (Windows NT 10.0; Win64; x64) AppleWebKit/537.36 (KHTML, like Gecko) Chrome/138.0.0.0 Safari/537.36","WebKit","Chrome","138.0.0.0","Windows","10.0","https://app.prolific.com/","en-US,en;q=0.9","669a686f263cbcb8e321ed85","686d226cabeef709c732f8e1","686e3138a06fe5d94aece684","669a686f263cbcb8e321ed85","2025-07-09T09:10:02.056Z","","","","","1","mental_health","","","","","","","","","","","","","","","","","","","","","","","","","","","","","","","","","","","","","",""
"12874","","","{""depression_history"":[""No""]}","survey-multi-select","12","174581","0.0-7.0-1.0","62","1","2025-07-09 09:07:20","7701e855f2ef39aa3fd6c71abdc6918a","154.0.11.214","Mozilla/5.0 (Windows NT 10.0; Win64; x64) AppleWebKit/537.36 (KHTML, like Gecko) Chrome/138.0.0.0 Safari/537.36","WebKit","Chrome","138.0.0.0","Windows","10.0","https://app.prolific.com/","en-US,en;q=0.9","669a686f263cbcb8e321ed85","686d226cabeef709c732f8e1","686e3138a06fe5d94aece684","669a686f263cbcb8e321ed85","","","[0]","","","","mental_health","","","","","","","","","","","","","","","","","","","","","","","","","","","","","","","","","","","","","",""
"84514.59999999404","","","","survey-template","13","259099","0.0-7.0-3.0","62","1","2025-07-09 09:07:20","7701e855f2ef39aa3fd6c71abdc6918a","154.0.11.214","Mozilla/5.0 (Windows NT 10.0; Win64; x64) AppleWebKit/537.36 (KHTML, like Gecko) Chrome/138.0.0.0 Safari/537.36","WebKit","Chrome","138.0.0.0","Windows","10.0","https://app.prolific.com/","en-US,en;q=0.9","669a686f263cbcb8e321ed85","686d226cabeef709c732f8e1","686e3138a06fe5d94aece684","669a686f263cbcb8e321ed85","2025-07-09T09:11:39.452Z","","","","","","ius","{""Q01"":""2"",""Q02"":""1"",""Q03"":""3"",""Q04"":""2"",""Q05"":""2"",""Q06"":""0"",""Q07"":""2"",""Q08"":""0"",""Q09"":""3"",""Q10"":""1"",""Q11"":""2"",""Q12"":""2"",""Q13"":""2""}","[0,1,2,3,4,5,6,7,8,9,10,11,12]","[""Q01"",""Q02"",""Q03"",""Q04"",""Q05"",""Q06"",""Q07"",""Q08"",""Q09"",""Q10"",""Q11"",""Q12"",""Q13""]","[15454,22114,28661.5,35538.39999999106,40084.59999999404,46098.89999999106,49353.89999999106,56705.59999999404,69874.09999999404,74681.20000000298,77898.70000000298,80590.39999999106,83568.29999999702]","[]","[15454,22114,28661.5,35538.39999999106,40084.59999999404,46098.89999999106,49353.89999999106,56705.59999999404,69874.09999999404,74681.20000000298,77898.70000000298,80590.39999999106,82652.59999999404,83568.29999999702,84513.09999999404]","0.5384615384615384","0.25","0","","","","","","","","","","","","","","","","","","","","","","","","","","","","",""
"5705","1752052305158","<p style='font-size:1.1em;line-height:1.25'>In the following, we will ask you a few questions relating to your experiences over the past month.<br></p><p style='font-size:1.1em;line-height:1.25'>Press the <strong>Next</strong> button to continue.</p>","0","custom-html-button-response","14","264805","0.0-7.0-4.0","62","1","2025-07-09 09:07:20","7701e855f2ef39aa3fd6c71abdc6918a","154.0.11.214","Mozilla/5.0 (Windows NT 10.0; Win64; x64) AppleWebKit/537.36 (KHTML, like Gecko) Chrome/138.0.0.0 Safari/537.36","WebKit","Chrome","138.0.0.0","Windows","10.0","https://app.prolific.com/","en-US,en;q=0.9","669a686f263cbcb8e321ed85","686d226cabeef709c732f8e1","686e3138a06fe5d94aece684","669a686f263cbcb8e321ed85","2025-07-09T09:11:45.158Z","","","","","","","","","","","","","","","","","","","","","","","","","","","","","","","","","","","","","","","","","","","",""
"53052.59999999404","","","","survey-template","15","317861","0.0-7.0-5.0","62","1","2025-07-09 09:07:20","7701e855f2ef39aa3fd6c71abdc6918a","154.0.11.214","Mozilla/5.0 (Windows NT 10.0; Win64; x64) AppleWebKit/537.36 (KHTML, like Gecko) Chrome/138.0.0.0 Safari/537.36","WebKit","Chrome","138.0.0.0","Windows","10.0","https://app.prolific.com/","en-US,en;q=0.9","669a686f263cbcb8e321ed85","686d226cabeef709c732f8e1","686e3138a06fe5d94aece684","669a686f263cbcb8e321ed85","2025-07-09T09:12:38.214Z","","","","","","pss","{""Q01"":""2"",""Q02"":""3"",""Q03"":""2"",""Q04"":""2"",""Q05"":""2"",""Q06"":""3"",""Q07"":""1"",""Q08"":""1"",""Q09"":""2"",""Q10"":""2""}","[0,1,2,3,4,5,6,7,8,9]","[""Q01"",""Q02"",""Q03"",""Q04"",""Q05"",""Q05"",""Q06"",""Q07"",""Q08"",""Q09"",""Q10""]","[4783.29999999702,10166.59999999404,14112.79999999702,16685.40000000596,22183,24866.79999999702,30056.70000000298,34962.29999999702,38502.40000000596,46092,50179.5]","[]","[0.09999999403953552,4783.29999999702,10166.59999999404,14112.79999999702,16685.40000000596,22183,24866.79999999702,30056.70000000298,34962.29999999702,38502.40000000596,46092,50179.5,53051.70000000298]","0.6","0.4444444444444444","0","","","","","","","","","","","","","","","","","","","","","","","","","","","","",""
"2661","1752052360876","<p style='font-size:1.1em;line-height:1.25'>Thank you for your answers! Now we will ask you a few more questions relating to your feelings in the last 24 hours.<br></p><p style='font-size:1.1em;line-height:1.25'>Press the <strong>Next</strong> button to continue.</p>","0","custom-html-button-response","16","320523","0.0-7.0-6.0","62","1","2025-07-09 09:07:20","7701e855f2ef39aa3fd6c71abdc6918a","154.0.11.214","Mozilla/5.0 (Windows NT 10.0; Win64; x64) AppleWebKit/537.36 (KHTML, like Gecko) Chrome/138.0.0.0 Safari/537.36","WebKit","Chrome","138.0.0.0","Windows","10.0","https://app.prolific.com/","en-US,en;q=0.9","669a686f263cbcb8e321ed85","686d226cabeef709c732f8e1","686e3138a06fe5d94aece684","669a686f263cbcb8e321ed85","2025-07-09T09:12:40.876Z","","","","","","","","","","","","","","","","","","","","","","","","","","","","","","","","","","","","","","","","","","","",""
"66455.90000000596","","","","survey-template","17","386981","0.0-7.0-7.0","62","1","2025-07-09 09:07:20","7701e855f2ef39aa3fd6c71abdc6918a","154.0.11.214","Mozilla/5.0 (Windows NT 10.0; Win64; x64) AppleWebKit/537.36 (KHTML, like Gecko) Chrome/138.0.0.0 Safari/537.36","WebKit","Chrome","138.0.0.0","Windows","10.0","https://app.prolific.com/","en-US,en;q=0.9","669a686f263cbcb8e321ed85","686d226cabeef709c732f8e1","686e3138a06fe5d94aece684","669a686f263cbcb8e321ed85","2025-07-09T09:13:47.334Z","","","","","","drsp","{""Q01"":""3"",""Q02"":""2"",""Q03"":""1"",""Q04"":""1"",""Q05"":""0"",""Q06"":""2"",""Q07"":""1"",""Q08"":""1"",""Q09"":""2"",""Q10"":""2"",""Q11"":""1"",""Q12"":""1"",""Q13"":""4"",""Q14"":""0"",""Q15"":""0"",""Q16"":""0"",""Q17"":""2"",""Q18"":""3"",""Q19"":""2"",""Q20"":""1"",""Q21"":""0""}","[0,1,2,3,4,5,6,7,8,9,10,11,12,13,14,15,16,17,18,19,20]","[""Q01"",""Q02"",""Q03"",""Q04"",""Q05"",""Q06"",""Q07"",""Q08"",""Q09"",""Q10"",""Q11"",""Q12"",""Q13"",""Q14"",""Q15"",""Q17"",""Q18"",""Q19"",""Q20"",""Q21"",""Q16""]","[5824.600000008941,8277.90000000596,11675.20000000298,13534.5,15657.20000000298,19805.29999999702,22002.79999999702,24372.70000000298,27238.5,29142.60000000894,31872,33709.90000000596,35652.90000000596,39058.29999999702,43055.29999999702,45724.60000000894,49624.29999999702,53495.60000000894,56742.10000000894,60170.20000000298,64257.40000000596]","[]","[0.10000000894069672,5824.600000008941,8277.90000000596,11675.20000000298,13534.5,15657.20000000298,19805.29999999702,22002.79999999702,24372.70000000298,27238.5,29142.60000000894,31872,33709.90000000596,35652.90000000596,39058.29999999702,43055.29999999702,45080.29999999702,45724.60000000894,49624.29999999702,53495.60000000894,56742.10000000894,60170.20000000298,61182.29999999702,64257.40000000596,66454.10000000894]","0.3333333333333333","0.5","0","","","","","","","","","","","","","","","","","","","","","","","","","","","","",""
"15365.39999999106","","","","survey-template","18","402348","0.0-7.0-8.0","62","1","2025-07-09 09:07:20","7701e855f2ef39aa3fd6c71abdc6918a","154.0.11.214","Mozilla/5.0 (Windows NT 10.0; Win64; x64) AppleWebKit/537.36 (KHTML, like Gecko) Chrome/138.0.0.0 Safari/537.36","WebKit","Chrome","138.0.0.0","Windows","10.0","https://app.prolific.com/","en-US,en;q=0.9","669a686f263cbcb8e321ed85","686d226cabeef709c732f8e1","686e3138a06fe5d94aece684","669a686f263cbcb8e321ed85","2025-07-09T09:14:02.701Z","","","","","","stress","{""Q01"":""1"",""Q02"":""2"",""Q03"":""3""}","[0,1,2]","[""Q01"",""Q02"",""Q03""]","[8630.79999999702,12027.5,14674.29999999702]","[]","[8630.79999999702,12027.5,14674.29999999702,15364.79999999702]","0.6666666666666666","0","0","","","","","","","","","","","","","","","","","","","","","","","","","","","","",""
"58477","","","","instructions","19","460825","0.0-8.0-0.0","62","1","2025-07-09 09:07:20","7701e855f2ef39aa3fd6c71abdc6918a","154.0.11.214","Mozilla/5.0 (Windows NT 10.0; Win64; x64) AppleWebKit/537.36 (KHTML, like Gecko) Chrome/138.0.0.0 Safari/537.36","WebKit","Chrome","138.0.0.0","Windows","10.0","https://app.prolific.com/","en-US,en;q=0.9","669a686f263cbcb8e321ed85","686d226cabeef709c732f8e1","686e3138a06fe5d94aece684","669a686f263cbcb8e321ed85","","[{""page_index"":0,""viewing_time"":17061},{""page_index"":1,""viewing_time"":21119},{""page_index"":2,""viewing_time"":16949},{""page_index"":3,""viewing_time"":3346}]","","","","","","","","","","","","","","","","","","","","","","","","","","","","","","","","","","","","","","","","","","",""
"","","","","ctl-task-cpt","20","481399","0.0-8.0-1.0","62","1","2025-07-09 09:07:20","7701e855f2ef39aa3fd6c71abdc6918a","154.0.11.214","Mozilla/5.0 (Windows NT 10.0; Win64; x64) AppleWebKit/537.36 (KHTML, like Gecko) Chrome/138.0.0.0 Safari/537.36","WebKit","Chrome","138.0.0.0","Windows","10.0","https://app.prolific.com/","en-US,en;q=0.9","669a686f263cbcb8e321ed85","686d226cabeef709c732f8e1","686e3138a06fe5d94aece684","669a686f263cbcb8e321ed85","","","","","","","","","","","","","","","","","win-only","2","g1:SE,g2:NW","1","0","1","463383.2","2153.4","6156.5","17546.3","2","4","4","6","2","-4","-5","0","0","0","4003.1","4000","-3000","[""left"",""up""]","{""num_key_presses"":3,""num_perfect"":1,""num_errors"":1,""num_randdir"":0,""num_randdir_good_moves"":0,""num_whilered"":1,""num_whileblue"":0,""num_blue"":0,""num_good_moves"":1}","[409.0714133126395,415.32142761775424,1.1,411.5714133126395,415.32142761775424,102.2,411.5714133126395,415.32142761775424,204.6,411.5714133126395,415.32142761775424,308.1,411.5714133126395,415.32142761775424,413.8,410.3214133126395,415.32142761775424,517.8,409.0714133126395,415.32142761775424,622.5,409.0714133126395,416.57142761775424,727.9,420.3214133126395,419.07142761775424,828.7,429.0714133126395,425.32142761775424,928.9,440.3214133126395,430.32142761775424,1034.1,456.5714133126395,435.32142761775424,1139.6,460.3214133126395,440.32142761775424,1244.2,466.5714133126395,449.07142761775424,1348.6,472.8214133126395,471.57142761775424,1460.9,479.0714133126395,476.57142761775424,1563.9,481.5714133126395,481.57142761775424,1664.3,482.8214133126395,482.82142761775424,1764.6,482.8214133126395,482.82142761775424,1867.8,482.8214133126395,482.82142761775424,1968,484.0714133126395,482.82142761775424,2072.9,484.0714133126395,482.82142761775424,2178.2,486.5714133126395,477.82142761775424,2284.1,486.5714133126395,477.82142761775424,2390.1,486.5714133126395,477.82142761775424,2490.2,486.5714133126395,476.57142761775424,2592.4,486.5714133126395,476.57142761775424,2692.8,486.5714133126395,476.57142761775424,2797.1,486.5714133126395,476.57142761775424,2898.2,486.5714133126395,476.57142761775424,3003.3,486.5714133126395,476.57142761775424,3107.8,486.5714133126395,476.57142761775424,3208.4,486.5714133126395,475.32142761775424,3313.8,486.5714133126395,474.07142761775424,3417.7,474.0714133126395,469.07142761775424,3518.8,321.5714133126395,357.82142761775424,3622,177.8214133126395,205.32142761775424,3722.4,81.5714133126395,126.57142761775425,3824.2,79.0714133126395,124.07142761775425,3929.5]","[4488.2,4488.2,1000,0,3488.2,""smooth"",""up"",""up"",""good_move"",6104.9,1616.5,1888.4,4488.5,-272,""error"",""-"",""-"",""no_move"",6304.9,199.7,1888.4,4488.5,-72,""while_red"",""-"",""-"",""no_move""]","",""
"2743","","","","instructions","21","484143","0.0-8.0-2.0","62","1","2025-07-09 09:07:20","7701e855f2ef39aa3fd6c71abdc6918a","154.0.11.214","Mozilla/5.0 (Windows NT 10.0; Win64; x64) AppleWebKit/537.36 (KHTML, like Gecko) Chrome/138.0.0.0 Safari/537.36","WebKit","Chrome","138.0.0.0","Windows","10.0","https://app.prolific.com/","en-US,en;q=0.9","669a686f263cbcb8e321ed85","686d226cabeef709c732f8e1","686e3138a06fe5d94aece684","669a686f263cbcb8e321ed85","","[{""page_index"":0,""viewing_time"":2743}]","","","","","","","","","","","","","","","","","","","","","","","","","","","","","","","","","","","","","","","","","","",""
"","","","","ctl-task-cpt","22","503250","0.0-8.0-3.0","62","1","2025-07-09 09:07:20","7701e855f2ef39aa3fd6c71abdc6918a","154.0.11.214","Mozilla/5.0 (Windows NT 10.0; Win64; x64) AppleWebKit/537.36 (KHTML, like Gecko) Chrome/138.0.0.0 Safari/537.36","WebKit","Chrome","138.0.0.0","Windows","10.0","https://app.prolific.com/","en-US,en;q=0.9","669a686f263cbcb8e321ed85","686d226cabeef709c732f8e1","686e3138a06fe5d94aece684","669a686f263cbcb8e321ed85","","","","","","","","","","","","","","","","","win-only","2","g1:SE,g2:NW","0.35","0","3","486692.9","1220.1","5220.9","16102","2","4","8","6","1","-2","-4","0","0","0","4000.7","4000","-3005","[""down"",""right""]","{""num_key_presses"":8,""num_perfect"":0,""num_errors"":2,""num_randdir"":1,""num_randdir_good_moves"":0,""num_whilered"":5,""num_whileblue"":0,""num_blue"":0,""num_good_moves"":0}","[422.8214133126395,425.32142761775424,0.1,422.8214133126395,425.32142761775424,100.3,421.5714133126395,424.07142761775424,200.9,419.0714133126395,424.07142761775424,307,419.0714133126395,424.07142761775424,413.2,414.0714133126395,426.57142761775424,516,414.0714133126395,426.57142761775424,616.6,414.0714133126395,426.57142761775424,721.6,414.0714133126395,426.57142761775424,822,414.0714133126395,426.57142761775424,926.1,414.0714133126395,426.57142761775424,1031.1,414.0714133126395,426.57142761775424,1131.8,414.0714133126395,426.57142761775424,1232.2,414.0714133126395,426.57142761775424,1337.1,414.0714133126395,426.57142761775424,1441.8,414.0714133126395,426.57142761775424,1546.1,414.0714133126395,426.57142761775424,1646.5,414.0714133126395,426.57142761775424,1750.7,414.0714133126395,426.57142761775424,1855.8,402.8214133126395,425.32142761775424,1963.4,382.8214133126395,411.57142761775424,2065.4,376.5714133126395,407.82142761775424,2171.1,376.5714133126395,407.82142761775424,2271.4,376.5714133126395,407.82142761775424,2375.6,376.5714133126395,407.82142761775424,2476,376.5714133126395,407.82142761775424,2576.6,376.5714133126395,407.82142761775424,2680.8,376.5714133126395,407.82142761775424,2786.6,376.5714133126395,407.82142761775424,2890.1,376.5714133126395,407.82142761775424,2990.5,376.5714133126395,407.82142761775424,3090.8,376.5714133126395,407.82142761775424,3196.3,376.5714133126395,407.82142761775424,3296.4,376.5714133126395,407.82142761775424,3400.2,376.5714133126395,407.82142761775424,3501.4,376.5714133126395,407.82142761775424,3605.8,376.5714133126395,407.82142761775424,3711.6,376.5714133126395,407.82142761775424,3811.8,376.5714133126395,407.82142761775424,3916.1]","[240.8,240.8,1000,0,-759.2,""error"",""-"",""-"",""no_move"",320.9,80,1000,0,-679.1,""while_red"",""-"",""-"",""no_move"",472.9,232,1000,0,-527.1,""while_red"",""-"",""-"",""no_move"",679.8,438.9,1000,0,-320.2,""while_red"",""-"",""-"",""no_move"",862.8,621.9,1000,0,-137.2,""while_red"",""-"",""-"",""no_move"",3567.5,3326.6,1603.6,1244.5,719.4,""oops"",""right"",""up"",""bad_move"",3833.8,264.8,3239.3,3569,-2974.5,""error"",""-"",""-"",""no_move"",4037.7,203,3239.3,3569,-2770.6,""while_red"",""-"",""-"",""no_move""]","",""
"4539","","","","instructions","23","507789","0.0-8.0-4.0","62","1","2025-07-09 09:07:20","7701e855f2ef39aa3fd6c71abdc6918a","154.0.11.214","Mozilla/5.0 (Windows NT 10.0; Win64; x64) AppleWebKit/537.36 (KHTML, like Gecko) Chrome/138.0.0.0 Safari/537.36","WebKit","Chrome","138.0.0.0","Windows","10.0","https://app.prolific.com/","en-US,en;q=0.9","669a686f263cbcb8e321ed85","686d226cabeef709c732f8e1","686e3138a06fe5d94aece684","669a686f263cbcb8e321ed85","","[{""page_index"":0,""viewing_time"":2626},{""page_index"":1,""viewing_time"":1913}]","","","","","","","","","","","","","","","","","","","","","","","","","","","","","","","","","","","","","","","","","","",""
"7672","","","{""green_ball"":[""Ball doesn‘t move and I get -1 penalty point""]}","survey-multi-select","24","515462","0.0-8.0-5.0-0.0","62","1","2025-07-09 09:07:20","7701e855f2ef39aa3fd6c71abdc6918a","154.0.11.214","Mozilla/5.0 (Windows NT 10.0; Win64; x64) AppleWebKit/537.36 (KHTML, like Gecko) Chrome/138.0.0.0 Safari/537.36","WebKit","Chrome","138.0.0.0","Windows","10.0","https://app.prolific.com/","en-US,en;q=0.9","669a686f263cbcb8e321ed85","686d226cabeef709c732f8e1","686e3138a06fe5d94aece684","669a686f263cbcb8e321ed85","","","[0]","","","","quiz","","","","","","","","","","","","","","","","","","","","","","","","","","","","","","","","","","","","","false",""
"4401","","<p align='center'><b>INCORRECT.</b> Usually the green ball moves in the indicated direction, but sometimes it shakes and moves randomly. </p>","0","html-button-response","25","519865","0.0-8.0-5.0-1.0","62","1","2025-07-09 09:07:20","7701e855f2ef39aa3fd6c71abdc6918a","154.0.11.214","Mozilla/5.0 (Windows NT 10.0; Win64; x64) AppleWebKit/537.36 (KHTML, like Gecko) Chrome/138.0.0.0 Safari/537.36","WebKit","Chrome","138.0.0.0","Windows","10.0","https://app.prolific.com/","en-US,en;q=0.9","669a686f263cbcb8e321ed85","686d226cabeef709c732f8e1","686e3138a06fe5d94aece684","669a686f263cbcb8e321ed85","","","","","","","","","","","","","","","","","","","","","","","","","","","","","","","","","","","","","","","","","","","","",""
"15959","","","{""green_ball"":[""Ball always moves in the direction I press"",""Ball sometimes shakes and moves in a random direction""]}","survey-multi-select","26","535825","0.0-8.0-5.1-0.1","62","1","2025-07-09 09:07:20","7701e855f2ef39aa3fd6c71abdc6918a","154.0.11.214","Mozilla/5.0 (Windows NT 10.0; Win64; x64) AppleWebKit/537.36 (KHTML, like Gecko) Chrome/138.0.0.0 Safari/537.36","WebKit","Chrome","138.0.0.0","Windows","10.0","https://app.prolific.com/","en-US,en;q=0.9","669a686f263cbcb8e321ed85","686d226cabeef709c732f8e1","686e3138a06fe5d94aece684","669a686f263cbcb8e321ed85","","","[0]","","","","quiz","","","","","","","","","","","","","","","","","","","","","","","","","","","","","","","","","","","","","false",""
"1505","","<p align='center'><b>INCORRECT.</b> Usually the green ball moves in the indicated direction, but sometimes it shakes and moves randomly. </p>","0","html-button-response","27","537332","0.0-8.0-5.1-1.1","62","1","2025-07-09 09:07:20","7701e855f2ef39aa3fd6c71abdc6918a","154.0.11.214","Mozilla/5.0 (Windows NT 10.0; Win64; x64) AppleWebKit/537.36 (KHTML, like Gecko) Chrome/138.0.0.0 Safari/537.36","WebKit","Chrome","138.0.0.0","Windows","10.0","https://app.prolific.com/","en-US,en;q=0.9","669a686f263cbcb8e321ed85","686d226cabeef709c732f8e1","686e3138a06fe5d94aece684","669a686f263cbcb8e321ed85","","","","","","","","","","","","","","","","","","","","","","","","","","","","","","","","","","","","","","","","","","","","",""
"3300","","","{""green_ball"":[""Ball always shakes and moves in a random direction""]}","survey-multi-select","28","540633","0.0-8.0-5.2-0.2","62","1","2025-07-09 09:07:20","7701e855f2ef39aa3fd6c71abdc6918a","154.0.11.214","Mozilla/5.0 (Windows NT 10.0; Win64; x64) AppleWebKit/537.36 (KHTML, like Gecko) Chrome/138.0.0.0 Safari/537.36","WebKit","Chrome","138.0.0.0","Windows","10.0","https://app.prolific.com/","en-US,en;q=0.9","669a686f263cbcb8e321ed85","686d226cabeef709c732f8e1","686e3138a06fe5d94aece684","669a686f263cbcb8e321ed85","","","[0]","","","","quiz","","","","","","","","","","","","","","","","","","","","","","","","","","","","","","","","","","","","","false",""
"1333","","<p align='center'><b>INCORRECT.</b> Usually the green ball moves in the indicated direction, but sometimes it shakes and moves randomly. </p>","0","html-button-response","29","541966","0.0-8.0-5.2-1.2","62","1","2025-07-09 09:07:20","7701e855f2ef39aa3fd6c71abdc6918a","154.0.11.214","Mozilla/5.0 (Windows NT 10.0; Win64; x64) AppleWebKit/537.36 (KHTML, like Gecko) Chrome/138.0.0.0 Safari/537.36","WebKit","Chrome","138.0.0.0","Windows","10.0","https://app.prolific.com/","en-US,en;q=0.9","669a686f263cbcb8e321ed85","686d226cabeef709c732f8e1","686e3138a06fe5d94aece684","669a686f263cbcb8e321ed85","","","","","","","","","","","","","","","","","","","","","","","","","","","","","","","","","","","","","","","","","","","","",""
"4732","","","{""green_ball"":[""Ball doesn‘t move and I get -1 penalty point"",""Ball always moves in the direction I press""]}","survey-multi-select","30","546700","0.0-8.0-5.3-0.3","62","1","2025-07-09 09:07:20","7701e855f2ef39aa3fd6c71abdc6918a","154.0.11.214","Mozilla/5.0 (Windows NT 10.0; Win64; x64) AppleWebKit/537.36 (KHTML, like Gecko) Chrome/138.0.0.0 Safari/537.36","WebKit","Chrome","138.0.0.0","Windows","10.0","https://app.prolific.com/","en-US,en;q=0.9","669a686f263cbcb8e321ed85","686d226cabeef709c732f8e1","686e3138a06fe5d94aece684","669a686f263cbcb8e321ed85","","","[0]","","","","quiz","","","","","","","","","","","","","","","","","","","","","","","","","","","","","","","","","","","","","false",""
"1221","","<p align='center'><b>INCORRECT.</b> Usually the green ball moves in the indicated direction, but sometimes it shakes and moves randomly. </p>","0","html-button-response","31","547922","0.0-8.0-5.3-1.3","62","1","2025-07-09 09:07:20","7701e855f2ef39aa3fd6c71abdc6918a","154.0.11.214","Mozilla/5.0 (Windows NT 10.0; Win64; x64) AppleWebKit/537.36 (KHTML, like Gecko) Chrome/138.0.0.0 Safari/537.36","WebKit","Chrome","138.0.0.0","Windows","10.0","https://app.prolific.com/","en-US,en;q=0.9","669a686f263cbcb8e321ed85","686d226cabeef709c732f8e1","686e3138a06fe5d94aece684","669a686f263cbcb8e321ed85","","","","","","","","","","","","","","","","","","","","","","","","","","","","","","","","","","","","","","","","","","","","",""
"2510","","","{""green_ball"":[""Ball sometimes shakes and moves in a random direction""]}","survey-multi-select","32","550434","0.0-8.0-5.4-0.4","62","1","2025-07-09 09:07:20","7701e855f2ef39aa3fd6c71abdc6918a","154.0.11.214","Mozilla/5.0 (Windows NT 10.0; Win64; x64) AppleWebKit/537.36 (KHTML, like Gecko) Chrome/138.0.0.0 Safari/537.36","WebKit","Chrome","138.0.0.0","Windows","10.0","https://app.prolific.com/","en-US,en;q=0.9","669a686f263cbcb8e321ed85","686d226cabeef709c732f8e1","686e3138a06fe5d94aece684","669a686f263cbcb8e321ed85","","","[0]","","","","quiz","","","","","","","","","","","","","","","","","","","","","","","","","","","","","","","","","","","","","true",""
"1267","","<p align='center'><b>CORRECT!</b> Indeed, the green ball may sometimes shake and move in a random direction.</p>","0","html-button-response","33","551702","0.0-8.0-5.4-1.4","62","1","2025-07-09 09:07:20","7701e855f2ef39aa3fd6c71abdc6918a","154.0.11.214","Mozilla/5.0 (Windows NT 10.0; Win64; x64) AppleWebKit/537.36 (KHTML, like Gecko) Chrome/138.0.0.0 Safari/537.36","WebKit","Chrome","138.0.0.0","Windows","10.0","https://app.prolific.com/","en-US,en;q=0.9","669a686f263cbcb8e321ed85","686d226cabeef709c732f8e1","686e3138a06fe5d94aece684","669a686f263cbcb8e321ed85","","","","","","","","","","","","","","","","","","","","","","","","","","","","","","","","","","","","","","","","","","","","",""
"2722","","","{""yellow_ball"":[""Ball always moves in the direction I press""]}","survey-multi-select","34","554424","0.0-8.0-6.0-0.0","62","1","2025-07-09 09:07:20","7701e855f2ef39aa3fd6c71abdc6918a","154.0.11.214","Mozilla/5.0 (Windows NT 10.0; Win64; x64) AppleWebKit/537.36 (KHTML, like Gecko) Chrome/138.0.0.0 Safari/537.36","WebKit","Chrome","138.0.0.0","Windows","10.0","https://app.prolific.com/","en-US,en;q=0.9","669a686f263cbcb8e321ed85","686d226cabeef709c732f8e1","686e3138a06fe5d94aece684","669a686f263cbcb8e321ed85","","","[0]","","","","quiz","","","","","","","","","","","","","","","","","","","","","","","","","","","","","","","","","","","","","false",""
"928","","<p align='center'><b>INCORRECT.</b> The yellow ball never moves and you reveice a penalty if you press anyways. </p>","0","html-button-response","35","555354","0.0-8.0-6.0-1.0","62","1","2025-07-09 09:07:20","7701e855f2ef39aa3fd6c71abdc6918a","154.0.11.214","Mozilla/5.0 (Windows NT 10.0; Win64; x64) AppleWebKit/537.36 (KHTML, like Gecko) Chrome/138.0.0.0 Safari/537.36","WebKit","Chrome","138.0.0.0","Windows","10.0","https://app.prolific.com/","en-US,en;q=0.9","669a686f263cbcb8e321ed85","686d226cabeef709c732f8e1","686e3138a06fe5d94aece684","669a686f263cbcb8e321ed85","","","","","","","","","","","","","","","","","","","","","","","","","","","","","","","","","","","","","","","","","","","","",""
"2003","","","{""yellow_ball"":[""Ball doesn‘t move and I get -1 penalty point""]}","survey-multi-select","36","557358","0.0-8.0-6.1-0.1","62","1","2025-07-09 09:07:20","7701e855f2ef39aa3fd6c71abdc6918a","154.0.11.214","Mozilla/5.0 (Windows NT 10.0; Win64; x64) AppleWebKit/537.36 (KHTML, like Gecko) Chrome/138.0.0.0 Safari/537.36","WebKit","Chrome","138.0.0.0","Windows","10.0","https://app.prolific.com/","en-US,en;q=0.9","669a686f263cbcb8e321ed85","686d226cabeef709c732f8e1","686e3138a06fe5d94aece684","669a686f263cbcb8e321ed85","","","[0]","","","","quiz","","","","","","","","","","","","","","","","","","","","","","","","","","","","","","","","","","","","","true",""
"1190","","<p align='center'><b>CORRECT!</b> Indeed, the yellow ball never moves and you receive a penalty.</p>","0","html-button-response","37","558549","0.0-8.0-6.1-1.1","62","1","2025-07-09 09:07:20","7701e855f2ef39aa3fd6c71abdc6918a","154.0.11.214","Mozilla/5.0 (Windows NT 10.0; Win64; x64) AppleWebKit/537.36 (KHTML, like Gecko) Chrome/138.0.0.0 Safari/537.36","WebKit","Chrome","138.0.0.0","Windows","10.0","https://app.prolific.com/","en-US,en;q=0.9","669a686f263cbcb8e321ed85","686d226cabeef709c732f8e1","686e3138a06fe5d94aece684","669a686f263cbcb8e321ed85","","","","","","","","","","","","","","","","","","","","","","","","","","","","","","","","","","","","","","","","","","","","",""
"2354","","","{""blue_ball"":[""Ball doesn‘t move and I get -1 penalty point""]}","survey-multi-select","38","560904","0.0-8.0-7.0-0.0","62","1","2025-07-09 09:07:20","7701e855f2ef39aa3fd6c71abdc6918a","154.0.11.214","Mozilla/5.0 (Windows NT 10.0; Win64; x64) AppleWebKit/537.36 (KHTML, like Gecko) Chrome/138.0.0.0 Safari/537.36","WebKit","Chrome","138.0.0.0","Windows","10.0","https://app.prolific.com/","en-US,en;q=0.9","669a686f263cbcb8e321ed85","686d226cabeef709c732f8e1","686e3138a06fe5d94aece684","669a686f263cbcb8e321ed85","","","[0]","","","","quiz","","","","","","","","","","","","","","","","","","","","","","","","","","","","","","","","","","","","","false",""
"1192","","<p align='center'><b>INCORRECT.</b> The blue ball always shakes and moves randomly.</p>","0","html-button-response","39","562097","0.0-8.0-7.0-1.0","62","1","2025-07-09 09:07:20","7701e855f2ef39aa3fd6c71abdc6918a","154.0.11.214","Mozilla/5.0 (Windows NT 10.0; Win64; x64) AppleWebKit/537.36 (KHTML, like Gecko) Chrome/138.0.0.0 Safari/537.36","WebKit","Chrome","138.0.0.0","Windows","10.0","https://app.prolific.com/","en-US,en;q=0.9","669a686f263cbcb8e321ed85","686d226cabeef709c732f8e1","686e3138a06fe5d94aece684","669a686f263cbcb8e321ed85","","","","","","","","","","","","","","","","","","","","","","","","","","","","","","","","","","","","","","","","","","","","",""
"2024","","","{""blue_ball"":[""Ball always moves in the direction I press""]}","survey-multi-select","40","564122","0.0-8.0-7.1-0.1","62","1","2025-07-09 09:07:20","7701e855f2ef39aa3fd6c71abdc6918a","154.0.11.214","Mozilla/5.0 (Windows NT 10.0; Win64; x64) AppleWebKit/537.36 (KHTML, like Gecko) Chrome/138.0.0.0 Safari/537.36","WebKit","Chrome","138.0.0.0","Windows","10.0","https://app.prolific.com/","en-US,en;q=0.9","669a686f263cbcb8e321ed85","686d226cabeef709c732f8e1","686e3138a06fe5d94aece684","669a686f263cbcb8e321ed85","","","[0]","","","","quiz","","","","","","","","","","","","","","","","","","","","","","","","","","","","","","","","","","","","","false",""
"974","","<p align='center'><b>INCORRECT.</b> The blue ball always shakes and moves randomly.</p>","0","html-button-response","41","565097","0.0-8.0-7.1-1.1","62","1","2025-07-09 09:07:20","7701e855f2ef39aa3fd6c71abdc6918a","154.0.11.214","Mozilla/5.0 (Windows NT 10.0; Win64; x64) AppleWebKit/537.36 (KHTML, like Gecko) Chrome/138.0.0.0 Safari/537.36","WebKit","Chrome","138.0.0.0","Windows","10.0","https://app.prolific.com/","en-US,en;q=0.9","669a686f263cbcb8e321ed85","686d226cabeef709c732f8e1","686e3138a06fe5d94aece684","669a686f263cbcb8e321ed85","","","","","","","","","","","","","","","","","","","","","","","","","","","","","","","","","","","","","","","","","","","","",""
"1821","","","{""blue_ball"":[""Ball always shakes and moves in a random direction""]}","survey-multi-select","42","566919","0.0-8.0-7.2-0.2","62","1","2025-07-09 09:07:20","7701e855f2ef39aa3fd6c71abdc6918a","154.0.11.214","Mozilla/5.0 (Windows NT 10.0; Win64; x64) AppleWebKit/537.36 (KHTML, like Gecko) Chrome/138.0.0.0 Safari/537.36","WebKit","Chrome","138.0.0.0","Windows","10.0","https://app.prolific.com/","en-US,en;q=0.9","669a686f263cbcb8e321ed85","686d226cabeef709c732f8e1","686e3138a06fe5d94aece684","669a686f263cbcb8e321ed85","","","[0]","","","","quiz","","","","","","","","","","","","","","","","","","","","","","","","","","","","","","","","","","","","","true",""
"1274","","<p align='center'><b>CORRECT!</b> Indeed, the blue ball always shakes and moves in a random direction. Also there is a penalty of -1 point.</p>","0","html-button-response","43","568194","0.0-8.0-7.2-1.2","62","1","2025-07-09 09:07:20","7701e855f2ef39aa3fd6c71abdc6918a","154.0.11.214","Mozilla/5.0 (Windows NT 10.0; Win64; x64) AppleWebKit/537.36 (KHTML, like Gecko) Chrome/138.0.0.0 Safari/537.36","WebKit","Chrome","138.0.0.0","Windows","10.0","https://app.prolific.com/","en-US,en;q=0.9","669a686f263cbcb8e321ed85","686d226cabeef709c732f8e1","686e3138a06fe5d94aece684","669a686f263cbcb8e321ed85","","","","","","","","","","","","","","","","","","","","","","","","","","","","","","","","","","","","","","","","","","","","",""
"4192","","","{""bonus"":[""When I reach 80% of points""]}","survey-multi-select","44","572387","0.0-8.0-8.0-0.0","62","1","2025-07-09 09:07:20","7701e855f2ef39aa3fd6c71abdc6918a","154.0.11.214","Mozilla/5.0 (Windows NT 10.0; Win64; x64) AppleWebKit/537.36 (KHTML, like Gecko) Chrome/138.0.0.0 Safari/537.36","WebKit","Chrome","138.0.0.0","Windows","10.0","https://app.prolific.com/","en-US,en;q=0.9","669a686f263cbcb8e321ed85","686d226cabeef709c732f8e1","686e3138a06fe5d94aece684","669a686f263cbcb8e321ed85","","","[0]","","","","quiz","","","","","","","","","","","","","","","","","","","","","","","","","","","","","","","","","","","","","false",""
"1019","","<p align='center'><b>INCORRECT.</b> You receive 2 pounds extra when you reach 50% of points </p>","0","html-button-response","45","573407","0.0-8.0-8.0-1.0","62","1","2025-07-09 09:07:20","7701e855f2ef39aa3fd6c71abdc6918a","154.0.11.214","Mozilla/5.0 (Windows NT 10.0; Win64; x64) AppleWebKit/537.36 (KHTML, like Gecko) Chrome/138.0.0.0 Safari/537.36","WebKit","Chrome","138.0.0.0","Windows","10.0","https://app.prolific.com/","en-US,en;q=0.9","669a686f263cbcb8e321ed85","686d226cabeef709c732f8e1","686e3138a06fe5d94aece684","669a686f263cbcb8e321ed85","","","","","","","","","","","","","","","","","","","","","","","","","","","","","","","","","","","","","","","","","","","","",""
"3606","","","{""bonus"":[""When I reach 50% of points""]}","survey-multi-select","46","577014","0.0-8.0-8.1-0.1","62","1","2025-07-09 09:07:20","7701e855f2ef39aa3fd6c71abdc6918a","154.0.11.214","Mozilla/5.0 (Windows NT 10.0; Win64; x64) AppleWebKit/537.36 (KHTML, like Gecko) Chrome/138.0.0.0 Safari/537.36","WebKit","Chrome","138.0.0.0","Windows","10.0","https://app.prolific.com/","en-US,en;q=0.9","669a686f263cbcb8e321ed85","686d226cabeef709c732f8e1","686e3138a06fe5d94aece684","669a686f263cbcb8e321ed85","","","[0]","","","","quiz","","","","","","","","","","","","","","","","","","","","","","","","","","","","","","","","","","","","","true",""
"1304","","<p align='center'><b>CORRECT!</b> Indeed, you receive 2 pounds extra when you reach 50% of points.</p>","0","html-button-response","47","578318","0.0-8.0-8.1-1.1","62","1","2025-07-09 09:07:20","7701e855f2ef39aa3fd6c71abdc6918a","154.0.11.214","Mozilla/5.0 (Windows NT 10.0; Win64; x64) AppleWebKit/537.36 (KHTML, like Gecko) Chrome/138.0.0.0 Safari/537.36","WebKit","Chrome","138.0.0.0","Windows","10.0","https://app.prolific.com/","en-US,en;q=0.9","669a686f263cbcb8e321ed85","686d226cabeef709c732f8e1","686e3138a06fe5d94aece684","669a686f263cbcb8e321ed85","","","","","","","","","","","","","","","","","","","","","","","","","","","","","","","","","","","","","","","","","","","","",""
"3293","","","","instructions","48","581612","0.0-8.0-9.0","62","1","2025-07-09 09:07:20","7701e855f2ef39aa3fd6c71abdc6918a","154.0.11.214","Mozilla/5.0 (Windows NT 10.0; Win64; x64) AppleWebKit/537.36 (KHTML, like Gecko) Chrome/138.0.0.0 Safari/537.36","WebKit","Chrome","138.0.0.0","Windows","10.0","https://app.prolific.com/","en-US,en;q=0.9","669a686f263cbcb8e321ed85","686d226cabeef709c732f8e1","686e3138a06fe5d94aece684","669a686f263cbcb8e321ed85","","[{""page_index"":0,""viewing_time"":3293}]","","","","","","","","","","","","","","","","","","","","","","","","","","","","","","","","","","","","","","","","","","",""
"15192","","<p>Before you start with this game please answer the following three questions yourself. </p>
  <p>Through this game, we measure several aspects of your cognitive performance, such as reaction times, multi-tasking capabilities </p>
  <p>and the ability to assess the situation you are in.</p>
  <p></p>
  <p><b>How good do you usually are in such tasks?</b></p>","34","html-slider-response","49","596807","0.0-9.0-0.0","62","1","2025-07-09 09:07:20","7701e855f2ef39aa3fd6c71abdc6918a","154.0.11.214","Mozilla/5.0 (Windows NT 10.0; Win64; x64) AppleWebKit/537.36 (KHTML, like Gecko) Chrome/138.0.0.0 Safari/537.36","WebKit","Chrome","138.0.0.0","Windows","10.0","https://app.prolific.com/","en-US,en;q=0.9","669a686f263cbcb8e321ed85","686d226cabeef709c732f8e1","686e3138a06fe5d94aece684","669a686f263cbcb8e321ed85","2025-07-09T09:17:17.160Z","","","","","","PreSkillQ","","","","","","","","","","","","","","","","","","","","","","","","","","","","","","","","","","","","","","50"
"6374","","<div style=""width:500px;"">
  <p>How well do you think you will perform in this task compared to other participants?</p>
  </div>","63","html-slider-response","50","603181","0.0-9.0-1.0","62","1","2025-07-09 09:07:20","7701e855f2ef39aa3fd6c71abdc6918a","154.0.11.214","Mozilla/5.0 (Windows NT 10.0; Win64; x64) AppleWebKit/537.36 (KHTML, like Gecko) Chrome/138.0.0.0 Safari/537.36","WebKit","Chrome","138.0.0.0","Windows","10.0","https://app.prolific.com/","en-US,en;q=0.9","669a686f263cbcb8e321ed85","686d226cabeef709c732f8e1","686e3138a06fe5d94aece684","669a686f263cbcb8e321ed85","2025-07-09T09:17:23.535Z","","","","","","PrePerfQ","","","","","","","","","","","","","","","","","","","","","","","","","","","","","","","","","","","","","","50"
"3907","","<div style=""width:500px;"">
  <p>What best describes how you currently feel?</p>
  </div>","68","html-slider-response","51","607089","0.0-9.0-2.0","62","1","2025-07-09 09:07:20","7701e855f2ef39aa3fd6c71abdc6918a","154.0.11.214","Mozilla/5.0 (Windows NT 10.0; Win64; x64) AppleWebKit/537.36 (KHTML, like Gecko) Chrome/138.0.0.0 Safari/537.36","WebKit","Chrome","138.0.0.0","Windows","10.0","https://app.prolific.com/","en-US,en;q=0.9","669a686f263cbcb8e321ed85","686d226cabeef709c732f8e1","686e3138a06fe5d94aece684","669a686f263cbcb8e321ed85","2025-07-09T09:17:27.442Z","","","","","","PreMotivationQ","","","","","","","","","","","","","","","","","","","","","","","","","","","","","","","","","","","","","","50"
"","","","","ctl-task-cpt","52","636196","0.0-10.0-0.0","62","1","2025-07-09 09:07:20","7701e855f2ef39aa3fd6c71abdc6918a","154.0.11.214","Mozilla/5.0 (Windows NT 10.0; Win64; x64) AppleWebKit/537.36 (KHTML, like Gecko) Chrome/138.0.0.0 Safari/537.36","WebKit","Chrome","138.0.0.0","Windows","10.0","https://app.prolific.com/","en-US,en;q=0.9","669a686f263cbcb8e321ed85","686d226cabeef709c732f8e1","686e3138a06fe5d94aece684","669a686f263cbcb8e321ed85","2025-07-09T09:17:56.549Z","","","","","","","","","","","","","","","","win-only","2","g1:SE,g2:NW","1","1","0","609640.3","1799.9","6800.9","26087.4","1","4","8","6","1","1","-4","0","0","0","2339.5","3000","345","[""down"",""right""]","{""num_key_presses"":10,""num_perfect"":3,""num_errors"":5,""num_randdir"":0,""num_randdir_good_moves"":0,""num_whilered"":2,""num_whileblue"":1,""num_blue"":1,""num_good_moves"":4}","[416.5714133126395,420.32142761775424,1.1,416.5714133126395,420.32142761775424,101.2,417.8214133126395,420.32142761775424,208.8,417.8214133126395,420.32142761775424,310.4,416.5714133126395,420.32142761775424,412,416.5714133126395,420.32142761775424,518.1,419.0714133126395,417.82142761775424,619.9,429.0714133126395,416.57142761775424,722.8,466.5714133126395,429.07142761775424,826.1,485.3214133126395,470.32142761775424,926.5,477.8214133126395,481.57142761775424,1027.4,470.3214133126395,485.32142761775424,1127.6,470.3214133126395,485.32142761775424,1230.8,470.3214133126395,485.32142761775424,1331.7,470.3214133126395,485.32142761775424,1435.7,470.3214133126395,485.32142761775424,1536.2,470.3214133126395,485.32142761775424,1641,474.0714133126395,489.07142761775424,1745.7,569.0714133126395,542.8214276177542,1848.4,649.0714133126395,654.0714276177542,1949.9,679.0714133126395,689.0714276177542,2051.7,701.5714133126395,715.3214276177542,2159.1,771.5714133126395,737.8214276177542,2282.8,771.5714133126395,737.8214276177542,2382.8,775.3214133126395,737.8214276177542,2483.2,764.0714133126395,734.0714276177542,2584.4,727.8214133126395,729.0714276177542,2688.6,681.5714133126395,696.5714276177542,2792.9,616.5714133126395,631.5714276177542,2898,571.5714133126395,579.0714276177542,3003.7,554.0714133126395,561.5714276177542,3108.3,522.8214133126395,542.8214276177542,3211.2,517.8214133126395,534.0714276177542,3312.7,507.8214133126395,524.0714276177542,3415.8,500.3214133126395,514.0714276177542,3516.2,495.3214133126395,509.07142761775424,3620.4,491.5714133126395,506.57142761775424,3721.5,489.0714133126395,504.07142761775424,3822.4,487.8214133126395,502.82142761775424,3927.6,487.8214133126395,501.57142761775424,4029.4,484.0714133126395,501.57142761775424,4131.3,446.5714133126395,500.32142761775424,4231.5,451.5714133126395,499.07142761775424,4331.8,472.8214133126395,499.07142761775424,4432.5,467.8214133126395,499.07142761775424,4532.9,-164.6785866873605,559.0714276177542,4634.4,-543.4285866873605,659.0714276177542,4736.4,-543.4285866873605,611.5714276177542,4836.5,-543.4285866873605,611.5714276177542,4942.3]","[341.2,341.1,1000,0.1,-658.9,""error"",""-"",""-"",""no_move"",5147.9,4805.9,2048.9,1344.4,1754.6,""smooth"",""down"",""down"",""good_move"",6066.5,918.1,982.4,5148.4,-64.3,""error"",""-"",""-"",""no_move"",7042.9,975.8,982.4,5148.4,912.1,""while_red"",""-"",""-"",""no_move"",9832.2,3765.1,2277,7068.5,486.7,""smooth"",""down"",""down"",""good_move"",10144.3,311.7,2375,9832.6,-2063.3,""error"",""-"",""-"",""no_move"",10461.5,316.5,2375,9832.6,-1746.1,""while_red"",""-"",""-"",""no_move"",13993,3848,2482.7,11151.3,359,""while_blue"",""right"",""right"",""good_move"",14884.9,891.3,2409.9,13993.6,-1518.6,""error"",""-"",""-"",""no_move"",19188.5,4303.4,2783.3,15885.6,519.6,""smooth"",""right"",""right"",""good_move""]","",""
"4630","","<div style=""width:500px;"">
  <p>What determined the result of this run?</p>
  </div>","70","html-slider-response","53","640830","0.0-10.0-1.0","62","1","2025-07-09 09:07:20","7701e855f2ef39aa3fd6c71abdc6918a","154.0.11.214","Mozilla/5.0 (Windows NT 10.0; Win64; x64) AppleWebKit/537.36 (KHTML, like Gecko) Chrome/138.0.0.0 Safari/537.36","WebKit","Chrome","138.0.0.0","Windows","10.0","https://app.prolific.com/","en-US,en;q=0.9","669a686f263cbcb8e321ed85","686d226cabeef709c732f8e1","686e3138a06fe5d94aece684","669a686f263cbcb8e321ed85","2025-07-09T09:18:01.184Z","","","","","","AttribQ","","","","","","","","","","","","","","","","","","","","","","","","","","","","","","","","","","","","","","50"
"3540","","<div style=""width:500px;"">
  <p>How much control did you have over the ball?</p>
  </div>","74","html-slider-response","54","644380","0.0-10.0-2.0","62","1","2025-07-09 09:07:20","7701e855f2ef39aa3fd6c71abdc6918a","154.0.11.214","Mozilla/5.0 (Windows NT 10.0; Win64; x64) AppleWebKit/537.36 (KHTML, like Gecko) Chrome/138.0.0.0 Safari/537.36","WebKit","Chrome","138.0.0.0","Windows","10.0","https://app.prolific.com/","en-US,en;q=0.9","669a686f263cbcb8e321ed85","686d226cabeef709c732f8e1","686e3138a06fe5d94aece684","669a686f263cbcb8e321ed85","2025-07-09T09:18:04.734Z","","","","","","ControlQ","","","","","","","","","","","","","","","","","","","","","","","","","","","","","","","","","","","","","","50"
"4945","","<div style=""width:500px;"">
  <p>How would you describe your current emotional state?</p>
  </div>","37","html-slider-response","55","649332","0.0-10.0-3.0","62","1","2025-07-09 09:07:20","7701e855f2ef39aa3fd6c71abdc6918a","154.0.11.214","Mozilla/5.0 (Windows NT 10.0; Win64; x64) AppleWebKit/537.36 (KHTML, like Gecko) Chrome/138.0.0.0 Safari/537.36","WebKit","Chrome","138.0.0.0","Windows","10.0","https://app.prolific.com/","en-US,en;q=0.9","669a686f263cbcb8e321ed85","686d226cabeef709c732f8e1","686e3138a06fe5d94aece684","669a686f263cbcb8e321ed85","2025-07-09T09:18:09.685Z","","","","","","StressQ","","","","","","","","","","","","","","","","","","","","","","","","","","","","","","","","","","","","","","50"
"9345","","<div style=""width:500px;"">
  <p>What best describes how you currently feel?</p>
  </div>","78","html-slider-response","56","658680","0.0-10.0-4.0","62","1","2025-07-09 09:07:20","7701e855f2ef39aa3fd6c71abdc6918a","154.0.11.214","Mozilla/5.0 (Windows NT 10.0; Win64; x64) AppleWebKit/537.36 (KHTML, like Gecko) Chrome/138.0.0.0 Safari/537.36","WebKit","Chrome","138.0.0.0","Windows","10.0","https://app.prolific.com/","en-US,en;q=0.9","669a686f263cbcb8e321ed85","686d226cabeef709c732f8e1","686e3138a06fe5d94aece684","669a686f263cbcb8e321ed85","2025-07-09T09:18:19.034Z","","","","","","MotivationQ","","","","","","","","","","","","","","","","","","","","","","","","","","","","","","","","","","","","","","50"
"","","","","ctl-task-cpt","57","685023","0.0-10.0-0.1","62","1","2025-07-09 09:07:20","7701e855f2ef39aa3fd6c71abdc6918a","154.0.11.214","Mozilla/5.0 (Windows NT 10.0; Win64; x64) AppleWebKit/537.36 (KHTML, like Gecko) Chrome/138.0.0.0 Safari/537.36","WebKit","Chrome","138.0.0.0","Windows","10.0","https://app.prolific.com/","en-US,en;q=0.9","669a686f263cbcb8e321ed85","686d226cabeef709c732f8e1","686e3138a06fe5d94aece684","669a686f263cbcb8e321ed85","2025-07-09T09:18:45.376Z","","","","","","","","","","","","","","","","win-only","1","g1:NE,g2:SW","0.9","2","0","661248.1","1360.5","6365.4","23312","1","4","4","6","1","1","-2","0","0","0","1872.5","3000","1240","[""up"",""right""]","{""num_key_presses"":8,""num_perfect"":4,""num_errors"":3,""num_randdir"":0,""num_randdir_good_moves"":0,""num_whilered"":1,""num_whileblue"":0,""num_blue"":0,""num_good_moves"":4}","[416.5714133126395,417.82142761775424,1.4,416.5714133126395,417.82142761775424,108.1,416.5714133126395,417.82142761775424,211.2,415.3214133126395,416.57142761775424,312.9,461.5714133126395,424.07142761775424,413.3,531.5714133126395,484.07142761775424,513.7,510.3214133126395,491.57142761775424,616.7,324.0714133126395,575.3214276177542,717.2,209.0714133126395,670.3214276177542,819.7,141.5714133126395,711.5714276177542,924.3,136.5714133126395,720.3214276177542,1028.6,122.8214133126395,726.5714276177542,1130,105.3214133126395,732.8214276177542,1233.2,435.3214133126395,427.82142761775424,1334.4,839.0714133126395,-38.42857238224575,1439.2,831.5714133126395,-40.92857238224575,1540.9,811.5714133126395,-24.678572382245747,1650,756.5714133126395,56.57142761775425,1750.6,756.5714133126395,56.57142761775425,1852.5,756.5714133126395,56.57142761775425,1972.4,744.0714133126395,62.82142761775425,2073.3,722.8214133126395,161.57142761775424,2175,661.5714133126395,327.82142761775424,2276.2,621.5714133126395,392.82142761775424,2384.1,582.8214133126395,420.32142761775424,2489.3,511.5714133126395,415.32142761775424,2591.7,494.0714133126395,407.82142761775424,2698.9,271.5714133126395,467.82142761775424,2799.6,-137.1785866873605,770.3214276177542,2900.3,-220.9285866873605,826.5714276177542,3003.4,-254.6785866873605,797.8214276177542,3109.2,-74.6785866873605,740.3214276177542,3211.2,-139.6785866873605,709.0714276177542,3313.5,-225.9285866873605,700.3214276177542,3418,-225.9285866873605,700.3214276177542,3521.5,-225.9285866873605,700.3214276177542,3623.6,-225.9285866873605,700.3214276177542,3725.2,-225.9285866873605,700.3214276177542,3828,-225.9285866873605,700.3214276177542,3930.3,-250.9285866873605,686.5714276177542,4037.6,-293.4285866873605,667.8214276177542,4141.1,-337.1785866873605,652.8214276177542,4241.5,-337.1785866873605,652.8214276177542,4347.8,-347.1785866873605,649.0714276177542,4453.3,-348.4285866873605,649.0714276177542,4558.2,-354.6785866873605,646.5714276177542,4659.1,-362.1785866873605,644.0714276177542,4760.5,-373.4285866873605,640.3214276177542,4861.9,-375.9285866873605,639.0714276177542,4965.1]","[289.1,289.1,1000,0,-710.9,""error"",""-"",""-"",""no_move"",633.1,343.9,1000,0,-366.8,""while_red"",""-"",""-"",""no_move"",4160.9,3871.6,2468.6,1293.9,398.4,""smooth"",""up"",""up"",""good_move"",4486.9,325.7,2656,4161.2,-2330.3,""error"",""-"",""-"",""no_move"",8210.2,3723,2184.6,5491.6,534,""smooth"",""up"",""up"",""good_move"",9680.8,1470.5,3272.6,8210.4,-1802.1,""error"",""-"",""-"",""no_move"",13461.5,3780.2,2187.5,10681.9,592.1,""smooth"",""right"",""right"",""good_move"",16836.4,3374.3,2833.7,13462.1,540.6,""smooth"",""right"",""right"",""good_move""]","",""
"4132","","<div style=""width:500px;"">
  <p>What determined the result of this run?</p>
  </div>","78","html-slider-response","58","689159","0.0-10.0-1.1","62","1","2025-07-09 09:07:20","7701e855f2ef39aa3fd6c71abdc6918a","154.0.11.214","Mozilla/5.0 (Windows NT 10.0; Win64; x64) AppleWebKit/537.36 (KHTML, like Gecko) Chrome/138.0.0.0 Safari/537.36","WebKit","Chrome","138.0.0.0","Windows","10.0","https://app.prolific.com/","en-US,en;q=0.9","669a686f263cbcb8e321ed85","686d226cabeef709c732f8e1","686e3138a06fe5d94aece684","669a686f263cbcb8e321ed85","2025-07-09T09:18:49.512Z","","","","","","AttribQ","","","","","","","","","","","","","","","","","","","","","","","","","","","","","","","","","","","","","","50"
"6365","","<div style=""width:500px;"">
  <p>How much control did you have over the ball?</p>
  </div>","76","html-slider-response","59","695535","0.0-10.0-2.1","62","1","2025-07-09 09:07:20","7701e855f2ef39aa3fd6c71abdc6918a","154.0.11.214","Mozilla/5.0 (Windows NT 10.0; Win64; x64) AppleWebKit/537.36 (KHTML, like Gecko) Chrome/138.0.0.0 Safari/537.36","WebKit","Chrome","138.0.0.0","Windows","10.0","https://app.prolific.com/","en-US,en;q=0.9","669a686f263cbcb8e321ed85","686d226cabeef709c732f8e1","686e3138a06fe5d94aece684","669a686f263cbcb8e321ed85","2025-07-09T09:18:55.890Z","","","","","","ControlQ","","","","","","","","","","","","","","","","","","","","","","","","","","","","","","","","","","","","","","50"
"8810","","<div style=""width:500px;"">
  <p>How would you describe your current emotional state?</p>
  </div>","60","html-slider-response","60","704355","0.0-10.0-3.1","62","1","2025-07-09 09:07:20","7701e855f2ef39aa3fd6c71abdc6918a","154.0.11.214","Mozilla/5.0 (Windows NT 10.0; Win64; x64) AppleWebKit/537.36 (KHTML, like Gecko) Chrome/138.0.0.0 Safari/537.36","WebKit","Chrome","138.0.0.0","Windows","10.0","https://app.prolific.com/","en-US,en;q=0.9","669a686f263cbcb8e321ed85","686d226cabeef709c732f8e1","686e3138a06fe5d94aece684","669a686f263cbcb8e321ed85","2025-07-09T09:19:04.709Z","","","","","","StressQ","","","","","","","","","","","","","","","","","","","","","","","","","","","","","","","","","","","","","","50"
"11271","","<div style=""width:500px;"">
  <p>What best describes how you currently feel?</p>
  </div>","74","html-slider-response","61","715638","0.0-10.0-4.1","62","1","2025-07-09 09:07:20","7701e855f2ef39aa3fd6c71abdc6918a","154.0.11.214","Mozilla/5.0 (Windows NT 10.0; Win64; x64) AppleWebKit/537.36 (KHTML, like Gecko) Chrome/138.0.0.0 Safari/537.36","WebKit","Chrome","138.0.0.0","Windows","10.0","https://app.prolific.com/","en-US,en;q=0.9","669a686f263cbcb8e321ed85","686d226cabeef709c732f8e1","686e3138a06fe5d94aece684","669a686f263cbcb8e321ed85","2025-07-09T09:19:15.992Z","","","","","","MotivationQ","","","","","","","","","","","","","","","","","","","","","","","","","","","","","","","","","","","","","","50"
"","","","","ctl-task-cpt","62","741004","0.0-10.0-0.2","62","1","2025-07-09 09:07:20","7701e855f2ef39aa3fd6c71abdc6918a","154.0.11.214","Mozilla/5.0 (Windows NT 10.0; Win64; x64) AppleWebKit/537.36 (KHTML, like Gecko) Chrome/138.0.0.0 Safari/537.36","WebKit","Chrome","138.0.0.0","Windows","10.0","https://app.prolific.com/","en-US,en;q=0.9","669a686f263cbcb8e321ed85","686d226cabeef709c732f8e1","686e3138a06fe5d94aece684","669a686f263cbcb8e321ed85","2025-07-09T09:19:41.358Z","","","","","","","","","","","","","","","","win-only","2","g1:SE,g2:NW","0.8","3","0","718195.9","1331.3","6335.5","22351.1","1","4","4","6","1","1","0","0","0","0","1375","3000","1100","[""down"",""right""]","{""num_key_presses"":5,""num_perfect"":4,""num_errors"":1,""num_randdir"":0,""num_randdir_good_moves"":0,""num_whilered"":0,""num_whileblue"":0,""num_blue"":0,""num_good_moves"":4}","[415.3214133126395,411.57142761775424,0.8,416.5714133126395,411.57142761775424,100,416.5714133126395,411.57142761775424,202.1,417.8214133126395,410.32142761775424,309.6,470.3214133126395,392.82142761775424,410.3,447.8214133126395,361.57142761775424,513.3,435.3214133126395,357.82142761775424,618.1,490.3214133126395,371.57142761775424,724.7,465.3214133126395,421.57142761775424,827.5,527.8214133126395,496.57142761775424,932.4,665.3214133126395,687.8214276177542,1040.2,702.8214133126395,732.8214276177542,1143.3,731.5714133126395,756.5714276177542,1249.8,752.8214133126395,764.0714276177542,1352.5,752.8214133126395,764.0714276177542,1455.6,751.5714133126395,764.0714276177542,1557.7,744.0714133126395,754.0714276177542,1661,671.5714133126395,719.0714276177542,1762.3,540.3214133126395,685.3214276177542,1864.1,537.8214133126395,685.3214276177542,1967.3,532.8214133126395,681.5714276177542,2074.9,535.3214133126395,667.8214276177542,2175,542.8214133126395,647.8214276177542,2276.7,564.0714133126395,631.5714276177542,2377.7,772.8214133126395,446.57142761775424,2479.6,716.5714133126395,442.82142761775424,2588.8,-543.4285866873605,697.8214276177542,2696.8,-543.4285866873605,697.8214276177542,2804.8,-543.4285866873605,697.8214276177542,2906.1,-543.4285866873605,697.8214276177542,3008.8,-543.4285866873605,697.8214276177542,3116.1,-543.4285866873605,697.8214276177542,3216.4,-543.4285866873605,697.8214276177542,3323.6,-543.4285866873605,687.8214276177542,3429.7,-543.4285866873605,656.5714276177542,3535.3,-543.4285866873605,644.0714276177542,3640.2,-543.4285866873605,642.8214276177542,3748.5,-543.4285866873605,641.5714276177542,3853.7,-543.4285866873605,641.5714276177542,3954.4,-543.4285866873605,641.5714276177542,4055.8,-543.4285866873605,641.5714276177542,4160.4,-543.4285866873605,641.5714276177542,4263.1,-543.4285866873605,641.5714276177542,4364.3,-543.4285866873605,641.5714276177542,4467.8,-543.4285866873605,641.5714276177542,4568.3,-543.4285866873605,641.5714276177542,4669.2,-543.4285866873605,641.5714276177542,4771.6,-543.4285866873605,641.5714276177542,4873.8,-543.4285866873605,641.5714276177542,4975.5]","[933.9,934,1000,0,-66,""error"",""-"",""-"",""no_move"",6186.7,5251,3215,1947.9,1023.9,""smooth"",""down"",""down"",""good_move"",9775.9,3585.6,2833.5,6190.3,752.1,""smooth"",""right"",""right"",""good_move"",12670.8,2893.8,2301.7,9777,592.1,""smooth"",""right"",""right"",""good_move"",15891.7,3219.3,2824.9,12672.4,394.4,""smooth"",""down"",""down"",""good_move""]","",""
"5500","","<div style=""width:500px;"">
  <p>What determined the result of this run?</p>
  </div>","80","html-slider-response","63","746513","0.0-10.0-1.2","62","1","2025-07-09 09:07:20","7701e855f2ef39aa3fd6c71abdc6918a","154.0.11.214","Mozilla/5.0 (Windows NT 10.0; Win64; x64) AppleWebKit/537.36 (KHTML, like Gecko) Chrome/138.0.0.0 Safari/537.36","WebKit","Chrome","138.0.0.0","Windows","10.0","https://app.prolific.com/","en-US,en;q=0.9","669a686f263cbcb8e321ed85","686d226cabeef709c732f8e1","686e3138a06fe5d94aece684","669a686f263cbcb8e321ed85","2025-07-09T09:19:46.867Z","","","","","","AttribQ","","","","","","","","","","","","","","","","","","","","","","","","","","","","","","","","","","","","","","50"
"8806","","<div style=""width:500px;"">
  <p>How much control did you have over the ball?</p>
  </div>","68","html-slider-response","64","755331","0.0-10.0-2.2","62","1","2025-07-09 09:07:20","7701e855f2ef39aa3fd6c71abdc6918a","154.0.11.214","Mozilla/5.0 (Windows NT 10.0; Win64; x64) AppleWebKit/537.36 (KHTML, like Gecko) Chrome/138.0.0.0 Safari/537.36","WebKit","Chrome","138.0.0.0","Windows","10.0","https://app.prolific.com/","en-US,en;q=0.9","669a686f263cbcb8e321ed85","686d226cabeef709c732f8e1","686e3138a06fe5d94aece684","669a686f263cbcb8e321ed85","2025-07-09T09:19:55.685Z","","","","","","ControlQ","","","","","","","","","","","","","","","","","","","","","","","","","","","","","","","","","","","","","","50"
"27154","","<div style=""width:500px;"">
  <p>How would you describe your current emotional state?</p>
  </div>","68","html-slider-response","65","782494","0.0-10.0-3.2","62","1","2025-07-09 09:07:20","7701e855f2ef39aa3fd6c71abdc6918a","154.0.11.214","Mozilla/5.0 (Windows NT 10.0; Win64; x64) AppleWebKit/537.36 (KHTML, like Gecko) Chrome/138.0.0.0 Safari/537.36","WebKit","Chrome","138.0.0.0","Windows","10.0","https://app.prolific.com/","en-US,en;q=0.9","669a686f263cbcb8e321ed85","686d226cabeef709c732f8e1","686e3138a06fe5d94aece684","669a686f263cbcb8e321ed85","2025-07-09T09:20:22.847Z","","","","","","StressQ","","","","","","","","","","","","","","","","","","","","","","","","","","","","","","","","","","","","","","50"
"3840","","<div style=""width:500px;"">
  <p>What best describes how you currently feel?</p>
  </div>","67","html-slider-response","66","786335","0.0-10.0-4.2","62","1","2025-07-09 09:07:20","7701e855f2ef39aa3fd6c71abdc6918a","154.0.11.214","Mozilla/5.0 (Windows NT 10.0; Win64; x64) AppleWebKit/537.36 (KHTML, like Gecko) Chrome/138.0.0.0 Safari/537.36","WebKit","Chrome","138.0.0.0","Windows","10.0","https://app.prolific.com/","en-US,en;q=0.9","669a686f263cbcb8e321ed85","686d226cabeef709c732f8e1","686e3138a06fe5d94aece684","669a686f263cbcb8e321ed85","2025-07-09T09:20:26.688Z","","","","","","MotivationQ","","","","","","","","","","","","","","","","","","","","","","","","","","","","","","","","","","","","","","50"
"","","","","ctl-task-cpt","67","806798","0.0-10.0-0.3","62","1","2025-07-09 09:07:20","7701e855f2ef39aa3fd6c71abdc6918a","154.0.11.214","Mozilla/5.0 (Windows NT 10.0; Win64; x64) AppleWebKit/537.36 (KHTML, like Gecko) Chrome/138.0.0.0 Safari/537.36","WebKit","Chrome","138.0.0.0","Windows","10.0","https://app.prolific.com/","en-US,en;q=0.9","669a686f263cbcb8e321ed85","686d226cabeef709c732f8e1","686e3138a06fe5d94aece684","669a686f263cbcb8e321ed85","2025-07-09T09:20:47.151Z","","","","","","","","","","","","","","","","win-only","2","g1:SE,g2:NW","0.7","4","0","788885.8","1561.1","6567.6","17437.1","1","4","8","6","1","1","1","1","0","0.007575757575757576","1083.1","3000","1705","[""down"",""right""]","{""num_key_presses"":4,""num_perfect"":3,""num_errors"":0,""num_randdir"":1,""num_randdir_good_moves"":1,""num_whilered"":0,""num_whileblue"":0,""num_blue"":0,""num_good_moves"":4}","[416.5714133126395,415.32142761775424,0.1,420.3214133126395,415.32142761775424,107.7,429.0714133126395,416.57142761775424,215.1,457.8214133126395,421.57142761775424,321.4,491.5714133126395,455.32142761775424,425.8,525.3214133126395,497.82142761775424,527.6,566.5714133126395,560.3214276177542,627.7,721.5714133126395,701.5714276177542,736.6,734.0714133126395,717.8214276177542,842.4,734.0714133126395,722.8214276177542,948.7,736.5714133126395,729.0714276177542,1051.4,739.0714133126395,731.5714276177542,1158.9,740.3214133126395,731.5714276177542,1267.1,746.5714133126395,731.5714276177542,1372.6,751.5714133126395,740.3214276177542,1479.3,789.0714133126395,751.5714276177542,1581.2,789.0714133126395,751.5714276177542,1685.4,762.8214133126395,752.8214276177542,1789.3,756.5714133126395,752.8214276177542,1894.2,616.5714133126395,750.3214276177542,2003.3,445.3214133126395,726.5714276177542,2107.1,401.5714133126395,709.0714276177542,2211.8,367.8214133126395,676.5714276177542,2313.2,336.5714133126395,671.5714276177542,2415.9,252.8214133126395,692.8214276177542,2523.7,160.3214133126395,732.8214276177542,2626.3,-348.4285866873605,960.3214276177542,2726.9,-543.4285866873605,960.3214276177542,2833.6,-543.4285866873605,960.3214276177542,2934.7,-543.4285866873605,960.3214276177542,3037.1,-543.4285866873605,960.3214276177542,3139.6,-543.4285866873605,960.3214276177542,3245.4,-543.4285866873605,960.3214276177542,3358.7,-543.4285866873605,960.3214276177542,3468.9,-543.4285866873605,960.3214276177542,3569.9,-543.4285866873605,960.3214276177542,3677.8,-543.4285866873605,960.3214276177542,3786.4,-543.4285866873605,960.3214276177542,3891.4,-543.4285866873605,960.3214276177542,3998,-543.4285866873605,960.3214276177542,4100.6,-543.4285866873605,960.3214276177542,4202.6,-543.4285866873605,960.3214276177542,4311,-543.4285866873605,960.3214276177542,4411.9,-543.4285866873605,960.3214276177542,4514.6,-543.4285866873605,960.3214276177542,4619.1,-543.4285866873605,960.3214276177542,4723.9,-543.4285866873605,960.3214276177542,4830.4,-543.4285866873605,960.3214276177542,4934.1]","[1723.2,1723.2,1000,0,723.2,""smooth"",""down"",""down"",""good_move"",4482.1,2758.5,2246.9,1723.7,511.6,""smooth"",""right"",""right"",""good_move"",7643,3160.3,2685.7,4482.7,474.6,""oops"",""down"",""right"",""good_move"",10685.6,3042.3,2260.5,7643.3,781.8,""smooth"",""down"",""down"",""good_move""]","",""
"2182","","<div style=""width:500px;"">
  <p>What determined the result of this run?</p>
  </div>","71","html-slider-response","68","808982","0.0-10.0-1.3","62","1","2025-07-09 09:07:20","7701e855f2ef39aa3fd6c71abdc6918a","154.0.11.214","Mozilla/5.0 (Windows NT 10.0; Win64; x64) AppleWebKit/537.36 (KHTML, like Gecko) Chrome/138.0.0.0 Safari/537.36","WebKit","Chrome","138.0.0.0","Windows","10.0","https://app.prolific.com/","en-US,en;q=0.9","669a686f263cbcb8e321ed85","686d226cabeef709c732f8e1","686e3138a06fe5d94aece684","669a686f263cbcb8e321ed85","2025-07-09T09:20:49.336Z","","","","","","AttribQ","","","","","","","","","","","","","","","","","","","","","","","","","","","","","","","","","","","","","","50"
"6087","","<div style=""width:500px;"">
  <p>How much control did you have over the ball?</p>
  </div>","40","html-slider-response","69","815071","0.0-10.0-2.3","62","1","2025-07-09 09:07:20","7701e855f2ef39aa3fd6c71abdc6918a","154.0.11.214","Mozilla/5.0 (Windows NT 10.0; Win64; x64) AppleWebKit/537.36 (KHTML, like Gecko) Chrome/138.0.0.0 Safari/537.36","WebKit","Chrome","138.0.0.0","Windows","10.0","https://app.prolific.com/","en-US,en;q=0.9","669a686f263cbcb8e321ed85","686d226cabeef709c732f8e1","686e3138a06fe5d94aece684","669a686f263cbcb8e321ed85","2025-07-09T09:20:55.424Z","","","","","","ControlQ","","","","","","","","","","","","","","","","","","","","","","","","","","","","","","","","","","","","","","50"
"2633","","<div style=""width:500px;"">
  <p>How would you describe your current emotional state?</p>
  </div>","38","html-slider-response","70","817705","0.0-10.0-3.3","62","1","2025-07-09 09:07:20","7701e855f2ef39aa3fd6c71abdc6918a","154.0.11.214","Mozilla/5.0 (Windows NT 10.0; Win64; x64) AppleWebKit/537.36 (KHTML, like Gecko) Chrome/138.0.0.0 Safari/537.36","WebKit","Chrome","138.0.0.0","Windows","10.0","https://app.prolific.com/","en-US,en;q=0.9","669a686f263cbcb8e321ed85","686d226cabeef709c732f8e1","686e3138a06fe5d94aece684","669a686f263cbcb8e321ed85","2025-07-09T09:20:58.058Z","","","","","","StressQ","","","","","","","","","","","","","","","","","","","","","","","","","","","","","","","","","","","","","","50"
"3569","","<div style=""width:500px;"">
  <p>What best describes how you currently feel?</p>
  </div>","67","html-slider-response","71","821275","0.0-10.0-4.3","62","1","2025-07-09 09:07:20","7701e855f2ef39aa3fd6c71abdc6918a","154.0.11.214","Mozilla/5.0 (Windows NT 10.0; Win64; x64) AppleWebKit/537.36 (KHTML, like Gecko) Chrome/138.0.0.0 Safari/537.36","WebKit","Chrome","138.0.0.0","Windows","10.0","https://app.prolific.com/","en-US,en;q=0.9","669a686f263cbcb8e321ed85","686d226cabeef709c732f8e1","686e3138a06fe5d94aece684","669a686f263cbcb8e321ed85","2025-07-09T09:21:01.628Z","","","","","","MotivationQ","","","","","","","","","","","","","","","","","","","","","","","","","","","","","","","","","","","","","","50"
"","","","","ctl-task-cpt","72","895641","0.0-10.0-0.4","62","1","2025-07-09 09:07:20","7701e855f2ef39aa3fd6c71abdc6918a","154.0.11.214","Mozilla/5.0 (Windows NT 10.0; Win64; x64) AppleWebKit/537.36 (KHTML, like Gecko) Chrome/138.0.0.0 Safari/537.36","WebKit","Chrome","138.0.0.0","Windows","10.0","https://app.prolific.com/","en-US,en;q=0.9","669a686f263cbcb8e321ed85","686d226cabeef709c732f8e1","686e3138a06fe5d94aece684","669a686f263cbcb8e321ed85","2025-07-09T09:22:15.994Z","","","","","","","","","","","","","","","","win-only","3","g1:SW,g2:NE","0.6","5","0","823825.5","1032.2","6040.4","71336.1","1","4","4","6","1","-1","-11","0","1","0","1566.4","3000","-740","[""down"",""left""]","{""num_key_presses"":21,""num_perfect"":7,""num_errors"":10,""num_randdir"":4,""num_randdir_good_moves"":2,""num_whilered"":0,""num_whileblue"":5,""num_blue"":5,""num_good_moves"":9}","[417.8214133126395,416.57142761775424,0.2,420.3214133126395,417.82142761775424,105.9,420.3214133126395,416.57142761775424,210.9,420.3214133126395,416.57142761775424,313,486.5714133126395,395.32142761775424,416.7,495.3214133126395,372.82142761775424,519.9,396.5714133126395,362.82142761775424,626.5,396.5714133126395,380.32142761775424,735.5,399.0714133126395,411.57142761775424,839.9,341.5714133126395,496.57142761775424,943.2,265.3214133126395,594.0714276177542,1047.3,246.5714133126395,631.5714276177542,1151.7,175.3214133126395,656.5714276177542,1251.7,101.5714133126395,717.8214276177542,1363.8,59.07141331263951,747.8214276177542,1470.2,59.07141331263951,747.8214276177542,1574.3,64.0714133126395,746.5714276177542,1690.9,91.5714133126395,744.0714276177542,1799,137.8214133126395,734.0714276177542,1908.8,146.5714133126395,725.3214276177542,2017.8,-82.1785866873605,836.5714276177542,2127.2,-503.4285866873605,960.3214276177542,2227.6,-543.4285866873605,960.3214276177542,2329.3,-543.4285866873605,960.3214276177542,2437.2,-543.4285866873605,960.3214276177542,2547.1,-543.4285866873605,960.3214276177542,2654.9,-543.4285866873605,960.3214276177542,2758,-543.4285866873605,960.3214276177542,2858.9,-543.4285866873605,960.3214276177542,2961.2,-543.4285866873605,960.3214276177542,3067.6,-543.4285866873605,960.3214276177542,3170,-543.4285866873605,960.3214276177542,3278.6,-543.4285866873605,960.3214276177542,3381.3,-543.4285866873605,960.3214276177542,3485.7,-543.4285866873605,960.3214276177542,3594,-543.4285866873605,960.3214276177542,3696.2,-543.4285866873605,959.0714276177542,3805.3,-543.4285866873605,956.5714276177542,3910.4,-543.4285866873605,956.5714276177542,4018,-543.4285866873605,945.3214276177542,4118.4,-543.4285866873605,916.5714276177542,4224.8,-543.4285866873605,906.5714276177542,4334.7,-543.4285866873605,906.5714276177542,4435.2,-543.4285866873605,906.5714276177542,4537.4,-543.4285866873605,905.3214276177542,4645.8,-543.4285866873605,871.5714276177542,4745.8,-543.4285866873605,824.0714276177542,4852.6,-543.4285866873605,806.5714276177542,4952.7]","[1917.6,1917.6,1006,0,911.6,""while_blue"",""down"",""left"",""good_move"",5363.8,3445.8,2540.3,1918,905.5,""smooth"",""down"",""down"",""good_move"",8471.2,3107,2323.6,5364.2,783.4,""while_blue"",""down"",""up"",""bad_move"",11481.4,3009.8,2474.4,8471.6,535.4,""while_blue"",""down"",""right"",""bad_move"",12720.7,1238.6,2867.9,11482.1,-1629.3,""error"",""-"",""-"",""no_move"",14288.6,1567.8,1821.2,13728.3,-1260.9,""error"",""-"",""-"",""no_move"",18477.3,4188.2,2556.8,15293.2,627.3,""oops"",""left"",""up"",""bad_move"",22320.1,3842.7,2754,18477.4,1088.7,""smooth"",""up"",""up"",""bad_move"",23615.6,1295.3,2638.5,22320.3,-1343.2,""error"",""-"",""-"",""no_move"",27478.6,3862.7,1853.8,24627.2,997.6,""while_blue"",""down"",""left"",""good_move"",29029.9,1551,2583.4,27478.9,-1032.3,""error"",""-"",""-"",""no_move"",30468.3,1438.2,2403.8,30033.9,-1969.4,""error"",""-"",""-"",""no_move"",34791.5,4322.6,2223.9,31471.3,1096.3,""oops"",""down"",""left"",""good_move"",38215.4,3423.5,2516.2,34791.9,907.3,""smooth"",""down"",""down"",""good_move"",41445.6,3229.9,2765.5,38215.7,464.4,""oops"",""down"",""up"",""bad_move"",45384.5,3938.8,1747,41445.7,2191.8,""smooth"",""right"",""right"",""bad_move"",47982.6,2596.6,1931.6,45386,665,""oops"",""down"",""down"",""good_move"",50622.5,2639.5,1849.4,47983,790.1,""smooth"",""left"",""left"",""good_move"",54303.7,3681,2944.6,50622.8,736.3,""while_blue"",""down"",""up"",""bad_move"",58479,4175.1,3507.5,54303.9,667.6,""smooth"",""down"",""down"",""good_move"",62703,4223.9,2570,58479.1,1653.9,""smooth"",""down"",""down"",""good_move""]","",""
"2431","","<div style=""width:500px;"">
  <p>What determined the result of this run?</p>
  </div>","31","html-slider-response","73","898074","0.0-10.0-1.4","62","1","2025-07-09 09:07:20","7701e855f2ef39aa3fd6c71abdc6918a","154.0.11.214","Mozilla/5.0 (Windows NT 10.0; Win64; x64) AppleWebKit/537.36 (KHTML, like Gecko) Chrome/138.0.0.0 Safari/537.36","WebKit","Chrome","138.0.0.0","Windows","10.0","https://app.prolific.com/","en-US,en;q=0.9","669a686f263cbcb8e321ed85","686d226cabeef709c732f8e1","686e3138a06fe5d94aece684","669a686f263cbcb8e321ed85","2025-07-09T09:22:18.427Z","","","","","","AttribQ","","","","","","","","","","","","","","","","","","","","","","","","","","","","","","","","","","","","","","50"
"4799","","<div style=""width:500px;"">
  <p>How much control did you have over the ball?</p>
  </div>","84","html-slider-response","74","902875","0.0-10.0-2.4","62","1","2025-07-09 09:07:20","7701e855f2ef39aa3fd6c71abdc6918a","154.0.11.214","Mozilla/5.0 (Windows NT 10.0; Win64; x64) AppleWebKit/537.36 (KHTML, like Gecko) Chrome/138.0.0.0 Safari/537.36","WebKit","Chrome","138.0.0.0","Windows","10.0","https://app.prolific.com/","en-US,en;q=0.9","669a686f263cbcb8e321ed85","686d226cabeef709c732f8e1","686e3138a06fe5d94aece684","669a686f263cbcb8e321ed85","2025-07-09T09:22:23.228Z","","","","","","ControlQ","","","","","","","","","","","","","","","","","","","","","","","","","","","","","","","","","","","","","","50"
"3620","","<div style=""width:500px;"">
  <p>How would you describe your current emotional state?</p>
  </div>","78","html-slider-response","75","906497","0.0-10.0-3.4","62","1","2025-07-09 09:07:20","7701e855f2ef39aa3fd6c71abdc6918a","154.0.11.214","Mozilla/5.0 (Windows NT 10.0; Win64; x64) AppleWebKit/537.36 (KHTML, like Gecko) Chrome/138.0.0.0 Safari/537.36","WebKit","Chrome","138.0.0.0","Windows","10.0","https://app.prolific.com/","en-US,en;q=0.9","669a686f263cbcb8e321ed85","686d226cabeef709c732f8e1","686e3138a06fe5d94aece684","669a686f263cbcb8e321ed85","2025-07-09T09:22:26.851Z","","","","","","StressQ","","","","","","","","","","","","","","","","","","","","","","","","","","","","","","","","","","","","","","50"
"2616","","<div style=""width:500px;"">
  <p>What best describes how you currently feel?</p>
  </div>","74","html-slider-response","76","909116","0.0-10.0-4.4","62","1","2025-07-09 09:07:20","7701e855f2ef39aa3fd6c71abdc6918a","154.0.11.214","Mozilla/5.0 (Windows NT 10.0; Win64; x64) AppleWebKit/537.36 (KHTML, like Gecko) Chrome/138.0.0.0 Safari/537.36","WebKit","Chrome","138.0.0.0","Windows","10.0","https://app.prolific.com/","en-US,en;q=0.9","669a686f263cbcb8e321ed85","686d226cabeef709c732f8e1","686e3138a06fe5d94aece684","669a686f263cbcb8e321ed85","2025-07-09T09:22:29.469Z","","","","","","MotivationQ","","","","","","","","","","","","","","","","","","","","","","","","","","","","","","","","","","","","","","50"
"","","","","ctl-task-cpt","77","948474","0.0-10.0-0.5","62","1","2025-07-09 09:07:20","7701e855f2ef39aa3fd6c71abdc6918a","154.0.11.214","Mozilla/5.0 (Windows NT 10.0; Win64; x64) AppleWebKit/537.36 (KHTML, like Gecko) Chrome/138.0.0.0 Safari/537.36","WebKit","Chrome","138.0.0.0","Windows","10.0","https://app.prolific.com/","en-US,en;q=0.9","669a686f263cbcb8e321ed85","686d226cabeef709c732f8e1","686e3138a06fe5d94aece684","669a686f263cbcb8e321ed85","2025-07-09T09:23:08.827Z","","","","","","","","","","","","","","","","win-only","2","g1:SE,g2:NW","0.5","6","0","911668.1","1038.7","6050.2","36330.2","1","4","8","6","2","8","8","8","0","0.06060606060606061","5011.5","3000","1695","[""left"",""up""]","{""num_key_presses"":6,""num_perfect"":2,""num_errors"":0,""num_randdir"":4,""num_randdir_good_moves"":4,""num_whilered"":0,""num_whileblue"":0,""num_blue"":0,""num_good_moves"":6}","[421.5714133126395,422.82142761775424,0.2,424.0714133126395,422.82142761775424,122.9,422.8214133126395,424.07142761775424,227.9,422.8214133126395,424.07142761775424,331.1,424.0714133126395,424.07142761775424,442.7,421.5714133126395,424.07142761775424,551.2,481.5714133126395,372.82142761775424,662.2,466.5714133126395,285.32142761775424,775.2,396.5714133126395,277.82142761775424,885,461.5714133126395,307.82142761775424,995.1,411.5714133126395,404.07142761775424,1124.9,489.0714133126395,426.57142761775424,1240.9,486.5714133126395,430.32142761775424,1349.2,486.5714133126395,434.07142761775424,1458.7,501.5714133126395,470.32142761775424,1576.3,501.5714133126395,474.07142761775424,1683.3,501.5714133126395,476.57142761775424,1784.1,484.0714133126395,476.57142761775424,1890.9,455.3214133126395,392.82142761775424,1997.5,457.8214133126395,301.57142761775424,2109.9,354.0714133126395,234.07142761775424,2217.3,359.0714133126395,229.07142761775424,2321.8,362.8214133126395,226.57142761775424,2428.9,389.0714133126395,391.57142761775424,2539.5,447.8214133126395,461.57142761775424,2646.3,466.5714133126395,477.82142761775424,2751.7,534.0714133126395,499.07142761775424,2860.9,501.5714133126395,491.57142761775424,2967.8,497.8214133126395,490.32142761775424,3069.9,496.5714133126395,406.57142761775424,3182.7,487.8214133126395,414.07142761775424,3290.5,501.5714133126395,471.57142761775424,3400.7,501.5714133126395,492.82142761775424,3513.8,502.8214133126395,502.82142761775424,3623.8,505.3214133126395,522.8214276177542,3731.3,506.5714133126395,525.3214276177542,3832.9,500.3214133126395,514.0714276177542,3940.5,501.5714133126395,492.82142761775424,4049.7,501.5714133126395,495.32142761775424,4160.7,500.3214133126395,495.32142761775424,4260.7,499.0714133126395,495.32142761775424,4364.6,499.0714133126395,495.32142761775424,4495.4,501.5714133126395,506.57142761775424,4602.7,501.5714133126395,520.3214276177542,4715.2,501.5714133126395,527.8214276177542,4824.4,497.8214133126395,521.5714276177542,4932.7]","[3789.2,3789.2,1000,0,2789.2,""smooth"",""up"",""up"",""good_move"",9281.5,5492,2109.2,3789.5,3382.8,""oops"",""up"",""up"",""good_move"",14767.4,5485.8,2204.8,9281.7,3281,""oops"",""up"",""left"",""good_move"",19808.2,5040.4,2967.1,14767.8,2073.3,""oops"",""up"",""left"",""good_move"",24740.1,4931.7,2539.7,19808.4,2392,""smooth"",""up"",""up"",""good_move"",30045.3,5305,3085.2,24740.3,2219.8,""oops"",""left"",""left"",""good_move""]","",""
"4261","","<div style=""width:500px;"">
  <p>What determined the result of this run?</p>
  </div>","84","html-slider-response","78","952735","0.0-10.0-1.5","62","1","2025-07-09 09:07:20","7701e855f2ef39aa3fd6c71abdc6918a","154.0.11.214","Mozilla/5.0 (Windows NT 10.0; Win64; x64) AppleWebKit/537.36 (KHTML, like Gecko) Chrome/138.0.0.0 Safari/537.36","WebKit","Chrome","138.0.0.0","Windows","10.0","https://app.prolific.com/","en-US,en;q=0.9","669a686f263cbcb8e321ed85","686d226cabeef709c732f8e1","686e3138a06fe5d94aece684","669a686f263cbcb8e321ed85","2025-07-09T09:23:13.088Z","","","","","","AttribQ","","","","","","","","","","","","","","","","","","","","","","","","","","","","","","","","","","","","","","50"
"2587","","<div style=""width:500px;"">
  <p>How much control did you have over the ball?</p>
  </div>","86","html-slider-response","79","955324","0.0-10.0-2.5","62","1","2025-07-09 09:07:20","7701e855f2ef39aa3fd6c71abdc6918a","154.0.11.214","Mozilla/5.0 (Windows NT 10.0; Win64; x64) AppleWebKit/537.36 (KHTML, like Gecko) Chrome/138.0.0.0 Safari/537.36","WebKit","Chrome","138.0.0.0","Windows","10.0","https://app.prolific.com/","en-US,en;q=0.9","669a686f263cbcb8e321ed85","686d226cabeef709c732f8e1","686e3138a06fe5d94aece684","669a686f263cbcb8e321ed85","2025-07-09T09:23:15.677Z","","","","","","ControlQ","","","","","","","","","","","","","","","","","","","","","","","","","","","","","","","","","","","","","","50"
"4251","","<div style=""width:500px;"">
  <p>How would you describe your current emotional state?</p>
  </div>","13","html-slider-response","80","959576","0.0-10.0-3.5","62","1","2025-07-09 09:07:20","7701e855f2ef39aa3fd6c71abdc6918a","154.0.11.214","Mozilla/5.0 (Windows NT 10.0; Win64; x64) AppleWebKit/537.36 (KHTML, like Gecko) Chrome/138.0.0.0 Safari/537.36","WebKit","Chrome","138.0.0.0","Windows","10.0","https://app.prolific.com/","en-US,en;q=0.9","669a686f263cbcb8e321ed85","686d226cabeef709c732f8e1","686e3138a06fe5d94aece684","669a686f263cbcb8e321ed85","2025-07-09T09:23:19.929Z","","","","","","StressQ","","","","","","","","","","","","","","","","","","","","","","","","","","","","","","","","","","","","","","50"
"6846","","<div style=""width:500px;"">
  <p>What best describes how you currently feel?</p>
  </div>","80","html-slider-response","81","966423","0.0-10.0-4.5","62","1","2025-07-09 09:07:20","7701e855f2ef39aa3fd6c71abdc6918a","154.0.11.214","Mozilla/5.0 (Windows NT 10.0; Win64; x64) AppleWebKit/537.36 (KHTML, like Gecko) Chrome/138.0.0.0 Safari/537.36","WebKit","Chrome","138.0.0.0","Windows","10.0","https://app.prolific.com/","en-US,en;q=0.9","669a686f263cbcb8e321ed85","686d226cabeef709c732f8e1","686e3138a06fe5d94aece684","669a686f263cbcb8e321ed85","2025-07-09T09:23:26.776Z","","","","","","MotivationQ","","","","","","","","","","","","","","","","","","","","","","","","","","","","","","","","","","","","","","50"
"","","","","ctl-task-cpt","82","997266","0.0-10.0-0.6","62","1","2025-07-09 09:07:20","7701e855f2ef39aa3fd6c71abdc6918a","154.0.11.214","Mozilla/5.0 (Windows NT 10.0; Win64; x64) AppleWebKit/537.36 (KHTML, like Gecko) Chrome/138.0.0.0 Safari/537.36","WebKit","Chrome","138.0.0.0","Windows","10.0","https://app.prolific.com/","en-US,en;q=0.9","669a686f263cbcb8e321ed85","686d226cabeef709c732f8e1","686e3138a06fe5d94aece684","669a686f263cbcb8e321ed85","2025-07-09T09:23:57.619Z","","","","","","","","","","","","","","","","win-only","0","g1:NW,g2:SE","0.4","7","0","968973.9","1737.6","6740.4","27814.4","1","4","8","6","1","1","0","8","8","0.06060606060606061","5002.8","3000","2115","[""left"",""up""]","{""num_key_presses"":6,""num_perfect"":1,""num_errors"":1,""num_randdir"":4,""num_randdir_good_moves"":3,""num_whilered"":0,""num_whileblue"":1,""num_blue"":1,""num_good_moves"":5}","[416.5714133126395,410.32142761775424,0.2,416.5714133126395,410.32142761775424,115,416.5714133126395,409.07142761775424,231.4,416.5714133126395,407.82142761775424,348.7,402.8214133126395,407.82142761775424,461.7,391.5714133126395,390.32142761775424,574.3,376.5714133126395,361.57142761775424,683.6,372.8214133126395,360.32142761775424,792.9,372.8214133126395,360.32142761775424,909.4,372.8214133126395,360.32142761775424,1023.8,372.8214133126395,360.32142761775424,1132,372.8214133126395,360.32142761775424,1234.4,372.8214133126395,360.32142761775424,1337.8,372.8214133126395,360.32142761775424,1456.6,372.8214133126395,360.32142761775424,1556.6,372.8214133126395,360.32142761775424,1662.5,372.8214133126395,360.32142761775424,1781.2,372.8214133126395,360.32142761775424,1899.3,372.8214133126395,360.32142761775424,2015,372.8214133126395,360.32142761775424,2116.9,372.8214133126395,360.32142761775424,2231.3,372.8214133126395,360.32142761775424,2332.9,372.8214133126395,360.32142761775424,2451.1,372.8214133126395,360.32142761775424,2565.2,372.8214133126395,360.32142761775424,2673,372.8214133126395,360.32142761775424,2790.7,372.8214133126395,360.32142761775424,2892.7,372.8214133126395,360.32142761775424,3009.4,372.8214133126395,360.32142761775424,3113.2,372.8214133126395,360.32142761775424,3231.1,372.8214133126395,360.32142761775424,3341.6,372.8214133126395,360.32142761775424,3461.6,372.8214133126395,360.32142761775424,3580.3,372.8214133126395,360.32142761775424,3698.2,372.8214133126395,360.32142761775424,3813.1,372.8214133126395,360.32142761775424,3926.8,372.8214133126395,360.32142761775424,4037.6,372.8214133126395,360.32142761775424,4138.2,372.8214133126395,360.32142761775424,4255.7,372.8214133126395,360.32142761775424,4374.5,372.8214133126395,360.32142761775424,4494.9,372.8214133126395,360.32142761775424,4614.8,372.8214133126395,360.32142761775424,4726.1,372.8214133126395,360.32142761775424,4844,372.8214133126395,360.32142761775424,4963.2]","[2201.2,2201.2,1000,0,1201.2,""oops"",""up"",""down"",""bad_move"",4623,2421.4,1482.3,2201.6,939.1,""oops"",""left"",""left"",""good_move"",8503,3879.6,1864.4,4623.4,2015.2,""oops"",""up"",""left"",""good_move"",12583.5,4080.4,3397.6,8503.1,682.8,""while_blue"",""up"",""up"",""good_move"",16594.2,4010.4,1891.5,12583.8,2118.9,""smooth"",""up"",""up"",""good_move"",20699.8,4105.4,2829.2,16594.4,1276.2,""oops"",""up"",""up"",""good_move""]","",""
"4990","","<div style=""width:500px;"">
  <p>What determined the result of this run?</p>
  </div>","80","html-slider-response","83","1002257","0.0-10.0-1.6","62","1","2025-07-09 09:07:20","7701e855f2ef39aa3fd6c71abdc6918a","154.0.11.214","Mozilla/5.0 (Windows NT 10.0; Win64; x64) AppleWebKit/537.36 (KHTML, like Gecko) Chrome/138.0.0.0 Safari/537.36","WebKit","Chrome","138.0.0.0","Windows","10.0","https://app.prolific.com/","en-US,en;q=0.9","669a686f263cbcb8e321ed85","686d226cabeef709c732f8e1","686e3138a06fe5d94aece684","669a686f263cbcb8e321ed85","2025-07-09T09:24:02.610Z","","","","","","AttribQ","","","","","","","","","","","","","","","","","","","","","","","","","","","","","","","","","","","","","","50"
"4265","","<div style=""width:500px;"">
  <p>How much control did you have over the ball?</p>
  </div>","71","html-slider-response","84","1006524","0.0-10.0-2.6","62","1","2025-07-09 09:07:20","7701e855f2ef39aa3fd6c71abdc6918a","154.0.11.214","Mozilla/5.0 (Windows NT 10.0; Win64; x64) AppleWebKit/537.36 (KHTML, like Gecko) Chrome/138.0.0.0 Safari/537.36","WebKit","Chrome","138.0.0.0","Windows","10.0","https://app.prolific.com/","en-US,en;q=0.9","669a686f263cbcb8e321ed85","686d226cabeef709c732f8e1","686e3138a06fe5d94aece684","669a686f263cbcb8e321ed85","2025-07-09T09:24:06.877Z","","","","","","ControlQ","","","","","","","","","","","","","","","","","","","","","","","","","","","","","","","","","","","","","","50"
"5662","","<div style=""width:500px;"">
  <p>How would you describe your current emotional state?</p>
  </div>","18","html-slider-response","85","1012188","0.0-10.0-3.6","62","1","2025-07-09 09:07:20","7701e855f2ef39aa3fd6c71abdc6918a","154.0.11.214","Mozilla/5.0 (Windows NT 10.0; Win64; x64) AppleWebKit/537.36 (KHTML, like Gecko) Chrome/138.0.0.0 Safari/537.36","WebKit","Chrome","138.0.0.0","Windows","10.0","https://app.prolific.com/","en-US,en;q=0.9","669a686f263cbcb8e321ed85","686d226cabeef709c732f8e1","686e3138a06fe5d94aece684","669a686f263cbcb8e321ed85","2025-07-09T09:24:12.541Z","","","","","","StressQ","","","","","","","","","","","","","","","","","","","","","","","","","","","","","","","","","","","","","","50"
"5563","","<div style=""width:500px;"">
  <p>What best describes how you currently feel?</p>
  </div>","78","html-slider-response","86","1017753","0.0-10.0-4.6","62","1","2025-07-09 09:07:20","7701e855f2ef39aa3fd6c71abdc6918a","154.0.11.214","Mozilla/5.0 (Windows NT 10.0; Win64; x64) AppleWebKit/537.36 (KHTML, like Gecko) Chrome/138.0.0.0 Safari/537.36","WebKit","Chrome","138.0.0.0","Windows","10.0","https://app.prolific.com/","en-US,en;q=0.9","669a686f263cbcb8e321ed85","686d226cabeef709c732f8e1","686e3138a06fe5d94aece684","669a686f263cbcb8e321ed85","2025-07-09T09:24:18.106Z","","","","","","MotivationQ","","","","","","","","","","","","","","","","","","","","","","","","","","","","","","","","","","","","","","50"
"","","","","ctl-task-cpt","87","1071914","0.0-10.0-0.7","62","1","2025-07-09 09:07:20","7701e855f2ef39aa3fd6c71abdc6918a","154.0.11.214","Mozilla/5.0 (Windows NT 10.0; Win64; x64) AppleWebKit/537.36 (KHTML, like Gecko) Chrome/138.0.0.0 Safari/537.36","WebKit","Chrome","138.0.0.0","Windows","10.0","https://app.prolific.com/","en-US,en;q=0.9","669a686f263cbcb8e321ed85","686d226cabeef709c732f8e1","686e3138a06fe5d94aece684","669a686f263cbcb8e321ed85","2025-07-09T09:25:12.267Z","","","","","","","","","","","","","","","","win-only","2","g1:SE,g2:NW","0.3","8","0","1020305","1243.3","6260.4","51123.9","1","4","4","6","2","4","3","11","8","0.08333333333333333","5017.1","3000","2060","[""left"",""up""]","{""num_key_presses"":8,""num_perfect"":2,""num_errors"":1,""num_randdir"":5,""num_randdir_good_moves"":4,""num_whilered"":0,""num_whileblue"":1,""num_blue"":1,""num_good_moves"":7}","[411.5714133126395,414.07142761775424,0.1,411.5714133126395,414.07142761775424,132,411.5714133126395,414.07142761775424,262.2,422.8214133126395,411.57142761775424,395.4,405.3214133126395,394.07142761775424,507.7,406.5714133126395,379.07142761775424,641.1,472.8214133126395,206.57142761775424,750.4,407.8214133126395,169.07142761775424,853.5,405.3214133126395,170.32142761775424,985.2,376.5714133126395,194.07142761775424,1118.4,437.8214133126395,311.57142761775424,1229.3,551.5714133126395,389.07142761775424,1362.3,554.0714133126395,461.57142761775424,1469,554.0714133126395,467.82142761775424,1600.1,549.0714133126395,494.07142761775424,1702.6,549.0714133126395,494.07142761775424,1814.3,534.0714133126395,471.57142761775424,1915.1,506.5714133126395,402.82142761775424,2023.6,521.5714133126395,366.57142761775424,2131.5,522.8214133126395,361.57142761775424,2266.2,482.8214133126395,527.8214276177542,2371.9,491.5714133126395,534.0714276177542,2478.5,491.5714133126395,534.0714276177542,2600.1,491.5714133126395,534.0714276177542,2701.3,556.5714133126395,447.82142761775424,2805.1,516.5714133126395,391.57142761775424,2906.9,480.3214133126395,365.32142761775424,3008.5,474.0714133126395,359.07142761775424,3133.4,474.0714133126395,359.07142761775424,3253.4,486.5714133126395,301.57142761775424,3386.5,471.5714133126395,307.82142761775424,3491.2,474.0714133126395,382.82142761775424,3595.4,486.5714133126395,416.57142761775424,3699.9,487.8214133126395,422.82142761775424,3829.5,490.3214133126395,440.32142761775424,3956.6,490.3214133126395,447.82142761775424,4086.1,490.3214133126395,456.57142761775424,4186.4,487.8214133126395,466.57142761775424,4311.5,486.5714133126395,467.82142761775424,4411.6,486.5714133126395,470.32142761775424,4512,484.0714133126395,471.57142761775424,4631.2,484.0714133126395,471.57142761775424,4753.4,686.5714133126395,612.8214276177542,4885.8,730.3214133126395,749.0714276177542,4987.1]","[3317.3,3317.3,1000,0,2317.3,""oops"",""up"",""left"",""good_move"",9105.8,5788.1,2755.5,3317.7,3032.6,""oops"",""up"",""right"",""bad_move"",12947.5,3841.4,2564.2,9106.1,1277.2,""smooth"",""up"",""up"",""good_move"",19014.6,6066.8,3069.7,12947.8,2997.1,""smooth"",""left"",""left"",""good_move"",25214.3,6199.6,2169.4,19014.7,4030.2,""oops"",""left"",""left"",""good_move"",31439.6,6225.1,5496,25214.5,729.1,""while_blue"",""up"",""left"",""good_move"",37572.8,6133,1947.6,31439.8,4185.4,""oops"",""up"",""up"",""good_move"",44210.7,6637.8,2780.7,37572.9,3857.1,""oops"",""up"",""up"",""good_move""]","",""
"6221","","<div style=""width:500px;"">
  <p>What determined the result of this run?</p>
  </div>","17","html-slider-response","88","1078137","0.0-10.0-1.7","62","1","2025-07-09 09:07:20","7701e855f2ef39aa3fd6c71abdc6918a","154.0.11.214","Mozilla/5.0 (Windows NT 10.0; Win64; x64) AppleWebKit/537.36 (KHTML, like Gecko) Chrome/138.0.0.0 Safari/537.36","WebKit","Chrome","138.0.0.0","Windows","10.0","https://app.prolific.com/","en-US,en;q=0.9","669a686f263cbcb8e321ed85","686d226cabeef709c732f8e1","686e3138a06fe5d94aece684","669a686f263cbcb8e321ed85","2025-07-09T09:25:18.490Z","","","","","","AttribQ","","","","","","","","","","","","","","","","","","","","","","","","","","","","","","","","","","","","","","50"
"3782","","<div style=""width:500px;"">
  <p>How much control did you have over the ball?</p>
  </div>","65","html-slider-response","89","1081922","0.0-10.0-2.7","62","1","2025-07-09 09:07:20","7701e855f2ef39aa3fd6c71abdc6918a","154.0.11.214","Mozilla/5.0 (Windows NT 10.0; Win64; x64) AppleWebKit/537.36 (KHTML, like Gecko) Chrome/138.0.0.0 Safari/537.36","WebKit","Chrome","138.0.0.0","Windows","10.0","https://app.prolific.com/","en-US,en;q=0.9","669a686f263cbcb8e321ed85","686d226cabeef709c732f8e1","686e3138a06fe5d94aece684","669a686f263cbcb8e321ed85","2025-07-09T09:25:22.275Z","","","","","","ControlQ","","","","","","","","","","","","","","","","","","","","","","","","","","","","","","","","","","","","","","50"
"4110","","<div style=""width:500px;"">
  <p>How would you describe your current emotional state?</p>
  </div>","22","html-slider-response","90","1086032","0.0-10.0-3.7","62","1","2025-07-09 09:07:20","7701e855f2ef39aa3fd6c71abdc6918a","154.0.11.214","Mozilla/5.0 (Windows NT 10.0; Win64; x64) AppleWebKit/537.36 (KHTML, like Gecko) Chrome/138.0.0.0 Safari/537.36","WebKit","Chrome","138.0.0.0","Windows","10.0","https://app.prolific.com/","en-US,en;q=0.9","669a686f263cbcb8e321ed85","686d226cabeef709c732f8e1","686e3138a06fe5d94aece684","669a686f263cbcb8e321ed85","2025-07-09T09:25:26.386Z","","","","","","StressQ","","","","","","","","","","","","","","","","","","","","","","","","","","","","","","","","","","","","","","50"
"3869","","<div style=""width:500px;"">
  <p>What best describes how you currently feel?</p>
  </div>","74","html-slider-response","91","1089903","0.0-10.0-4.7","62","1","2025-07-09 09:07:20","7701e855f2ef39aa3fd6c71abdc6918a","154.0.11.214","Mozilla/5.0 (Windows NT 10.0; Win64; x64) AppleWebKit/537.36 (KHTML, like Gecko) Chrome/138.0.0.0 Safari/537.36","WebKit","Chrome","138.0.0.0","Windows","10.0","https://app.prolific.com/","en-US,en;q=0.9","669a686f263cbcb8e321ed85","686d226cabeef709c732f8e1","686e3138a06fe5d94aece684","669a686f263cbcb8e321ed85","2025-07-09T09:25:30.256Z","","","","","","MotivationQ","","","","","","","","","","","","","","","","","","","","","","","","","","","","","","","","","","","","","","50"
