"rt","response_timestamp","stimulus","response","trial_type","trial_index","time_elapsed","internal_node_id","run_id","condition","recorded_at","source_code_version","ip","user_agent","device","browser","browser_version","platform","platform_version","referer","accept_language","PROLIFIC_PID","STUDY_ID","SESSION_ID","prolific_id","realtime","view_history","question_order","consent","success","question_id","eventType","responses","item_order","radio_event_ids","radio_event_times","key_event_times","mouse_event_times","straightlining","zigzagging","honeypot","which_type","canvas_config","goals_layout","control_level","trial_number","tutorial_trial_number","trial_start_time","phase1_start_time","phase2_start_time","phase3_start_time","goal_1_value","goal_1_distance","goal_2_value","goal_2_distance","goal_selected","outcome","outcome_total","participant_final_score","participant_initial_score","participant_final_score_prop","goal_choice_rt","allocated_time","allocated_time_remaining","goal_direction","counts","mouse_movements","key_presses","correct","slider_start","sub_question"
"70285","1752052363565","<p style='font-size:40px;line-height:1.25'><strong>Welcome to the experiment!</strong></p><p style='font-size:1.1em;line-height:1.25'>Thank you for your interest in our experiment! Before you begin, it is important that we obtain your informed consent to participate in the study.</p><p style='font-size:1.1em;line-height:1.25'>On the next screen will be an <strong>information sheet</strong> for you to read. To participate in the study we need you to read this information sheet and the following consent form carefully. If you agree with all the statements, please click the <strong>I agree</strong> button.</p><p style='font-size:1.1em;line-height:1.25'>Press <strong>Next</strong> to read the information sheet.</p>","0","custom-html-button-response","0","70293","0.0-0.0","165","1","2025-07-09 09:11:30","7701e855f2ef39aa3fd6c71abdc6918a","105.245.173.242","Mozilla/5.0 (Windows NT 10.0; Win64; x64) AppleWebKit/537.36 (KHTML, like Gecko) Chrome/138.0.0.0 Safari/537.36","WebKit","Chrome","138.0.0.0","Windows","10.0","https://app.prolific.com/","en-ZA,en-GB;q=0.9,en-US;q=0.8,en;q=0.7,he;q=0.6,hi;q=0.5,ko;q=0.4,zu;q=0.3,zh-CN;q=0.2,zh;q=0.1","666c4699beb014a7b85ccea1","686d226cabeef709c732f8e1","686e31288a0f29126c4c3dd8","666c4699beb014a7b85ccea1","2025-07-09T09:12:43.572Z","","","","","","","","","","","","","","","","","","","","","","","","","","","","","","","","","","","","","","","","","","","","",""
"159194","","","","instructions","1","229492","0.0-1.0","165","1","2025-07-09 09:11:30","7701e855f2ef39aa3fd6c71abdc6918a","105.245.173.242","Mozilla/5.0 (Windows NT 10.0; Win64; x64) AppleWebKit/537.36 (KHTML, like Gecko) Chrome/138.0.0.0 Safari/537.36","WebKit","Chrome","138.0.0.0","Windows","10.0","https://app.prolific.com/","en-ZA,en-GB;q=0.9,en-US;q=0.8,en;q=0.7,he;q=0.6,hi;q=0.5,ko;q=0.4,zu;q=0.3,zh-CN;q=0.2,zh;q=0.1","666c4699beb014a7b85ccea1","686d226cabeef709c732f8e1","686e31288a0f29126c4c3dd8","666c4699beb014a7b85ccea1","","[{""page_index"":0,""viewing_time"":82725},{""page_index"":1,""viewing_time"":76468}]","","","","","","","","","","","","","","","","","","","","","","","","","","","","","","","","","","","","","","","","","","","",""
"18455","","","{""Q0"":"""",""Q1"":"""",""Q2"":"""",""Q3"":"""",""Q4"":"""",""Q5"":"""",""Q6"":""I agree""}","survey-multi-choice","2","247958","0.0-2.0","165","1","2025-07-09 09:11:30","7701e855f2ef39aa3fd6c71abdc6918a","105.245.173.242","Mozilla/5.0 (Windows NT 10.0; Win64; x64) AppleWebKit/537.36 (KHTML, like Gecko) Chrome/138.0.0.0 Safari/537.36","WebKit","Chrome","138.0.0.0","Windows","10.0","https://app.prolific.com/","en-ZA,en-GB;q=0.9,en-US;q=0.8,en;q=0.7,he;q=0.6,hi;q=0.5,ko;q=0.4,zu;q=0.3,zh-CN;q=0.2,zh;q=0.1","666c4699beb014a7b85ccea1","686d226cabeef709c732f8e1","686e31288a0f29126c4c3dd8","666c4699beb014a7b85ccea1","","","[0,1,2,3,4,5,6]","true","","","","","","","","","","","","","","","","","","","","","","","","","","","","","","","","","","","","","","","","","",""
"33702","","","","fullscreen","3","282678","0.0-4.0","165","1","2025-07-09 09:11:30","7701e855f2ef39aa3fd6c71abdc6918a","105.245.173.242","Mozilla/5.0 (Windows NT 10.0; Win64; x64) AppleWebKit/537.36 (KHTML, like Gecko) Chrome/138.0.0.0 Safari/537.36","WebKit","Chrome","138.0.0.0","Windows","10.0","https://app.prolific.com/","en-ZA,en-GB;q=0.9,en-US;q=0.8,en;q=0.7,he;q=0.6,hi;q=0.5,ko;q=0.4,zu;q=0.3,zh-CN;q=0.2,zh;q=0.1","666c4699beb014a7b85ccea1","686d226cabeef709c732f8e1","686e31288a0f29126c4c3dd8","666c4699beb014a7b85ccea1","","","","","true","","","","","","","","","","","","","","","","","","","","","","","","","","","","","","","","","","","","","","","","",""
"9506","1752052585465"," <p style='font-size:1.1em;line-height:1.25'>Thank you for completing the consent form and closing all other tabs.</p><p style='font-size:1.1em;line-height:1.25'>We will now invite you to fill in some demographic information and questionnaires, before starting the game.<br>This will take about 5 minutes.<br></p><p style='font-size:1.1em;line-height:1.25'>Press the <strong>Next</strong> button to continue.</p>","0","custom-html-button-response","4","292188","0.0-5.0","165","1","2025-07-09 09:11:30","7701e855f2ef39aa3fd6c71abdc6918a","105.245.173.242","Mozilla/5.0 (Windows NT 10.0; Win64; x64) AppleWebKit/537.36 (KHTML, like Gecko) Chrome/138.0.0.0 Safari/537.36","WebKit","Chrome","138.0.0.0","Windows","10.0","https://app.prolific.com/","en-ZA,en-GB;q=0.9,en-US;q=0.8,en;q=0.7,he;q=0.6,hi;q=0.5,ko;q=0.4,zu;q=0.3,zh-CN;q=0.2,zh;q=0.1","666c4699beb014a7b85ccea1","686d226cabeef709c732f8e1","686e31288a0f29126c4c3dd8","666c4699beb014a7b85ccea1","2025-07-09T09:16:25.467Z","","","","","","","","","","","","","","","","","","","","","","","","","","","","","","","","","","","","","","","","","","","","",""
"4079","","","{""age"":""36""}","survey-text","5","296285","0.0-6.0-0.0","165","1","2025-07-09 09:11:30","7701e855f2ef39aa3fd6c71abdc6918a","105.245.173.242","Mozilla/5.0 (Windows NT 10.0; Win64; x64) AppleWebKit/537.36 (KHTML, like Gecko) Chrome/138.0.0.0 Safari/537.36","WebKit","Chrome","138.0.0.0","Windows","10.0","https://app.prolific.com/","en-ZA,en-GB;q=0.9,en-US;q=0.8,en;q=0.7,he;q=0.6,hi;q=0.5,ko;q=0.4,zu;q=0.3,zh-CN;q=0.2,zh;q=0.1","666c4699beb014a7b85ccea1","686d226cabeef709c732f8e1","686e31288a0f29126c4c3dd8","666c4699beb014a7b85ccea1","","","","","","0","demographics","","","","","","","","","","","","","","","","","","","","","","","","","","","","","","","","","","","","","","",""
"3714","","","{""gender_identity"":""female/woman""}","survey-multi-choice","6","300004","0.0-6.0-1.0","165","1","2025-07-09 09:11:30","7701e855f2ef39aa3fd6c71abdc6918a","105.245.173.242","Mozilla/5.0 (Windows NT 10.0; Win64; x64) AppleWebKit/537.36 (KHTML, like Gecko) Chrome/138.0.0.0 Safari/537.36","WebKit","Chrome","138.0.0.0","Windows","10.0","https://app.prolific.com/","en-ZA,en-GB;q=0.9,en-US;q=0.8,en;q=0.7,he;q=0.6,hi;q=0.5,ko;q=0.4,zu;q=0.3,zh-CN;q=0.2,zh;q=0.1","666c4699beb014a7b85ccea1","686d226cabeef709c732f8e1","686e31288a0f29126c4c3dd8","666c4699beb014a7b85ccea1","","","[0]","","","1","demographics","","","","","","","","","","","","","","","","","","","","","","","","","","","","","","","","","","","","","","",""
"4005","","","{""assigned_sex"":""female""}","survey-multi-choice","7","304014","0.0-6.0-2.0","165","1","2025-07-09 09:11:30","7701e855f2ef39aa3fd6c71abdc6918a","105.245.173.242","Mozilla/5.0 (Windows NT 10.0; Win64; x64) AppleWebKit/537.36 (KHTML, like Gecko) Chrome/138.0.0.0 Safari/537.36","WebKit","Chrome","138.0.0.0","Windows","10.0","https://app.prolific.com/","en-ZA,en-GB;q=0.9,en-US;q=0.8,en;q=0.7,he;q=0.6,hi;q=0.5,ko;q=0.4,zu;q=0.3,zh-CN;q=0.2,zh;q=0.1","666c4699beb014a7b85ccea1","686d226cabeef709c732f8e1","686e31288a0f29126c4c3dd8","666c4699beb014a7b85ccea1","","","[0]","","","2","demographics","","","","","","","","","","","","","","","","","","","","","","","","","","","","","","","","","","","","","","",""
"4786","","","{""menstrual_cycle"":""Yes""}","survey-multi-choice","8","308805","0.0-6.0-3.0","165","1","2025-07-09 09:11:30","7701e855f2ef39aa3fd6c71abdc6918a","105.245.173.242","Mozilla/5.0 (Windows NT 10.0; Win64; x64) AppleWebKit/537.36 (KHTML, like Gecko) Chrome/138.0.0.0 Safari/537.36","WebKit","Chrome","138.0.0.0","Windows","10.0","https://app.prolific.com/","en-ZA,en-GB;q=0.9,en-US;q=0.8,en;q=0.7,he;q=0.6,hi;q=0.5,ko;q=0.4,zu;q=0.3,zh-CN;q=0.2,zh;q=0.1","666c4699beb014a7b85ccea1","686d226cabeef709c732f8e1","686e31288a0f29126c4c3dd8","666c4699beb014a7b85ccea1","","","[0]","","","4","demographics","","","","","","","","","","","","","","","","","","","","","","","","","","","","","","","","","","","","","","",""
"7374","","","{""education"":""Master's Degree (e.g., MSc)""}","survey-multi-choice","9","316183","0.0-6.0-4.0","165","1","2025-07-09 09:11:30","7701e855f2ef39aa3fd6c71abdc6918a","105.245.173.242","Mozilla/5.0 (Windows NT 10.0; Win64; x64) AppleWebKit/537.36 (KHTML, like Gecko) Chrome/138.0.0.0 Safari/537.36","WebKit","Chrome","138.0.0.0","Windows","10.0","https://app.prolific.com/","en-ZA,en-GB;q=0.9,en-US;q=0.8,en;q=0.7,he;q=0.6,hi;q=0.5,ko;q=0.4,zu;q=0.3,zh-CN;q=0.2,zh;q=0.1","666c4699beb014a7b85ccea1","686d226cabeef709c732f8e1","686e31288a0f29126c4c3dd8","666c4699beb014a7b85ccea1","","","[0]","","","5","demographics","","","","","","","","","","","","","","","","","","","","","","","","","","","","","","","","","","","","","","",""
"10520","","","{""education"":""Doctoral Degree (e.g., PhD)""}","survey-multi-choice","10","326708","0.0-6.0-5.0","165","1","2025-07-09 09:11:30","7701e855f2ef39aa3fd6c71abdc6918a","105.245.173.242","Mozilla/5.0 (Windows NT 10.0; Win64; x64) AppleWebKit/537.36 (KHTML, like Gecko) Chrome/138.0.0.0 Safari/537.36","WebKit","Chrome","138.0.0.0","Windows","10.0","https://app.prolific.com/","en-ZA,en-GB;q=0.9,en-US;q=0.8,en;q=0.7,he;q=0.6,hi;q=0.5,ko;q=0.4,zu;q=0.3,zh-CN;q=0.2,zh;q=0.1","666c4699beb014a7b85ccea1","686d226cabeef709c732f8e1","686e31288a0f29126c4c3dd8","666c4699beb014a7b85ccea1","2025-07-09T09:16:59.986Z","","[0]","","","6","demographics","","","","","","","","","","","","","","","","","","","","","","","","","","","","","","","","","","","","","","",""
"338048","","","{""mental_health_condition"":""Obsessive Compulsive Disorder (OCD)"",""mental_health_treatment"":""Cognitive Behavioral Therapy "",""psychiatric_medication"":""Paroxetine, 20 mg once a day ""}","survey-text","11","664767","0.0-7.0-0.0","165","1","2025-07-09 09:11:30","7701e855f2ef39aa3fd6c71abdc6918a","105.245.173.242","Mozilla/5.0 (Windows NT 10.0; Win64; x64) AppleWebKit/537.36 (KHTML, like Gecko) Chrome/138.0.0.0 Safari/537.36","WebKit","Chrome","138.0.0.0","Windows","10.0","https://app.prolific.com/","en-ZA,en-GB;q=0.9,en-US;q=0.8,en;q=0.7,he;q=0.6,hi;q=0.5,ko;q=0.4,zu;q=0.3,zh-CN;q=0.2,zh;q=0.1","666c4699beb014a7b85ccea1","686d226cabeef709c732f8e1","686e31288a0f29126c4c3dd8","666c4699beb014a7b85ccea1","2025-07-09T09:22:38.046Z","","","","","1","mental_health","","","","","","","","","","","","","","","","","","","","","","","","","","","","","","","","","","","","","","",""
"11612","","","{""depression_history"":[""Yes""]}","survey-multi-select","12","676395","0.0-7.0-1.0","165","1","2025-07-09 09:11:30","7701e855f2ef39aa3fd6c71abdc6918a","105.245.173.242","Mozilla/5.0 (Windows NT 10.0; Win64; x64) AppleWebKit/537.36 (KHTML, like Gecko) Chrome/138.0.0.0 Safari/537.36","WebKit","Chrome","138.0.0.0","Windows","10.0","https://app.prolific.com/","en-ZA,en-GB;q=0.9,en-US;q=0.8,en;q=0.7,he;q=0.6,hi;q=0.5,ko;q=0.4,zu;q=0.3,zh-CN;q=0.2,zh;q=0.1","666c4699beb014a7b85ccea1","686d226cabeef709c732f8e1","686e31288a0f29126c4c3dd8","666c4699beb014a7b85ccea1","","","[0]","","","","mental_health","","","","","","","","","","","","","","","","","","","","","","","","","","","","","","","","","","","","","","",""
"26336","","","{""depression_episodes"":""3-5"",""depression_recent"":""More than 1 year ago""}","survey-multi-choice","13","702740","0.0-7.0-2.0-0.0","165","1","2025-07-09 09:11:30","7701e855f2ef39aa3fd6c71abdc6918a","105.245.173.242","Mozilla/5.0 (Windows NT 10.0; Win64; x64) AppleWebKit/537.36 (KHTML, like Gecko) Chrome/138.0.0.0 Safari/537.36","WebKit","Chrome","138.0.0.0","Windows","10.0","https://app.prolific.com/","en-ZA,en-GB;q=0.9,en-US;q=0.8,en;q=0.7,he;q=0.6,hi;q=0.5,ko;q=0.4,zu;q=0.3,zh-CN;q=0.2,zh;q=0.1","666c4699beb014a7b85ccea1","686d226cabeef709c732f8e1","686e31288a0f29126c4c3dd8","666c4699beb014a7b85ccea1","2025-07-09T09:23:16.018Z","","[0,1]","","","3","mental_health","","","","","","","","","","","","","","","","","","","","","","","","","","","","","","","","","","","","","","",""
"359117.7000000002","","","","survey-template","14","1061871","0.0-7.0-3.0","165","1","2025-07-09 09:11:30","7701e855f2ef39aa3fd6c71abdc6918a","105.245.173.242","Mozilla/5.0 (Windows NT 10.0; Win64; x64) AppleWebKit/537.36 (KHTML, like Gecko) Chrome/138.0.0.0 Safari/537.36","WebKit","Chrome","138.0.0.0","Windows","10.0","https://app.prolific.com/","en-ZA,en-GB;q=0.9,en-US;q=0.8,en;q=0.7,he;q=0.6,hi;q=0.5,ko;q=0.4,zu;q=0.3,zh-CN;q=0.2,zh;q=0.1","666c4699beb014a7b85ccea1","686d226cabeef709c732f8e1","686e31288a0f29126c4c3dd8","666c4699beb014a7b85ccea1","2025-07-09T09:29:15.149Z","","","","","","ius","{""Q01"":""3"",""Q02"":""4"",""Q03"":""1"",""Q04"":""2"",""Q05"":""1"",""Q06"":""0"",""Q07"":""1"",""Q08"":""0"",""Q09"":""3"",""Q10"":""1"",""Q11"":""0"",""Q12"":""3"",""Q13"":""3""}","[0,1,2,3,4,5,6,7,8,9,10,11,12]","[""Q01"",""Q02"",""Q03"",""Q04"",""Q05"",""Q06"",""Q07"",""Q08"",""Q09"",""Q10"",""Q11"",""Q12"",""Q13""]","[136324.2000000002,141254.59999999963,146109.89999999944,152136.5,160017.2999999998,294244,299409.5999999996,306522.7000000002,314282.5999999996,320417.2999999998,323734.7000000002,349340.5999999996,357323.2999999998]","[]","[136324.2000000002,141254.59999999963,146109.89999999944,152136.5,160017.2999999998,161229.2000000002,294244,299409.5999999996,303913.2999999998,306522.7000000002,314282.5999999996,320417.2999999998,323734.7000000002,325090.5,349340.5999999996,355557.7000000002,357323.2999999998,359112.7999999998]","0.3076923076923077","0.5833333333333334","0","","","","","","","","","","","","","","","","","","","","","","","","","","","","","",""
"6175","1752053361325","<p style='font-size:1.1em;line-height:1.25'>In the following, we will ask you a few questions relating to your experiences over the past month.<br></p><p style='font-size:1.1em;line-height:1.25'>Press the <strong>Next</strong> button to continue.</p>","0","custom-html-button-response","15","1068048","0.0-7.0-4.0","165","1","2025-07-09 09:11:30","7701e855f2ef39aa3fd6c71abdc6918a","105.245.173.242","Mozilla/5.0 (Windows NT 10.0; Win64; x64) AppleWebKit/537.36 (KHTML, like Gecko) Chrome/138.0.0.0 Safari/537.36","WebKit","Chrome","138.0.0.0","Windows","10.0","https://app.prolific.com/","en-ZA,en-GB;q=0.9,en-US;q=0.8,en;q=0.7,he;q=0.6,hi;q=0.5,ko;q=0.4,zu;q=0.3,zh-CN;q=0.2,zh;q=0.1","666c4699beb014a7b85ccea1","686d226cabeef709c732f8e1","686e31288a0f29126c4c3dd8","666c4699beb014a7b85ccea1","2025-07-09T09:29:21.327Z","","","","","","","","","","","","","","","","","","","","","","","","","","","","","","","","","","","","","","","","","","","","",""
"118630.40000000037","","","","survey-template","16","1186689","0.0-7.0-5.0","165","1","2025-07-09 09:11:30","7701e855f2ef39aa3fd6c71abdc6918a","105.245.173.242","Mozilla/5.0 (Windows NT 10.0; Win64; x64) AppleWebKit/537.36 (KHTML, like Gecko) Chrome/138.0.0.0 Safari/537.36","WebKit","Chrome","138.0.0.0","Windows","10.0","https://app.prolific.com/","en-ZA,en-GB;q=0.9,en-US;q=0.8,en;q=0.7,he;q=0.6,hi;q=0.5,ko;q=0.4,zu;q=0.3,zh-CN;q=0.2,zh;q=0.1","666c4699beb014a7b85ccea1","686d226cabeef709c732f8e1","686e31288a0f29126c4c3dd8","666c4699beb014a7b85ccea1","2025-07-09T09:31:19.967Z","","","","","","pss","{""Q01"":""2"",""Q02"":""1"",""Q03"":""2"",""Q04"":""0"",""Q05"":""1"",""Q06"":""2"",""Q07"":""2"",""Q08"":""1"",""Q09"":""0"",""Q10"":""1""}","[0,1,2,3,4,5,6,7,8,9]","[""Q01"",""Q02"",""Q03"",""Q04"",""Q05"",""Q06"",""Q06"",""Q07"",""Q08"",""Q09"",""Q10""]","[13332.599999999627,20607,26782.900000000373,33979.299999999814,40270.200000000186,60319.299999999814,63147.40000000037,70133.40000000037,90423,98607,107705.29999999981]","[]","[0.599999999627471,13332.599999999627,20607,26782.900000000373,33979.299999999814,40270.200000000186,50108.700000000186,60319.299999999814,63147.40000000037,70133.40000000037,71452.59999999963,90423,98607,107705.29999999981,109073.79999999981,118615.20000000019]","0.4","0.6666666666666666","0","","","","","","","","","","","","","","","","","","","","","","","","","","","","","",""
"5540","1752053485511","<p style='font-size:1.1em;line-height:1.25'>Thank you for your answers! Now we will ask you a few more questions relating to your feelings in the last 24 hours.<br></p><p style='font-size:1.1em;line-height:1.25'>Press the <strong>Next</strong> button to continue.</p>","0","custom-html-button-response","17","1192234","0.0-7.0-6.0","165","1","2025-07-09 09:11:30","7701e855f2ef39aa3fd6c71abdc6918a","105.245.173.242","Mozilla/5.0 (Windows NT 10.0; Win64; x64) AppleWebKit/537.36 (KHTML, like Gecko) Chrome/138.0.0.0 Safari/537.36","WebKit","Chrome","138.0.0.0","Windows","10.0","https://app.prolific.com/","en-ZA,en-GB;q=0.9,en-US;q=0.8,en;q=0.7,he;q=0.6,hi;q=0.5,ko;q=0.4,zu;q=0.3,zh-CN;q=0.2,zh;q=0.1","666c4699beb014a7b85ccea1","686d226cabeef709c732f8e1","686e31288a0f29126c4c3dd8","666c4699beb014a7b85ccea1","2025-07-09T09:31:25.512Z","","","","","","","","","","","","","","","","","","","","","","","","","","","","","","","","","","","","","","","","","","","","",""
"143973.89999999944","","","","survey-template","18","1336234","0.0-7.0-7.0","165","1","2025-07-09 09:11:30","7701e855f2ef39aa3fd6c71abdc6918a","105.245.173.242","Mozilla/5.0 (Windows NT 10.0; Win64; x64) AppleWebKit/537.36 (KHTML, like Gecko) Chrome/138.0.0.0 Safari/537.36","WebKit","Chrome","138.0.0.0","Windows","10.0","https://app.prolific.com/","en-ZA,en-GB;q=0.9,en-US;q=0.8,en;q=0.7,he;q=0.6,hi;q=0.5,ko;q=0.4,zu;q=0.3,zh-CN;q=0.2,zh;q=0.1","666c4699beb014a7b85ccea1","686d226cabeef709c732f8e1","686e31288a0f29126c4c3dd8","666c4699beb014a7b85ccea1","2025-07-09T09:33:49.512Z","","","","","","drsp","{""Q01"":""1"",""Q02"":""0"",""Q03"":""0"",""Q04"":""2"",""Q05"":""1"",""Q06"":""0"",""Q07"":""0"",""Q08"":""2"",""Q09"":""4"",""Q10"":""2"",""Q11"":""5"",""Q12"":""4"",""Q13"":""5"",""Q14"":""1"",""Q15"":""4"",""Q16"":""1"",""Q17"":""3"",""Q18"":""5"",""Q19"":""2"",""Q20"":""3"",""Q21"":""1""}","[0,1,2,3,4,5,6,7,8,9,10,11,12,13,14,15,16,17,18,19,20]","[""Q01"",""Q02"",""Q03"",""Q04"",""Q05"",""Q06"",""Q06"",""Q07"",""Q08"",""Q09"",""Q09"",""Q10"",""Q11"",""Q12"",""Q13"",""Q14"",""Q15"",""Q16"",""Q17"",""Q18"",""Q19"",""Q20"",""Q21""]","[11651.399999999441,13653.699999999255,15802.199999999255,18553.099999999627,20769.599999999627,25887.299999999814,25893,29232.299999999814,33223.799999999814,57031.5,57487.299999999814,59532.799999999814,63003.59999999963,66520.09999999963,71169.69999999925,76323,81125.59999999963,83275.59999999963,102368.29999999981,107687.19999999925,116438.09999999963,122931.39999999944,129667.5]","[]","[0.5,8755.799999999814,9993.099999999627,11651.399999999441,13653.699999999255,15802.199999999255,18553.099999999627,20769.599999999627,25887.299999999814,25893,29232.299999999814,33223.799999999814,34587.199999999255,57031.5,57487.299999999814,59532.799999999814,63003.59999999963,66520.09999999963,71169.69999999925,76323,81125.59999999963,83275.59999999963,84966.19999999925,101113,102368.29999999981,107687.19999999925,116438.09999999963,122931.39999999944,129667.5,131084.7999999998,143950.39999999944]","0.23809523809523808","0.3","0","","","","","","","","","","","","","","","","","","","","","","","","","","","","","",""
"77476.09999999963","","","","survey-template","19","1413719","0.0-7.0-8.0","165","1","2025-07-09 09:11:30","7701e855f2ef39aa3fd6c71abdc6918a","105.245.173.242","Mozilla/5.0 (Windows NT 10.0; Win64; x64) AppleWebKit/537.36 (KHTML, like Gecko) Chrome/138.0.0.0 Safari/537.36","WebKit","Chrome","138.0.0.0","Windows","10.0","https://app.prolific.com/","en-ZA,en-GB;q=0.9,en-US;q=0.8,en;q=0.7,he;q=0.6,hi;q=0.5,ko;q=0.4,zu;q=0.3,zh-CN;q=0.2,zh;q=0.1","666c4699beb014a7b85ccea1","686d226cabeef709c732f8e1","686e31288a0f29126c4c3dd8","666c4699beb014a7b85ccea1","2025-07-09T09:35:06.997Z","","","","","","stress","{""Q01"":""1"",""Q02"":""3"",""Q03"":""0""}","[0,1,2]","[""Q01"",""Q02"",""Q03""]","[50670,54785.59999999963,60680.39999999944]","[]","[50670,54785.59999999963,60680.39999999944,61853.199999999255,77473]","0.3333333333333333","0.5","0","","","","","","","","","","","","","","","","","","","","","","","","","","","","","",""
"499928","","","","instructions","20","1913651","0.0-8.0-0.0","165","1","2025-07-09 09:11:30","7701e855f2ef39aa3fd6c71abdc6918a","105.245.173.242","Mozilla/5.0 (Windows NT 10.0; Win64; x64) AppleWebKit/537.36 (KHTML, like Gecko) Chrome/138.0.0.0 Safari/537.36","WebKit","Chrome","138.0.0.0","Windows","10.0","https://app.prolific.com/","en-ZA,en-GB;q=0.9,en-US;q=0.8,en;q=0.7,he;q=0.6,hi;q=0.5,ko;q=0.4,zu;q=0.3,zh-CN;q=0.2,zh;q=0.1","666c4699beb014a7b85ccea1","686d226cabeef709c732f8e1","686e31288a0f29126c4c3dd8","666c4699beb014a7b85ccea1","","[{""page_index"":0,""viewing_time"":149610},{""page_index"":1,""viewing_time"":78817},{""page_index"":2,""viewing_time"":42315},{""page_index"":3,""viewing_time"":229186}]","","","","","","","","","","","","","","","","","","","","","","","","","","","","","","","","","","","","","","","","","","","",""
"","","","","ctl-task-cpt","21","1953594","0.0-8.0-1.0","165","1","2025-07-09 09:11:30","7701e855f2ef39aa3fd6c71abdc6918a","105.245.173.242","Mozilla/5.0 (Windows NT 10.0; Win64; x64) AppleWebKit/537.36 (KHTML, like Gecko) Chrome/138.0.0.0 Safari/537.36","WebKit","Chrome","138.0.0.0","Windows","10.0","https://app.prolific.com/","en-ZA,en-GB;q=0.9,en-US;q=0.8,en;q=0.7,he;q=0.6,hi;q=0.5,ko;q=0.4,zu;q=0.3,zh-CN;q=0.2,zh;q=0.1","666c4699beb014a7b85ccea1","686d226cabeef709c732f8e1","686e31288a0f29126c4c3dd8","666c4699beb014a7b85ccea1","","","","","","","","","","","","","","","","","win-only","3","g1:SW,g2:NE","1","0","1","1916168.6","7472.2","11473.7","36922.3","2","4","4","6","1","-2","-8","0","0","0","4001.4","4000","-2125","[""down"",""left""]","{""num_key_presses"":17,""num_perfect"":3,""num_errors"":6,""num_randdir"":0,""num_randdir_good_moves"":0,""num_whilered"":8,""num_whileblue"":1,""num_blue"":1,""num_good_moves"":3}","[418.07142857142856,413.1808016640799,0.9,418.07142857142856,413.1808016640799,105.5,418.07142857142856,413.1808016640799,208.7,418.07142857142856,413.1808016640799,311.9,418.07142857142856,413.1808016640799,414.2,418.07142857142856,413.1808016640799,519.3,418.07142857142856,413.1808016640799,622.7,418.07142857142856,413.1808016640799,723.8,418.07142857142856,413.1808016640799,825.1,418.07142857142856,413.1808016640799,932.3,418.07142857142856,413.1808016640799,1039.3,418.07142857142856,413.1808016640799,1142.2,418.07142857142856,413.1808016640799,1242.8,418.07142857142856,413.1808016640799,1347.3,418.07142857142856,413.1808016640799,1467.5,418.07142857142856,413.1808016640799,1572.6,418.07142857142856,413.1808016640799,1674.3,418.07142857142856,413.1808016640799,1781.7,418.07142857142856,413.1808016640799,1893.6,418.07142857142856,413.1808016640799,1999.4,418.07142857142856,413.1808016640799,2106,418.07142857142856,413.1808016640799,2212.7,418.07142857142856,413.1808016640799,2326.7,418.07142857142856,413.1808016640799,2436,418.07142857142856,413.1808016640799,2541.6,418.07142857142856,413.1808016640799,2641.7,418.07142857142856,413.1808016640799,2750.8,418.07142857142856,413.1808016640799,2851.8,418.07142857142856,413.1808016640799,2961.9,418.07142857142856,413.1808016640799,3064.8,418.07142857142856,413.1808016640799,3166.6,418.07142857142856,413.1808016640799,3272.3,418.07142857142856,413.1808016640799,3374.3,418.07142857142856,413.1808016640799,3474.7,418.07142857142856,413.1808016640799,3584.5,418.07142857142856,413.1808016640799,3686.8,418.07142857142856,413.1808016640799,3790.3,418.07142857142856,413.1808016640799,3902.7]","[80,79.8,1000,0.2,-920.1,""error"",""-"",""-"",""no_move"",267.1,184,1000,0.2,-733.1,""while_red"",""-"",""-"",""no_move"",7965.6,7882.5,2831.7,1086.5,4047.4,""smooth"",""left"",""left"",""good_move"",8191.3,222.8,2775.7,7968.7,-2553,""error"",""-"",""-"",""no_move"",8398.9,202.8,2775.7,7968.7,-2345.4,""while_red"",""-"",""-"",""no_move"",8563.8,367.6,2775.7,7968.7,-2180.6,""while_red"",""-"",""-"",""no_move"",9209.9,1013.7,2192.3,9205.2,-2187.6,""error"",""-"",""-"",""no_move"",9676,461.4,2192.3,9205.2,-1721.5,""while_red"",""-"",""-"",""no_move"",9977.9,763.3,2192.3,9205.2,-1419.6,""while_red"",""-"",""-"",""no_move"",10209.1,994.6,2192.3,9205.2,-1188.3,""while_red"",""-"",""-"",""no_move"",13507,4292.4,2486.4,10216.5,804.1,""smooth"",""left"",""left"",""good_move"",13744.2,236.3,2100,13507.9,-1863.6,""error"",""-"",""-"",""no_move"",13934.9,190.2,2100,13507.9,-1673,""while_red"",""-"",""-"",""no_move"",14578.5,833.9,2100,13507.9,-1029.3,""while_red"",""-"",""-"",""no_move"",17127.3,3382.6,1699.8,14752.3,675.2,""while_blue"",""right"",""up"",""bad_move"",20461.1,3326.2,2637.6,17135.1,688.5,""smooth"",""down"",""down"",""good_move"",20873.6,410.6,1956.9,20463.1,-1546.4,""error"",""-"",""-"",""no_move""]","","",""
"134095","","","","instructions","22","2087691","0.0-8.0-2.0","165","1","2025-07-09 09:11:30","7701e855f2ef39aa3fd6c71abdc6918a","105.245.173.242","Mozilla/5.0 (Windows NT 10.0; Win64; x64) AppleWebKit/537.36 (KHTML, like Gecko) Chrome/138.0.0.0 Safari/537.36","WebKit","Chrome","138.0.0.0","Windows","10.0","https://app.prolific.com/","en-ZA,en-GB;q=0.9,en-US;q=0.8,en;q=0.7,he;q=0.6,hi;q=0.5,ko;q=0.4,zu;q=0.3,zh-CN;q=0.2,zh;q=0.1","666c4699beb014a7b85ccea1","686d226cabeef709c732f8e1","686e31288a0f29126c4c3dd8","666c4699beb014a7b85ccea1","","[{""page_index"":0,""viewing_time"":134092}]","","","","","","","","","","","","","","","","","","","","","","","","","","","","","","","","","","","","","","","","","","","",""
"","","","","ctl-task-cpt","23","2148883","0.0-8.0-3.0","165","1","2025-07-09 09:11:30","7701e855f2ef39aa3fd6c71abdc6918a","105.245.173.242","Mozilla/5.0 (Windows NT 10.0; Win64; x64) AppleWebKit/537.36 (KHTML, like Gecko) Chrome/138.0.0.0 Safari/537.36","WebKit","Chrome","138.0.0.0","Windows","10.0","https://app.prolific.com/","en-ZA,en-GB;q=0.9,en-US;q=0.8,en;q=0.7,he;q=0.6,hi;q=0.5,ko;q=0.4,zu;q=0.3,zh-CN;q=0.2,zh;q=0.1","666c4699beb014a7b85ccea1","686d226cabeef709c732f8e1","686e31288a0f29126c4c3dd8","666c4699beb014a7b85ccea1","","","","","","","","","","","","","","","","","win-only","3","g1:SW,g2:NE","0.35","0","3","2090220.9","3548.3","7557.7","58156.6","2","4","8","6","1","-2","-6","0","0","0","4009.4","4000","-2070","[""down"",""left""]","{""num_key_presses"":15,""num_perfect"":4,""num_errors"":4,""num_randdir"":6,""num_randdir_good_moves"":2,""num_whilered"":1,""num_whileblue"":1,""num_blue"":4,""num_good_moves"":6}","[413.57142857142856,413.1808016640799,2.6,413.57142857142856,413.1808016640799,101.2,413.57142857142856,413.1808016640799,231.6,413.57142857142856,413.1808016640799,336.6,413.57142857142856,413.1808016640799,440.6,413.57142857142856,413.1808016640799,544.3,413.57142857142856,413.1808016640799,649.4,413.57142857142856,413.1808016640799,753.1,320.57142857142856,548.1808016640799,853.5,220.07142857142856,713.1808016640799,957.6,196.07142857142856,764.1808016640799,1061.5,196.07142857142856,764.1808016640799,1169,196.07142857142856,764.1808016640799,1269.5,196.07142857142856,764.1808016640799,1373.8,196.07142857142856,764.1808016640799,1482.3,196.07142857142856,764.1808016640799,1590.3,196.07142857142856,764.1808016640799,1694.4,196.07142857142856,764.1808016640799,1797,196.07142857142856,764.1808016640799,1898.8,196.07142857142856,764.1808016640799,2007.3,196.07142857142856,764.1808016640799,2108.2,196.07142857142856,764.1808016640799,2212.3,196.07142857142856,764.1808016640799,2314.5,196.07142857142856,764.1808016640799,2415.2,196.07142857142856,764.1808016640799,2520.1,196.07142857142856,764.1808016640799,2622.4,196.07142857142856,764.1808016640799,2722.9,196.07142857142856,764.1808016640799,2824.8,196.07142857142856,764.1808016640799,2928.7,196.07142857142856,764.1808016640799,3029.4,196.07142857142856,764.1808016640799,3133.2,196.07142857142856,764.1808016640799,3240.2,196.07142857142856,764.1808016640799,3346.6,196.07142857142856,764.1808016640799,3448.1,196.07142857142856,764.1808016640799,3549.1,196.07142857142856,764.1808016640799,3649.8,196.07142857142856,764.1808016640799,3755.2,196.07142857142856,764.1808016640799,3863.8,196.07142857142856,764.1808016640799,3969.8]","[1364.7,1364.7,1003.5,0,361.2,""while_blue"",""down"",""left"",""good_move"",5029.1,3658.7,3130.3,1370.6,528.2,""smooth"",""down"",""down"",""good_move"",5376.2,343.1,2070.2,5033.3,-1727.1,""error"",""-"",""-"",""no_move"",5656.6,278.4,2070.2,5033.3,-1446.8,""while_red"",""-"",""-"",""no_move"",9720,4341.8,2790.3,6382.7,547,""smooth"",""left"",""left"",""good_move"",12673.3,2950.1,2196.9,9723.2,753.3,""oops"",""down"",""up"",""bad_move"",14224.8,1548.8,2519.7,12676.1,-971,""error"",""-"",""-"",""no_move"",18551.7,4326.1,2791,15241.3,519.5,""smooth"",""up"",""up"",""bad_move"",25670.2,7116.2,3248.4,22028.6,393.3,""smooth"",""down"",""down"",""good_move"",26099.8,427.4,2416.5,25672.4,-1989.1,""error"",""-"",""-"",""no_move"",33182.9,7081.3,2487.5,30093,602.4,""oops"",""down"",""right"",""bad_move"",39349.3,6164.5,2528.6,36310.9,509.9,""oops"",""right"",""left"",""good_move"",42830.2,3477.9,2692.5,39352.3,785.4,""oops"",""down"",""right"",""bad_move"",46065.4,3231.6,2644.3,42834,587.2,""oops"",""left"",""left"",""good_move"",48401.2,2334.3,1830.3,46067,503.9,""oops"",""down"",""right"",""bad_move""]","","",""
"96592","","","","instructions","24","2245478","0.0-8.0-4.0","165","1","2025-07-09 09:11:30","7701e855f2ef39aa3fd6c71abdc6918a","105.245.173.242","Mozilla/5.0 (Windows NT 10.0; Win64; x64) AppleWebKit/537.36 (KHTML, like Gecko) Chrome/138.0.0.0 Safari/537.36","WebKit","Chrome","138.0.0.0","Windows","10.0","https://app.prolific.com/","en-ZA,en-GB;q=0.9,en-US;q=0.8,en;q=0.7,he;q=0.6,hi;q=0.5,ko;q=0.4,zu;q=0.3,zh-CN;q=0.2,zh;q=0.1","666c4699beb014a7b85ccea1","686d226cabeef709c732f8e1","686e31288a0f29126c4c3dd8","666c4699beb014a7b85ccea1","","[{""page_index"":0,""viewing_time"":25170},{""page_index"":1,""viewing_time"":71421}]","","","","","","","","","","","","","","","","","","","","","","","","","","","","","","","","","","","","","","","","","","","",""
"9671","","","{""green_ball"":[""Ball always moves in the direction I press""]}","survey-multi-select","25","2255157","0.0-8.0-5.0-0.0","165","1","2025-07-09 09:11:30","7701e855f2ef39aa3fd6c71abdc6918a","105.245.173.242","Mozilla/5.0 (Windows NT 10.0; Win64; x64) AppleWebKit/537.36 (KHTML, like Gecko) Chrome/138.0.0.0 Safari/537.36","WebKit","Chrome","138.0.0.0","Windows","10.0","https://app.prolific.com/","en-ZA,en-GB;q=0.9,en-US;q=0.8,en;q=0.7,he;q=0.6,hi;q=0.5,ko;q=0.4,zu;q=0.3,zh-CN;q=0.2,zh;q=0.1","666c4699beb014a7b85ccea1","686d226cabeef709c732f8e1","686e31288a0f29126c4c3dd8","666c4699beb014a7b85ccea1","","","[0]","","","","quiz","","","","","","","","","","","","","","","","","","","","","","","","","","","","","","","","","","","","","false","",""
"23161","","<p align='center'><b>INCORRECT.</b> Usually the green ball moves in the indicated direction, but sometimes it shakes and moves randomly. </p>","0","html-button-response","26","2278323","0.0-8.0-5.0-1.0","165","1","2025-07-09 09:11:30","7701e855f2ef39aa3fd6c71abdc6918a","105.245.173.242","Mozilla/5.0 (Windows NT 10.0; Win64; x64) AppleWebKit/537.36 (KHTML, like Gecko) Chrome/138.0.0.0 Safari/537.36","WebKit","Chrome","138.0.0.0","Windows","10.0","https://app.prolific.com/","en-ZA,en-GB;q=0.9,en-US;q=0.8,en;q=0.7,he;q=0.6,hi;q=0.5,ko;q=0.4,zu;q=0.3,zh-CN;q=0.2,zh;q=0.1","666c4699beb014a7b85ccea1","686d226cabeef709c732f8e1","686e31288a0f29126c4c3dd8","666c4699beb014a7b85ccea1","","","","","","","","","","","","","","","","","","","","","","","","","","","","","","","","","","","","","","","","","","","","","",""
"9724","","","{""green_ball"":[""Ball sometimes shakes and moves in a random direction""]}","survey-multi-select","27","2288054","0.0-8.0-5.1-0.1","165","1","2025-07-09 09:11:30","7701e855f2ef39aa3fd6c71abdc6918a","105.245.173.242","Mozilla/5.0 (Windows NT 10.0; Win64; x64) AppleWebKit/537.36 (KHTML, like Gecko) Chrome/138.0.0.0 Safari/537.36","WebKit","Chrome","138.0.0.0","Windows","10.0","https://app.prolific.com/","en-ZA,en-GB;q=0.9,en-US;q=0.8,en;q=0.7,he;q=0.6,hi;q=0.5,ko;q=0.4,zu;q=0.3,zh-CN;q=0.2,zh;q=0.1","666c4699beb014a7b85ccea1","686d226cabeef709c732f8e1","686e31288a0f29126c4c3dd8","666c4699beb014a7b85ccea1","","","[0]","","","","quiz","","","","","","","","","","","","","","","","","","","","","","","","","","","","","","","","","","","","","true","",""
"11354","","<p align='center'><b>CORRECT!</b> Indeed, the green ball may sometimes shake and move in a random direction.</p>","0","html-button-response","28","2299415","0.0-8.0-5.1-1.1","165","1","2025-07-09 09:11:30","7701e855f2ef39aa3fd6c71abdc6918a","105.245.173.242","Mozilla/5.0 (Windows NT 10.0; Win64; x64) AppleWebKit/537.36 (KHTML, like Gecko) Chrome/138.0.0.0 Safari/537.36","WebKit","Chrome","138.0.0.0","Windows","10.0","https://app.prolific.com/","en-ZA,en-GB;q=0.9,en-US;q=0.8,en;q=0.7,he;q=0.6,hi;q=0.5,ko;q=0.4,zu;q=0.3,zh-CN;q=0.2,zh;q=0.1","666c4699beb014a7b85ccea1","686d226cabeef709c732f8e1","686e31288a0f29126c4c3dd8","666c4699beb014a7b85ccea1","","","","","","","","","","","","","","","","","","","","","","","","","","","","","","","","","","","","","","","","","","","","","",""
"12438","","","{""yellow_ball"":[""Ball doesn‘t move and I get -1 penalty point""]}","survey-multi-select","29","2311869","0.0-8.0-6.0-0.0","165","1","2025-07-09 09:11:30","7701e855f2ef39aa3fd6c71abdc6918a","105.245.173.242","Mozilla/5.0 (Windows NT 10.0; Win64; x64) AppleWebKit/537.36 (KHTML, like Gecko) Chrome/138.0.0.0 Safari/537.36","WebKit","Chrome","138.0.0.0","Windows","10.0","https://app.prolific.com/","en-ZA,en-GB;q=0.9,en-US;q=0.8,en;q=0.7,he;q=0.6,hi;q=0.5,ko;q=0.4,zu;q=0.3,zh-CN;q=0.2,zh;q=0.1","666c4699beb014a7b85ccea1","686d226cabeef709c732f8e1","686e31288a0f29126c4c3dd8","666c4699beb014a7b85ccea1","","","[0]","","","","quiz","","","","","","","","","","","","","","","","","","","","","","","","","","","","","","","","","","","","","true","",""
"10755","","<p align='center'><b>CORRECT!</b> Indeed, the yellow ball never moves and you receive a penalty.</p>","0","html-button-response","30","2322629","0.0-8.0-6.0-1.0","165","1","2025-07-09 09:11:30","7701e855f2ef39aa3fd6c71abdc6918a","105.245.173.242","Mozilla/5.0 (Windows NT 10.0; Win64; x64) AppleWebKit/537.36 (KHTML, like Gecko) Chrome/138.0.0.0 Safari/537.36","WebKit","Chrome","138.0.0.0","Windows","10.0","https://app.prolific.com/","en-ZA,en-GB;q=0.9,en-US;q=0.8,en;q=0.7,he;q=0.6,hi;q=0.5,ko;q=0.4,zu;q=0.3,zh-CN;q=0.2,zh;q=0.1","666c4699beb014a7b85ccea1","686d226cabeef709c732f8e1","686e31288a0f29126c4c3dd8","666c4699beb014a7b85ccea1","","","","","","","","","","","","","","","","","","","","","","","","","","","","","","","","","","","","","","","","","","","","","",""
"18821","","","{""blue_ball"":[""Ball doesn‘t move and I get -1 penalty point""]}","survey-multi-select","31","2341464","0.0-8.0-7.0-0.0","165","1","2025-07-09 09:11:30","7701e855f2ef39aa3fd6c71abdc6918a","105.245.173.242","Mozilla/5.0 (Windows NT 10.0; Win64; x64) AppleWebKit/537.36 (KHTML, like Gecko) Chrome/138.0.0.0 Safari/537.36","WebKit","Chrome","138.0.0.0","Windows","10.0","https://app.prolific.com/","en-ZA,en-GB;q=0.9,en-US;q=0.8,en;q=0.7,he;q=0.6,hi;q=0.5,ko;q=0.4,zu;q=0.3,zh-CN;q=0.2,zh;q=0.1","666c4699beb014a7b85ccea1","686d226cabeef709c732f8e1","686e31288a0f29126c4c3dd8","666c4699beb014a7b85ccea1","","","[0]","","","","quiz","","","","","","","","","","","","","","","","","","","","","","","","","","","","","","","","","","","","","false","",""
"9982","","<p align='center'><b>INCORRECT.</b> The blue ball always shakes and moves randomly.</p>","0","html-button-response","32","2351451","0.0-8.0-7.0-1.0","165","1","2025-07-09 09:11:30","7701e855f2ef39aa3fd6c71abdc6918a","105.245.173.242","Mozilla/5.0 (Windows NT 10.0; Win64; x64) AppleWebKit/537.36 (KHTML, like Gecko) Chrome/138.0.0.0 Safari/537.36","WebKit","Chrome","138.0.0.0","Windows","10.0","https://app.prolific.com/","en-ZA,en-GB;q=0.9,en-US;q=0.8,en;q=0.7,he;q=0.6,hi;q=0.5,ko;q=0.4,zu;q=0.3,zh-CN;q=0.2,zh;q=0.1","666c4699beb014a7b85ccea1","686d226cabeef709c732f8e1","686e31288a0f29126c4c3dd8","666c4699beb014a7b85ccea1","","","","","","","","","","","","","","","","","","","","","","","","","","","","","","","","","","","","","","","","","","","","","",""
"20427","","","{""blue_ball"":[""Ball always shakes and moves in a random direction""]}","survey-multi-select","33","2371884","0.0-8.0-7.1-0.1","165","1","2025-07-09 09:11:30","7701e855f2ef39aa3fd6c71abdc6918a","105.245.173.242","Mozilla/5.0 (Windows NT 10.0; Win64; x64) AppleWebKit/537.36 (KHTML, like Gecko) Chrome/138.0.0.0 Safari/537.36","WebKit","Chrome","138.0.0.0","Windows","10.0","https://app.prolific.com/","en-ZA,en-GB;q=0.9,en-US;q=0.8,en;q=0.7,he;q=0.6,hi;q=0.5,ko;q=0.4,zu;q=0.3,zh-CN;q=0.2,zh;q=0.1","666c4699beb014a7b85ccea1","686d226cabeef709c732f8e1","686e31288a0f29126c4c3dd8","666c4699beb014a7b85ccea1","","","[0]","","","","quiz","","","","","","","","","","","","","","","","","","","","","","","","","","","","","","","","","","","","","true","",""
"82627","","<p align='center'><b>CORRECT!</b> Indeed, the blue ball always shakes and moves in a random direction. Also there is a penalty of -1 point.</p>","0","html-button-response","34","2454516","0.0-8.0-7.1-1.1","165","1","2025-07-09 09:11:30","7701e855f2ef39aa3fd6c71abdc6918a","105.245.173.242","Mozilla/5.0 (Windows NT 10.0; Win64; x64) AppleWebKit/537.36 (KHTML, like Gecko) Chrome/138.0.0.0 Safari/537.36","WebKit","Chrome","138.0.0.0","Windows","10.0","https://app.prolific.com/","en-ZA,en-GB;q=0.9,en-US;q=0.8,en;q=0.7,he;q=0.6,hi;q=0.5,ko;q=0.4,zu;q=0.3,zh-CN;q=0.2,zh;q=0.1","666c4699beb014a7b85ccea1","686d226cabeef709c732f8e1","686e31288a0f29126c4c3dd8","666c4699beb014a7b85ccea1","","","","","","","","","","","","","","","","","","","","","","","","","","","","","","","","","","","","","","","","","","","","","",""
"28945","","","{""bonus"":[""When I reach 50% of points""]}","survey-multi-select","35","2483470","0.0-8.0-8.0-0.0","165","1","2025-07-09 09:11:30","7701e855f2ef39aa3fd6c71abdc6918a","105.245.173.242","Mozilla/5.0 (Windows NT 10.0; Win64; x64) AppleWebKit/537.36 (KHTML, like Gecko) Chrome/138.0.0.0 Safari/537.36","WebKit","Chrome","138.0.0.0","Windows","10.0","https://app.prolific.com/","en-ZA,en-GB;q=0.9,en-US;q=0.8,en;q=0.7,he;q=0.6,hi;q=0.5,ko;q=0.4,zu;q=0.3,zh-CN;q=0.2,zh;q=0.1","666c4699beb014a7b85ccea1","686d226cabeef709c732f8e1","686e31288a0f29126c4c3dd8","666c4699beb014a7b85ccea1","","","[0]","","","","quiz","","","","","","","","","","","","","","","","","","","","","","","","","","","","","","","","","","","","","true","",""
"3320","","<p align='center'><b>CORRECT!</b> Indeed, you receive 2 pounds extra when you reach 50% of points.</p>","0","html-button-response","36","2486801","0.0-8.0-8.0-1.0","165","1","2025-07-09 09:11:30","7701e855f2ef39aa3fd6c71abdc6918a","105.245.173.242","Mozilla/5.0 (Windows NT 10.0; Win64; x64) AppleWebKit/537.36 (KHTML, like Gecko) Chrome/138.0.0.0 Safari/537.36","WebKit","Chrome","138.0.0.0","Windows","10.0","https://app.prolific.com/","en-ZA,en-GB;q=0.9,en-US;q=0.8,en;q=0.7,he;q=0.6,hi;q=0.5,ko;q=0.4,zu;q=0.3,zh-CN;q=0.2,zh;q=0.1","666c4699beb014a7b85ccea1","686d226cabeef709c732f8e1","686e31288a0f29126c4c3dd8","666c4699beb014a7b85ccea1","","","","","","","","","","","","","","","","","","","","","","","","","","","","","","","","","","","","","","","","","","","","","",""
"44987","","","","instructions","37","2531790","0.0-8.0-9.0","165","1","2025-07-09 09:11:30","7701e855f2ef39aa3fd6c71abdc6918a","105.245.173.242","Mozilla/5.0 (Windows NT 10.0; Win64; x64) AppleWebKit/537.36 (KHTML, like Gecko) Chrome/138.0.0.0 Safari/537.36","WebKit","Chrome","138.0.0.0","Windows","10.0","https://app.prolific.com/","en-ZA,en-GB;q=0.9,en-US;q=0.8,en;q=0.7,he;q=0.6,hi;q=0.5,ko;q=0.4,zu;q=0.3,zh-CN;q=0.2,zh;q=0.1","666c4699beb014a7b85ccea1","686d226cabeef709c732f8e1","686e31288a0f29126c4c3dd8","666c4699beb014a7b85ccea1","","[{""page_index"":0,""viewing_time"":44985}]","","","","","","","","","","","","","","","","","","","","","","","","","","","","","","","","","","","","","","","","","","","",""
"23433","","<p>Before you start with this game please answer the following three questions yourself. </p>
  <p>Through this game, we measure several aspects of your cognitive performance, such as reaction times, multi-tasking capabilities </p>
  <p>and the ability to assess the situation you are in.</p>
  <p></p>
  <p><b>How good do you usually are in such tasks?</b></p>","82","html-slider-response","38","2555233","0.0-9.0-0.0","165","1","2025-07-09 09:11:30","7701e855f2ef39aa3fd6c71abdc6918a","105.245.173.242","Mozilla/5.0 (Windows NT 10.0; Win64; x64) AppleWebKit/537.36 (KHTML, like Gecko) Chrome/138.0.0.0 Safari/537.36","WebKit","Chrome","138.0.0.0","Windows","10.0","https://app.prolific.com/","en-ZA,en-GB;q=0.9,en-US;q=0.8,en;q=0.7,he;q=0.6,hi;q=0.5,ko;q=0.4,zu;q=0.3,zh-CN;q=0.2,zh;q=0.1","666c4699beb014a7b85ccea1","686d226cabeef709c732f8e1","686e31288a0f29126c4c3dd8","666c4699beb014a7b85ccea1","2025-07-09T09:54:08.511Z","","","","","","PreSkillQ","","","","","","","","","","","","","","","","","","","","","","","","","","","","","","","","","","","","","","50",""
"9755","","<div style=""width:500px;"">
  <p>How well do you think you will perform in this task compared to other participants?</p>
  </div>","77","html-slider-response","39","2565012","0.0-9.0-1.0","165","1","2025-07-09 09:11:30","7701e855f2ef39aa3fd6c71abdc6918a","105.245.173.242","Mozilla/5.0 (Windows NT 10.0; Win64; x64) AppleWebKit/537.36 (KHTML, like Gecko) Chrome/138.0.0.0 Safari/537.36","WebKit","Chrome","138.0.0.0","Windows","10.0","https://app.prolific.com/","en-ZA,en-GB;q=0.9,en-US;q=0.8,en;q=0.7,he;q=0.6,hi;q=0.5,ko;q=0.4,zu;q=0.3,zh-CN;q=0.2,zh;q=0.1","666c4699beb014a7b85ccea1","686d226cabeef709c732f8e1","686e31288a0f29126c4c3dd8","666c4699beb014a7b85ccea1","2025-07-09T09:54:18.292Z","","","","","","PrePerfQ","","","","","","","","","","","","","","","","","","","","","","","","","","","","","","","","","","","","","","50",""
"7931","","<div style=""width:500px;"">
  <p>What best describes how you currently feel?</p>
  </div>","87","html-slider-response","40","2572959","0.0-9.0-2.0","165","1","2025-07-09 09:11:30","7701e855f2ef39aa3fd6c71abdc6918a","105.245.173.242","Mozilla/5.0 (Windows NT 10.0; Win64; x64) AppleWebKit/537.36 (KHTML, like Gecko) Chrome/138.0.0.0 Safari/537.36","WebKit","Chrome","138.0.0.0","Windows","10.0","https://app.prolific.com/","en-ZA,en-GB;q=0.9,en-US;q=0.8,en;q=0.7,he;q=0.6,hi;q=0.5,ko;q=0.4,zu;q=0.3,zh-CN;q=0.2,zh;q=0.1","666c4699beb014a7b85ccea1","686d226cabeef709c732f8e1","686e31288a0f29126c4c3dd8","666c4699beb014a7b85ccea1","2025-07-09T09:54:26.238Z","","","","","","PreMotivationQ","","","","","","","","","","","","","","","","","","","","","","","","","","","","","","","","","","","","","","50",""
"","","","","ctl-task-cpt","41","2617969","0.0-10.0-0.0","165","1","2025-07-09 09:11:30","7701e855f2ef39aa3fd6c71abdc6918a","105.245.173.242","Mozilla/5.0 (Windows NT 10.0; Win64; x64) AppleWebKit/537.36 (KHTML, like Gecko) Chrome/138.0.0.0 Safari/537.36","WebKit","Chrome","138.0.0.0","Windows","10.0","https://app.prolific.com/","en-ZA,en-GB;q=0.9,en-US;q=0.8,en;q=0.7,he;q=0.6,hi;q=0.5,ko;q=0.4,zu;q=0.3,zh-CN;q=0.2,zh;q=0.1","666c4699beb014a7b85ccea1","686d226cabeef709c732f8e1","686e31288a0f29126c4c3dd8","666c4699beb014a7b85ccea1","2025-07-09T09:55:11.248Z","","","","","","","","","","","","","","","","win-only","3","g1:SW,g2:NE","1","1","0","2575478.6","3164","8169.4","41972.9","1","4","4","6","2","4","2","2","0","0.015151515151515152","5005.2","3000","500","[""up"",""right""]","{""num_key_presses"":10,""num_perfect"":8,""num_errors"":2,""num_randdir"":0,""num_randdir_good_moves"":0,""num_whilered"":0,""num_whileblue"":0,""num_blue"":2,""num_good_moves"":7}","[412.07142857142856,416.1808016640799,2,412.07142857142856,416.1808016640799,106.4,412.07142857142856,416.1808016640799,209.1,412.07142857142856,416.1808016640799,311,412.07142857142856,416.1808016640799,421.2,412.07142857142856,416.1808016640799,522.1,412.07142857142856,416.1808016640799,625.9,412.07142857142856,416.1808016640799,727.6,412.07142857142856,416.1808016640799,836.8,412.07142857142856,416.1808016640799,944.7,412.07142857142856,416.1808016640799,1053.5,412.07142857142856,416.1808016640799,1157.1,412.07142857142856,416.1808016640799,1258.1,412.07142857142856,416.1808016640799,1362.5,412.07142857142856,416.1808016640799,1467.2,412.07142857142856,416.1808016640799,1570.7,412.07142857142856,416.1808016640799,1674.8,412.07142857142856,416.1808016640799,1777.5,412.07142857142856,416.1808016640799,1882.7,412.07142857142856,416.1808016640799,1985.5,412.07142857142856,416.1808016640799,2089.7,412.07142857142856,416.1808016640799,2199,412.07142857142856,416.1808016640799,2304.4,412.07142857142856,416.1808016640799,2414.2,412.07142857142856,416.1808016640799,2531.8,412.07142857142856,416.1808016640799,2635.5,412.07142857142856,416.1808016640799,2740.2,412.07142857142856,416.1808016640799,2842.4,412.07142857142856,416.1808016640799,2943.1,412.07142857142856,416.1808016640799,3045.4,412.07142857142856,416.1808016640799,3145.8,412.07142857142856,416.1808016640799,3247.5,412.07142857142856,416.1808016640799,3348.2,412.07142857142856,416.1808016640799,3452,412.07142857142856,416.1808016640799,3553.3,412.07142857142856,416.1808016640799,3658.1,412.07142857142856,416.1808016640799,3759.7,412.07142857142856,416.1808016640799,3864.9,412.07142857142856,416.1808016640799,3980.6,412.07142857142856,416.1808016640799,4093.9,412.07142857142856,416.1808016640799,4210,412.07142857142856,416.1808016640799,4312.7,412.07142857142856,416.1808016640799,4419.4,412.07142857142856,416.1808016640799,4532.8,412.07142857142856,416.1808016640799,4637.9,412.07142857142856,416.1808016640799,4743.4,412.07142857142856,416.1808016640799,4844.8,412.07142857142856,416.1808016640799,4954.6]","[1652,1652,1000,0,652,""smooth"",""left"",""left"",""bad_move"",2059,403.6,1909.3,1655.9,-1506.2,""error"",""-"",""-"",""no_move"",9106.9,7046.6,2643,6003.3,460.6,""smooth"",""up"",""up"",""good_move"",15286.4,6171.9,1928.7,12875.4,482.4,""smooth"",""up"",""up"",""good_move"",18090.4,2803.3,2126.5,15287.1,676.8,""smooth"",""right"",""right"",""good_move"",20877.6,2783.8,2362.1,18093.9,421.6,""smooth"",""right"",""right"",""good_move"",24116.7,3235.5,2860.1,20881.4,375.2,""smooth"",""right"",""right"",""good_move"",27063.4,2941.6,2577.9,24121.8,363.7,""smooth"",""right"",""right"",""good_move"",29262,2189.1,2369.3,27072.9,-180.2,""error"",""-"",""-"",""no_move"",33667.5,4404.2,3030.3,30263.7,373.5,""smooth"",""up"",""up"",""good_move""]","","",""
"8212","","<div style=""width:500px;"">
  <p>What determined the result of this run?</p>
  </div>","42","html-slider-response","42","2626185","0.0-10.0-1.0","165","1","2025-07-09 09:11:30","7701e855f2ef39aa3fd6c71abdc6918a","105.245.173.242","Mozilla/5.0 (Windows NT 10.0; Win64; x64) AppleWebKit/537.36 (KHTML, like Gecko) Chrome/138.0.0.0 Safari/537.36","WebKit","Chrome","138.0.0.0","Windows","10.0","https://app.prolific.com/","en-ZA,en-GB;q=0.9,en-US;q=0.8,en;q=0.7,he;q=0.6,hi;q=0.5,ko;q=0.4,zu;q=0.3,zh-CN;q=0.2,zh;q=0.1","666c4699beb014a7b85ccea1","686d226cabeef709c732f8e1","686e31288a0f29126c4c3dd8","666c4699beb014a7b85ccea1","2025-07-09T09:55:19.463Z","","","","","","AttribQ","","","","","","","","","","","","","","","","","","","","","","","","","","","","","","","","","","","","","","50",""
"4537","","<div style=""width:500px;"">
  <p>How much control did you have over the ball?</p>
  </div>","68","html-slider-response","43","2630725","0.0-10.0-2.0","165","1","2025-07-09 09:11:30","7701e855f2ef39aa3fd6c71abdc6918a","105.245.173.242","Mozilla/5.0 (Windows NT 10.0; Win64; x64) AppleWebKit/537.36 (KHTML, like Gecko) Chrome/138.0.0.0 Safari/537.36","WebKit","Chrome","138.0.0.0","Windows","10.0","https://app.prolific.com/","en-ZA,en-GB;q=0.9,en-US;q=0.8,en;q=0.7,he;q=0.6,hi;q=0.5,ko;q=0.4,zu;q=0.3,zh-CN;q=0.2,zh;q=0.1","666c4699beb014a7b85ccea1","686d226cabeef709c732f8e1","686e31288a0f29126c4c3dd8","666c4699beb014a7b85ccea1","2025-07-09T09:55:24.003Z","","","","","","ControlQ","","","","","","","","","","","","","","","","","","","","","","","","","","","","","","","","","","","","","","50",""
"6642","","<div style=""width:500px;"">
  <p>How would you describe your current emotional state?</p>
  </div>","17","html-slider-response","44","2637372","0.0-10.0-3.0","165","1","2025-07-09 09:11:30","7701e855f2ef39aa3fd6c71abdc6918a","105.245.173.242","Mozilla/5.0 (Windows NT 10.0; Win64; x64) AppleWebKit/537.36 (KHTML, like Gecko) Chrome/138.0.0.0 Safari/537.36","WebKit","Chrome","138.0.0.0","Windows","10.0","https://app.prolific.com/","en-ZA,en-GB;q=0.9,en-US;q=0.8,en;q=0.7,he;q=0.6,hi;q=0.5,ko;q=0.4,zu;q=0.3,zh-CN;q=0.2,zh;q=0.1","666c4699beb014a7b85ccea1","686d226cabeef709c732f8e1","686e31288a0f29126c4c3dd8","666c4699beb014a7b85ccea1","2025-07-09T09:55:30.650Z","","","","","","StressQ","","","","","","","","","","","","","","","","","","","","","","","","","","","","","","","","","","","","","","50",""
"6198","","<div style=""width:500px;"">
  <p>What best describes how you currently feel?</p>
  </div>","86","html-slider-response","45","2643573","0.0-10.0-4.0","165","1","2025-07-09 09:11:30","7701e855f2ef39aa3fd6c71abdc6918a","105.245.173.242","Mozilla/5.0 (Windows NT 10.0; Win64; x64) AppleWebKit/537.36 (KHTML, like Gecko) Chrome/138.0.0.0 Safari/537.36","WebKit","Chrome","138.0.0.0","Windows","10.0","https://app.prolific.com/","en-ZA,en-GB;q=0.9,en-US;q=0.8,en;q=0.7,he;q=0.6,hi;q=0.5,ko;q=0.4,zu;q=0.3,zh-CN;q=0.2,zh;q=0.1","666c4699beb014a7b85ccea1","686d226cabeef709c732f8e1","686e31288a0f29126c4c3dd8","666c4699beb014a7b85ccea1","2025-07-09T09:55:36.851Z","","","","","","MotivationQ","","","","","","","","","","","","","","","","","","","","","","","","","","","","","","","","","","","","","","50",""
"","","","","ctl-task-cpt","46","2666756","0.0-10.0-0.1","165","1","2025-07-09 09:11:30","7701e855f2ef39aa3fd6c71abdc6918a","105.245.173.242","Mozilla/5.0 (Windows NT 10.0; Win64; x64) AppleWebKit/537.36 (KHTML, like Gecko) Chrome/138.0.0.0 Safari/537.36","WebKit","Chrome","138.0.0.0","Windows","10.0","https://app.prolific.com/","en-ZA,en-GB;q=0.9,en-US;q=0.8,en;q=0.7,he;q=0.6,hi;q=0.5,ko;q=0.4,zu;q=0.3,zh-CN;q=0.2,zh;q=0.1","666c4699beb014a7b85ccea1","686d226cabeef709c732f8e1","686e31288a0f29126c4c3dd8","666c4699beb014a7b85ccea1","2025-07-09T09:56:00.034Z","","","","","","","","","","","","","","","","win-only","0","g1:NW,g2:SE","0.9","2","0","2646086.1","1388.9","6398.2","20154.4","1","4","8","6","1","1","0","2","2","0.015151515151515152","5009.3","3000","1755","[""left"",""up""]","{""num_key_presses"":5,""num_perfect"":4,""num_errors"":1,""num_randdir"":0,""num_randdir_good_moves"":0,""num_whilered"":0,""num_whileblue"":0,""num_blue"":0,""num_good_moves"":4}","[418.07142857142856,407.1808016640799,1.9,418.07142857142856,407.1808016640799,107.1,418.07142857142856,407.1808016640799,226.4,418.07142857142856,407.1808016640799,329,418.07142857142856,407.1808016640799,436.9,418.07142857142856,407.1808016640799,544.7,418.07142857142856,407.1808016640799,653,418.07142857142856,407.1808016640799,756.1,418.07142857142856,407.1808016640799,861.4,418.07142857142856,407.1808016640799,963.6,418.07142857142856,407.1808016640799,1065.2,418.07142857142856,407.1808016640799,1166.3,418.07142857142856,407.1808016640799,1283.5,418.07142857142856,407.1808016640799,1386.6,418.07142857142856,407.1808016640799,1488.2,418.07142857142856,407.1808016640799,1591.1,418.07142857142856,407.1808016640799,1693.7,418.07142857142856,407.1808016640799,1794.3,418.07142857142856,407.1808016640799,1899.3,418.07142857142856,407.1808016640799,2006.2,418.07142857142856,407.1808016640799,2106.8,418.07142857142856,407.1808016640799,2219.7,418.07142857142856,407.1808016640799,2320.3,418.07142857142856,407.1808016640799,2432.9,418.07142857142856,407.1808016640799,2534.8,418.07142857142856,407.1808016640799,2636.4,418.07142857142856,407.1808016640799,2739.2,418.07142857142856,407.1808016640799,2839.6,398.57142857142856,389.1808016640799,2945.2,281.57142857142856,299.1808016640799,3046.8,149.57142857142856,204.68080166407992,3152.1,104.57142857142857,168.68080166407992,3255.5,95.57142857142857,153.68080166407992,3359.7,95.57142857142857,152.18080166407992,3460.4,95.57142857142857,152.18080166407992,3561.7,95.57142857142857,152.18080166407992,3670.5,95.57142857142857,152.18080166407992,3775.2,95.57142857142857,152.18080166407992,3886.1,95.57142857142857,152.18080166407992,3989.9,95.57142857142857,152.18080166407992,4093.8,95.57142857142857,152.18080166407992,4200.3,95.57142857142857,152.18080166407992,4315,95.57142857142857,152.18080166407992,4420.6,95.57142857142857,152.18080166407992,4523.8,95.57142857142857,152.18080166407992,4627,95.57142857142857,152.18080166407992,4728.3,95.57142857142857,152.18080166407992,4844.5,95.57142857142857,152.18080166407992,4949.3]","[351.5,351.5,1000,0,-648.5,""error"",""-"",""-"",""no_move"",4792.7,4440.9,2876.7,1360.6,555.5,""smooth"",""up"",""up"",""good_move"",8509.6,3715.3,3189.5,4794.3,525.8,""smooth"",""left"",""left"",""good_move"",10724.6,2210.4,1630.1,8514.2,580.3,""smooth"",""left"",""left"",""good_move"",13612.5,2885.8,2493.7,10726.7,392.1,""smooth"",""up"",""up"",""good_move""]","","",""
"7107","","<div style=""width:500px;"">
  <p>What determined the result of this run?</p>
  </div>","62","html-slider-response","47","2673870","0.0-10.0-1.1","165","1","2025-07-09 09:11:30","7701e855f2ef39aa3fd6c71abdc6918a","105.245.173.242","Mozilla/5.0 (Windows NT 10.0; Win64; x64) AppleWebKit/537.36 (KHTML, like Gecko) Chrome/138.0.0.0 Safari/537.36","WebKit","Chrome","138.0.0.0","Windows","10.0","https://app.prolific.com/","en-ZA,en-GB;q=0.9,en-US;q=0.8,en;q=0.7,he;q=0.6,hi;q=0.5,ko;q=0.4,zu;q=0.3,zh-CN;q=0.2,zh;q=0.1","666c4699beb014a7b85ccea1","686d226cabeef709c732f8e1","686e31288a0f29126c4c3dd8","666c4699beb014a7b85ccea1","2025-07-09T09:56:07.148Z","","","","","","AttribQ","","","","","","","","","","","","","","","","","","","","","","","","","","","","","","","","","","","","","","50",""
"6177","","<div style=""width:500px;"">
  <p>How much control did you have over the ball?</p>
  </div>","19","html-slider-response","48","2680050","0.0-10.0-2.1","165","1","2025-07-09 09:11:30","7701e855f2ef39aa3fd6c71abdc6918a","105.245.173.242","Mozilla/5.0 (Windows NT 10.0; Win64; x64) AppleWebKit/537.36 (KHTML, like Gecko) Chrome/138.0.0.0 Safari/537.36","WebKit","Chrome","138.0.0.0","Windows","10.0","https://app.prolific.com/","en-ZA,en-GB;q=0.9,en-US;q=0.8,en;q=0.7,he;q=0.6,hi;q=0.5,ko;q=0.4,zu;q=0.3,zh-CN;q=0.2,zh;q=0.1","666c4699beb014a7b85ccea1","686d226cabeef709c732f8e1","686e31288a0f29126c4c3dd8","666c4699beb014a7b85ccea1","2025-07-09T09:56:13.328Z","","","","","","ControlQ","","","","","","","","","","","","","","","","","","","","","","","","","","","","","","","","","","","","","","50",""
"4962","","<div style=""width:500px;"">
  <p>How would you describe your current emotional state?</p>
  </div>","85","html-slider-response","49","2685017","0.0-10.0-3.1","165","1","2025-07-09 09:11:30","7701e855f2ef39aa3fd6c71abdc6918a","105.245.173.242","Mozilla/5.0 (Windows NT 10.0; Win64; x64) AppleWebKit/537.36 (KHTML, like Gecko) Chrome/138.0.0.0 Safari/537.36","WebKit","Chrome","138.0.0.0","Windows","10.0","https://app.prolific.com/","en-ZA,en-GB;q=0.9,en-US;q=0.8,en;q=0.7,he;q=0.6,hi;q=0.5,ko;q=0.4,zu;q=0.3,zh-CN;q=0.2,zh;q=0.1","666c4699beb014a7b85ccea1","686d226cabeef709c732f8e1","686e31288a0f29126c4c3dd8","666c4699beb014a7b85ccea1","2025-07-09T09:56:18.295Z","","","","","","StressQ","","","","","","","","","","","","","","","","","","","","","","","","","","","","","","","","","","","","","","50",""
"5253","","<div style=""width:500px;"">
  <p>What best describes how you currently feel?</p>
  </div>","57","html-slider-response","50","2690273","0.0-10.0-4.1","165","1","2025-07-09 09:11:30","7701e855f2ef39aa3fd6c71abdc6918a","105.245.173.242","Mozilla/5.0 (Windows NT 10.0; Win64; x64) AppleWebKit/537.36 (KHTML, like Gecko) Chrome/138.0.0.0 Safari/537.36","WebKit","Chrome","138.0.0.0","Windows","10.0","https://app.prolific.com/","en-ZA,en-GB;q=0.9,en-US;q=0.8,en;q=0.7,he;q=0.6,hi;q=0.5,ko;q=0.4,zu;q=0.3,zh-CN;q=0.2,zh;q=0.1","666c4699beb014a7b85ccea1","686d226cabeef709c732f8e1","686e31288a0f29126c4c3dd8","666c4699beb014a7b85ccea1","2025-07-09T09:56:23.551Z","","","","","","MotivationQ","","","","","","","","","","","","","","","","","","","","","","","","","","","","","","","","","","","","","","50",""
"","","","","ctl-task-cpt","51","2715798","0.0-10.0-0.2","165","1","2025-07-09 09:11:30","7701e855f2ef39aa3fd6c71abdc6918a","105.245.173.242","Mozilla/5.0 (Windows NT 10.0; Win64; x64) AppleWebKit/537.36 (KHTML, like Gecko) Chrome/138.0.0.0 Safari/537.36","WebKit","Chrome","138.0.0.0","Windows","10.0","https://app.prolific.com/","en-ZA,en-GB;q=0.9,en-US;q=0.8,en;q=0.7,he;q=0.6,hi;q=0.5,ko;q=0.4,zu;q=0.3,zh-CN;q=0.2,zh;q=0.1","666c4699beb014a7b85ccea1","686d226cabeef709c732f8e1","686e31288a0f29126c4c3dd8","666c4699beb014a7b85ccea1","2025-07-09T09:56:49.076Z","","","","","","","","","","","","","","","","win-only","3","g1:SW,g2:NE","0.8","3","0","2692786","1602.4","6612.5","22486.5","1","4","4","6","1","1","1","3","2","0.022727272727272728","5010.1","3000","1865","[""down"",""left""]","{""num_key_presses"":4,""num_perfect"":4,""num_errors"":0,""num_randdir"":0,""num_randdir_good_moves"":0,""num_whilered"":0,""num_whileblue"":0,""num_blue"":1,""num_good_moves"":4}","[407.57142857142856,411.6808016640799,0.6,407.57142857142856,411.6808016640799,101.4,407.57142857142856,411.6808016640799,223.3,407.57142857142856,411.6808016640799,326.1,407.57142857142856,411.6808016640799,440.2,407.57142857142856,411.6808016640799,551.6,407.57142857142856,411.6808016640799,654.9,407.57142857142856,411.6808016640799,762.8,407.57142857142856,411.6808016640799,869.8,407.57142857142856,411.6808016640799,987.7,407.57142857142856,411.6808016640799,1092.2,407.57142857142856,411.6808016640799,1195.7,407.57142857142856,411.6808016640799,1297.1,407.57142857142856,411.6808016640799,1400.4,407.57142857142856,411.6808016640799,1513,407.57142857142856,411.6808016640799,1615.1,407.57142857142856,411.6808016640799,1723.5,407.57142857142856,411.6808016640799,1827.7,407.57142857142856,411.6808016640799,1928.2,407.57142857142856,411.6808016640799,2030,407.57142857142856,411.6808016640799,2134.6,407.57142857142856,411.6808016640799,2235.6,407.57142857142856,411.6808016640799,2340.6,407.57142857142856,411.6808016640799,2441.4,407.57142857142856,411.6808016640799,2547.3,407.57142857142856,411.6808016640799,2649.2,407.57142857142856,411.6808016640799,2750.3,407.57142857142856,411.6808016640799,2868.7,407.57142857142856,411.6808016640799,2973.6,407.57142857142856,411.6808016640799,3090,407.57142857142856,411.6808016640799,3193.9,407.57142857142856,411.6808016640799,3296,407.57142857142856,411.6808016640799,3409.6,407.57142857142856,411.6808016640799,3511.2,407.57142857142856,411.6808016640799,3614.9,407.57142857142856,411.6808016640799,3716.2,407.57142857142856,411.6808016640799,3827,407.57142857142856,411.6808016640799,3929.9,407.57142857142856,411.6808016640799,4031.3,407.57142857142856,411.6808016640799,4136.7,407.57142857142856,411.6808016640799,4240.3,407.57142857142856,411.6808016640799,4355.2,407.57142857142856,411.6808016640799,4459,407.57142857142856,411.6808016640799,4561.2,407.57142857142856,411.6808016640799,4664.4,407.57142857142856,411.6808016640799,4765,407.57142857142856,411.6808016640799,4869.5,407.57142857142856,411.6808016640799,4975.3]","[1765.9,1765.9,1000,0,765.9,""smooth"",""left"",""left"",""good_move"",5467.6,3698.7,3301.3,1769.1,397.2,""smooth"",""left"",""left"",""good_move"",9243.1,3771.3,3368.5,5472,402.7,""smooth"",""down"",""down"",""good_move"",15720.3,6473.7,2513.9,12835.6,370.8,""smooth"",""down"",""down"",""good_move""]","","",""
"13834","","<div style=""width:500px;"">
  <p>What determined the result of this run?</p>
  </div>","74","html-slider-response","52","2729636","0.0-10.0-1.2","165","1","2025-07-09 09:11:30","7701e855f2ef39aa3fd6c71abdc6918a","105.245.173.242","Mozilla/5.0 (Windows NT 10.0; Win64; x64) AppleWebKit/537.36 (KHTML, like Gecko) Chrome/138.0.0.0 Safari/537.36","WebKit","Chrome","138.0.0.0","Windows","10.0","https://app.prolific.com/","en-ZA,en-GB;q=0.9,en-US;q=0.8,en;q=0.7,he;q=0.6,hi;q=0.5,ko;q=0.4,zu;q=0.3,zh-CN;q=0.2,zh;q=0.1","666c4699beb014a7b85ccea1","686d226cabeef709c732f8e1","686e31288a0f29126c4c3dd8","666c4699beb014a7b85ccea1","2025-07-09T09:57:02.914Z","","","","","","AttribQ","","","","","","","","","","","","","","","","","","","","","","","","","","","","","","","","","","","","","","50",""
"4495","","<div style=""width:500px;"">
  <p>How much control did you have over the ball?</p>
  </div>","70","html-slider-response","53","2734135","0.0-10.0-2.2","165","1","2025-07-09 09:11:30","7701e855f2ef39aa3fd6c71abdc6918a","105.245.173.242","Mozilla/5.0 (Windows NT 10.0; Win64; x64) AppleWebKit/537.36 (KHTML, like Gecko) Chrome/138.0.0.0 Safari/537.36","WebKit","Chrome","138.0.0.0","Windows","10.0","https://app.prolific.com/","en-ZA,en-GB;q=0.9,en-US;q=0.8,en;q=0.7,he;q=0.6,hi;q=0.5,ko;q=0.4,zu;q=0.3,zh-CN;q=0.2,zh;q=0.1","666c4699beb014a7b85ccea1","686d226cabeef709c732f8e1","686e31288a0f29126c4c3dd8","666c4699beb014a7b85ccea1","2025-07-09T09:57:07.414Z","","","","","","ControlQ","","","","","","","","","","","","","","","","","","","","","","","","","","","","","","","","","","","","","","50",""
"6007","","<div style=""width:500px;"">
  <p>How would you describe your current emotional state?</p>
  </div>","59","html-slider-response","54","2740146","0.0-10.0-3.2","165","1","2025-07-09 09:11:30","7701e855f2ef39aa3fd6c71abdc6918a","105.245.173.242","Mozilla/5.0 (Windows NT 10.0; Win64; x64) AppleWebKit/537.36 (KHTML, like Gecko) Chrome/138.0.0.0 Safari/537.36","WebKit","Chrome","138.0.0.0","Windows","10.0","https://app.prolific.com/","en-ZA,en-GB;q=0.9,en-US;q=0.8,en;q=0.7,he;q=0.6,hi;q=0.5,ko;q=0.4,zu;q=0.3,zh-CN;q=0.2,zh;q=0.1","666c4699beb014a7b85ccea1","686d226cabeef709c732f8e1","686e31288a0f29126c4c3dd8","666c4699beb014a7b85ccea1","2025-07-09T09:57:13.424Z","","","","","","StressQ","","","","","","","","","","","","","","","","","","","","","","","","","","","","","","","","","","","","","","50",""
"8807","","<div style=""width:500px;"">
  <p>What best describes how you currently feel?</p>
  </div>","83","html-slider-response","55","2748958","0.0-10.0-4.2","165","1","2025-07-09 09:11:30","7701e855f2ef39aa3fd6c71abdc6918a","105.245.173.242","Mozilla/5.0 (Windows NT 10.0; Win64; x64) AppleWebKit/537.36 (KHTML, like Gecko) Chrome/138.0.0.0 Safari/537.36","WebKit","Chrome","138.0.0.0","Windows","10.0","https://app.prolific.com/","en-ZA,en-GB;q=0.9,en-US;q=0.8,en;q=0.7,he;q=0.6,hi;q=0.5,ko;q=0.4,zu;q=0.3,zh-CN;q=0.2,zh;q=0.1","666c4699beb014a7b85ccea1","686d226cabeef709c732f8e1","686e31288a0f29126c4c3dd8","666c4699beb014a7b85ccea1","2025-07-09T09:57:22.237Z","","","","","","MotivationQ","","","","","","","","","","","","","","","","","","","","","","","","","","","","","","","","","","","","","","50",""
"","","","","ctl-task-cpt","56","2808590","0.0-10.0-0.3","165","1","2025-07-09 09:11:30","7701e855f2ef39aa3fd6c71abdc6918a","105.245.173.242","Mozilla/5.0 (Windows NT 10.0; Win64; x64) AppleWebKit/537.36 (KHTML, like Gecko) Chrome/138.0.0.0 Safari/537.36","WebKit","Chrome","138.0.0.0","Windows","10.0","https://app.prolific.com/","en-ZA,en-GB;q=0.9,en-US;q=0.8,en;q=0.7,he;q=0.6,hi;q=0.5,ko;q=0.4,zu;q=0.3,zh-CN;q=0.2,zh;q=0.1","666c4699beb014a7b85ccea1","686d226cabeef709c732f8e1","686e31288a0f29126c4c3dd8","666c4699beb014a7b85ccea1","2025-07-09T09:58:21.869Z","","","","","","","","","","","","","","","","win-only","2","g1:SE,g2:NW","0.7","4","0","2751478.3","2675","7677","56600.5","1","4","8","6","2","-8","-10","0","3","0","5002","3000","-1995","[""left"",""up""]","{""num_key_presses"":12,""num_perfect"":7,""num_errors"":2,""num_randdir"":3,""num_randdir_good_moves"":0,""num_whilered"":0,""num_whileblue"":2,""num_blue"":5,""num_good_moves"":8}","[425.57142857142856,410.1808016640799,1.5,425.57142857142856,410.1808016640799,101.8,425.57142857142856,410.1808016640799,204,425.57142857142856,410.1808016640799,306.8,425.57142857142856,410.1808016640799,421.2,425.57142857142856,410.1808016640799,521.3,425.57142857142856,410.1808016640799,623.9,425.57142857142856,410.1808016640799,725.5,425.57142857142856,410.1808016640799,834.3,425.57142857142856,410.1808016640799,937.6,425.57142857142856,410.1808016640799,1037.8,425.57142857142856,410.1808016640799,1142,425.57142857142856,410.1808016640799,1249.9,425.57142857142856,410.1808016640799,1354.7,425.57142857142856,410.1808016640799,1456.5,425.57142857142856,410.1808016640799,1559.9,425.57142857142856,410.1808016640799,1662.2,425.57142857142856,410.1808016640799,1763.5,425.57142857142856,410.1808016640799,1865.9,425.57142857142856,410.1808016640799,1970.5,425.57142857142856,410.1808016640799,2081,425.57142857142856,410.1808016640799,2181.4,425.57142857142856,410.1808016640799,2285.5,425.57142857142856,410.1808016640799,2389,425.57142857142856,410.1808016640799,2493.6,425.57142857142856,410.1808016640799,2595.7,425.57142857142856,410.1808016640799,2700,425.57142857142856,410.1808016640799,2814.4,425.57142857142856,410.1808016640799,2920.3,425.57142857142856,410.1808016640799,3030.1,425.57142857142856,410.1808016640799,3130.6,425.57142857142856,410.1808016640799,3233.3,425.57142857142856,410.1808016640799,3335.4,425.57142857142856,410.1808016640799,3447.4,425.57142857142856,410.1808016640799,3549.2,425.57142857142856,410.1808016640799,3653.5,425.57142857142856,410.1808016640799,3753.6,425.57142857142856,410.1808016640799,3857.5,425.57142857142856,410.1808016640799,3961.1,425.57142857142856,410.1808016640799,4063.3,425.57142857142856,410.1808016640799,4163.9,425.57142857142856,410.1808016640799,4269.9,425.57142857142856,410.1808016640799,4373.7,425.57142857142856,410.1808016640799,4477.5,425.57142857142856,410.1808016640799,4581,425.57142857142856,410.1808016640799,4683.1,425.57142857142856,410.1808016640799,4785.8,425.57142857142856,410.1808016640799,4893.2]","[1364.9,1364.9,1000,0,364.9,""smooth"",""up"",""up"",""good_move"",4920.3,3553.1,3039.7,1367.3,513.3,""smooth"",""up"",""up"",""good_move"",7995.8,3072.2,2559.5,4923.6,512.7,""oops"",""up"",""right"",""bad_move"",10800.5,2804,2331.4,7996.5,472.6,""smooth"",""left"",""left"",""good_move"",14331.9,3530.6,3124.4,10801.3,406.2,""smooth"",""left"",""left"",""good_move"",17991.3,3658.7,2800.7,14332.6,858,""while_blue"",""left"",""right"",""bad_move"",20290.6,2298,1864.7,17992.6,433.3,""smooth"",""left"",""left"",""good_move"",29864.3,9573,2811.1,26565.6,487.6,""smooth"",""left"",""left"",""good_move"",32512.9,2647,2100.7,29865.9,546.4,""oops"",""left"",""right"",""bad_move"",35200,2686.5,2190.6,32513.5,495.9,""oops"",""left"",""down"",""bad_move"",42985.1,7782.1,3282,39330.3,373,""while_blue"",""up"",""left"",""good_move"",46163.2,3175.4,2739.9,42987.8,435.5,""smooth"",""left"",""left"",""good_move""]","","",""
"7047","","<div style=""width:500px;"">
  <p>What determined the result of this run?</p>
  </div>","87","html-slider-response","57","2815642","0.0-10.0-1.3","165","1","2025-07-09 09:11:30","7701e855f2ef39aa3fd6c71abdc6918a","105.245.173.242","Mozilla/5.0 (Windows NT 10.0; Win64; x64) AppleWebKit/537.36 (KHTML, like Gecko) Chrome/138.0.0.0 Safari/537.36","WebKit","Chrome","138.0.0.0","Windows","10.0","https://app.prolific.com/","en-ZA,en-GB;q=0.9,en-US;q=0.8,en;q=0.7,he;q=0.6,hi;q=0.5,ko;q=0.4,zu;q=0.3,zh-CN;q=0.2,zh;q=0.1","666c4699beb014a7b85ccea1","686d226cabeef709c732f8e1","686e31288a0f29126c4c3dd8","666c4699beb014a7b85ccea1","2025-07-09T09:58:28.920Z","","","","","","AttribQ","","","","","","","","","","","","","","","","","","","","","","","","","","","","","","","","","","","","","","50",""
"4920","","<div style=""width:500px;"">
  <p>How much control did you have over the ball?</p>
  </div>","14","html-slider-response","58","2820566","0.0-10.0-2.3","165","1","2025-07-09 09:11:30","7701e855f2ef39aa3fd6c71abdc6918a","105.245.173.242","Mozilla/5.0 (Windows NT 10.0; Win64; x64) AppleWebKit/537.36 (KHTML, like Gecko) Chrome/138.0.0.0 Safari/537.36","WebKit","Chrome","138.0.0.0","Windows","10.0","https://app.prolific.com/","en-ZA,en-GB;q=0.9,en-US;q=0.8,en;q=0.7,he;q=0.6,hi;q=0.5,ko;q=0.4,zu;q=0.3,zh-CN;q=0.2,zh;q=0.1","666c4699beb014a7b85ccea1","686d226cabeef709c732f8e1","686e31288a0f29126c4c3dd8","666c4699beb014a7b85ccea1","2025-07-09T09:58:33.844Z","","","","","","ControlQ","","","","","","","","","","","","","","","","","","","","","","","","","","","","","","","","","","","","","","50",""
"5801","","<div style=""width:500px;"">
  <p>How would you describe your current emotional state?</p>
  </div>","84","html-slider-response","59","2826370","0.0-10.0-3.3","165","1","2025-07-09 09:11:30","7701e855f2ef39aa3fd6c71abdc6918a","105.245.173.242","Mozilla/5.0 (Windows NT 10.0; Win64; x64) AppleWebKit/537.36 (KHTML, like Gecko) Chrome/138.0.0.0 Safari/537.36","WebKit","Chrome","138.0.0.0","Windows","10.0","https://app.prolific.com/","en-ZA,en-GB;q=0.9,en-US;q=0.8,en;q=0.7,he;q=0.6,hi;q=0.5,ko;q=0.4,zu;q=0.3,zh-CN;q=0.2,zh;q=0.1","666c4699beb014a7b85ccea1","686d226cabeef709c732f8e1","686e31288a0f29126c4c3dd8","666c4699beb014a7b85ccea1","2025-07-09T09:58:39.649Z","","","","","","StressQ","","","","","","","","","","","","","","","","","","","","","","","","","","","","","","","","","","","","","","50",""
"5283","","<div style=""width:500px;"">
  <p>What best describes how you currently feel?</p>
  </div>","62","html-slider-response","60","2831659","0.0-10.0-4.3","165","1","2025-07-09 09:11:30","7701e855f2ef39aa3fd6c71abdc6918a","105.245.173.242","Mozilla/5.0 (Windows NT 10.0; Win64; x64) AppleWebKit/537.36 (KHTML, like Gecko) Chrome/138.0.0.0 Safari/537.36","WebKit","Chrome","138.0.0.0","Windows","10.0","https://app.prolific.com/","en-ZA,en-GB;q=0.9,en-US;q=0.8,en;q=0.7,he;q=0.6,hi;q=0.5,ko;q=0.4,zu;q=0.3,zh-CN;q=0.2,zh;q=0.1","666c4699beb014a7b85ccea1","686d226cabeef709c732f8e1","686e31288a0f29126c4c3dd8","666c4699beb014a7b85ccea1","2025-07-09T09:58:44.938Z","","","","","","MotivationQ","","","","","","","","","","","","","","","","","","","","","","","","","","","","","","","","","","","","","","50",""
"","","","","ctl-task-cpt","61","2865916","0.0-10.0-0.4","165","1","2025-07-09 09:11:30","7701e855f2ef39aa3fd6c71abdc6918a","105.245.173.242","Mozilla/5.0 (Windows NT 10.0; Win64; x64) AppleWebKit/537.36 (KHTML, like Gecko) Chrome/138.0.0.0 Safari/537.36","WebKit","Chrome","138.0.0.0","Windows","10.0","https://app.prolific.com/","en-ZA,en-GB;q=0.9,en-US;q=0.8,en;q=0.7,he;q=0.6,hi;q=0.5,ko;q=0.4,zu;q=0.3,zh-CN;q=0.2,zh;q=0.1","666c4699beb014a7b85ccea1","686d226cabeef709c732f8e1","686e31288a0f29126c4c3dd8","666c4699beb014a7b85ccea1","2025-07-09T09:59:19.194Z","","","","","","","","","","","","","","","","win-only","0","g1:NW,g2:SE","0.6","5","0","2834178","1442.3","6448.1","31225","1","4","4","6","2","4","3","3","0","0.022727272727272728","5005.8","3000","1030","[""down"",""right""]","{""num_key_presses"":8,""num_perfect"":5,""num_errors"":1,""num_randdir"":2,""num_randdir_good_moves"":2,""num_whilered"":0,""num_whileblue"":1,""num_blue"":1,""num_good_moves"":7}","[410.57142857142856,416.1808016640799,0.3,410.57142857142856,416.1808016640799,100.7,410.57142857142856,416.1808016640799,220.9,410.57142857142856,416.1808016640799,324.4,410.57142857142856,416.1808016640799,434.5,410.57142857142856,416.1808016640799,540.3,410.57142857142856,416.1808016640799,641.5,410.57142857142856,416.1808016640799,743.8,410.57142857142856,416.1808016640799,857.5,410.57142857142856,416.1808016640799,958.1,410.57142857142856,416.1808016640799,1067.4,410.57142857142856,416.1808016640799,1172.8,410.57142857142856,416.1808016640799,1279.7,410.57142857142856,416.1808016640799,1385,410.57142857142856,416.1808016640799,1486.8,410.57142857142856,416.1808016640799,1590.4,410.57142857142856,416.1808016640799,1696.5,410.57142857142856,416.1808016640799,1810.8,410.57142857142856,416.1808016640799,1914.8,410.57142857142856,416.1808016640799,2034.1,410.57142857142856,416.1808016640799,2138,410.57142857142856,416.1808016640799,2247.8,410.57142857142856,416.1808016640799,2348.8,410.57142857142856,416.1808016640799,2460.4,410.57142857142856,416.1808016640799,2576.6,410.57142857142856,416.1808016640799,2680.5,410.57142857142856,416.1808016640799,2792.1,410.57142857142856,416.1808016640799,2897.2,410.57142857142856,416.1808016640799,2997.5,410.57142857142856,416.1808016640799,3102.7,410.57142857142856,416.1808016640799,3207.7,410.57142857142856,416.1808016640799,3310.5,410.57142857142856,416.1808016640799,3411.3,410.57142857142856,416.1808016640799,3524.4,410.57142857142856,416.1808016640799,3629.9,410.57142857142856,416.1808016640799,3730.2,410.57142857142856,416.1808016640799,3831.4,410.57142857142856,416.1808016640799,3944.8,410.57142857142856,416.1808016640799,4047.9,410.57142857142856,416.1808016640799,4147.9,410.57142857142856,416.1808016640799,4252.2,410.57142857142856,416.1808016640799,4358.8,410.57142857142856,416.1808016640799,4462.8,410.57142857142856,416.1808016640799,4565.7,410.57142857142856,416.1808016640799,4671.6,410.57142857142856,416.1808016640799,4781,410.57142857142856,416.1808016640799,4887.9,410.57142857142856,416.1808016640799,4988.2]","[1448.3,1448.3,1000,0,448.3,""smooth"",""right"",""right"",""good_move"",4644.9,3191.9,2616.3,1453.8,574.8,""while_blue"",""right"",""left"",""bad_move"",7648.6,3003.1,2571.4,4645.5,431.8,""smooth"",""right"",""right"",""good_move"",10626.2,2976.7,2408.3,7649.5,568.4,""oops"",""right"",""right"",""good_move"",14364.1,3737.4,3293.9,10626.7,443.5,""smooth"",""right"",""right"",""good_move"",17743,3375.4,2903.3,14367.7,472.1,""smooth"",""down"",""down"",""good_move"",21397.8,3652.8,3244.2,17745.1,408.5,""oops"",""down"",""down"",""good_move"",24606,3206.3,2765.5,21399.7,440.8,""smooth"",""down"",""down"",""good_move""]","","",""
"4897","","<div style=""width:500px;"">
  <p>What determined the result of this run?</p>
  </div>","6","html-slider-response","62","2870817","0.0-10.0-1.4","165","1","2025-07-09 09:11:30","7701e855f2ef39aa3fd6c71abdc6918a","105.245.173.242","Mozilla/5.0 (Windows NT 10.0; Win64; x64) AppleWebKit/537.36 (KHTML, like Gecko) Chrome/138.0.0.0 Safari/537.36","WebKit","Chrome","138.0.0.0","Windows","10.0","https://app.prolific.com/","en-ZA,en-GB;q=0.9,en-US;q=0.8,en;q=0.7,he;q=0.6,hi;q=0.5,ko;q=0.4,zu;q=0.3,zh-CN;q=0.2,zh;q=0.1","666c4699beb014a7b85ccea1","686d226cabeef709c732f8e1","686e31288a0f29126c4c3dd8","666c4699beb014a7b85ccea1","2025-07-09T09:59:24.095Z","","","","","","AttribQ","","","","","","","","","","","","","","","","","","","","","","","","","","","","","","","","","","","","","","50",""
"5082","","<div style=""width:500px;"">
  <p>How much control did you have over the ball?</p>
  </div>","91","html-slider-response","63","2875904","0.0-10.0-2.4","165","1","2025-07-09 09:11:30","7701e855f2ef39aa3fd6c71abdc6918a","105.245.173.242","Mozilla/5.0 (Windows NT 10.0; Win64; x64) AppleWebKit/537.36 (KHTML, like Gecko) Chrome/138.0.0.0 Safari/537.36","WebKit","Chrome","138.0.0.0","Windows","10.0","https://app.prolific.com/","en-ZA,en-GB;q=0.9,en-US;q=0.8,en;q=0.7,he;q=0.6,hi;q=0.5,ko;q=0.4,zu;q=0.3,zh-CN;q=0.2,zh;q=0.1","666c4699beb014a7b85ccea1","686d226cabeef709c732f8e1","686e31288a0f29126c4c3dd8","666c4699beb014a7b85ccea1","2025-07-09T09:59:29.182Z","","","","","","ControlQ","","","","","","","","","","","","","","","","","","","","","","","","","","","","","","","","","","","","","","50",""
"4503","","<div style=""width:500px;"">
  <p>How would you describe your current emotional state?</p>
  </div>","27","html-slider-response","64","2880416","0.0-10.0-3.4","165","1","2025-07-09 09:11:30","7701e855f2ef39aa3fd6c71abdc6918a","105.245.173.242","Mozilla/5.0 (Windows NT 10.0; Win64; x64) AppleWebKit/537.36 (KHTML, like Gecko) Chrome/138.0.0.0 Safari/537.36","WebKit","Chrome","138.0.0.0","Windows","10.0","https://app.prolific.com/","en-ZA,en-GB;q=0.9,en-US;q=0.8,en;q=0.7,he;q=0.6,hi;q=0.5,ko;q=0.4,zu;q=0.3,zh-CN;q=0.2,zh;q=0.1","666c4699beb014a7b85ccea1","686d226cabeef709c732f8e1","686e31288a0f29126c4c3dd8","666c4699beb014a7b85ccea1","2025-07-09T09:59:33.694Z","","","","","","StressQ","","","","","","","","","","","","","","","","","","","","","","","","","","","","","","","","","","","","","","50",""
"5121","","<div style=""width:500px;"">
  <p>What best describes how you currently feel?</p>
  </div>","94","html-slider-response","65","2885547","0.0-10.0-4.4","165","1","2025-07-09 09:11:30","7701e855f2ef39aa3fd6c71abdc6918a","105.245.173.242","Mozilla/5.0 (Windows NT 10.0; Win64; x64) AppleWebKit/537.36 (KHTML, like Gecko) Chrome/138.0.0.0 Safari/537.36","WebKit","Chrome","138.0.0.0","Windows","10.0","https://app.prolific.com/","en-ZA,en-GB;q=0.9,en-US;q=0.8,en;q=0.7,he;q=0.6,hi;q=0.5,ko;q=0.4,zu;q=0.3,zh-CN;q=0.2,zh;q=0.1","666c4699beb014a7b85ccea1","686d226cabeef709c732f8e1","686e31288a0f29126c4c3dd8","666c4699beb014a7b85ccea1","2025-07-09T09:59:38.826Z","","","","","","MotivationQ","","","","","","","","","","","","","","","","","","","","","","","","","","","","","","","","","","","","","","50",""
"","","","","ctl-task-cpt","66","2911126","0.0-10.0-0.5","165","1","2025-07-09 09:11:30","7701e855f2ef39aa3fd6c71abdc6918a","105.245.173.242","Mozilla/5.0 (Windows NT 10.0; Win64; x64) AppleWebKit/537.36 (KHTML, like Gecko) Chrome/138.0.0.0 Safari/537.36","WebKit","Chrome","138.0.0.0","Windows","10.0","https://app.prolific.com/","en-ZA,en-GB;q=0.9,en-US;q=0.8,en;q=0.7,he;q=0.6,hi;q=0.5,ko;q=0.4,zu;q=0.3,zh-CN;q=0.2,zh;q=0.1","666c4699beb014a7b85ccea1","686d226cabeef709c732f8e1","686e31288a0f29126c4c3dd8","666c4699beb014a7b85ccea1","2025-07-09T10:00:04.405Z","","","","","","","","","","","","","","","","win-only","1","g1:NE,g2:SW","0.5","6","0","2888061.8","4459.7","9464.8","22546.8","1","4","8","6","1","1","0","3","3","0.022727272727272728","5005.1","3000","2450","[""up"",""right""]","{""num_key_presses"":4,""num_perfect"":2,""num_errors"":1,""num_randdir"":1,""num_randdir_good_moves"":1,""num_whilered"":0,""num_whileblue"":1,""num_blue"":2,""num_good_moves"":4}","[412.07142857142856,404.1808016640799,0.6,412.07142857142856,404.1808016640799,100.5,412.07142857142856,404.1808016640799,211.8,412.07142857142856,404.1808016640799,317.1,412.07142857142856,404.1808016640799,419.3,412.07142857142856,404.1808016640799,524.5,412.07142857142856,404.1808016640799,630.1,412.07142857142856,404.1808016640799,734.3,412.07142857142856,404.1808016640799,840.4,412.07142857142856,404.1808016640799,944.8,412.07142857142856,404.1808016640799,1047.8,412.07142857142856,404.1808016640799,1152.4,412.07142857142856,404.1808016640799,1260.2,412.07142857142856,404.1808016640799,1362.2,412.07142857142856,404.1808016640799,1462.5,412.07142857142856,404.1808016640799,1579.1,412.07142857142856,404.1808016640799,1685.5,412.07142857142856,404.1808016640799,1797.3,412.07142857142856,404.1808016640799,1899.7,412.07142857142856,404.1808016640799,2003.3,412.07142857142856,404.1808016640799,2106.3,412.07142857142856,404.1808016640799,2213.8,412.07142857142856,404.1808016640799,2315.3,412.07142857142856,404.1808016640799,2415.5,412.07142857142856,404.1808016640799,2523,412.07142857142856,404.1808016640799,2631,412.07142857142856,404.1808016640799,2734.3,412.07142857142856,404.1808016640799,2842.1,412.07142857142856,404.1808016640799,2948.1,412.07142857142856,404.1808016640799,3052.7,412.07142857142856,404.1808016640799,3157.1,412.07142857142856,404.1808016640799,3261.5,412.07142857142856,404.1808016640799,3363.1,412.07142857142856,404.1808016640799,3471.4,412.07142857142856,404.1808016640799,3582.2,412.07142857142856,404.1808016640799,3688,412.07142857142856,404.1808016640799,3789.6,412.07142857142856,404.1808016640799,3896.5,412.07142857142856,404.1808016640799,4006.6,412.07142857142856,404.1808016640799,4112.6,412.07142857142856,404.1808016640799,4223.8,412.07142857142856,404.1808016640799,4334.1,412.07142857142856,404.1808016640799,4440.6,412.07142857142856,404.1808016640799,4555.3,412.07142857142856,404.1808016640799,4656.8,412.07142857142856,404.1808016640799,4757.7,412.07142857142856,404.1808016640799,4863,412.07142857142856,404.1808016640799,4968.4]","[4726.6,4726.6,2341.3,2018.9,366.4,""smooth"",""right"",""right"",""good_move"",6942.2,2214.2,1601.6,4728.1,612.6,""smooth"",""right"",""right"",""good_move"",9910.1,2967.2,2580,6942.9,387.2,""while_blue"",""up"",""up"",""good_move"",12911.2,2999.9,2511.5,9911.3,488.4,""oops"",""up"",""up"",""good_move""]","","",""
"5892","","<div style=""width:500px;"">
  <p>What determined the result of this run?</p>
  </div>","48","html-slider-response","67","2917024","0.0-10.0-1.5","165","1","2025-07-09 09:11:30","7701e855f2ef39aa3fd6c71abdc6918a","105.245.173.242","Mozilla/5.0 (Windows NT 10.0; Win64; x64) AppleWebKit/537.36 (KHTML, like Gecko) Chrome/138.0.0.0 Safari/537.36","WebKit","Chrome","138.0.0.0","Windows","10.0","https://app.prolific.com/","en-ZA,en-GB;q=0.9,en-US;q=0.8,en;q=0.7,he;q=0.6,hi;q=0.5,ko;q=0.4,zu;q=0.3,zh-CN;q=0.2,zh;q=0.1","666c4699beb014a7b85ccea1","686d226cabeef709c732f8e1","686e31288a0f29126c4c3dd8","666c4699beb014a7b85ccea1","2025-07-09T10:00:10.302Z","","","","","","AttribQ","","","","","","","","","","","","","","","","","","","","","","","","","","","","","","","","","","","","","","50",""
"5256","","<div style=""width:500px;"">
  <p>How much control did you have over the ball?</p>
  </div>","23","html-slider-response","68","2922286","0.0-10.0-2.5","165","1","2025-07-09 09:11:30","7701e855f2ef39aa3fd6c71abdc6918a","105.245.173.242","Mozilla/5.0 (Windows NT 10.0; Win64; x64) AppleWebKit/537.36 (KHTML, like Gecko) Chrome/138.0.0.0 Safari/537.36","WebKit","Chrome","138.0.0.0","Windows","10.0","https://app.prolific.com/","en-ZA,en-GB;q=0.9,en-US;q=0.8,en;q=0.7,he;q=0.6,hi;q=0.5,ko;q=0.4,zu;q=0.3,zh-CN;q=0.2,zh;q=0.1","666c4699beb014a7b85ccea1","686d226cabeef709c732f8e1","686e31288a0f29126c4c3dd8","666c4699beb014a7b85ccea1","2025-07-09T10:00:15.564Z","","","","","","ControlQ","","","","","","","","","","","","","","","","","","","","","","","","","","","","","","","","","","","","","","50",""
"4525","","<div style=""width:500px;"">
  <p>How would you describe your current emotional state?</p>
  </div>","66","html-slider-response","69","2926814","0.0-10.0-3.5","165","1","2025-07-09 09:11:30","7701e855f2ef39aa3fd6c71abdc6918a","105.245.173.242","Mozilla/5.0 (Windows NT 10.0; Win64; x64) AppleWebKit/537.36 (KHTML, like Gecko) Chrome/138.0.0.0 Safari/537.36","WebKit","Chrome","138.0.0.0","Windows","10.0","https://app.prolific.com/","en-ZA,en-GB;q=0.9,en-US;q=0.8,en;q=0.7,he;q=0.6,hi;q=0.5,ko;q=0.4,zu;q=0.3,zh-CN;q=0.2,zh;q=0.1","666c4699beb014a7b85ccea1","686d226cabeef709c732f8e1","686e31288a0f29126c4c3dd8","666c4699beb014a7b85ccea1","2025-07-09T10:00:20.093Z","","","","","","StressQ","","","","","","","","","","","","","","","","","","","","","","","","","","","","","","","","","","","","","","50",""
"7430","","<div style=""width:500px;"">
  <p>What best describes how you currently feel?</p>
  </div>","85","html-slider-response","70","2934249","0.0-10.0-4.5","165","1","2025-07-09 09:11:30","7701e855f2ef39aa3fd6c71abdc6918a","105.245.173.242","Mozilla/5.0 (Windows NT 10.0; Win64; x64) AppleWebKit/537.36 (KHTML, like Gecko) Chrome/138.0.0.0 Safari/537.36","WebKit","Chrome","138.0.0.0","Windows","10.0","https://app.prolific.com/","en-ZA,en-GB;q=0.9,en-US;q=0.8,en;q=0.7,he;q=0.6,hi;q=0.5,ko;q=0.4,zu;q=0.3,zh-CN;q=0.2,zh;q=0.1","666c4699beb014a7b85ccea1","686d226cabeef709c732f8e1","686e31288a0f29126c4c3dd8","666c4699beb014a7b85ccea1","2025-07-09T10:00:27.527Z","","","","","","MotivationQ","","","","","","","","","","","","","","","","","","","","","","","","","","","","","","","","","","","","","","50",""
"","","","","ctl-task-cpt","71","2960917","0.0-10.0-0.6","165","1","2025-07-09 09:11:30","7701e855f2ef39aa3fd6c71abdc6918a","105.245.173.242","Mozilla/5.0 (Windows NT 10.0; Win64; x64) AppleWebKit/537.36 (KHTML, like Gecko) Chrome/138.0.0.0 Safari/537.36","WebKit","Chrome","138.0.0.0","Windows","10.0","https://app.prolific.com/","en-ZA,en-GB;q=0.9,en-US;q=0.8,en;q=0.7,he;q=0.6,hi;q=0.5,ko;q=0.4,zu;q=0.3,zh-CN;q=0.2,zh;q=0.1","666c4699beb014a7b85ccea1","686d226cabeef709c732f8e1","686e31288a0f29126c4c3dd8","666c4699beb014a7b85ccea1","2025-07-09T10:00:54.195Z","","","","","","","","","","","","","","","","win-only","3","g1:SW,g2:NE","0.4","7","0","2936762.5","6575.9","11591.3","23645.8","1","4","8","6","1","1","1","4","3","0.030303030303030304","2839.9","3000","2255","[""down"",""left""]","{""num_key_presses"":4,""num_perfect"":3,""num_errors"":0,""num_randdir"":1,""num_randdir_good_moves"":1,""num_whilered"":0,""num_whileblue"":0,""num_blue"":0,""num_good_moves"":4}","[422.57142857142856,407.1808016640799,0.4,422.57142857142856,407.1808016640799,107.9,422.57142857142856,407.1808016640799,216.7,422.57142857142856,407.1808016640799,318.5,422.57142857142856,407.1808016640799,423.3,422.57142857142856,407.1808016640799,530.7,263.57142857142856,515.1808016640799,640.5,133.07142857142856,627.6808016640799,757.8,113.57142857142857,659.1808016640799,870.7,113.57142857142857,662.1808016640799,974,115.07142857142857,668.1808016640799,1087.7,115.07142857142857,668.1808016640799,1191.5,115.07142857142857,668.1808016640799,1304,115.07142857142857,668.1808016640799,1420.6,115.07142857142857,668.1808016640799,1528.7,115.07142857142857,668.1808016640799,1633.9,115.07142857142857,668.1808016640799,1747.9,115.07142857142857,668.1808016640799,1850.6,115.07142857142857,668.1808016640799,1955.4,115.07142857142857,668.1808016640799,2070.4,115.07142857142857,668.1808016640799,2180,115.07142857142857,668.1808016640799,2288.6,86.57142857142857,702.6808016640799,2388.7,74.57142857142857,722.1808016640799,2491,76.07142857142857,723.6808016640799,2600.2,76.07142857142857,723.6808016640799,2703.3,76.07142857142857,723.6808016640799,2813.4,76.07142857142857,723.6808016640799,2926.8,76.07142857142857,723.6808016640799,3033.2,76.07142857142857,723.6808016640799,3134.1,76.07142857142857,723.6808016640799,3234.9,76.07142857142857,723.6808016640799,3336.7,76.07142857142857,723.6808016640799,3440.7,76.07142857142857,723.6808016640799,3546.4,76.07142857142857,723.6808016640799,3656.1,76.07142857142857,723.6808016640799,3765.5,76.07142857142857,723.6808016640799,3876.2,76.07142857142857,723.6808016640799,3992.3,76.07142857142857,723.6808016640799,4096.7,76.07142857142857,723.6808016640799,4211,76.07142857142857,723.6808016640799,4320.6,76.07142857142857,723.6808016640799,4433.2,76.07142857142857,723.6808016640799,4536.8,76.07142857142857,723.6808016640799,4647.8,76.07142857142857,723.6808016640799,4759.2,76.07142857142857,723.6808016640799,4870.3,76.07142857142857,723.6808016640799,4970.8]","[1628.6,1628.5,1000,0.1,628.5,""oops"",""left"",""left"",""good_move"",5120.2,3489.3,2410.3,1630.9,1079,""smooth"",""left"",""left"",""good_move"",8626.8,3504.1,2096.8,5122.7,1407.3,""smooth"",""down"",""down"",""good_move"",11897.4,3269.9,2758.2,8627.5,511.7,""smooth"",""down"",""down"",""good_move""]","","",""
"8201","","<div style=""width:500px;"">
  <p>What determined the result of this run?</p>
  </div>","78","html-slider-response","72","2969121","0.0-10.0-1.6","165","1","2025-07-09 09:11:30","7701e855f2ef39aa3fd6c71abdc6918a","105.245.173.242","Mozilla/5.0 (Windows NT 10.0; Win64; x64) AppleWebKit/537.36 (KHTML, like Gecko) Chrome/138.0.0.0 Safari/537.36","WebKit","Chrome","138.0.0.0","Windows","10.0","https://app.prolific.com/","en-ZA,en-GB;q=0.9,en-US;q=0.8,en;q=0.7,he;q=0.6,hi;q=0.5,ko;q=0.4,zu;q=0.3,zh-CN;q=0.2,zh;q=0.1","666c4699beb014a7b85ccea1","686d226cabeef709c732f8e1","686e31288a0f29126c4c3dd8","666c4699beb014a7b85ccea1","2025-07-09T10:01:02.400Z","","","","","","AttribQ","","","","","","","","","","","","","","","","","","","","","","","","","","","","","","","","","","","","","","50",""
"5076","","<div style=""width:500px;"">
  <p>How much control did you have over the ball?</p>
  </div>","80","html-slider-response","73","2974206","0.0-10.0-2.6","165","1","2025-07-09 09:11:30","7701e855f2ef39aa3fd6c71abdc6918a","105.245.173.242","Mozilla/5.0 (Windows NT 10.0; Win64; x64) AppleWebKit/537.36 (KHTML, like Gecko) Chrome/138.0.0.0 Safari/537.36","WebKit","Chrome","138.0.0.0","Windows","10.0","https://app.prolific.com/","en-ZA,en-GB;q=0.9,en-US;q=0.8,en;q=0.7,he;q=0.6,hi;q=0.5,ko;q=0.4,zu;q=0.3,zh-CN;q=0.2,zh;q=0.1","666c4699beb014a7b85ccea1","686d226cabeef709c732f8e1","686e31288a0f29126c4c3dd8","666c4699beb014a7b85ccea1","2025-07-09T10:01:07.484Z","","","","","","ControlQ","","","","","","","","","","","","","","","","","","","","","","","","","","","","","","","","","","","","","","50",""
"4389","","<div style=""width:500px;"">
  <p>How would you describe your current emotional state?</p>
  </div>","28","html-slider-response","74","2978600","0.0-10.0-3.6","165","1","2025-07-09 09:11:30","7701e855f2ef39aa3fd6c71abdc6918a","105.245.173.242","Mozilla/5.0 (Windows NT 10.0; Win64; x64) AppleWebKit/537.36 (KHTML, like Gecko) Chrome/138.0.0.0 Safari/537.36","WebKit","Chrome","138.0.0.0","Windows","10.0","https://app.prolific.com/","en-ZA,en-GB;q=0.9,en-US;q=0.8,en;q=0.7,he;q=0.6,hi;q=0.5,ko;q=0.4,zu;q=0.3,zh-CN;q=0.2,zh;q=0.1","666c4699beb014a7b85ccea1","686d226cabeef709c732f8e1","686e31288a0f29126c4c3dd8","666c4699beb014a7b85ccea1","2025-07-09T10:01:11.879Z","","","","","","StressQ","","","","","","","","","","","","","","","","","","","","","","","","","","","","","","","","","","","","","","50",""
"6176","","<div style=""width:500px;"">
  <p>What best describes how you currently feel?</p>
  </div>","78","html-slider-response","75","2984782","0.0-10.0-4.6","165","1","2025-07-09 09:11:30","7701e855f2ef39aa3fd6c71abdc6918a","105.245.173.242","Mozilla/5.0 (Windows NT 10.0; Win64; x64) AppleWebKit/537.36 (KHTML, like Gecko) Chrome/138.0.0.0 Safari/537.36","WebKit","Chrome","138.0.0.0","Windows","10.0","https://app.prolific.com/","en-ZA,en-GB;q=0.9,en-US;q=0.8,en;q=0.7,he;q=0.6,hi;q=0.5,ko;q=0.4,zu;q=0.3,zh-CN;q=0.2,zh;q=0.1","666c4699beb014a7b85ccea1","686d226cabeef709c732f8e1","686e31288a0f29126c4c3dd8","666c4699beb014a7b85ccea1","2025-07-09T10:01:18.061Z","","","","","","MotivationQ","","","","","","","","","","","","","","","","","","","","","","","","","","","","","","","","","","","","","","50",""
"","","","","ctl-task-cpt","76","3076844","0.0-10.0-0.7","165","1","2025-07-09 09:11:30","7701e855f2ef39aa3fd6c71abdc6918a","105.245.173.242","Mozilla/5.0 (Windows NT 10.0; Win64; x64) AppleWebKit/537.36 (KHTML, like Gecko) Chrome/138.0.0.0 Safari/537.36","WebKit","Chrome","138.0.0.0","Windows","10.0","https://app.prolific.com/","en-ZA,en-GB;q=0.9,en-US;q=0.8,en;q=0.7,he;q=0.6,hi;q=0.5,ko;q=0.4,zu;q=0.3,zh-CN;q=0.2,zh;q=0.1","666c4699beb014a7b85ccea1","686d226cabeef709c732f8e1","686e31288a0f29126c4c3dd8","666c4699beb014a7b85ccea1","2025-07-09T10:02:50.123Z","","","","","","","","","","","","","","","","win-only","3","g1:SW,g2:NE","0.3","8","0","2987298.1","1708.7","6718.6","89035.1","1","4","4","6","2","-4","-4","0","4","0","1824.6","3000","-1020","[""up"",""right""]","{""num_key_presses"":21,""num_perfect"":6,""num_errors"":0,""num_randdir"":15,""num_randdir_good_moves"":6,""num_whilered"":0,""num_whileblue"":0,""num_blue"":4,""num_good_moves"":10}","[413.57142857142856,413.1808016640799,1.2,413.57142857142856,413.1808016640799,100.3,413.57142857142856,413.1808016640799,203.1,413.57142857142856,413.1808016640799,303.3,413.57142857142856,413.1808016640799,405.4,413.57142857142856,413.1808016640799,505.9,376.07142857142856,456.6808016640799,619.6,359.57142857142856,464.1808016640799,731.3,443.57142857142856,371.1808016640799,835.8,587.5714285714286,251.18080166407992,942.9,689.5714285714286,197.18080166407992,1043.1,728.5714285714286,179.18080166407992,1146.4,728.5714285714286,179.18080166407992,1251,728.5714285714286,179.18080166407992,1364.3,736.0714285714286,93.68080166407994,1476.1,743.5714285714286,63.68080166407994,1587.2,743.5714285714286,63.68080166407994,1692.5,743.5714285714286,63.68080166407994,1795,743.5714285714286,63.68080166407994,1896.5,743.5714285714286,63.68080166407994,2001.6,743.5714285714286,63.68080166407994,2112,743.5714285714286,63.68080166407994,2224.1,743.5714285714286,63.68080166407994,2341.4,743.5714285714286,63.68080166407994,2452.3,743.5714285714286,63.68080166407994,2566.3,743.5714285714286,63.68080166407994,2680.3,743.5714285714286,63.68080166407994,2786,743.5714285714286,63.68080166407994,2887.9,743.5714285714286,63.68080166407994,2991.7,743.5714285714286,63.68080166407994,3095.1,743.5714285714286,63.68080166407994,3205.1,743.5714285714286,63.68080166407994,3305.5,743.5714285714286,63.68080166407994,3409.9,743.5714285714286,63.68080166407994,3519.8,743.5714285714286,63.68080166407994,3625,743.5714285714286,63.68080166407994,3736.6,743.5714285714286,63.68080166407994,3854.7,743.5714285714286,63.68080166407994,3968.8,743.5714285714286,63.68080166407994,4078.4,743.5714285714286,63.68080166407994,4182,743.5714285714286,63.68080166407994,4282.3,743.5714285714286,63.68080166407994,4386.3,743.5714285714286,63.68080166407994,4499.6,743.5714285714286,63.68080166407994,4600.5,743.5714285714286,63.68080166407994,4703.6,743.5714285714286,63.68080166407994,4819,743.5714285714286,63.68080166407994,4919.3]","[1383.1,1383.1,1000,0,383.1,""oops"",""up"",""down"",""bad_move"",8686.5,7302.5,3631.4,4565.2,489.9,""oops"",""up"",""down"",""bad_move"",11663.9,2977.1,2374.2,8686.8,602.9,""oops"",""right"",""left"",""bad_move"",14849.8,3184.4,2720.8,11665.4,463.6,""smooth"",""right"",""right"",""good_move"",17670.4,2818.6,2283.1,14851.8,535.5,""smooth"",""right"",""right"",""good_move"",29013.3,11342.5,2952.6,25651.5,409.2,""smooth"",""right"",""right"",""good_move"",31394.8,2381.2,1893,29013.6,488.2,""oops"",""up"",""right"",""good_move"",35097.8,3702.5,3281.6,31395.3,420.9,""oops"",""up"",""left"",""bad_move"",38553.2,3454.4,3067.9,35098.8,386.5,""oops"",""up"",""left"",""bad_move"",41758.4,3202.9,2839,38555.5,363.9,""oops"",""up"",""up"",""good_move"",44635.9,2876.7,2475.7,41759.2,401.1,""oops"",""up"",""left"",""bad_move"",48006.2,3364.5,2158.3,44641.7,1206.2,""oops"",""right"",""left"",""bad_move"",54083.5,6073,2064.5,51612.4,406.6,""oops"",""left"",""right"",""good_move"",56751.8,2667.2,2236.2,54084.6,431,""oops"",""left"",""down"",""bad_move"",59765.8,3011.4,2599.2,56754.4,412.2,""smooth"",""left"",""left"",""bad_move"",62685.7,2918.9,2419.8,59766.8,499.1,""smooth"",""left"",""left"",""bad_move"",66122.9,3436.7,3007.8,62686.2,428.9,""smooth"",""up"",""up"",""good_move"",69662.1,3538.6,2401.6,66123.5,1137,""oops"",""up"",""down"",""bad_move"",72187.3,2524.7,2043,69662.6,481.7,""oops"",""up"",""up"",""good_move"",75576.5,3387.9,2978.6,72188.6,409.3,""oops"",""right"",""up"",""good_move"",78903.5,3325.5,2898.3,75578,427.2,""oops"",""right"",""up"",""good_move""]","","",""
"6148","","<div style=""width:500px;"">
  <p>What determined the result of this run?</p>
  </div>","39","html-slider-response","77","3082995","0.0-10.0-1.7","165","1","2025-07-09 09:11:30","7701e855f2ef39aa3fd6c71abdc6918a","105.245.173.242","Mozilla/5.0 (Windows NT 10.0; Win64; x64) AppleWebKit/537.36 (KHTML, like Gecko) Chrome/138.0.0.0 Safari/537.36","WebKit","Chrome","138.0.0.0","Windows","10.0","https://app.prolific.com/","en-ZA,en-GB;q=0.9,en-US;q=0.8,en;q=0.7,he;q=0.6,hi;q=0.5,ko;q=0.4,zu;q=0.3,zh-CN;q=0.2,zh;q=0.1","666c4699beb014a7b85ccea1","686d226cabeef709c732f8e1","686e31288a0f29126c4c3dd8","666c4699beb014a7b85ccea1","2025-07-09T10:02:56.273Z","","","","","","AttribQ","","","","","","","","","","","","","","","","","","","","","","","","","","","","","","","","","","","","","","50",""
"8044","","<div style=""width:500px;"">
  <p>How much control did you have over the ball?</p>
  </div>","4","html-slider-response","78","3091047","0.0-10.0-2.7","165","1","2025-07-09 09:11:30","7701e855f2ef39aa3fd6c71abdc6918a","105.245.173.242","Mozilla/5.0 (Windows NT 10.0; Win64; x64) AppleWebKit/537.36 (KHTML, like Gecko) Chrome/138.0.0.0 Safari/537.36","WebKit","Chrome","138.0.0.0","Windows","10.0","https://app.prolific.com/","en-ZA,en-GB;q=0.9,en-US;q=0.8,en;q=0.7,he;q=0.6,hi;q=0.5,ko;q=0.4,zu;q=0.3,zh-CN;q=0.2,zh;q=0.1","666c4699beb014a7b85ccea1","686d226cabeef709c732f8e1","686e31288a0f29126c4c3dd8","666c4699beb014a7b85ccea1","2025-07-09T10:03:04.326Z","","","","","","ControlQ","","","","","","","","","","","","","","","","","","","","","","","","","","","","","","","","","","","","","","50",""
"10861","","<div style=""width:500px;"">
  <p>How would you describe your current emotional state?</p>
  </div>","54","html-slider-response","79","3101913","0.0-10.0-3.7","165","1","2025-07-09 09:11:30","7701e855f2ef39aa3fd6c71abdc6918a","105.245.173.242","Mozilla/5.0 (Windows NT 10.0; Win64; x64) AppleWebKit/537.36 (KHTML, like Gecko) Chrome/138.0.0.0 Safari/537.36","WebKit","Chrome","138.0.0.0","Windows","10.0","https://app.prolific.com/","en-ZA,en-GB;q=0.9,en-US;q=0.8,en;q=0.7,he;q=0.6,hi;q=0.5,ko;q=0.4,zu;q=0.3,zh-CN;q=0.2,zh;q=0.1","666c4699beb014a7b85ccea1","686d226cabeef709c732f8e1","686e31288a0f29126c4c3dd8","666c4699beb014a7b85ccea1","2025-07-09T10:03:15.191Z","","","","","","StressQ","","","","","","","","","","","","","","","","","","","","","","","","","","","","","","","","","","","","","","50",""
"5730","","<div style=""width:500px;"">
  <p>What best describes how you currently feel?</p>
  </div>","70","html-slider-response","80","3107649","0.0-10.0-4.7","165","1","2025-07-09 09:11:30","7701e855f2ef39aa3fd6c71abdc6918a","105.245.173.242","Mozilla/5.0 (Windows NT 10.0; Win64; x64) AppleWebKit/537.36 (KHTML, like Gecko) Chrome/138.0.0.0 Safari/537.36","WebKit","Chrome","138.0.0.0","Windows","10.0","https://app.prolific.com/","en-ZA,en-GB;q=0.9,en-US;q=0.8,en;q=0.7,he;q=0.6,hi;q=0.5,ko;q=0.4,zu;q=0.3,zh-CN;q=0.2,zh;q=0.1","666c4699beb014a7b85ccea1","686d226cabeef709c732f8e1","686e31288a0f29126c4c3dd8","666c4699beb014a7b85ccea1","2025-07-09T10:03:20.928Z","","","","","","MotivationQ","","","","","","","","","","","","","","","","","","","","","","","","","","","","","","","","","","","","","","50",""
