"rt","response_timestamp","stimulus","response","trial_type","trial_index","time_elapsed","internal_node_id","run_id","condition","recorded_at","source_code_version","ip","user_agent","device","browser","browser_version","platform","platform_version","referer","accept_language","PROLIFIC_PID","STUDY_ID","SESSION_ID","prolific_id","realtime","view_history","question_order","consent","success","question_id","eventType","responses","item_order","radio_event_ids","radio_event_times","key_event_times","mouse_event_times","straightlining","zigzagging","honeypot","which_type","canvas_config","goals_layout","control_level","trial_number","tutorial_trial_number","trial_start_time","phase1_start_time","phase2_start_time","phase3_start_time","goal_1_value","goal_1_distance","goal_2_value","goal_2_distance","goal_selected","outcome","outcome_total","participant_final_score","participant_initial_score","participant_final_score_prop","goal_choice_rt","allocated_time","allocated_time_remaining","goal_direction","counts","mouse_movements","key_presses","correct","slider_start"
"4603","1752054391086","<p style='font-size:40px;line-height:1.25'><strong>Welcome to the experiment!</strong></p><p style='font-size:1.1em;line-height:1.25'>Thank you for your interest in our experiment! Before you begin, it is important that we obtain your informed consent to participate in the study.</p><p style='font-size:1.1em;line-height:1.25'>On the next screen will be an <strong>information sheet</strong> for you to read. To participate in the study we need you to read this information sheet and the following consent form carefully. If you agree with all the statements, please click the <strong>I agree</strong> button.</p><p style='font-size:1.1em;line-height:1.25'>Press <strong>Next</strong> to read the information sheet.</p>","0","custom-html-button-response","0","4607","0.0-0.0","239","1","2025-07-09 09:46:10","7701e855f2ef39aa3fd6c71abdc6918a","102.66.142.105","Mozilla/5.0 (Windows NT 10.0; Win64; x64) AppleWebKit/537.36 (KHTML, like Gecko) Chrome/138.0.0.0 Safari/537.36","WebKit","Chrome","138.0.0.0","Windows","10.0","https://app.prolific.com/","en-US,en;q=0.9","60f41ae35227aa02240ba0d9","686d226cabeef709c732f8e1","686e310849c1251cb5abb92f","60f41ae35227aa02240ba0d9","2025-07-09T09:46:31.088Z","","","","","","","","","","","","","","","","","","","","","","","","","","","","","","","","","","","","","","","","","","","",""
"7531","","","","instructions","1","12141","0.0-1.0","239","1","2025-07-09 09:46:10","7701e855f2ef39aa3fd6c71abdc6918a","102.66.142.105","Mozilla/5.0 (Windows NT 10.0; Win64; x64) AppleWebKit/537.36 (KHTML, like Gecko) Chrome/138.0.0.0 Safari/537.36","WebKit","Chrome","138.0.0.0","Windows","10.0","https://app.prolific.com/","en-US,en;q=0.9","60f41ae35227aa02240ba0d9","686d226cabeef709c732f8e1","686e310849c1251cb5abb92f","60f41ae35227aa02240ba0d9","","[{""page_index"":0,""viewing_time"":7099},{""page_index"":1,""viewing_time"":431}]","","","","","","","","","","","","","","","","","","","","","","","","","","","","","","","","","","","","","","","","","","",""
"7274","","","{""Q0"":"""",""Q1"":"""",""Q2"":"""",""Q3"":"""",""Q4"":"""",""Q5"":"""",""Q6"":""I agree""}","survey-multi-choice","2","19422","0.0-2.0","239","1","2025-07-09 09:46:10","7701e855f2ef39aa3fd6c71abdc6918a","102.66.142.105","Mozilla/5.0 (Windows NT 10.0; Win64; x64) AppleWebKit/537.36 (KHTML, like Gecko) Chrome/138.0.0.0 Safari/537.36","WebKit","Chrome","138.0.0.0","Windows","10.0","https://app.prolific.com/","en-US,en;q=0.9","60f41ae35227aa02240ba0d9","686d226cabeef709c732f8e1","686e310849c1251cb5abb92f","60f41ae35227aa02240ba0d9","","","[0,1,2,3,4,5,6]","true","","","","","","","","","","","","","","","","","","","","","","","","","","","","","","","","","","","","","","","","",""
"1902","","","","fullscreen","3","22352","0.0-4.0","239","1","2025-07-09 09:46:10","7701e855f2ef39aa3fd6c71abdc6918a","102.66.142.105","Mozilla/5.0 (Windows NT 10.0; Win64; x64) AppleWebKit/537.36 (KHTML, like Gecko) Chrome/138.0.0.0 Safari/537.36","WebKit","Chrome","138.0.0.0","Windows","10.0","https://app.prolific.com/","en-US,en;q=0.9","60f41ae35227aa02240ba0d9","686d226cabeef709c732f8e1","686e310849c1251cb5abb92f","60f41ae35227aa02240ba0d9","","","","","true","","","","","","","","","","","","","","","","","","","","","","","","","","","","","","","","","","","","","","","",""
"1850","1752054410683"," <p style='font-size:1.1em;line-height:1.25'>Thank you for completing the consent form and closing all other tabs.</p><p style='font-size:1.1em;line-height:1.25'>We will now invite you to fill in some demographic information and questionnaires, before starting the game.<br>This will take about 5 minutes.<br></p><p style='font-size:1.1em;line-height:1.25'>Press the <strong>Next</strong> button to continue.</p>","0","custom-html-button-response","4","24204","0.0-5.0","239","1","2025-07-09 09:46:10","7701e855f2ef39aa3fd6c71abdc6918a","102.66.142.105","Mozilla/5.0 (Windows NT 10.0; Win64; x64) AppleWebKit/537.36 (KHTML, like Gecko) Chrome/138.0.0.0 Safari/537.36","WebKit","Chrome","138.0.0.0","Windows","10.0","https://app.prolific.com/","en-US,en;q=0.9","60f41ae35227aa02240ba0d9","686d226cabeef709c732f8e1","686e310849c1251cb5abb92f","60f41ae35227aa02240ba0d9","2025-07-09T09:46:50.684Z","","","","","","","","","","","","","","","","","","","","","","","","","","","","","","","","","","","","","","","","","","","",""
"5479","","","{""age"":""35""}","survey-text","5","29692","0.0-6.0-0.0","239","1","2025-07-09 09:46:10","7701e855f2ef39aa3fd6c71abdc6918a","102.66.142.105","Mozilla/5.0 (Windows NT 10.0; Win64; x64) AppleWebKit/537.36 (KHTML, like Gecko) Chrome/138.0.0.0 Safari/537.36","WebKit","Chrome","138.0.0.0","Windows","10.0","https://app.prolific.com/","en-US,en;q=0.9","60f41ae35227aa02240ba0d9","686d226cabeef709c732f8e1","686e310849c1251cb5abb92f","60f41ae35227aa02240ba0d9","","","","","","0","demographics","","","","","","","","","","","","","","","","","","","","","","","","","","","","","","","","","","","","","",""
"3449","","","{""gender_identity"":""female/woman""}","survey-multi-choice","6","33143","0.0-6.0-1.0","239","1","2025-07-09 09:46:10","7701e855f2ef39aa3fd6c71abdc6918a","102.66.142.105","Mozilla/5.0 (Windows NT 10.0; Win64; x64) AppleWebKit/537.36 (KHTML, like Gecko) Chrome/138.0.0.0 Safari/537.36","WebKit","Chrome","138.0.0.0","Windows","10.0","https://app.prolific.com/","en-US,en;q=0.9","60f41ae35227aa02240ba0d9","686d226cabeef709c732f8e1","686e310849c1251cb5abb92f","60f41ae35227aa02240ba0d9","","","[0]","","","1","demographics","","","","","","","","","","","","","","","","","","","","","","","","","","","","","","","","","","","","","",""
"2865","","","{""assigned_sex"":""female""}","survey-multi-choice","7","36010","0.0-6.0-2.0","239","1","2025-07-09 09:46:10","7701e855f2ef39aa3fd6c71abdc6918a","102.66.142.105","Mozilla/5.0 (Windows NT 10.0; Win64; x64) AppleWebKit/537.36 (KHTML, like Gecko) Chrome/138.0.0.0 Safari/537.36","WebKit","Chrome","138.0.0.0","Windows","10.0","https://app.prolific.com/","en-US,en;q=0.9","60f41ae35227aa02240ba0d9","686d226cabeef709c732f8e1","686e310849c1251cb5abb92f","60f41ae35227aa02240ba0d9","","","[0]","","","2","demographics","","","","","","","","","","","","","","","","","","","","","","","","","","","","","","","","","","","","","",""
"2714","","","{""menstrual_cycle"":""Yes""}","survey-multi-choice","8","38726","0.0-6.0-3.0","239","1","2025-07-09 09:46:10","7701e855f2ef39aa3fd6c71abdc6918a","102.66.142.105","Mozilla/5.0 (Windows NT 10.0; Win64; x64) AppleWebKit/537.36 (KHTML, like Gecko) Chrome/138.0.0.0 Safari/537.36","WebKit","Chrome","138.0.0.0","Windows","10.0","https://app.prolific.com/","en-US,en;q=0.9","60f41ae35227aa02240ba0d9","686d226cabeef709c732f8e1","686e310849c1251cb5abb92f","60f41ae35227aa02240ba0d9","","","[0]","","","4","demographics","","","","","","","","","","","","","","","","","","","","","","","","","","","","","","","","","","","","","",""
"3568","","","{""education"":""Bachelor's Degree (e.g., BA)""}","survey-multi-choice","9","42295","0.0-6.0-4.0","239","1","2025-07-09 09:46:10","7701e855f2ef39aa3fd6c71abdc6918a","102.66.142.105","Mozilla/5.0 (Windows NT 10.0; Win64; x64) AppleWebKit/537.36 (KHTML, like Gecko) Chrome/138.0.0.0 Safari/537.36","WebKit","Chrome","138.0.0.0","Windows","10.0","https://app.prolific.com/","en-US,en;q=0.9","60f41ae35227aa02240ba0d9","686d226cabeef709c732f8e1","686e310849c1251cb5abb92f","60f41ae35227aa02240ba0d9","","","[0]","","","5","demographics","","","","","","","","","","","","","","","","","","","","","","","","","","","","","","","","","","","","","",""
"8132","","","{""education"":""Bachelor's Degree (e.g., BA)""}","survey-multi-choice","10","50430","0.0-6.0-5.0","239","1","2025-07-09 09:46:10","7701e855f2ef39aa3fd6c71abdc6918a","102.66.142.105","Mozilla/5.0 (Windows NT 10.0; Win64; x64) AppleWebKit/537.36 (KHTML, like Gecko) Chrome/138.0.0.0 Safari/537.36","WebKit","Chrome","138.0.0.0","Windows","10.0","https://app.prolific.com/","en-US,en;q=0.9","60f41ae35227aa02240ba0d9","686d226cabeef709c732f8e1","686e310849c1251cb5abb92f","60f41ae35227aa02240ba0d9","2025-07-09T09:47:16.912Z","","[0]","","","6","demographics","","","","","","","","","","","","","","","","","","","","","","","","","","","","","","","","","","","","","",""
"9790","","","{""mental_health_condition"":""no"",""mental_health_treatment"":""no"",""psychiatric_medication"":""no""}","survey-text","11","60229","0.0-7.0-0.0","239","1","2025-07-09 09:46:10","7701e855f2ef39aa3fd6c71abdc6918a","102.66.142.105","Mozilla/5.0 (Windows NT 10.0; Win64; x64) AppleWebKit/537.36 (KHTML, like Gecko) Chrome/138.0.0.0 Safari/537.36","WebKit","Chrome","138.0.0.0","Windows","10.0","https://app.prolific.com/","en-US,en;q=0.9","60f41ae35227aa02240ba0d9","686d226cabeef709c732f8e1","686e310849c1251cb5abb92f","60f41ae35227aa02240ba0d9","2025-07-09T09:47:26.711Z","","","","","1","mental_health","","","","","","","","","","","","","","","","","","","","","","","","","","","","","","","","","","","","","",""
"3839","","","{""depression_history"":[""Yes""]}","survey-multi-select","12","64078","0.0-7.0-1.0","239","1","2025-07-09 09:46:10","7701e855f2ef39aa3fd6c71abdc6918a","102.66.142.105","Mozilla/5.0 (Windows NT 10.0; Win64; x64) AppleWebKit/537.36 (KHTML, like Gecko) Chrome/138.0.0.0 Safari/537.36","WebKit","Chrome","138.0.0.0","Windows","10.0","https://app.prolific.com/","en-US,en;q=0.9","60f41ae35227aa02240ba0d9","686d226cabeef709c732f8e1","686e310849c1251cb5abb92f","60f41ae35227aa02240ba0d9","","","[0]","","","","mental_health","","","","","","","","","","","","","","","","","","","","","","","","","","","","","","","","","","","","","",""
"7050","","","{""depression_episodes"":""1-2"",""depression_recent"":""More than 1 year ago""}","survey-multi-choice","13","71130","0.0-7.0-2.0-0.0","239","1","2025-07-09 09:46:10","7701e855f2ef39aa3fd6c71abdc6918a","102.66.142.105","Mozilla/5.0 (Windows NT 10.0; Win64; x64) AppleWebKit/537.36 (KHTML, like Gecko) Chrome/138.0.0.0 Safari/537.36","WebKit","Chrome","138.0.0.0","Windows","10.0","https://app.prolific.com/","en-US,en;q=0.9","60f41ae35227aa02240ba0d9","686d226cabeef709c732f8e1","686e310849c1251cb5abb92f","60f41ae35227aa02240ba0d9","2025-07-09T09:47:37.610Z","","[0,1]","","","3","mental_health","","","","","","","","","","","","","","","","","","","","","","","","","","","","","","","","","","","","","",""
"65564.69999999995","","","","survey-template","14","136707","0.0-7.0-3.0","239","1","2025-07-09 09:46:10","7701e855f2ef39aa3fd6c71abdc6918a","102.66.142.105","Mozilla/5.0 (Windows NT 10.0; Win64; x64) AppleWebKit/537.36 (KHTML, like Gecko) Chrome/138.0.0.0 Safari/537.36","WebKit","Chrome","138.0.0.0","Windows","10.0","https://app.prolific.com/","en-US,en;q=0.9","60f41ae35227aa02240ba0d9","686d226cabeef709c732f8e1","686e310849c1251cb5abb92f","60f41ae35227aa02240ba0d9","2025-07-09T09:48:43.187Z","","","","","","ius","{""Q01"":""2"",""Q02"":""2"",""Q03"":""2"",""Q04"":""2"",""Q05"":""2"",""Q06"":""0"",""Q07"":""0"",""Q08"":""0"",""Q09"":""2"",""Q10"":""2"",""Q11"":""1"",""Q12"":""3"",""Q13"":""3""}","[0,1,2,3,4,5,6,7,8,9,10,11,12]","[""Q01"",""Q02"",""Q03"",""Q04"",""Q05"",""Q06"",""Q07"",""Q08"",""Q09"",""Q10"",""Q11"",""Q12"",""Q13""]","[6240.90000000014,7857.40000000014,9541.5,11256.90000000014,12958.40000000014,21608.600000000093,26707.699999999953,29592.300000000047,32311.300000000047,47444.10000000009,52924.90000000014,58461,61144]","[]","[6240.90000000014,7857.40000000014,9541.5,11256.90000000014,12958.40000000014,21608.600000000093,26707.699999999953,29592.300000000047,32311.300000000047,47444.10000000009,52924.90000000014,58461,61144,65561.40000000014]","0.5384615384615384","0.08333333333333333","0","","","","","","","","","","","","","","","","","","","","","","","","","","","","",""
"2072","1752054525261","<p style='font-size:1.1em;line-height:1.25'>In the following, we will ask you a few questions relating to your experiences over the past month.<br></p><p style='font-size:1.1em;line-height:1.25'>Press the <strong>Next</strong> button to continue.</p>","0","custom-html-button-response","15","138781","0.0-7.0-4.0","239","1","2025-07-09 09:46:10","7701e855f2ef39aa3fd6c71abdc6918a","102.66.142.105","Mozilla/5.0 (Windows NT 10.0; Win64; x64) AppleWebKit/537.36 (KHTML, like Gecko) Chrome/138.0.0.0 Safari/537.36","WebKit","Chrome","138.0.0.0","Windows","10.0","https://app.prolific.com/","en-US,en;q=0.9","60f41ae35227aa02240ba0d9","686d226cabeef709c732f8e1","686e310849c1251cb5abb92f","60f41ae35227aa02240ba0d9","2025-07-09T09:48:45.262Z","","","","","","","","","","","","","","","","","","","","","","","","","","","","","","","","","","","","","","","","","","","",""
"96404.29999999981","","","","survey-template","16","235190","0.0-7.0-5.0","239","1","2025-07-09 09:46:10","7701e855f2ef39aa3fd6c71abdc6918a","102.66.142.105","Mozilla/5.0 (Windows NT 10.0; Win64; x64) AppleWebKit/537.36 (KHTML, like Gecko) Chrome/138.0.0.0 Safari/537.36","WebKit","Chrome","138.0.0.0","Windows","10.0","https://app.prolific.com/","en-US,en;q=0.9","60f41ae35227aa02240ba0d9","686d226cabeef709c732f8e1","686e310849c1251cb5abb92f","60f41ae35227aa02240ba0d9","2025-07-09T09:50:21.671Z","","","","","","pss","{""Q01"":""0"",""Q02"":""0"",""Q03"":""1"",""Q04"":""2"",""Q05"":""1"",""Q06"":""0"",""Q07"":""2"",""Q08"":""2"",""Q09"":""2"",""Q10"":""2""}","[0,1,2,3,4,5,6,7,8,9]","[""Q01"",""Q02"",""Q03"",""Q04"",""Q05"",""Q06"",""Q07"",""Q05"",""Q04"",""Q03"",""Q07"",""Q08"",""Q09"",""Q10""]","[7415.299999999814,9127.799999999814,12164.299999999814,13282.59999999986,14648.199999999953,19415.199999999953,26798.09999999986,42782.89999999991,46364.799999999814,53500.19999999995,64067.5,68700,74668.09999999986,94584.3999999999]","[]","[0,6328.299999999814,7415.299999999814,9127.799999999814,10679.59999999986,12164.299999999814,13282.59999999986,14648.199999999953,18331.5,19415.199999999953,26798.09999999986,36314.89999999991,42782.89999999991,46364.799999999814,53500.19999999995,64067.5,68700,74668.09999999986,94584.3999999999,96402]","0.5","0.3333333333333333","0","","","","","","","","","","","","","","","","","","","","","","","","","","","","",""
"2310","1752054623984","<p style='font-size:1.1em;line-height:1.25'>Thank you for your answers! Now we will ask you a few more questions relating to your feelings in the last 24 hours.<br></p><p style='font-size:1.1em;line-height:1.25'>Press the <strong>Next</strong> button to continue.</p>","0","custom-html-button-response","17","237505","0.0-7.0-6.0","239","1","2025-07-09 09:46:10","7701e855f2ef39aa3fd6c71abdc6918a","102.66.142.105","Mozilla/5.0 (Windows NT 10.0; Win64; x64) AppleWebKit/537.36 (KHTML, like Gecko) Chrome/138.0.0.0 Safari/537.36","WebKit","Chrome","138.0.0.0","Windows","10.0","https://app.prolific.com/","en-US,en;q=0.9","60f41ae35227aa02240ba0d9","686d226cabeef709c732f8e1","686e310849c1251cb5abb92f","60f41ae35227aa02240ba0d9","2025-07-09T09:50:23.985Z","","","","","","","","","","","","","","","","","","","","","","","","","","","","","","","","","","","","","","","","","","","",""
"69623.69999999995","","","","survey-template","18","307136","0.0-7.0-7.0","239","1","2025-07-09 09:46:10","7701e855f2ef39aa3fd6c71abdc6918a","102.66.142.105","Mozilla/5.0 (Windows NT 10.0; Win64; x64) AppleWebKit/537.36 (KHTML, like Gecko) Chrome/138.0.0.0 Safari/537.36","WebKit","Chrome","138.0.0.0","Windows","10.0","https://app.prolific.com/","en-US,en;q=0.9","60f41ae35227aa02240ba0d9","686d226cabeef709c732f8e1","686e310849c1251cb5abb92f","60f41ae35227aa02240ba0d9","2025-07-09T09:51:33.616Z","","","","","","drsp","{""Q01"":""0"",""Q02"":""0"",""Q03"":""0"",""Q04"":""0"",""Q05"":""1"",""Q06"":""0"",""Q07"":""0"",""Q08"":""0"",""Q09"":""0"",""Q10"":""0"",""Q11"":""0"",""Q12"":""0"",""Q13"":""0"",""Q14"":""0"",""Q15"":""0"",""Q16"":""0"",""Q17"":""0"",""Q18"":""0"",""Q19"":""0"",""Q20"":""0"",""Q21"":""0""}","[0,1,2,3,4,5,6,7,8,9,10,11,12,13,14,15,16,17,18,19,20]","[""Q01"",""Q02"",""Q03"",""Q04"",""Q05"",""Q06"",""Q07"",""Q08"",""Q09"",""Q10"",""Q11"",""Q12"",""Q13"",""Q14"",""Q15"",""Q16"",""Q17"",""Q18"",""Q19"",""Q20"",""Q21""]","[2795.5,3965,5345.899999999907,7412.699999999953,10429,11795.699999999953,16013.5,17147.59999999986,25532.899999999907,27496.59999999986,29427.5,31232,33795.5,35212.09999999986,42965.09999999986,46065.39999999991,47430,50231.09999999986,61683.5,64763.89999999991,67448.30000000005]","[]","[0,2795.5,3965,5345.899999999907,7412.699999999953,10429,11795.699999999953,13310.899999999907,15060.199999999953,16013.5,17147.59999999986,25532.899999999907,27496.59999999986,29427.5,31232,33795.5,35212.09999999986,42965.09999999986,44214,46065.39999999991,47430,50231.09999999986,61683.5,64763.89999999991,67448.30000000005,69617.5]","0.9523809523809523","0.1","0","","","","","","","","","","","","","","","","","","","","","","","","","","","","",""
"24454.100000000093","","","","survey-template","19","331594","0.0-7.0-8.0","239","1","2025-07-09 09:46:10","7701e855f2ef39aa3fd6c71abdc6918a","102.66.142.105","Mozilla/5.0 (Windows NT 10.0; Win64; x64) AppleWebKit/537.36 (KHTML, like Gecko) Chrome/138.0.0.0 Safari/537.36","WebKit","Chrome","138.0.0.0","Windows","10.0","https://app.prolific.com/","en-US,en;q=0.9","60f41ae35227aa02240ba0d9","686d226cabeef709c732f8e1","686e310849c1251cb5abb92f","60f41ae35227aa02240ba0d9","2025-07-09T09:51:58.074Z","","","","","","stress","{""Q01"":""1"",""Q02"":""2"",""Q03"":""0""}","[0,1,2]","[""Q01"",""Q01"",""Q02"",""Q03""]","[5200,8937.300000000047,15051.700000000186,21570.200000000186]","[]","[5200,8937.300000000047,15051.700000000186,21570.200000000186,24452.5]","0.3333333333333333","0","0","","","","","","","","","","","","","","","","","","","","","","","","","","","","",""
"4733","","","","instructions","20","336334","0.0-8.0-0.0","239","1","2025-07-09 09:46:10","7701e855f2ef39aa3fd6c71abdc6918a","102.66.142.105","Mozilla/5.0 (Windows NT 10.0; Win64; x64) AppleWebKit/537.36 (KHTML, like Gecko) Chrome/138.0.0.0 Safari/537.36","WebKit","Chrome","138.0.0.0","Windows","10.0","https://app.prolific.com/","en-US,en;q=0.9","60f41ae35227aa02240ba0d9","686d226cabeef709c732f8e1","686e310849c1251cb5abb92f","60f41ae35227aa02240ba0d9","","[{""page_index"":0,""viewing_time"":1992},{""page_index"":1,""viewing_time"":693},{""page_index"":2,""viewing_time"":1042},{""page_index"":3,""viewing_time"":1006}]","","","","","","","","","","","","","","","","","","","","","","","","","","","","","","","","","","","","","","","","","","",""
"","","","","ctl-task-cpt","21","367009","0.0-8.0-1.0","239","1","2025-07-09 09:46:10","7701e855f2ef39aa3fd6c71abdc6918a","102.66.142.105","Mozilla/5.0 (Windows NT 10.0; Win64; x64) AppleWebKit/537.36 (KHTML, like Gecko) Chrome/138.0.0.0 Safari/537.36","WebKit","Chrome","138.0.0.0","Windows","10.0","https://app.prolific.com/","en-US,en;q=0.9","60f41ae35227aa02240ba0d9","686d226cabeef709c732f8e1","686e310849c1251cb5abb92f","60f41ae35227aa02240ba0d9","","","","","","","","","","","","","","","","","win-only","2","g1:SE,g2:NW","1","0","1","352778","2026.6","6031.2","27636.1","2","4","4","6","2","4","4","4","0","0.030303030303030304","2820.5","4000","2085","[""left"",""up""]","{""num_key_presses"":6,""num_perfect"":6,""num_errors"":0,""num_randdir"":0,""num_randdir_good_moves"":0,""num_whilered"":0,""num_whileblue"":0,""num_blue"":1,""num_good_moves"":6}","[414.0714133126395,426.57142761775424,3.3,414.0714133126395,426.57142761775424,102.7,414.0714133126395,426.57142761775424,205.9,414.0714133126395,426.57142761775424,306.7,414.0714133126395,426.57142761775424,412.6,414.0714133126395,426.57142761775424,535.1,414.0714133126395,426.57142761775424,666.9,415.3214133126395,426.57142761775424,789.9,401.5714133126395,451.57142761775424,896,374.0714133126395,475.32142761775424,996.1,370.3214133126395,481.57142761775424,1121.9,370.3214133126395,481.57142761775424,1235,370.3214133126395,481.57142761775424,1336.4,370.3214133126395,481.57142761775424,1440.6,294.0714133126395,455.32142761775424,1547,-152.1785866873605,-10.928572382245747,1651.9,-175.9285866873605,-107.17857238224575,1799.7,-175.9285866873605,-107.17857238224575,1915.9,-57.17858668736049,61.57142761775425,2036.5,-54.67858668736049,112.82142761775425,2141.5,-13.428586687360493,105.32142761775425,2244.7,27.821413312639507,52.82142761775425,2346.8,54.07141331263951,51.57142761775425,2448.5,61.57141331263951,64.07142761775425,2563.1,61.57141331263951,64.07142761775425,2664.6,61.57141331263951,64.07142761775425,2779.7,61.57141331263951,64.07142761775425,2890.1,61.57141331263951,64.07142761775425,3011.2,61.57141331263951,64.07142761775425,3139.1,61.57141331263951,64.07142761775425,3259.7,61.57141331263951,64.07142761775425,3380,61.57141331263951,64.07142761775425,3485.4,61.57141331263951,64.07142761775425,3586.9,121.5714133126395,155.32142761775424,3719.9,166.5714133126395,232.82142761775424,3832.8,166.5714133126395,232.82142761775424,3945.1]","[3005.5,3005.5,1000,0,2005.5,""smooth"",""up"",""up"",""good_move"",9366.5,6340.1,2181,6735.9,449.7,""smooth"",""up"",""up"",""good_move"",12606.7,3238.6,2758.4,9368.1,480.2,""smooth"",""up"",""up"",""good_move"",15656.8,3048.5,2556.9,12608.3,491.6,""smooth"",""left"",""left"",""good_move"",18838.3,3162.1,2667.4,15676.2,494.7,""smooth"",""left"",""left"",""good_move"",21439,2599.5,2197.6,18839.5,401.9,""smooth"",""left"",""left"",""good_move""]","",""
"2664","","","","instructions","22","369674","0.0-8.0-2.0","239","1","2025-07-09 09:46:10","7701e855f2ef39aa3fd6c71abdc6918a","102.66.142.105","Mozilla/5.0 (Windows NT 10.0; Win64; x64) AppleWebKit/537.36 (KHTML, like Gecko) Chrome/138.0.0.0 Safari/537.36","WebKit","Chrome","138.0.0.0","Windows","10.0","https://app.prolific.com/","en-US,en;q=0.9","60f41ae35227aa02240ba0d9","686d226cabeef709c732f8e1","686e310849c1251cb5abb92f","60f41ae35227aa02240ba0d9","","[{""page_index"":0,""viewing_time"":2663}]","","","","","","","","","","","","","","","","","","","","","","","","","","","","","","","","","","","","","","","","","","",""
"","","","","ctl-task-cpt","23","420169","0.0-8.0-3.0","239","1","2025-07-09 09:46:10","7701e855f2ef39aa3fd6c71abdc6918a","102.66.142.105","Mozilla/5.0 (Windows NT 10.0; Win64; x64) AppleWebKit/537.36 (KHTML, like Gecko) Chrome/138.0.0.0 Safari/537.36","WebKit","Chrome","138.0.0.0","Windows","10.0","https://app.prolific.com/","en-US,en;q=0.9","60f41ae35227aa02240ba0d9","686d226cabeef709c732f8e1","686e310849c1251cb5abb92f","60f41ae35227aa02240ba0d9","","","","","","","","","","","","","","","","","win-only","2","g1:SE,g2:NW","0.35","0","3","386099.4","2074.6","6082.1","47456.7","2","4","8","6","2","8","8","8","0","0.06060606060606061","2219.5","4000","1665","[""left"",""up""]","{""num_key_presses"":12,""num_perfect"":6,""num_errors"":0,""num_randdir"":6,""num_randdir_good_moves"":3,""num_whilered"":0,""num_whileblue"":0,""num_blue"":2,""num_good_moves"":9}","[411.5714133126395,424.07142761775424,3.8,411.5714133126395,424.07142761775424,117.5,411.5714133126395,424.07142761775424,219.8,411.5714133126395,424.07142761775424,335.4,411.5714133126395,424.07142761775424,438,411.5714133126395,424.07142761775424,541,411.5714133126395,424.07142761775424,692.8,411.5714133126395,424.07142761775424,828.3,411.5714133126395,424.07142761775424,951.9,480.3214133126395,331.57142761775424,1062.1,386.5714133126395,315.32142761775424,1162.2,286.5714133126395,244.07142761775424,1339.1,194.0714133126395,306.57142761775424,1477.6,140.3214133126395,201.57142761775424,1619.5,126.5714133126395,159.07142761775424,1724.3,117.8214133126395,141.57142761775424,1827.7,106.5714133126395,121.57142761775425,1974.2,106.5714133126395,121.57142761775425,2075.3,106.5714133126395,121.57142761775425,2178,106.5714133126395,121.57142761775425,2278.9,106.5714133126395,121.57142761775425,2382.1,106.5714133126395,121.57142761775425,2484.7,106.5714133126395,121.57142761775425,2587.8,106.5714133126395,121.57142761775425,2693.8,106.5714133126395,121.57142761775425,2813.4,106.5714133126395,121.57142761775425,2943.9,106.5714133126395,121.57142761775425,3048.3,121.5714133126395,142.82142761775424,3167.7,181.5714133126395,312.82142761775424,3270.1,175.3214133126395,387.82142761775424,3376,152.8214133126395,435.32142761775424,3477.7,92.8214133126395,457.82142761775424,3598.5,81.5714133126395,452.82142761775424,3706,81.5714133126395,452.82142761775424,3836,81.5714133126395,452.82142761775424,3947.9]","[2014.8,2014.8,1000,0,1014.9,""smooth"",""up"",""up"",""good_move"",5088.9,3073.1,2687.9,2015.8,385.2,""oops"",""up"",""right"",""bad_move"",7506.8,2416.5,1887.5,5090.3,529,""oops"",""up"",""up"",""good_move"",13712.8,6204.5,2299.3,11014.6,398.9,""smooth"",""up"",""up"",""good_move"",16839.7,3125.8,2707.9,13713.9,417.9,""smooth"",""left"",""left"",""good_move"",19347,2506.3,1700.4,16840.8,805.9,""smooth"",""left"",""left"",""good_move"",22442.4,3093.2,2688.8,19349.2,404.4,""oops"",""left"",""right"",""bad_move"",29529.1,7084.4,2607.1,26531,391,""oops"",""left"",""left"",""good_move"",32269.4,2739.5,1979.8,29529.9,759.7,""oops"",""left"",""right"",""bad_move"",35225.2,2954.7,2260.6,32270.6,694,""oops"",""left"",""left"",""good_move"",38420.5,3193.9,2815.6,35226.6,378.3,""smooth"",""left"",""left"",""good_move"",41180.2,2758.6,2336.5,38421.6,422.1,""smooth"",""left"",""left"",""good_move""]","",""
"3555","","","","instructions","24","423726","0.0-8.0-4.0","239","1","2025-07-09 09:46:10","7701e855f2ef39aa3fd6c71abdc6918a","102.66.142.105","Mozilla/5.0 (Windows NT 10.0; Win64; x64) AppleWebKit/537.36 (KHTML, like Gecko) Chrome/138.0.0.0 Safari/537.36","WebKit","Chrome","138.0.0.0","Windows","10.0","https://app.prolific.com/","en-US,en;q=0.9","60f41ae35227aa02240ba0d9","686d226cabeef709c732f8e1","686e310849c1251cb5abb92f","60f41ae35227aa02240ba0d9","","[{""page_index"":0,""viewing_time"":1637},{""page_index"":1,""viewing_time"":1917}]","","","","","","","","","","","","","","","","","","","","","","","","","","","","","","","","","","","","","","","","","","",""
"15842","","","{""green_ball"":[""Ball always moves in the direction I press""]}","survey-multi-select","25","439576","0.0-8.0-5.0-0.0","239","1","2025-07-09 09:46:10","7701e855f2ef39aa3fd6c71abdc6918a","102.66.142.105","Mozilla/5.0 (Windows NT 10.0; Win64; x64) AppleWebKit/537.36 (KHTML, like Gecko) Chrome/138.0.0.0 Safari/537.36","WebKit","Chrome","138.0.0.0","Windows","10.0","https://app.prolific.com/","en-US,en;q=0.9","60f41ae35227aa02240ba0d9","686d226cabeef709c732f8e1","686e310849c1251cb5abb92f","60f41ae35227aa02240ba0d9","","","[0]","","","","quiz","","","","","","","","","","","","","","","","","","","","","","","","","","","","","","","","","","","","","false",""
"7247","","<p align='center'><b>INCORRECT.</b> Usually the green ball moves in the indicated direction, but sometimes it shakes and moves randomly. </p>","0","html-button-response","26","446834","0.0-8.0-5.0-1.0","239","1","2025-07-09 09:46:10","7701e855f2ef39aa3fd6c71abdc6918a","102.66.142.105","Mozilla/5.0 (Windows NT 10.0; Win64; x64) AppleWebKit/537.36 (KHTML, like Gecko) Chrome/138.0.0.0 Safari/537.36","WebKit","Chrome","138.0.0.0","Windows","10.0","https://app.prolific.com/","en-US,en;q=0.9","60f41ae35227aa02240ba0d9","686d226cabeef709c732f8e1","686e310849c1251cb5abb92f","60f41ae35227aa02240ba0d9","","","","","","","","","","","","","","","","","","","","","","","","","","","","","","","","","","","","","","","","","","","","",""
"8540","","","{""green_ball"":[""Ball sometimes shakes and moves in a random direction""]}","survey-multi-select","27","455379","0.0-8.0-5.1-0.1","239","1","2025-07-09 09:46:10","7701e855f2ef39aa3fd6c71abdc6918a","102.66.142.105","Mozilla/5.0 (Windows NT 10.0; Win64; x64) AppleWebKit/537.36 (KHTML, like Gecko) Chrome/138.0.0.0 Safari/537.36","WebKit","Chrome","138.0.0.0","Windows","10.0","https://app.prolific.com/","en-US,en;q=0.9","60f41ae35227aa02240ba0d9","686d226cabeef709c732f8e1","686e310849c1251cb5abb92f","60f41ae35227aa02240ba0d9","","","[0]","","","","quiz","","","","","","","","","","","","","","","","","","","","","","","","","","","","","","","","","","","","","true",""
"4723","","<p align='center'><b>CORRECT!</b> Indeed, the green ball may sometimes shake and move in a random direction.</p>","0","html-button-response","28","460109","0.0-8.0-5.1-1.1","239","1","2025-07-09 09:46:10","7701e855f2ef39aa3fd6c71abdc6918a","102.66.142.105","Mozilla/5.0 (Windows NT 10.0; Win64; x64) AppleWebKit/537.36 (KHTML, like Gecko) Chrome/138.0.0.0 Safari/537.36","WebKit","Chrome","138.0.0.0","Windows","10.0","https://app.prolific.com/","en-US,en;q=0.9","60f41ae35227aa02240ba0d9","686d226cabeef709c732f8e1","686e310849c1251cb5abb92f","60f41ae35227aa02240ba0d9","","","","","","","","","","","","","","","","","","","","","","","","","","","","","","","","","","","","","","","","","","","","",""
"26175","","","{""yellow_ball"":[""Ball doesn‘t move and I get -1 penalty point""]}","survey-multi-select","29","486292","0.0-8.0-6.0-0.0","239","1","2025-07-09 09:46:10","7701e855f2ef39aa3fd6c71abdc6918a","102.66.142.105","Mozilla/5.0 (Windows NT 10.0; Win64; x64) AppleWebKit/537.36 (KHTML, like Gecko) Chrome/138.0.0.0 Safari/537.36","WebKit","Chrome","138.0.0.0","Windows","10.0","https://app.prolific.com/","en-US,en;q=0.9","60f41ae35227aa02240ba0d9","686d226cabeef709c732f8e1","686e310849c1251cb5abb92f","60f41ae35227aa02240ba0d9","","","[0]","","","","quiz","","","","","","","","","","","","","","","","","","","","","","","","","","","","","","","","","","","","","true",""
"3865","","<p align='center'><b>CORRECT!</b> Indeed, the yellow ball never moves and you receive a penalty.</p>","0","html-button-response","30","490162","0.0-8.0-6.0-1.0","239","1","2025-07-09 09:46:10","7701e855f2ef39aa3fd6c71abdc6918a","102.66.142.105","Mozilla/5.0 (Windows NT 10.0; Win64; x64) AppleWebKit/537.36 (KHTML, like Gecko) Chrome/138.0.0.0 Safari/537.36","WebKit","Chrome","138.0.0.0","Windows","10.0","https://app.prolific.com/","en-US,en;q=0.9","60f41ae35227aa02240ba0d9","686d226cabeef709c732f8e1","686e310849c1251cb5abb92f","60f41ae35227aa02240ba0d9","","","","","","","","","","","","","","","","","","","","","","","","","","","","","","","","","","","","","","","","","","","","",""
"14477","","","{""blue_ball"":[""Ball always shakes and moves in a random direction""]}","survey-multi-select","31","504647","0.0-8.0-7.0-0.0","239","1","2025-07-09 09:46:10","7701e855f2ef39aa3fd6c71abdc6918a","102.66.142.105","Mozilla/5.0 (Windows NT 10.0; Win64; x64) AppleWebKit/537.36 (KHTML, like Gecko) Chrome/138.0.0.0 Safari/537.36","WebKit","Chrome","138.0.0.0","Windows","10.0","https://app.prolific.com/","en-US,en;q=0.9","60f41ae35227aa02240ba0d9","686d226cabeef709c732f8e1","686e310849c1251cb5abb92f","60f41ae35227aa02240ba0d9","","","[0]","","","","quiz","","","","","","","","","","","","","","","","","","","","","","","","","","","","","","","","","","","","","true",""
"3117","","<p align='center'><b>CORRECT!</b> Indeed, the blue ball always shakes and moves in a random direction. Also there is a penalty of -1 point.</p>","0","html-button-response","32","507767","0.0-8.0-7.0-1.0","239","1","2025-07-09 09:46:10","7701e855f2ef39aa3fd6c71abdc6918a","102.66.142.105","Mozilla/5.0 (Windows NT 10.0; Win64; x64) AppleWebKit/537.36 (KHTML, like Gecko) Chrome/138.0.0.0 Safari/537.36","WebKit","Chrome","138.0.0.0","Windows","10.0","https://app.prolific.com/","en-US,en;q=0.9","60f41ae35227aa02240ba0d9","686d226cabeef709c732f8e1","686e310849c1251cb5abb92f","60f41ae35227aa02240ba0d9","","","","","","","","","","","","","","","","","","","","","","","","","","","","","","","","","","","","","","","","","","","","",""
"11265","","","{""bonus"":[""When I reach 50% of points""]}","survey-multi-select","33","519036","0.0-8.0-8.0-0.0","239","1","2025-07-09 09:46:10","7701e855f2ef39aa3fd6c71abdc6918a","102.66.142.105","Mozilla/5.0 (Windows NT 10.0; Win64; x64) AppleWebKit/537.36 (KHTML, like Gecko) Chrome/138.0.0.0 Safari/537.36","WebKit","Chrome","138.0.0.0","Windows","10.0","https://app.prolific.com/","en-US,en;q=0.9","60f41ae35227aa02240ba0d9","686d226cabeef709c732f8e1","686e310849c1251cb5abb92f","60f41ae35227aa02240ba0d9","","","[0]","","","","quiz","","","","","","","","","","","","","","","","","","","","","","","","","","","","","","","","","","","","","true",""
"5069","","<p align='center'><b>CORRECT!</b> Indeed, you receive 2 pounds extra when you reach 50% of points.</p>","0","html-button-response","34","524108","0.0-8.0-8.0-1.0","239","1","2025-07-09 09:46:10","7701e855f2ef39aa3fd6c71abdc6918a","102.66.142.105","Mozilla/5.0 (Windows NT 10.0; Win64; x64) AppleWebKit/537.36 (KHTML, like Gecko) Chrome/138.0.0.0 Safari/537.36","WebKit","Chrome","138.0.0.0","Windows","10.0","https://app.prolific.com/","en-US,en;q=0.9","60f41ae35227aa02240ba0d9","686d226cabeef709c732f8e1","686e310849c1251cb5abb92f","60f41ae35227aa02240ba0d9","","","","","","","","","","","","","","","","","","","","","","","","","","","","","","","","","","","","","","","","","","","","",""
"5645","","","","instructions","35","529756","0.0-8.0-9.0","239","1","2025-07-09 09:46:10","7701e855f2ef39aa3fd6c71abdc6918a","102.66.142.105","Mozilla/5.0 (Windows NT 10.0; Win64; x64) AppleWebKit/537.36 (KHTML, like Gecko) Chrome/138.0.0.0 Safari/537.36","WebKit","Chrome","138.0.0.0","Windows","10.0","https://app.prolific.com/","en-US,en;q=0.9","60f41ae35227aa02240ba0d9","686d226cabeef709c732f8e1","686e310849c1251cb5abb92f","60f41ae35227aa02240ba0d9","","[{""page_index"":0,""viewing_time"":5644}]","","","","","","","","","","","","","","","","","","","","","","","","","","","","","","","","","","","","","","","","","","",""
"10741","","<p>Before you start with this game please answer the following three questions yourself. </p>
  <p>Through this game, we measure several aspects of your cognitive performance, such as reaction times, multi-tasking capabilities </p>
  <p>and the ability to assess the situation you are in.</p>
  <p></p>
  <p><b>How good do you usually are in such tasks?</b></p>","67","html-slider-response","36","540507","0.0-9.0-0.0","239","1","2025-07-09 09:46:10","7701e855f2ef39aa3fd6c71abdc6918a","102.66.142.105","Mozilla/5.0 (Windows NT 10.0; Win64; x64) AppleWebKit/537.36 (KHTML, like Gecko) Chrome/138.0.0.0 Safari/537.36","WebKit","Chrome","138.0.0.0","Windows","10.0","https://app.prolific.com/","en-US,en;q=0.9","60f41ae35227aa02240ba0d9","686d226cabeef709c732f8e1","686e310849c1251cb5abb92f","60f41ae35227aa02240ba0d9","2025-07-09T09:55:26.988Z","","","","","","PreSkillQ","","","","","","","","","","","","","","","","","","","","","","","","","","","","","","","","","","","","","","50"
"9094","","<div style=""width:500px;"">
  <p>How well do you think you will perform in this task compared to other participants?</p>
  </div>","70","html-slider-response","37","549606","0.0-9.0-1.0","239","1","2025-07-09 09:46:10","7701e855f2ef39aa3fd6c71abdc6918a","102.66.142.105","Mozilla/5.0 (Windows NT 10.0; Win64; x64) AppleWebKit/537.36 (KHTML, like Gecko) Chrome/138.0.0.0 Safari/537.36","WebKit","Chrome","138.0.0.0","Windows","10.0","https://app.prolific.com/","en-US,en;q=0.9","60f41ae35227aa02240ba0d9","686d226cabeef709c732f8e1","686e310849c1251cb5abb92f","60f41ae35227aa02240ba0d9","2025-07-09T09:55:36.086Z","","","","","","PrePerfQ","","","","","","","","","","","","","","","","","","","","","","","","","","","","","","","","","","","","","","50"
"8816","","<div style=""width:500px;"">
  <p>What best describes how you currently feel?</p>
  </div>","68","html-slider-response","38","558426","0.0-9.0-2.0","239","1","2025-07-09 09:46:10","7701e855f2ef39aa3fd6c71abdc6918a","102.66.142.105","Mozilla/5.0 (Windows NT 10.0; Win64; x64) AppleWebKit/537.36 (KHTML, like Gecko) Chrome/138.0.0.0 Safari/537.36","WebKit","Chrome","138.0.0.0","Windows","10.0","https://app.prolific.com/","en-US,en;q=0.9","60f41ae35227aa02240ba0d9","686d226cabeef709c732f8e1","686e310849c1251cb5abb92f","60f41ae35227aa02240ba0d9","2025-07-09T09:55:44.906Z","","","","","","PreMotivationQ","","","","","","","","","","","","","","","","","","","","","","","","","","","","","","","","","","","","","","50"
"","","","","ctl-task-cpt","39","634826","0.0-10.0-0.0","239","1","2025-07-09 09:46:10","7701e855f2ef39aa3fd6c71abdc6918a","102.66.142.105","Mozilla/5.0 (Windows NT 10.0; Win64; x64) AppleWebKit/537.36 (KHTML, like Gecko) Chrome/138.0.0.0 Safari/537.36","WebKit","Chrome","138.0.0.0","Windows","10.0","https://app.prolific.com/","en-US,en;q=0.9","60f41ae35227aa02240ba0d9","686d226cabeef709c732f8e1","686e310849c1251cb5abb92f","60f41ae35227aa02240ba0d9","2025-07-09T09:57:01.306Z","","","","","","","","","","","","","","","","win-only","2","g1:SE,g2:NW","1","1","0","574863.4","38208.8","43211.5","73337.8","1","4","8","6","2","8","7","7","0","0.05303030303030303","1800.4","3000","1835","[""left"",""up""]","{""num_key_presses"":7,""num_perfect"":6,""num_errors"":1,""num_randdir"":0,""num_randdir_good_moves"":0,""num_whilered"":0,""num_whileblue"":0,""num_blue"":2,""num_good_moves"":6}","[419.821420942034,414.32142857142856,2.1,419.821420942034,414.32142857142856,165.6,419.821420942034,414.32142857142856,323,419.821420942034,414.32142857142856,441.8,371.071420942034,408.07142857142856,552.2,-91.42857905796596,-69.42857142857143,827.4,-91.42857905796596,-69.42857142857143,951.2,1.0714209420340381,10.57142857142857,1094.5,28.571420942034038,44.32142857142857,1194.5,28.571420942034038,45.57142857142857,1302.7,38.57142094203404,61.82142857142857,1405.4,72.32142094203404,80.57142857142857,1546.1,72.32142094203404,80.57142857142857,1650.5,72.32142094203404,80.57142857142857,1751,72.32142094203404,80.57142857142857,1894.3,72.32142094203404,80.57142857142857,1999.2,72.32142094203404,80.57142857142857,2118.6,72.32142094203404,80.57142857142857,2225.8,72.32142094203404,80.57142857142857,2328.1,72.32142094203404,80.57142857142857,2465.7,72.32142094203404,80.57142857142857,2568.9,72.32142094203404,80.57142857142857,2695.9,72.32142094203404,80.57142857142857,2799.5,72.32142094203404,80.57142857142857,2899.6,72.32142094203404,80.57142857142857,3052.9,72.32142094203404,80.57142857142857,3250.6,72.32142094203404,80.57142857142857,3353.3,72.32142094203404,80.57142857142857,3462.5,72.32142094203404,80.57142857142857,3624.6,72.32142094203404,80.57142857142857,3754.2,72.32142094203404,80.57142857142857,3859.5,72.32142094203404,80.57142857142857,3963.4,72.32142094203404,80.57142857142857,4063.6,72.32142094203404,80.57142857142857,4185.3,72.32142094203404,80.57142857142857,4288.1,72.32142094203404,80.57142857142857,4395.1,72.32142094203404,80.57142857142857,4550.1,72.32142094203404,80.57142857142857,4706.4,72.32142094203404,80.57142857142857,4809,202.32142094203402,79.32142857142857,4983.8]","[2749.9,2749.9,1000,0,1749.9,""smooth"",""up"",""up"",""good_move"",10275.8,7524,3092.2,6691.3,492.3,""smooth"",""up"",""up"",""good_move"",17790.6,7514.1,2263.7,15025.3,501.6,""smooth"",""up"",""up"",""good_move"",21691,3899.7,2499.2,17791.3,1400.5,""smooth"",""left"",""left"",""good_move"",21908.1,215.5,1878.7,21692.6,-1663.2,""error"",""-"",""-"",""no_move"",26081.1,4171.9,2410.7,22915.7,754.8,""smooth"",""left"",""left"",""good_move"",29818.2,3732.4,2706.5,26085.8,1025.9,""smooth"",""left"",""left"",""good_move""]","",""
"6842","","<div style=""width:500px;"">
  <p>What determined the result of this run?</p>
  </div>","67","html-slider-response","40","641673","0.0-10.0-1.0","239","1","2025-07-09 09:46:10","7701e855f2ef39aa3fd6c71abdc6918a","102.66.142.105","Mozilla/5.0 (Windows NT 10.0; Win64; x64) AppleWebKit/537.36 (KHTML, like Gecko) Chrome/138.0.0.0 Safari/537.36","WebKit","Chrome","138.0.0.0","Windows","10.0","https://app.prolific.com/","en-US,en;q=0.9","60f41ae35227aa02240ba0d9","686d226cabeef709c732f8e1","686e310849c1251cb5abb92f","60f41ae35227aa02240ba0d9","2025-07-09T09:57:08.156Z","","","","","","AttribQ","","","","","","","","","","","","","","","","","","","","","","","","","","","","","","","","","","","","","","50"
"12390","","<div style=""width:500px;"">
  <p>How much control did you have over the ball?</p>
  </div>","67","html-slider-response","41","654069","0.0-10.0-2.0","239","1","2025-07-09 09:46:10","7701e855f2ef39aa3fd6c71abdc6918a","102.66.142.105","Mozilla/5.0 (Windows NT 10.0; Win64; x64) AppleWebKit/537.36 (KHTML, like Gecko) Chrome/138.0.0.0 Safari/537.36","WebKit","Chrome","138.0.0.0","Windows","10.0","https://app.prolific.com/","en-US,en;q=0.9","60f41ae35227aa02240ba0d9","686d226cabeef709c732f8e1","686e310849c1251cb5abb92f","60f41ae35227aa02240ba0d9","2025-07-09T09:57:20.550Z","","","","","","ControlQ","","","","","","","","","","","","","","","","","","","","","","","","","","","","","","","","","","","","","","50"
"10174","","<div style=""width:500px;"">
  <p>How would you describe your current emotional state?</p>
  </div>","31","html-slider-response","42","664247","0.0-10.0-3.0","239","1","2025-07-09 09:46:10","7701e855f2ef39aa3fd6c71abdc6918a","102.66.142.105","Mozilla/5.0 (Windows NT 10.0; Win64; x64) AppleWebKit/537.36 (KHTML, like Gecko) Chrome/138.0.0.0 Safari/537.36","WebKit","Chrome","138.0.0.0","Windows","10.0","https://app.prolific.com/","en-US,en;q=0.9","60f41ae35227aa02240ba0d9","686d226cabeef709c732f8e1","686e310849c1251cb5abb92f","60f41ae35227aa02240ba0d9","2025-07-09T09:57:30.727Z","","","","","","StressQ","","","","","","","","","","","","","","","","","","","","","","","","","","","","","","","","","","","","","","50"
"12314","","<div style=""width:500px;"">
  <p>What best describes how you currently feel?</p>
  </div>","65","html-slider-response","43","676564","0.0-10.0-4.0","239","1","2025-07-09 09:46:10","7701e855f2ef39aa3fd6c71abdc6918a","102.66.142.105","Mozilla/5.0 (Windows NT 10.0; Win64; x64) AppleWebKit/537.36 (KHTML, like Gecko) Chrome/138.0.0.0 Safari/537.36","WebKit","Chrome","138.0.0.0","Windows","10.0","https://app.prolific.com/","en-US,en;q=0.9","60f41ae35227aa02240ba0d9","686d226cabeef709c732f8e1","686e310849c1251cb5abb92f","60f41ae35227aa02240ba0d9","2025-07-09T09:57:43.044Z","","","","","","MotivationQ","","","","","","","","","","","","","","","","","","","","","","","","","","","","","","","","","","","","","","50"
"","","","","ctl-task-cpt","44","757717","0.0-10.0-0.1","239","1","2025-07-09 09:46:10","7701e855f2ef39aa3fd6c71abdc6918a","102.66.142.105","Mozilla/5.0 (Windows NT 10.0; Win64; x64) AppleWebKit/537.36 (KHTML, like Gecko) Chrome/138.0.0.0 Safari/537.36","WebKit","Chrome","138.0.0.0","Windows","10.0","https://app.prolific.com/","en-US,en;q=0.9","60f41ae35227aa02240ba0d9","686d226cabeef709c732f8e1","686e310849c1251cb5abb92f","60f41ae35227aa02240ba0d9","2025-07-09T09:59:04.197Z","","","","","","","","","","","","","","","","win-only","1","g1:NE,g2:SW","0.9","2","0","692994.9","39174.2","44177.6","78097.9","1","4","4","6","2","4","3","10","7","0.07575757575757576","1688.6","3000","1990","[""down"",""left""]","{""num_key_presses"":8,""num_perfect"":7,""num_errors"":1,""num_randdir"":0,""num_randdir_good_moves"":0,""num_whilered"":0,""num_whileblue"":1,""num_blue"":3,""num_good_moves"":7}","[333.8392857142857,336.83928523744856,11.6,333.8392857142857,336.83928523744856,106.6,333.8392857142857,336.83928523744856,237.2,333.8392857142857,336.83928523744856,344,333.8392857142857,336.83928523744856,450.8,333.8392857142857,336.83928523744856,588.2,333.8392857142857,338.08928523744856,689.9,465.0892857142857,334.33928523744856,867.4,170.08928571428572,606.8392852374485,1003.6,97.58928571428572,639.3392852374485,1112.5,78.83928571428572,641.8392852374485,1220.9,73.83928571428572,634.3392852374485,1325.5,70.08928571428572,609.3392852374485,1432.8,70.08928571428572,606.8392852374485,1537.1,70.08928571428572,606.8392852374485,1694.8,70.08928571428572,606.8392852374485,1860,70.08928571428572,606.8392852374485,1992.6,70.08928571428572,606.8392852374485,2114.9,70.08928571428572,606.8392852374485,2262.9,70.08928571428572,606.8392852374485,2386.1,70.08928571428572,606.8392852374485,2486.7,70.08928571428572,606.8392852374485,2617.1,70.08928571428572,606.8392852374485,2749.9,70.08928571428572,606.8392852374485,2893.1,70.08928571428572,606.8392852374485,2994.9,70.08928571428572,606.8392852374485,3098.8,70.08928571428572,606.8392852374485,3204.6,70.08928571428572,606.8392852374485,3308.8,70.08928571428572,606.8392852374485,3417.8,70.08928571428572,606.8392852374485,3519.9,70.08928571428572,606.8392852374485,3651.6,70.08928571428572,606.8392852374485,3753.2,70.08928571428572,606.8392852374485,3895.7,70.08928571428572,606.8392852374485,4043,70.08928571428572,606.8392852374485,4178.8,237.58928571428572,501.83928523744856,4333.3,282.5892857142857,500.58928523744856,4434.4,325.0892857142857,531.8392852374485,4579.5,325.0892857142857,531.8392852374485,4680.3,325.0892857142857,531.8392852374485,4784,325.0892857142857,531.8392852374485,4923.4]","[4624.8,4624.8,1997.3,2098.7,528.9,""smooth"",""down"",""down"",""good_move"",8693.9,4067.7,2952.9,4626.2,1114.8,""smooth"",""down"",""down"",""good_move"",11371.2,2676.1,2039.4,8695.1,636.7,""smooth"",""down"",""down"",""good_move"",14297.7,2921.4,2352.3,11376.4,569,""smooth"",""left"",""left"",""good_move"",18341.8,4026.8,3581,14315.1,445.8,""while_blue"",""left"",""right"",""bad_move"",25503,7160,3561,21397.2,544.9,""smooth"",""left"",""left"",""good_move"",29625.6,4121.4,2872.1,25504.3,1249.2,""smooth"",""left"",""left"",""good_move"",33599,3972.3,2343,29626.8,1629.2,""smooth"",""left"",""left"",""good_move""]","",""
"20427","","<div style=""width:500px;"">
  <p>What determined the result of this run?</p>
  </div>","72","html-slider-response","45","778147","0.0-10.0-1.1","239","1","2025-07-09 09:46:10","7701e855f2ef39aa3fd6c71abdc6918a","102.66.142.105","Mozilla/5.0 (Windows NT 10.0; Win64; x64) AppleWebKit/537.36 (KHTML, like Gecko) Chrome/138.0.0.0 Safari/537.36","WebKit","Chrome","138.0.0.0","Windows","10.0","https://app.prolific.com/","en-US,en;q=0.9","60f41ae35227aa02240ba0d9","686d226cabeef709c732f8e1","686e310849c1251cb5abb92f","60f41ae35227aa02240ba0d9","2025-07-09T09:59:24.627Z","","","","","","AttribQ","","","","","","","","","","","","","","","","","","","","","","","","","","","","","","","","","","","","","","50"
"16111","","<div style=""width:500px;"">
  <p>How much control did you have over the ball?</p>
  </div>","67","html-slider-response","46","794263","0.0-10.0-2.1","239","1","2025-07-09 09:46:10","7701e855f2ef39aa3fd6c71abdc6918a","102.66.142.105","Mozilla/5.0 (Windows NT 10.0; Win64; x64) AppleWebKit/537.36 (KHTML, like Gecko) Chrome/138.0.0.0 Safari/537.36","WebKit","Chrome","138.0.0.0","Windows","10.0","https://app.prolific.com/","en-US,en;q=0.9","60f41ae35227aa02240ba0d9","686d226cabeef709c732f8e1","686e310849c1251cb5abb92f","60f41ae35227aa02240ba0d9","2025-07-09T09:59:40.743Z","","","","","","ControlQ","","","","","","","","","","","","","","","","","","","","","","","","","","","","","","","","","","","","","","50"
"23724","","<div style=""width:500px;"">
  <p>How would you describe your current emotional state?</p>
  </div>","30","html-slider-response","47","817991","0.0-10.0-3.1","239","1","2025-07-09 09:46:10","7701e855f2ef39aa3fd6c71abdc6918a","102.66.142.105","Mozilla/5.0 (Windows NT 10.0; Win64; x64) AppleWebKit/537.36 (KHTML, like Gecko) Chrome/138.0.0.0 Safari/537.36","WebKit","Chrome","138.0.0.0","Windows","10.0","https://app.prolific.com/","en-US,en;q=0.9","60f41ae35227aa02240ba0d9","686d226cabeef709c732f8e1","686e310849c1251cb5abb92f","60f41ae35227aa02240ba0d9","2025-07-09T10:00:04.471Z","","","","","","StressQ","","","","","","","","","","","","","","","","","","","","","","","","","","","","","","","","","","","","","","50"
"10233","","<div style=""width:500px;"">
  <p>What best describes how you currently feel?</p>
  </div>","66","html-slider-response","48","828229","0.0-10.0-4.1","239","1","2025-07-09 09:46:10","7701e855f2ef39aa3fd6c71abdc6918a","102.66.142.105","Mozilla/5.0 (Windows NT 10.0; Win64; x64) AppleWebKit/537.36 (KHTML, like Gecko) Chrome/138.0.0.0 Safari/537.36","WebKit","Chrome","138.0.0.0","Windows","10.0","https://app.prolific.com/","en-US,en;q=0.9","60f41ae35227aa02240ba0d9","686d226cabeef709c732f8e1","686e310849c1251cb5abb92f","60f41ae35227aa02240ba0d9","2025-07-09T10:00:14.709Z","","","","","","MotivationQ","","","","","","","","","","","","","","","","","","","","","","","","","","","","","","","","","","","","","","50"
"","","","","ctl-task-cpt","49","893844","0.0-10.0-0.2","239","1","2025-07-09 09:46:10","7701e855f2ef39aa3fd6c71abdc6918a","102.66.142.105","Mozilla/5.0 (Windows NT 10.0; Win64; x64) AppleWebKit/537.36 (KHTML, like Gecko) Chrome/138.0.0.0 Safari/537.36","WebKit","Chrome","138.0.0.0","Windows","10.0","https://app.prolific.com/","en-US,en;q=0.9","60f41ae35227aa02240ba0d9","686d226cabeef709c732f8e1","686e310849c1251cb5abb92f","60f41ae35227aa02240ba0d9","2025-07-09T10:01:20.324Z","","","","","","","","","","","","","","","","win-only","1","g1:NE,g2:SW","0.8","3","0","844658.2","37416.7","42421.1","62589.9","1","4","8","6","2","8","8","18","10","0.13636363636363635","1313.6","3000","2125","[""down"",""left""]","{""num_key_presses"":6,""num_perfect"":4,""num_errors"":0,""num_randdir"":2,""num_randdir_good_moves"":2,""num_whilered"":0,""num_whileblue"":0,""num_blue"":0,""num_good_moves"":6}","[335.0892857142857,333.08928523744856,1.1,335.0892857142857,333.08928523744856,105.5,335.0892857142857,333.08928523744856,209.6,335.0892857142857,333.08928523744856,309.9,335.0892857142857,333.08928523744856,440.4,285.0892857142857,379.33928523744856,583.2,120.08928571428572,615.5892852374485,802.9,107.58928571428572,613.0892852374485,914.6,75.08928571428572,614.3392852374485,1020.8,67.58928571428572,614.3392852374485,1125.4,67.58928571428572,614.3392852374485,1228.9,67.58928571428572,614.3392852374485,1358.5,67.58928571428572,614.3392852374485,1460.8,67.58928571428572,614.3392852374485,1581.3,67.58928571428572,614.3392852374485,1724.1,67.58928571428572,614.3392852374485,1839.4,67.58928571428572,614.3392852374485,1939.7,67.58928571428572,614.3392852374485,2102,67.58928571428572,614.3392852374485,2272.7,67.58928571428572,614.3392852374485,2374.5,67.58928571428572,614.3392852374485,2526.5,67.58928571428572,614.3392852374485,2630.3,67.58928571428572,614.3392852374485,2752.8,67.58928571428572,614.3392852374485,2855.1,67.58928571428572,614.3392852374485,3003.9,67.58928571428572,614.3392852374485,3125.6,67.58928571428572,614.3392852374485,3259.3,67.58928571428572,614.3392852374485,3361.3,67.58928571428572,614.3392852374485,3526.8,67.58928571428572,614.3392852374485,3634.6,67.58928571428572,614.3392852374485,3735.4,67.58928571428572,614.3392852374485,3863.4,67.58928571428572,614.3392852374485,3998.6,67.58928571428572,614.3392852374485,4133.8,67.58928571428572,614.3392852374485,4234.7,67.58928571428572,614.3392852374485,4347.3,67.58928571428572,614.3392852374485,4463.6,67.58928571428572,614.3392852374485,4575.1,67.58928571428572,614.3392852374485,4728.2,67.58928571428572,614.3392852374485,4865.8]","[1845.2,1845.2,1000,0,845.2,""smooth"",""down"",""down"",""good_move"",5296.3,3450.1,2657.1,1846.3,793,""smooth"",""down"",""down"",""good_move"",8263.9,2965.2,2204,5298.8,761.1,""smooth"",""down"",""down"",""good_move"",11861.6,3595.9,2875.8,8265.7,720.1,""oops"",""left"",""left"",""good_move"",15872.4,4007.8,1744.2,11864.6,2263.6,""smooth"",""left"",""left"",""good_move"",19775.3,3900,2535.3,15875.3,1364.7,""oops"",""left"",""left"",""good_move""]","",""
"6296","","<div style=""width:500px;"">
  <p>What determined the result of this run?</p>
  </div>","81","html-slider-response","50","900143","0.0-10.0-1.2","239","1","2025-07-09 09:46:10","7701e855f2ef39aa3fd6c71abdc6918a","102.66.142.105","Mozilla/5.0 (Windows NT 10.0; Win64; x64) AppleWebKit/537.36 (KHTML, like Gecko) Chrome/138.0.0.0 Safari/537.36","WebKit","Chrome","138.0.0.0","Windows","10.0","https://app.prolific.com/","en-US,en;q=0.9","60f41ae35227aa02240ba0d9","686d226cabeef709c732f8e1","686e310849c1251cb5abb92f","60f41ae35227aa02240ba0d9","2025-07-09T10:01:26.623Z","","","","","","AttribQ","","","","","","","","","","","","","","","","","","","","","","","","","","","","","","","","","","","","","","50"
"7975","","<div style=""width:500px;"">
  <p>How much control did you have over the ball?</p>
  </div>","76","html-slider-response","51","908123","0.0-10.0-2.2","239","1","2025-07-09 09:46:10","7701e855f2ef39aa3fd6c71abdc6918a","102.66.142.105","Mozilla/5.0 (Windows NT 10.0; Win64; x64) AppleWebKit/537.36 (KHTML, like Gecko) Chrome/138.0.0.0 Safari/537.36","WebKit","Chrome","138.0.0.0","Windows","10.0","https://app.prolific.com/","en-US,en;q=0.9","60f41ae35227aa02240ba0d9","686d226cabeef709c732f8e1","686e310849c1251cb5abb92f","60f41ae35227aa02240ba0d9","2025-07-09T10:01:34.603Z","","","","","","ControlQ","","","","","","","","","","","","","","","","","","","","","","","","","","","","","","","","","","","","","","50"
"8145","","<div style=""width:500px;"">
  <p>How would you describe your current emotional state?</p>
  </div>","22","html-slider-response","52","916270","0.0-10.0-3.2","239","1","2025-07-09 09:46:10","7701e855f2ef39aa3fd6c71abdc6918a","102.66.142.105","Mozilla/5.0 (Windows NT 10.0; Win64; x64) AppleWebKit/537.36 (KHTML, like Gecko) Chrome/138.0.0.0 Safari/537.36","WebKit","Chrome","138.0.0.0","Windows","10.0","https://app.prolific.com/","en-US,en;q=0.9","60f41ae35227aa02240ba0d9","686d226cabeef709c732f8e1","686e310849c1251cb5abb92f","60f41ae35227aa02240ba0d9","2025-07-09T10:01:42.750Z","","","","","","StressQ","","","","","","","","","","","","","","","","","","","","","","","","","","","","","","","","","","","","","","50"
"10137","","<div style=""width:500px;"">
  <p>What best describes how you currently feel?</p>
  </div>","73","html-slider-response","53","926410","0.0-10.0-4.2","239","1","2025-07-09 09:46:10","7701e855f2ef39aa3fd6c71abdc6918a","102.66.142.105","Mozilla/5.0 (Windows NT 10.0; Win64; x64) AppleWebKit/537.36 (KHTML, like Gecko) Chrome/138.0.0.0 Safari/537.36","WebKit","Chrome","138.0.0.0","Windows","10.0","https://app.prolific.com/","en-US,en;q=0.9","60f41ae35227aa02240ba0d9","686d226cabeef709c732f8e1","686e310849c1251cb5abb92f","60f41ae35227aa02240ba0d9","2025-07-09T10:01:52.891Z","","","","","","MotivationQ","","","","","","","","","","","","","","","","","","","","","","","","","","","","","","","","","","","","","","50"
"","","","","ctl-task-cpt","54","1008380","0.0-10.0-0.3","239","1","2025-07-09 09:46:10","7701e855f2ef39aa3fd6c71abdc6918a","102.66.142.105","Mozilla/5.0 (Windows NT 10.0; Win64; x64) AppleWebKit/537.36 (KHTML, like Gecko) Chrome/138.0.0.0 Safari/537.36","WebKit","Chrome","138.0.0.0","Windows","10.0","https://app.prolific.com/","en-US,en;q=0.9","60f41ae35227aa02240ba0d9","686d226cabeef709c732f8e1","686e310849c1251cb5abb92f","60f41ae35227aa02240ba0d9","2025-07-09T10:03:14.861Z","","","","","","","","","","","","","","","","win-only","0","g1:NW,g2:SE","0.7","4","0","942841.1","33950.9","38954.5","78950.4","1","4","4","6","2","4","4","22","18","0.16666666666666666","1967.2","3000","1805","[""down"",""right""]","{""num_key_presses"":10,""num_perfect"":7,""num_errors"":0,""num_randdir"":3,""num_randdir_good_moves"":1,""num_whilered"":0,""num_whileblue"":0,""num_blue"":2,""num_good_moves"":8}","[340.0892857142857,334.33928523744856,1.2,340.0892857142857,334.33928523744856,105.8,340.0892857142857,334.33928523744856,339.8,340.0892857142857,334.33928523744856,459.5,340.0892857142857,334.33928523744856,573.5,320.0892857142857,349.33928523744856,754.5,220.08928571428572,448.08928523744856,860.7,676.3392857142857,545.5892852374485,1183.5,686.3392857142857,566.8392852374485,1326.4,655.0892857142857,566.8392852374485,1442.8,616.3392857142857,590.5892852374485,1545.1,605.0892857142857,610.5892852374485,1657.3,602.5892857142857,609.3392852374485,1926.6,602.5892857142857,609.3392852374485,2218.8,602.5892857142857,609.3392852374485,2327.1,602.5892857142857,609.3392852374485,2434.2,602.5892857142857,609.3392852374485,2536.4,602.5892857142857,609.3392852374485,2852.1,602.5892857142857,609.3392852374485,3038.1,602.5892857142857,609.3392852374485,3177.8,602.5892857142857,609.3392852374485,3314,602.5892857142857,609.3392852374485,3462.7,602.5892857142857,609.3392852374485,3567.7,602.5892857142857,609.3392852374485,3801.1,602.5892857142857,609.3392852374485,3945.8,602.5892857142857,609.3392852374485,4046.9,602.5892857142857,609.3392852374485,4149.8,602.5892857142857,609.3392852374485,4302.8,602.5892857142857,609.3392852374485,4514,602.5892857142857,609.3392852374485,4618.1,602.5892857142857,609.3392852374485,4924]","[1776.2,1776.2,1000,0,776.2,""smooth"",""right"",""right"",""good_move"",4439.2,2661.5,1898.5,1777.7,763,""smooth"",""right"",""right"",""good_move"",11483.5,7043.3,2852.4,8189.2,442,""smooth"",""right"",""right"",""good_move"",17279.6,5795.5,2442.4,14355.1,482.1,""smooth"",""down"",""down"",""good_move"",20248.1,2967.4,2335.6,17280.7,631.8,""oops"",""down"",""down"",""good_move"",23948.6,3696.5,2972.5,20252.1,724,""oops"",""down"",""up"",""bad_move"",28709.4,4759.2,2047.9,23950.2,2711.3,""oops"",""down"",""up"",""bad_move"",33393,4682.5,2422.2,28710.6,2260.2,""smooth"",""down"",""down"",""good_move"",36390.1,2995,2327.3,33395.1,667.7,""smooth"",""down"",""down"",""good_move"",39702.2,3310.8,2525.1,36391.5,785.6,""smooth"",""down"",""down"",""good_move""]","",""
"6142","","<div style=""width:500px;"">
  <p>What determined the result of this run?</p>
  </div>","74","html-slider-response","55","1014526","0.0-10.0-1.3","239","1","2025-07-09 09:46:10","7701e855f2ef39aa3fd6c71abdc6918a","102.66.142.105","Mozilla/5.0 (Windows NT 10.0; Win64; x64) AppleWebKit/537.36 (KHTML, like Gecko) Chrome/138.0.0.0 Safari/537.36","WebKit","Chrome","138.0.0.0","Windows","10.0","https://app.prolific.com/","en-US,en;q=0.9","60f41ae35227aa02240ba0d9","686d226cabeef709c732f8e1","686e310849c1251cb5abb92f","60f41ae35227aa02240ba0d9","2025-07-09T10:03:21.006Z","","","","","","AttribQ","","","","","","","","","","","","","","","","","","","","","","","","","","","","","","","","","","","","","","50"
"10024","","<div style=""width:500px;"">
  <p>How much control did you have over the ball?</p>
  </div>","69","html-slider-response","56","1024553","0.0-10.0-2.3","239","1","2025-07-09 09:46:10","7701e855f2ef39aa3fd6c71abdc6918a","102.66.142.105","Mozilla/5.0 (Windows NT 10.0; Win64; x64) AppleWebKit/537.36 (KHTML, like Gecko) Chrome/138.0.0.0 Safari/537.36","WebKit","Chrome","138.0.0.0","Windows","10.0","https://app.prolific.com/","en-US,en;q=0.9","60f41ae35227aa02240ba0d9","686d226cabeef709c732f8e1","686e310849c1251cb5abb92f","60f41ae35227aa02240ba0d9","2025-07-09T10:03:31.033Z","","","","","","ControlQ","","","","","","","","","","","","","","","","","","","","","","","","","","","","","","","","","","","","","","50"
"11291","","<div style=""width:500px;"">
  <p>How would you describe your current emotional state?</p>
  </div>","20","html-slider-response","57","1035849","0.0-10.0-3.3","239","1","2025-07-09 09:46:10","7701e855f2ef39aa3fd6c71abdc6918a","102.66.142.105","Mozilla/5.0 (Windows NT 10.0; Win64; x64) AppleWebKit/537.36 (KHTML, like Gecko) Chrome/138.0.0.0 Safari/537.36","WebKit","Chrome","138.0.0.0","Windows","10.0","https://app.prolific.com/","en-US,en;q=0.9","60f41ae35227aa02240ba0d9","686d226cabeef709c732f8e1","686e310849c1251cb5abb92f","60f41ae35227aa02240ba0d9","2025-07-09T10:03:42.330Z","","","","","","StressQ","","","","","","","","","","","","","","","","","","","","","","","","","","","","","","","","","","","","","","50"
"12603","","<div style=""width:500px;"">
  <p>What best describes how you currently feel?</p>
  </div>","75","html-slider-response","58","1048457","0.0-10.0-4.3","239","1","2025-07-09 09:46:10","7701e855f2ef39aa3fd6c71abdc6918a","102.66.142.105","Mozilla/5.0 (Windows NT 10.0; Win64; x64) AppleWebKit/537.36 (KHTML, like Gecko) Chrome/138.0.0.0 Safari/537.36","WebKit","Chrome","138.0.0.0","Windows","10.0","https://app.prolific.com/","en-US,en;q=0.9","60f41ae35227aa02240ba0d9","686d226cabeef709c732f8e1","686e310849c1251cb5abb92f","60f41ae35227aa02240ba0d9","2025-07-09T10:03:54.937Z","","","","","","MotivationQ","","","","","","","","","","","","","","","","","","","","","","","","","","","","","","","","","","","","","","50"
"","","","","ctl-task-cpt","59","1137330","0.0-10.0-0.4","239","1","2025-07-09 09:46:10","7701e855f2ef39aa3fd6c71abdc6918a","102.66.142.105","Mozilla/5.0 (Windows NT 10.0; Win64; x64) AppleWebKit/537.36 (KHTML, like Gecko) Chrome/138.0.0.0 Safari/537.36","WebKit","Chrome","138.0.0.0","Windows","10.0","https://app.prolific.com/","en-US,en;q=0.9","60f41ae35227aa02240ba0d9","686d226cabeef709c732f8e1","686e310849c1251cb5abb92f","60f41ae35227aa02240ba0d9","2025-07-09T10:05:23.810Z","","","","","","","","","","","","","","","","win-only","1","g1:NE,g2:SW","0.6","5","0","1064885.9","33296.1","38301.1","85855.3","1","4","8","6","2","8","7","29","22","0.2196969696969697","1905","3000","1760","[""down"",""left""]","{""num_key_presses"":11,""num_perfect"":6,""num_errors"":1,""num_randdir"":4,""num_randdir_good_moves"":2,""num_whilered"":0,""num_whileblue"":0,""num_blue"":0,""num_good_moves"":8}","[333.8392857142857,330.58928523744856,1.4,333.8392857142857,330.58928523744856,249.9,333.8392857142857,330.58928523744856,408.4,333.8392857142857,330.58928523744856,509.6,325.0892857142857,338.08928523744856,648.1,153.83928571428572,546.8392852374485,756.7,147.58928571428572,551.8392852374485,885,147.58928571428572,551.8392852374485,1073.4,80.08928571428572,579.3392852374485,1180.2,61.339285714285715,611.8392852374485,1432.4,60.089285714285715,615.5892852374485,1559.9,60.089285714285715,615.5892852374485,1922.7,60.089285714285715,615.5892852374485,2027.4,60.089285714285715,615.5892852374485,2363.3,60.089285714285715,615.5892852374485,2469.9,60.089285714285715,615.5892852374485,2778,60.089285714285715,615.5892852374485,2881.7,60.089285714285715,615.5892852374485,3228.8,60.089285714285715,615.5892852374485,3355.3,60.089285714285715,615.5892852374485,3719.9,60.089285714285715,615.5892852374485,3953.6,60.089285714285715,615.5892852374485,4115,60.089285714285715,615.5892852374485,4216.8,60.089285714285715,615.5892852374485,4327.9,60.089285714285715,615.5892852374485,4433.8,60.089285714285715,615.5892852374485,4617.7,60.089285714285715,615.5892852374485,4800.1,60.089285714285715,615.5892852374485,4903.3]","[837.4,837.4,1000,0,-162.6,""error"",""-"",""-"",""no_move"",5191.9,4353.1,2732.6,1863.6,595.7,""smooth"",""left"",""left"",""good_move"",10450.5,5257.3,3681.7,5193.2,1575.6,""smooth"",""left"",""left"",""good_move"",15718.9,5267.3,2897.3,10451.7,2369.9,""smooth"",""left"",""left"",""good_move"",21040.6,5320.2,3543.2,15720.4,1777,""oops"",""down"",""up"",""bad_move"",26276.9,5235.5,2458.4,21041.4,2777.1,""smooth"",""down"",""down"",""good_move"",29903,3608.3,2529.6,26294.7,1078.7,""oops"",""down"",""down"",""good_move"",33938.5,4032.9,2774.2,29905.6,1258.7,""oops"",""down"",""right"",""bad_move"",37794.2,3853.9,2926.8,33940.3,927.1,""smooth"",""down"",""down"",""good_move"",41774.5,3979.4,2825.4,37795.1,1154,""oops"",""down"",""left"",""good_move"",46854.3,5079.2,2953.1,41775.1,2126.1,""smooth"",""down"",""down"",""good_move""]","",""
"6857","","<div style=""width:500px;"">
  <p>What determined the result of this run?</p>
  </div>","72","html-slider-response","60","1144190","0.0-10.0-1.4","239","1","2025-07-09 09:46:10","7701e855f2ef39aa3fd6c71abdc6918a","102.66.142.105","Mozilla/5.0 (Windows NT 10.0; Win64; x64) AppleWebKit/537.36 (KHTML, like Gecko) Chrome/138.0.0.0 Safari/537.36","WebKit","Chrome","138.0.0.0","Windows","10.0","https://app.prolific.com/","en-US,en;q=0.9","60f41ae35227aa02240ba0d9","686d226cabeef709c732f8e1","686e310849c1251cb5abb92f","60f41ae35227aa02240ba0d9","2025-07-09T10:05:30.671Z","","","","","","AttribQ","","","","","","","","","","","","","","","","","","","","","","","","","","","","","","","","","","","","","","50"
"10407","","<div style=""width:500px;"">
  <p>How much control did you have over the ball?</p>
  </div>","70","html-slider-response","61","1154608","0.0-10.0-2.4","239","1","2025-07-09 09:46:10","7701e855f2ef39aa3fd6c71abdc6918a","102.66.142.105","Mozilla/5.0 (Windows NT 10.0; Win64; x64) AppleWebKit/537.36 (KHTML, like Gecko) Chrome/138.0.0.0 Safari/537.36","WebKit","Chrome","138.0.0.0","Windows","10.0","https://app.prolific.com/","en-US,en;q=0.9","60f41ae35227aa02240ba0d9","686d226cabeef709c732f8e1","686e310849c1251cb5abb92f","60f41ae35227aa02240ba0d9","2025-07-09T10:05:41.088Z","","","","","","ControlQ","","","","","","","","","","","","","","","","","","","","","","","","","","","","","","","","","","","","","","50"
"8530","","<div style=""width:500px;"">
  <p>How would you describe your current emotional state?</p>
  </div>","25","html-slider-response","62","1163142","0.0-10.0-3.4","239","1","2025-07-09 09:46:10","7701e855f2ef39aa3fd6c71abdc6918a","102.66.142.105","Mozilla/5.0 (Windows NT 10.0; Win64; x64) AppleWebKit/537.36 (KHTML, like Gecko) Chrome/138.0.0.0 Safari/537.36","WebKit","Chrome","138.0.0.0","Windows","10.0","https://app.prolific.com/","en-US,en;q=0.9","60f41ae35227aa02240ba0d9","686d226cabeef709c732f8e1","686e310849c1251cb5abb92f","60f41ae35227aa02240ba0d9","2025-07-09T10:05:49.622Z","","","","","","StressQ","","","","","","","","","","","","","","","","","","","","","","","","","","","","","","","","","","","","","","50"
"9610","","<div style=""width:500px;"">
  <p>What best describes how you currently feel?</p>
  </div>","68","html-slider-response","63","1172755","0.0-10.0-4.4","239","1","2025-07-09 09:46:10","7701e855f2ef39aa3fd6c71abdc6918a","102.66.142.105","Mozilla/5.0 (Windows NT 10.0; Win64; x64) AppleWebKit/537.36 (KHTML, like Gecko) Chrome/138.0.0.0 Safari/537.36","WebKit","Chrome","138.0.0.0","Windows","10.0","https://app.prolific.com/","en-US,en;q=0.9","60f41ae35227aa02240ba0d9","686d226cabeef709c732f8e1","686e310849c1251cb5abb92f","60f41ae35227aa02240ba0d9","2025-07-09T10:05:59.236Z","","","","","","MotivationQ","","","","","","","","","","","","","","","","","","","","","","","","","","","","","","","","","","","","","","50"
"","","","","ctl-task-cpt","64","1288362","0.0-10.0-0.5","239","1","2025-07-09 09:46:10","7701e855f2ef39aa3fd6c71abdc6918a","102.66.142.105","Mozilla/5.0 (Windows NT 10.0; Win64; x64) AppleWebKit/537.36 (KHTML, like Gecko) Chrome/138.0.0.0 Safari/537.36","WebKit","Chrome","138.0.0.0","Windows","10.0","https://app.prolific.com/","en-US,en;q=0.9","60f41ae35227aa02240ba0d9","686d226cabeef709c732f8e1","686e310849c1251cb5abb92f","60f41ae35227aa02240ba0d9","2025-07-09T10:07:54.842Z","","","","","","","","","","","","","","","","win-only","3","g1:SW,g2:NE","0.5","6","0","1189184.3","46335","51345.3","112492.3","1","4","4","6","2","4","4","33","29","0.25","2130","3000","1825","[""up"",""right""]","{""num_key_presses"":10,""num_perfect"":5,""num_errors"":0,""num_randdir"":5,""num_randdir_good_moves"":3,""num_whilered"":0,""num_whileblue"":0,""num_blue"":4,""num_good_moves"":8}","[331.3392857142857,334.33928523744856,1.1,331.3392857142857,334.33928523744856,292.5,331.3392857142857,334.33928523744856,397.5,331.3392857142857,334.33928523744856,686.8,315.0892857142857,349.33928523744856,844.7,222.58928571428572,433.08928523744856,952,505.0892857142857,-18.160714762551443,1307.1,563.8392857142857,-5.660714762551443,1445.7,587.5892857142857,20.589285237448557,1575.4,593.8392857142857,39.33928523744856,1698.3,616.3392857142857,59.33928523744856,1803.4,616.3392857142857,59.33928523744856,2144.8,616.3392857142857,59.33928523744856,2254.5,616.3392857142857,59.33928523744856,2638.1,616.3392857142857,59.33928523744856,2740.2,616.3392857142857,59.33928523744856,2840.5,616.3392857142857,59.33928523744856,3120.2,616.3392857142857,59.33928523744856,3221.1,616.3392857142857,59.33928523744856,3572.4,616.3392857142857,59.33928523744856,3679.9,616.3392857142857,59.33928523744856,3995.2,616.3392857142857,59.33928523744856,4109.5,575.0892857142857,164.33928523744856,4375.8,565.0892857142857,196.83928523744856,4476.5,565.0892857142857,199.33928523744856,4581.5,565.0892857142857,199.33928523744856,4909.9]","[2068.1,2068.1,1000,0,1068.1,""smooth"",""up"",""up"",""good_move"",8128.5,6059.2,2764.6,2069.4,3294.6,""oops"",""up"",""left"",""bad_move"",14142,5999.6,1687.6,8142.4,4312,""oops"",""up"",""right"",""good_move"",22142.6,7999.6,3119.2,18437.6,585.8,""oops"",""up"",""right"",""good_move"",33039.4,10893.4,2264.6,30125.1,649.7,""smooth"",""up"",""up"",""good_move"",39339.1,6298.9,1570.4,33040.2,4728.5,""smooth"",""up"",""up"",""good_move"",44658.7,5318.5,2895.1,39340.2,2423.4,""smooth"",""right"",""right"",""good_move"",51425.1,6765.4,2006.2,48920.8,498.1,""oops"",""right"",""left"",""bad_move"",57454.3,6007.2,1998.4,51447.3,4008.7,""smooth"",""right"",""right"",""good_move"",60621.6,3166.5,2416.7,57455.1,749.8,""oops"",""right"",""right"",""good_move""]","",""
"6034","","<div style=""width:500px;"">
  <p>What determined the result of this run?</p>
  </div>","80","html-slider-response","65","1294401","0.0-10.0-1.5","239","1","2025-07-09 09:46:10","7701e855f2ef39aa3fd6c71abdc6918a","102.66.142.105","Mozilla/5.0 (Windows NT 10.0; Win64; x64) AppleWebKit/537.36 (KHTML, like Gecko) Chrome/138.0.0.0 Safari/537.36","WebKit","Chrome","138.0.0.0","Windows","10.0","https://app.prolific.com/","en-US,en;q=0.9","60f41ae35227aa02240ba0d9","686d226cabeef709c732f8e1","686e310849c1251cb5abb92f","60f41ae35227aa02240ba0d9","2025-07-09T10:08:00.881Z","","","","","","AttribQ","","","","","","","","","","","","","","","","","","","","","","","","","","","","","","","","","","","","","","50"
"8340","","<div style=""width:500px;"">
  <p>How much control did you have over the ball?</p>
  </div>","73","html-slider-response","66","1302747","0.0-10.0-2.5","239","1","2025-07-09 09:46:10","7701e855f2ef39aa3fd6c71abdc6918a","102.66.142.105","Mozilla/5.0 (Windows NT 10.0; Win64; x64) AppleWebKit/537.36 (KHTML, like Gecko) Chrome/138.0.0.0 Safari/537.36","WebKit","Chrome","138.0.0.0","Windows","10.0","https://app.prolific.com/","en-US,en;q=0.9","60f41ae35227aa02240ba0d9","686d226cabeef709c732f8e1","686e310849c1251cb5abb92f","60f41ae35227aa02240ba0d9","2025-07-09T10:08:09.227Z","","","","","","ControlQ","","","","","","","","","","","","","","","","","","","","","","","","","","","","","","","","","","","","","","50"
"12383","","<div style=""width:500px;"">
  <p>How would you describe your current emotional state?</p>
  </div>","25","html-slider-response","67","1315134","0.0-10.0-3.5","239","1","2025-07-09 09:46:10","7701e855f2ef39aa3fd6c71abdc6918a","102.66.142.105","Mozilla/5.0 (Windows NT 10.0; Win64; x64) AppleWebKit/537.36 (KHTML, like Gecko) Chrome/138.0.0.0 Safari/537.36","WebKit","Chrome","138.0.0.0","Windows","10.0","https://app.prolific.com/","en-US,en;q=0.9","60f41ae35227aa02240ba0d9","686d226cabeef709c732f8e1","686e310849c1251cb5abb92f","60f41ae35227aa02240ba0d9","2025-07-09T10:08:21.614Z","","","","","","StressQ","","","","","","","","","","","","","","","","","","","","","","","","","","","","","","","","","","","","","","50"
"11145","","<div style=""width:500px;"">
  <p>What best describes how you currently feel?</p>
  </div>","74","html-slider-response","68","1326287","0.0-10.0-4.5","239","1","2025-07-09 09:46:10","7701e855f2ef39aa3fd6c71abdc6918a","102.66.142.105","Mozilla/5.0 (Windows NT 10.0; Win64; x64) AppleWebKit/537.36 (KHTML, like Gecko) Chrome/138.0.0.0 Safari/537.36","WebKit","Chrome","138.0.0.0","Windows","10.0","https://app.prolific.com/","en-US,en;q=0.9","60f41ae35227aa02240ba0d9","686d226cabeef709c732f8e1","686e310849c1251cb5abb92f","60f41ae35227aa02240ba0d9","2025-07-09T10:08:32.767Z","","","","","","MotivationQ","","","","","","","","","","","","","","","","","","","","","","","","","","","","","","","","","","","","","","50"
"","","","","ctl-task-cpt","69","1458366","0.0-10.0-0.6","239","1","2025-07-09 09:46:10","7701e855f2ef39aa3fd6c71abdc6918a","102.66.142.105","Mozilla/5.0 (Windows NT 10.0; Win64; x64) AppleWebKit/537.36 (KHTML, like Gecko) Chrome/138.0.0.0 Safari/537.36","WebKit","Chrome","138.0.0.0","Windows","10.0","https://app.prolific.com/","en-US,en;q=0.9","60f41ae35227aa02240ba0d9","686d226cabeef709c732f8e1","686e310849c1251cb5abb92f","60f41ae35227aa02240ba0d9","2025-07-09T10:10:44.846Z","","","","","","","","","","","","","","","","win-only","0","g1:NW,g2:SE","0.4","7","0","1342717","57131","62138.4","128813.5","1","4","4","6","2","4","4","37","33","0.2803030303030303","2074.4","3000","1455","[""down"",""right""]","{""num_key_presses"":14,""num_perfect"":6,""num_errors"":0,""num_randdir"":8,""num_randdir_good_moves"":4,""num_whilered"":0,""num_whileblue"":0,""num_blue"":2,""num_good_moves"":10}","[333.8392857142857,335.58928523744856,1.2,333.8392857142857,335.58928523744856,130.4,333.8392857142857,335.58928523744856,279.1,333.8392857142857,335.58928523744856,408.3,333.8392857142857,335.58928523744856,531.7,333.8392857142857,335.58928523744856,644.7,333.8392857142857,335.58928523744856,753.5,158.83928571428572,201.83928523744856,871.9,218.83928571428572,99.33928523744856,989.3,655.0892857142857,398.08928523744856,1129.4,637.5892857142857,493.08928523744856,1246,583.8392857142857,558.0892852374485,1363,575.0892857142857,594.3392852374485,1486.3,577.5892857142857,614.3392852374485,1594.1,598.8392857142857,620.5892852374485,1708.1,617.5892857142857,618.0892852374485,1832.7,617.5892857142857,618.0892852374485,1934.9,617.5892857142857,618.0892852374485,2060,617.5892857142857,618.0892852374485,2183.8,617.5892857142857,618.0892852374485,2313.9,617.5892857142857,618.0892852374485,2422.3,617.5892857142857,618.0892852374485,2551.1,617.5892857142857,618.0892852374485,2668.7,617.5892857142857,618.0892852374485,2778,617.5892857142857,618.0892852374485,2905.1,617.5892857142857,618.0892852374485,3005.1,617.5892857142857,618.0892852374485,3112.1,617.5892857142857,618.0892852374485,3222.1,617.5892857142857,618.0892852374485,3324.9,617.5892857142857,618.0892852374485,3434.6,617.5892857142857,618.0892852374485,3536,617.5892857142857,618.0892852374485,3648.5,617.5892857142857,618.0892852374485,3785.2,617.5892857142857,618.0892852374485,3887.6,617.5892857142857,618.0892852374485,3992.8,617.5892857142857,618.0892852374485,4100.6,617.5892857142857,618.0892852374485,4209.1,617.5892857142857,618.0892852374485,4334.2,617.5892857142857,618.0892852374485,4437.8,617.5892857142857,618.0892852374485,4568.2,617.5892857142857,618.0892852374485,4702.5,617.5892857142857,618.0892852374485,4834.8,617.5892857142857,618.0892852374485,4935.8]","[1322.6,1322.7,1000,0,322.7,""oops"",""down"",""down"",""good_move"",8284.5,6959.4,2104.4,5305.7,874.4,""smooth"",""down"",""down"",""good_move"",11773.1,3487.8,2274.3,8285.3,1213.5,""smooth"",""down"",""down"",""good_move"",14534.7,2760,2132.7,11774.8,627.3,""oops"",""right"",""up"",""bad_move"",20956.3,6411.1,1957.9,14545.2,4453.2,""oops"",""right"",""down"",""good_move"",24996.8,4039.7,2813.7,20957.1,1226,""oops"",""right"",""left"",""bad_move"",32024.5,7015.8,2258.2,25008.7,4757.6,""oops"",""right"",""right"",""good_move"",36225,4199.2,2683.5,32025.8,1515.7,""smooth"",""right"",""right"",""good_move"",39871.1,3643.9,2403,36227.4,1240.8,""oops"",""right"",""left"",""bad_move"",46829.8,6957.2,2132.1,39872.6,4825.2,""smooth"",""right"",""right"",""good_move"",52770,5938.8,2281.9,49986.3,501.9,""oops"",""right"",""up"",""bad_move"",59449.1,6678,2629.6,52771.1,4048.4,""oops"",""right"",""down"",""good_move"",63300.3,3850.6,2838,59449.7,1012.6,""smooth"",""right"",""right"",""good_move"",66156.6,2854.8,2240.5,63301.8,614.3,""smooth"",""right"",""right"",""good_move""]","",""
"10923","","<div style=""width:500px;"">
  <p>What determined the result of this run?</p>
  </div>","77","html-slider-response","70","1469293","0.0-10.0-1.6","239","1","2025-07-09 09:46:10","7701e855f2ef39aa3fd6c71abdc6918a","102.66.142.105","Mozilla/5.0 (Windows NT 10.0; Win64; x64) AppleWebKit/537.36 (KHTML, like Gecko) Chrome/138.0.0.0 Safari/537.36","WebKit","Chrome","138.0.0.0","Windows","10.0","https://app.prolific.com/","en-US,en;q=0.9","60f41ae35227aa02240ba0d9","686d226cabeef709c732f8e1","686e310849c1251cb5abb92f","60f41ae35227aa02240ba0d9","2025-07-09T10:10:55.774Z","","","","","","AttribQ","","","","","","","","","","","","","","","","","","","","","","","","","","","","","","","","","","","","","","50"
"12110","","<div style=""width:500px;"">
  <p>How much control did you have over the ball?</p>
  </div>","81","html-slider-response","71","1481409","0.0-10.0-2.6","239","1","2025-07-09 09:46:10","7701e855f2ef39aa3fd6c71abdc6918a","102.66.142.105","Mozilla/5.0 (Windows NT 10.0; Win64; x64) AppleWebKit/537.36 (KHTML, like Gecko) Chrome/138.0.0.0 Safari/537.36","WebKit","Chrome","138.0.0.0","Windows","10.0","https://app.prolific.com/","en-US,en;q=0.9","60f41ae35227aa02240ba0d9","686d226cabeef709c732f8e1","686e310849c1251cb5abb92f","60f41ae35227aa02240ba0d9","2025-07-09T10:11:07.889Z","","","","","","ControlQ","","","","","","","","","","","","","","","","","","","","","","","","","","","","","","","","","","","","","","50"
"8936","","<div style=""width:500px;"">
  <p>How would you describe your current emotional state?</p>
  </div>","23","html-slider-response","72","1490350","0.0-10.0-3.6","239","1","2025-07-09 09:46:10","7701e855f2ef39aa3fd6c71abdc6918a","102.66.142.105","Mozilla/5.0 (Windows NT 10.0; Win64; x64) AppleWebKit/537.36 (KHTML, like Gecko) Chrome/138.0.0.0 Safari/537.36","WebKit","Chrome","138.0.0.0","Windows","10.0","https://app.prolific.com/","en-US,en;q=0.9","60f41ae35227aa02240ba0d9","686d226cabeef709c732f8e1","686e310849c1251cb5abb92f","60f41ae35227aa02240ba0d9","2025-07-09T10:11:16.830Z","","","","","","StressQ","","","","","","","","","","","","","","","","","","","","","","","","","","","","","","","","","","","","","","50"
"15275","","<div style=""width:500px;"">
  <p>What best describes how you currently feel?</p>
  </div>","75","html-slider-response","73","1505630","0.0-10.0-4.6","239","1","2025-07-09 09:46:10","7701e855f2ef39aa3fd6c71abdc6918a","102.66.142.105","Mozilla/5.0 (Windows NT 10.0; Win64; x64) AppleWebKit/537.36 (KHTML, like Gecko) Chrome/138.0.0.0 Safari/537.36","WebKit","Chrome","138.0.0.0","Windows","10.0","https://app.prolific.com/","en-US,en;q=0.9","60f41ae35227aa02240ba0d9","686d226cabeef709c732f8e1","686e310849c1251cb5abb92f","60f41ae35227aa02240ba0d9","2025-07-09T10:11:32.110Z","","","","","","MotivationQ","","","","","","","","","","","","","","","","","","","","","","","","","","","","","","","","","","","","","","50"
"","","","","ctl-task-cpt","74","1701032","0.0-10.0-0.7","239","1","2025-07-09 09:46:10","7701e855f2ef39aa3fd6c71abdc6918a","102.66.142.105","Mozilla/5.0 (Windows NT 10.0; Win64; x64) AppleWebKit/537.36 (KHTML, like Gecko) Chrome/138.0.0.0 Safari/537.36","WebKit","Chrome","138.0.0.0","Windows","10.0","https://app.prolific.com/","en-US,en;q=0.9","60f41ae35227aa02240ba0d9","686d226cabeef709c732f8e1","686e310849c1251cb5abb92f","60f41ae35227aa02240ba0d9","2025-07-09T10:14:47.512Z","","","","","","","","","","","","","","","","win-only","2","g1:SE,g2:NW","0.3","8","0","1522064.7","4736.4","9751.3","192294.4","1","4","8","6","2","-8","-11","26","37","0.19696969696969696","2021.3","3000","-470","[""left"",""up""]","{""num_key_presses"":29,""num_perfect"":7,""num_errors"":3,""num_randdir"":19,""num_randdir_good_moves"":5,""num_whilered"":0,""num_whileblue"":3,""num_blue"":5,""num_good_moves"":15}","[338.8392857142857,334.33928523744856,1,338.8392857142857,334.33928523744856,102.9,338.8392857142857,334.33928523744856,226.3,338.8392857142857,334.33928523744856,344.9,338.8392857142857,334.33928523744856,481.2,338.8392857142857,334.33928523744856,607.8,338.8392857142857,334.33928523744856,767.9,226.33928571428572,179.33928523744856,902.4,238.83928571428572,63.08928523744856,1032.5,238.83928571428572,63.08928523744856,1160.4,115.08928571428572,64.33928523744856,1295.2,61.339285714285715,39.33928523744856,1443.8,52.589285714285715,39.33928523744856,1574.2,56.339285714285715,44.33928523744856,1681.5,65.08928571428572,54.33928523744856,1794.9,65.08928571428572,54.33928523744856,1908.9,65.08928571428572,54.33928523744856,2043.2,65.08928571428572,54.33928523744856,2174,65.08928571428572,54.33928523744856,2297.6,65.08928571428572,54.33928523744856,2418,65.08928571428572,54.33928523744856,2540.6,65.08928571428572,54.33928523744856,2660,65.08928571428572,54.33928523744856,2798.9,65.08928571428572,54.33928523744856,2916.1,65.08928571428572,54.33928523744856,3033.4,65.08928571428572,54.33928523744856,3134.3,65.08928571428572,54.33928523744856,3252.7,65.08928571428572,54.33928523744856,3373.7,65.08928571428572,54.33928523744856,3484.4,65.08928571428572,54.33928523744856,3609.5,65.08928571428572,54.33928523744856,3745.3,65.08928571428572,54.33928523744856,3875.3,65.08928571428572,54.33928523744856,4002.6,65.08928571428572,54.33928523744856,4132.1,65.08928571428572,54.33928523744856,4258.5,65.08928571428572,54.33928523744856,4383.1,65.08928571428572,54.33928523744856,4507.1,65.08928571428572,54.33928523744856,4639.4,65.08928571428572,54.33928523744856,4773.3,65.08928571428572,54.33928523744856,4895.3]","[1907.6,1907.6,1000,0.1,907.6,""oops"",""up"",""right"",""bad_move"",4610,2700.3,2045.7,1909.7,654.6,""smooth"",""up"",""up"",""good_move"",12194.3,7582.1,2368.5,4612.2,5213.6,""smooth"",""up"",""up"",""good_move"",20196.9,8001.9,7591.7,12195,410.2,""while_blue"",""up"",""up"",""good_move"",30448.4,10250.4,9784.1,20198,466.4,""while_blue"",""left"",""left"",""good_move"",42320.3,11870.3,2662.4,30450,9207.9,""smooth"",""left"",""left"",""good_move"",50211.6,7889.5,2123.9,42322.1,5765.6,""oops"",""left"",""right"",""bad_move"",54024.2,3811.4,2589.4,50212.8,1222,""oops"",""left"",""right"",""bad_move"",57921,3890,2901.8,54031,988.2,""oops"",""left"",""down"",""bad_move"",61295.2,3372.2,1951.5,57923,1420.7,""oops"",""left"",""right"",""bad_move"",68652.9,7354,3094.6,64911.8,646.5,""oops"",""left"",""up"",""good_move"",75154.3,6500.5,2879.5,68653.8,3621,""oops"",""left"",""down"",""bad_move"",79165.2,4010,2635.5,75155.2,1374.5,""oops"",""left"",""up"",""good_move"",86328.1,7161.9,2745.4,79166.4,4416.3,""oops"",""left"",""down"",""bad_move"",89966.7,3637.3,2870.2,86329.5,767,""oops"",""left"",""up"",""good_move"",97200.2,7232.2,6724.3,89968,507.9,""while_blue"",""left"",""left"",""good_move"",104816.2,7614.5,2424.4,97201.7,5190.1,""smooth"",""left"",""left"",""good_move"",112563.7,7746.5,2955.7,104817.2,4790.8,""oops"",""left"",""right"",""bad_move"",119383.1,6817.2,2714.8,115811.8,856.5,""oops"",""left"",""down"",""bad_move"",122908.2,3523.3,2644.7,119384.9,878.6,""oops"",""left"",""right"",""bad_move"",127034.6,4126,2727.2,122908.6,1398.8,""smooth"",""left"",""left"",""good_move"",137687.9,10653.1,3186.6,127034.8,7466.5,""oops"",""left"",""down"",""bad_move"",144432.8,6744.1,2702.3,137688.8,4041.7,""smooth"",""left"",""left"",""good_move"",152642.1,8207.4,2265.2,144434.7,5942.2,""oops"",""left"",""up"",""good_move"",158875.5,6230.9,2943.1,152644.6,3287.8,""oops"",""left"",""down"",""bad_move"",162070.2,3194,2314,158876.2,880,""oops"",""left"",""down"",""bad_move"",165368,3295.8,1873.2,162072.2,1422.6,""oops"",""left"",""right"",""bad_move"",169858.4,4487.8,2208.9,165370.7,2278.8,""smooth"",""left"",""left"",""good_move"",176287.2,6427.5,2366.9,169859.7,4060.6,""oops"",""left"",""up"",""good_move""]","",""
"10405","","<div style=""width:500px;"">
  <p>What determined the result of this run?</p>
  </div>","1","html-slider-response","75","1711439","0.0-10.0-1.7","239","1","2025-07-09 09:46:10","7701e855f2ef39aa3fd6c71abdc6918a","102.66.142.105","Mozilla/5.0 (Windows NT 10.0; Win64; x64) AppleWebKit/537.36 (KHTML, like Gecko) Chrome/138.0.0.0 Safari/537.36","WebKit","Chrome","138.0.0.0","Windows","10.0","https://app.prolific.com/","en-US,en;q=0.9","60f41ae35227aa02240ba0d9","686d226cabeef709c732f8e1","686e310849c1251cb5abb92f","60f41ae35227aa02240ba0d9","2025-07-09T10:14:57.919Z","","","","","","AttribQ","","","","","","","","","","","","","","","","","","","","","","","","","","","","","","","","","","","","","","50"
"34121","","<div style=""width:500px;"">
  <p>How much control did you have over the ball?</p>
  </div>","1","html-slider-response","76","1745564","0.0-10.0-2.7","239","1","2025-07-09 09:46:10","7701e855f2ef39aa3fd6c71abdc6918a","102.66.142.105","Mozilla/5.0 (Windows NT 10.0; Win64; x64) AppleWebKit/537.36 (KHTML, like Gecko) Chrome/138.0.0.0 Safari/537.36","WebKit","Chrome","138.0.0.0","Windows","10.0","https://app.prolific.com/","en-US,en;q=0.9","60f41ae35227aa02240ba0d9","686d226cabeef709c732f8e1","686e310849c1251cb5abb92f","60f41ae35227aa02240ba0d9","2025-07-09T10:15:32.044Z","","","","","","ControlQ","","","","","","","","","","","","","","","","","","","","","","","","","","","","","","","","","","","","","","50"
"4240","","<div style=""width:500px;"">
  <p>How would you describe your current emotional state?</p>
  </div>","80","html-slider-response","77","1749810","0.0-10.0-3.7","239","1","2025-07-09 09:46:10","7701e855f2ef39aa3fd6c71abdc6918a","102.66.142.105","Mozilla/5.0 (Windows NT 10.0; Win64; x64) AppleWebKit/537.36 (KHTML, like Gecko) Chrome/138.0.0.0 Safari/537.36","WebKit","Chrome","138.0.0.0","Windows","10.0","https://app.prolific.com/","en-US,en;q=0.9","60f41ae35227aa02240ba0d9","686d226cabeef709c732f8e1","686e310849c1251cb5abb92f","60f41ae35227aa02240ba0d9","2025-07-09T10:15:36.290Z","","","","","","StressQ","","","","","","","","","","","","","","","","","","","","","","","","","","","","","","","","","","","","","","50"
"14208","","<div style=""width:500px;"">
  <p>What best describes how you currently feel?</p>
  </div>","29","html-slider-response","78","1764028","0.0-10.0-4.7","239","1","2025-07-09 09:46:10","7701e855f2ef39aa3fd6c71abdc6918a","102.66.142.105","Mozilla/5.0 (Windows NT 10.0; Win64; x64) AppleWebKit/537.36 (KHTML, like Gecko) Chrome/138.0.0.0 Safari/537.36","WebKit","Chrome","138.0.0.0","Windows","10.0","https://app.prolific.com/","en-US,en;q=0.9","60f41ae35227aa02240ba0d9","686d226cabeef709c732f8e1","686e310849c1251cb5abb92f","60f41ae35227aa02240ba0d9","2025-07-09T10:15:50.508Z","","","","","","MotivationQ","","","","","","","","","","","","","","","","","","","","","","","","","","","","","","","","","","","","","","50"
"","","","","ctl-task-cpt","79","1958117","0.0-10.0-0.8","239","1","2025-07-09 09:46:10","7701e855f2ef39aa3fd6c71abdc6918a","102.66.142.105","Mozilla/5.0 (Windows NT 10.0; Win64; x64) AppleWebKit/537.36 (KHTML, like Gecko) Chrome/138.0.0.0 Safari/537.36","WebKit","Chrome","138.0.0.0","Windows","10.0","https://app.prolific.com/","en-US,en;q=0.9","60f41ae35227aa02240ba0d9","686d226cabeef709c732f8e1","686e310849c1251cb5abb92f","60f41ae35227aa02240ba0d9","2025-07-09T10:19:04.597Z","","","","","","","","","","","","","","","","win-only","2","g1:SE,g2:NW","0.2","9","0","1780475","2059.6","7082.6","191034.1","1","4","8","6","2","-8","-9","17","26","0.12878787878787878","1788.5","3000","-425","[""left"",""up""]","{""num_key_presses"":26,""num_perfect"":4,""num_errors"":1,""num_randdir"":21,""num_randdir_good_moves"":9,""num_whilered"":0,""num_whileblue"":0,""num_blue"":9,""num_good_moves"":13}","[337.5892857142857,330.58928523744856,0.1,337.5892857142857,330.58928523744856,139.5,337.5892857142857,330.58928523744856,274.9,337.5892857142857,330.58928523744856,403.2,337.5892857142857,330.58928523744856,537.8,337.5892857142857,330.58928523744856,667.8,337.5892857142857,330.58928523744856,796.5,247.58928571428572,296.83928523744856,949.4,57.589285714285715,144.33928523744856,1101,56.339285714285715,134.33928523744856,1252,76.33928571428572,70.58928523744856,1410,77.58928571428572,68.08928523744856,1553.6,77.58928571428572,68.08928523744856,1683.7,77.58928571428572,68.08928523744856,1822.3,77.58928571428572,68.08928523744856,1964.1,77.58928571428572,68.08928523744856,2117.6,77.58928571428572,68.08928523744856,2255.2,77.58928571428572,68.08928523744856,2390.3,77.58928571428572,68.08928523744856,2552.6,77.58928571428572,68.08928523744856,2712.9,77.58928571428572,68.08928523744856,2861.3,77.58928571428572,68.08928523744856,3011.7,77.58928571428572,68.08928523744856,3148.3,77.58928571428572,68.08928523744856,3282.3,77.58928571428572,68.08928523744856,3427.8,77.58928571428572,68.08928523744856,3569.3,77.58928571428572,68.08928523744856,3710.8,77.58928571428572,68.08928523744856,3856.3,77.58928571428572,68.08928523744856,3967.1,77.58928571428572,68.08928523744856,4070.4,77.58928571428572,68.08928523744856,4204.3,77.58928571428572,68.08928523744856,4345.4,77.58928571428572,68.08928523744856,4487.4,77.58928571428572,68.08928523744856,4626.1,77.58928571428572,68.08928523744856,4757.4,77.58928571428572,68.08928523744856,4888.4]","[1771.6,1771.6,1000,0,771.6,""smooth"",""up"",""up"",""good_move"",13535.6,11758.5,2835.4,1777.1,8923.1,""oops"",""up"",""up"",""good_move"",25634.7,12098.9,2001.5,13535.8,10097.4,""oops"",""up"",""right"",""bad_move"",28982.1,3347.1,2322.5,25635.1,1024.6,""oops"",""up"",""right"",""bad_move"",33220.1,4237.8,2376.2,28982.3,1861.6,""smooth"",""up"",""up"",""good_move"",40158.6,6936.8,3020.9,33221.8,3915.9,""oops"",""left"",""down"",""bad_move"",43988.5,3827.5,2633.4,40161,1194.1,""oops"",""left"",""left"",""good_move"",54846.8,10855.4,2391.7,51296.4,1158.7,""oops"",""left"",""left"",""good_move"",61588,6740.1,2395.4,54847.9,4344.7,""oops"",""left"",""left"",""good_move"",71190.3,9601.4,2515.9,67872.3,802.1,""oops"",""left"",""up"",""good_move"",78048.8,6857.7,2655.7,71191.1,4202,""oops"",""left"",""right"",""bad_move"",86718,8666.3,3440.3,82402.5,875.2,""smooth"",""left"",""left"",""good_move"",94472.3,7751.6,2619.5,86720.8,5132.1,""oops"",""left"",""down"",""bad_move"",98485.6,4010.8,3021.6,94474.9,989.1,""oops"",""left"",""right"",""bad_move"",106185.7,7697.3,2822.8,102704.7,658.2,""smooth"",""left"",""left"",""good_move"",114461.7,8274.8,2176.5,106186.9,6098.3,""oops"",""left"",""up"",""good_move"",121489,7025.9,2629.4,114463.1,4396.5,""oops"",""left"",""left"",""good_move"",128049.3,6554.6,1851.3,121494.7,4703.3,""oops"",""left"",""right"",""bad_move"",137972.2,9920,1827.1,135215.7,929.5,""oops"",""left"",""right"",""bad_move"",140855.9,2879.6,3203.3,137976.3,-323.7,""error"",""-"",""-"",""no_move"",145195.7,4334.7,2468.5,141877,850.2,""oops"",""left"",""right"",""bad_move"",150315,5118.3,2348.3,145196.8,2769.9,""oops"",""left"",""left"",""good_move"",156564.6,6248.5,2019.4,150316.1,4229.1,""oops"",""left"",""down"",""bad_move"",163812.7,7246.5,2420.8,160103.7,1288.3,""oops"",""left"",""up"",""good_move"",173368.1,9553.9,2532.5,170027.8,807.8,""oops"",""left"",""right"",""bad_move"",180089.7,6719.5,2330.3,176650.4,1109.1,""oops"",""left"",""down"",""bad_move""]","",""
"7150","","<div style=""width:500px;"">
  <p>What determined the result of this run?</p>
  </div>","0","html-slider-response","80","1965273","0.0-10.0-1.8","239","1","2025-07-09 09:46:10","7701e855f2ef39aa3fd6c71abdc6918a","102.66.142.105","Mozilla/5.0 (Windows NT 10.0; Win64; x64) AppleWebKit/537.36 (KHTML, like Gecko) Chrome/138.0.0.0 Safari/537.36","WebKit","Chrome","138.0.0.0","Windows","10.0","https://app.prolific.com/","en-US,en;q=0.9","60f41ae35227aa02240ba0d9","686d226cabeef709c732f8e1","686e310849c1251cb5abb92f","60f41ae35227aa02240ba0d9","2025-07-09T10:19:11.753Z","","","","","","AttribQ","","","","","","","","","","","","","","","","","","","","","","","","","","","","","","","","","","","","","","50"
"5691","","<div style=""width:500px;"">
  <p>How much control did you have over the ball?</p>
  </div>","0","html-slider-response","81","1970970","0.0-10.0-2.8","239","1","2025-07-09 09:46:10","7701e855f2ef39aa3fd6c71abdc6918a","102.66.142.105","Mozilla/5.0 (Windows NT 10.0; Win64; x64) AppleWebKit/537.36 (KHTML, like Gecko) Chrome/138.0.0.0 Safari/537.36","WebKit","Chrome","138.0.0.0","Windows","10.0","https://app.prolific.com/","en-US,en;q=0.9","60f41ae35227aa02240ba0d9","686d226cabeef709c732f8e1","686e310849c1251cb5abb92f","60f41ae35227aa02240ba0d9","2025-07-09T10:19:17.450Z","","","","","","ControlQ","","","","","","","","","","","","","","","","","","","","","","","","","","","","","","","","","","","","","","50"
"4712","","<div style=""width:500px;"">
  <p>How would you describe your current emotional state?</p>
  </div>","87","html-slider-response","82","1975687","0.0-10.0-3.8","239","1","2025-07-09 09:46:10","7701e855f2ef39aa3fd6c71abdc6918a","102.66.142.105","Mozilla/5.0 (Windows NT 10.0; Win64; x64) AppleWebKit/537.36 (KHTML, like Gecko) Chrome/138.0.0.0 Safari/537.36","WebKit","Chrome","138.0.0.0","Windows","10.0","https://app.prolific.com/","en-US,en;q=0.9","60f41ae35227aa02240ba0d9","686d226cabeef709c732f8e1","686e310849c1251cb5abb92f","60f41ae35227aa02240ba0d9","2025-07-09T10:19:22.167Z","","","","","","StressQ","","","","","","","","","","","","","","","","","","","","","","","","","","","","","","","","","","","","","","50"
"5222","","<div style=""width:500px;"">
  <p>What best describes how you currently feel?</p>
  </div>","33","html-slider-response","83","1980914","0.0-10.0-4.8","239","1","2025-07-09 09:46:10","7701e855f2ef39aa3fd6c71abdc6918a","102.66.142.105","Mozilla/5.0 (Windows NT 10.0; Win64; x64) AppleWebKit/537.36 (KHTML, like Gecko) Chrome/138.0.0.0 Safari/537.36","WebKit","Chrome","138.0.0.0","Windows","10.0","https://app.prolific.com/","en-US,en;q=0.9","60f41ae35227aa02240ba0d9","686d226cabeef709c732f8e1","686e310849c1251cb5abb92f","60f41ae35227aa02240ba0d9","2025-07-09T10:19:27.394Z","","","","","","MotivationQ","","","","","","","","","","","","","","","","","","","","","","","","","","","","","","","","","","","","","","50"
"","","","","ctl-task-cpt","84","2089787","0.0-10.0-0.9","239","1","2025-07-09 09:46:10","7701e855f2ef39aa3fd6c71abdc6918a","102.66.142.105","Mozilla/5.0 (Windows NT 10.0; Win64; x64) AppleWebKit/537.36 (KHTML, like Gecko) Chrome/138.0.0.0 Safari/537.36","WebKit","Chrome","138.0.0.0","Windows","10.0","https://app.prolific.com/","en-US,en;q=0.9","60f41ae35227aa02240ba0d9","686d226cabeef709c732f8e1","686e310849c1251cb5abb92f","60f41ae35227aa02240ba0d9","2025-07-09T10:21:16.267Z","","","","","","","","","","","","","","","","win-only","1","g1:NE,g2:SW","0.4","10","0","1997343.5","8210.4","13218.7","105815.6","1","4","4","6","2","4","4","21","17","0.1590909090909091","1541.1","3000","1380","[""down"",""left""]","{""num_key_presses"":14,""num_perfect"":7,""num_errors"":0,""num_randdir"":7,""num_randdir_good_moves"":3,""num_whilered"":0,""num_whileblue"":0,""num_blue"":3,""num_good_moves"":10}","[332.5892857142857,335.58928523744856,1.1,332.5892857142857,335.58928523744856,106.3,332.5892857142857,335.58928523744856,461,332.5892857142857,335.58928523744856,568,121.33928571428572,554.3392852374485,870.6,115.08928571428572,560.5892852374485,980.3,62.589285714285715,611.8392852374485,1364.3,62.589285714285715,611.8392852374485,1519.4,62.589285714285715,611.8392852374485,1624.2,62.589285714285715,611.8392852374485,2054.4,62.589285714285715,611.8392852374485,2159.1,62.589285714285715,611.8392852374485,2558.1,62.589285714285715,611.8392852374485,2668.7,62.589285714285715,611.8392852374485,3025.5,62.589285714285715,611.8392852374485,3139.9,238.83928571428572,394.33928523744856,3490,296.3392857142857,346.83928523744856,3590,357.5892857142857,369.33928523744856,3701.5,402.5892857142857,436.83928523744856,3809.5,416.3392857142857,494.33928523744856,4222.8,416.3392857142857,494.33928523744856,4396.6,416.3392857142857,494.33928523744856,4503.1,416.3392857142857,494.33928523744856,4877.3,416.3392857142857,494.33928523744856,4990.4]","[2223.5,2223.6,1000,0,1223.6,""smooth"",""left"",""left"",""good_move"",12994.7,10769.5,2594.1,9784.5,616.1,""smooth"",""left"",""left"",""good_move"",20986,7990.3,1772.7,12995.8,6217.5,""oops"",""left"",""left"",""good_move"",28425.6,7439,1917,20986.6,5522,""oops"",""down"",""right"",""bad_move"",32487.6,4060.5,2433,28427.1,1627.5,""oops"",""down"",""up"",""bad_move"",49597.3,17107.7,2477.1,45523.7,1596.5,""smooth"",""down"",""down"",""good_move"",53391.4,3793,2780.3,49598.4,1012.7,""oops"",""down"",""up"",""bad_move"",61892.9,8500.2,2216.1,53392.8,6284.1,""oops"",""down"",""up"",""bad_move"",69821.5,7927.7,3277.2,61893.9,4650.4,""oops"",""down"",""left"",""good_move"",77475.9,7653.3,2276.2,69822.6,5377.1,""smooth"",""down"",""down"",""good_move"",80432,2952.1,1411.5,77480,1540.5,""smooth"",""down"",""down"",""good_move"",83822.6,3389.1,2692.3,80433.7,696.7,""smooth"",""down"",""down"",""good_move"",87348.4,3514.4,2411.5,83834,1102.9,""smooth"",""down"",""down"",""good_move"",91193.6,3821.5,3088.6,87372.1,732.9,""oops"",""down"",""down"",""good_move""]","",""
"4668","","<div style=""width:500px;"">
  <p>What determined the result of this run?</p>
  </div>","73","html-slider-response","85","2094462","0.0-10.0-1.9","239","1","2025-07-09 09:46:10","7701e855f2ef39aa3fd6c71abdc6918a","102.66.142.105","Mozilla/5.0 (Windows NT 10.0; Win64; x64) AppleWebKit/537.36 (KHTML, like Gecko) Chrome/138.0.0.0 Safari/537.36","WebKit","Chrome","138.0.0.0","Windows","10.0","https://app.prolific.com/","en-US,en;q=0.9","60f41ae35227aa02240ba0d9","686d226cabeef709c732f8e1","686e310849c1251cb5abb92f","60f41ae35227aa02240ba0d9","2025-07-09T10:21:20.942Z","","","","","","AttribQ","","","","","","","","","","","","","","","","","","","","","","","","","","","","","","","","","","","","","","50"
"5698","","<div style=""width:500px;"">
  <p>How much control did you have over the ball?</p>
  </div>","66","html-slider-response","86","2100167","0.0-10.0-2.9","239","1","2025-07-09 09:46:10","7701e855f2ef39aa3fd6c71abdc6918a","102.66.142.105","Mozilla/5.0 (Windows NT 10.0; Win64; x64) AppleWebKit/537.36 (KHTML, like Gecko) Chrome/138.0.0.0 Safari/537.36","WebKit","Chrome","138.0.0.0","Windows","10.0","https://app.prolific.com/","en-US,en;q=0.9","60f41ae35227aa02240ba0d9","686d226cabeef709c732f8e1","686e310849c1251cb5abb92f","60f41ae35227aa02240ba0d9","2025-07-09T10:21:26.647Z","","","","","","ControlQ","","","","","","","","","","","","","","","","","","","","","","","","","","","","","","","","","","","","","","50"
"34460","","<div style=""width:500px;"">
  <p>How would you describe your current emotional state?</p>
