"rt","response_timestamp","stimulus","response","trial_type","trial_index","time_elapsed","internal_node_id","run_id","condition","recorded_at","source_code_version","ip","user_agent","device","browser","browser_version","platform","platform_version","referer","accept_language","PROLIFIC_PID","STUDY_ID","SESSION_ID","prolific_id","realtime","view_history","question_order","consent","success","question_id","eventType","responses","item_order","radio_event_ids","radio_event_times","key_event_times","mouse_event_times","straightlining","zigzagging","honeypot","which_type","canvas_config","goals_layout","control_level","trial_number","tutorial_trial_number","trial_start_time","phase1_start_time","phase2_start_time","phase3_start_time","goal_1_value","goal_1_distance","goal_2_value","goal_2_distance","goal_selected","outcome","outcome_total","participant_final_score","participant_initial_score","participant_final_score_prop","goal_choice_rt","allocated_time","allocated_time_remaining","goal_direction","counts","mouse_movements","key_presses","correct","slider_start"
"8444","1752052012166","<p style='font-size:40px;line-height:1.25'><strong>Welcome to the experiment!</strong></p><p style='font-size:1.1em;line-height:1.25'>Thank you for your interest in our experiment! Before you begin, it is important that we obtain your informed consent to participate in the study.</p><p style='font-size:1.1em;line-height:1.25'>On the next screen will be an <strong>information sheet</strong> for you to read. To participate in the study we need you to read this information sheet and the following consent form carefully. If you agree with all the statements, please click the <strong>I agree</strong> button.</p><p style='font-size:1.1em;line-height:1.25'>Press <strong>Next</strong> to read the information sheet.</p>","0","custom-html-button-response","0","8445","0.0-0.0","17","1","2025-07-09 09:06:42","7701e855f2ef39aa3fd6c71abdc6918a","82.146.238.62","Mozilla/5.0 (Windows NT 10.0; Win64; x64) AppleWebKit/537.36 (KHTML, like Gecko) Chrome/138.0.0.0 Safari/537.36","WebKit","Chrome","138.0.0.0","Windows","10.0","https://app.prolific.com/","pl-PL,pl;q=0.9,en-US;q=0.8,en;q=0.7","6171357438c12a4317bbdede","686d226cabeef709c732f8e1","686e3113b15c5da6427a5929","6171357438c12a4317bbdede","2025-07-09T09:06:52.167Z","","","","","","","","","","","","","","","","","","","","","","","","","","","","","","","","","","","","","","","","","","","",""
"57815","","","","instructions","1","66261","0.0-1.0","17","1","2025-07-09 09:06:42","7701e855f2ef39aa3fd6c71abdc6918a","82.146.238.62","Mozilla/5.0 (Windows NT 10.0; Win64; x64) AppleWebKit/537.36 (KHTML, like Gecko) Chrome/138.0.0.0 Safari/537.36","WebKit","Chrome","138.0.0.0","Windows","10.0","https://app.prolific.com/","pl-PL,pl;q=0.9,en-US;q=0.8,en;q=0.7","6171357438c12a4317bbdede","686d226cabeef709c732f8e1","686e3113b15c5da6427a5929","6171357438c12a4317bbdede","","[{""page_index"":0,""viewing_time"":40071},{""page_index"":1,""viewing_time"":17744}]","","","","","","","","","","","","","","","","","","","","","","","","","","","","","","","","","","","","","","","","","","",""
"14912","","","{""Q0"":"""",""Q1"":"""",""Q2"":"""",""Q3"":"""",""Q4"":"""",""Q5"":"""",""Q6"":""I agree""}","survey-multi-choice","2","81174","0.0-2.0","17","1","2025-07-09 09:06:42","7701e855f2ef39aa3fd6c71abdc6918a","82.146.238.62","Mozilla/5.0 (Windows NT 10.0; Win64; x64) AppleWebKit/537.36 (KHTML, like Gecko) Chrome/138.0.0.0 Safari/537.36","WebKit","Chrome","138.0.0.0","Windows","10.0","https://app.prolific.com/","pl-PL,pl;q=0.9,en-US;q=0.8,en;q=0.7","6171357438c12a4317bbdede","686d226cabeef709c732f8e1","686e3113b15c5da6427a5929","6171357438c12a4317bbdede","","","[0,1,2,3,4,5,6]","true","","","","","","","","","","","","","","","","","","","","","","","","","","","","","","","","","","","","","","","","",""
"23646","","","","fullscreen","3","105837","0.0-4.0","17","1","2025-07-09 09:06:42","7701e855f2ef39aa3fd6c71abdc6918a","82.146.238.62","Mozilla/5.0 (Windows NT 10.0; Win64; x64) AppleWebKit/537.36 (KHTML, like Gecko) Chrome/138.0.0.0 Safari/537.36","WebKit","Chrome","138.0.0.0","Windows","10.0","https://app.prolific.com/","pl-PL,pl;q=0.9,en-US;q=0.8,en;q=0.7","6171357438c12a4317bbdede","686d226cabeef709c732f8e1","686e3113b15c5da6427a5929","6171357438c12a4317bbdede","","","","","true","","","","","","","","","","","","","","","","","","","","","","","","","","","","","","","","","","","","","","","",""
"3461","1752052113022"," <p style='font-size:1.1em;line-height:1.25'>Thank you for completing the consent form and closing all other tabs.</p><p style='font-size:1.1em;line-height:1.25'>We will now invite you to fill in some demographic information and questionnaires, before starting the game.<br>This will take about 5 minutes.<br></p><p style='font-size:1.1em;line-height:1.25'>Press the <strong>Next</strong> button to continue.</p>","0","custom-html-button-response","4","109301","0.0-5.0","17","1","2025-07-09 09:06:42","7701e855f2ef39aa3fd6c71abdc6918a","82.146.238.62","Mozilla/5.0 (Windows NT 10.0; Win64; x64) AppleWebKit/537.36 (KHTML, like Gecko) Chrome/138.0.0.0 Safari/537.36","WebKit","Chrome","138.0.0.0","Windows","10.0","https://app.prolific.com/","pl-PL,pl;q=0.9,en-US;q=0.8,en;q=0.7","6171357438c12a4317bbdede","686d226cabeef709c732f8e1","686e3113b15c5da6427a5929","6171357438c12a4317bbdede","2025-07-09T09:08:33.023Z","","","","","","","","","","","","","","","","","","","","","","","","","","","","","","","","","","","","","","","","","","","",""
"2743","","","{""age"":""29""}","survey-text","5","112045","0.0-6.0-0.0","17","1","2025-07-09 09:06:42","7701e855f2ef39aa3fd6c71abdc6918a","82.146.238.62","Mozilla/5.0 (Windows NT 10.0; Win64; x64) AppleWebKit/537.36 (KHTML, like Gecko) Chrome/138.0.0.0 Safari/537.36","WebKit","Chrome","138.0.0.0","Windows","10.0","https://app.prolific.com/","pl-PL,pl;q=0.9,en-US;q=0.8,en;q=0.7","6171357438c12a4317bbdede","686d226cabeef709c732f8e1","686e3113b15c5da6427a5929","6171357438c12a4317bbdede","","","","","","0","demographics","","","","","","","","","","","","","","","","","","","","","","","","","","","","","","","","","","","","","",""
"1647","","","{""gender_identity"":""female/woman""}","survey-multi-choice","6","113693","0.0-6.0-1.0","17","1","2025-07-09 09:06:42","7701e855f2ef39aa3fd6c71abdc6918a","82.146.238.62","Mozilla/5.0 (Windows NT 10.0; Win64; x64) AppleWebKit/537.36 (KHTML, like Gecko) Chrome/138.0.0.0 Safari/537.36","WebKit","Chrome","138.0.0.0","Windows","10.0","https://app.prolific.com/","pl-PL,pl;q=0.9,en-US;q=0.8,en;q=0.7","6171357438c12a4317bbdede","686d226cabeef709c732f8e1","686e3113b15c5da6427a5929","6171357438c12a4317bbdede","","","[0]","","","1","demographics","","","","","","","","","","","","","","","","","","","","","","","","","","","","","","","","","","","","","",""
"1695","","","{""assigned_sex"":""female""}","survey-multi-choice","7","115389","0.0-6.0-2.0","17","1","2025-07-09 09:06:42","7701e855f2ef39aa3fd6c71abdc6918a","82.146.238.62","Mozilla/5.0 (Windows NT 10.0; Win64; x64) AppleWebKit/537.36 (KHTML, like Gecko) Chrome/138.0.0.0 Safari/537.36","WebKit","Chrome","138.0.0.0","Windows","10.0","https://app.prolific.com/","pl-PL,pl;q=0.9,en-US;q=0.8,en;q=0.7","6171357438c12a4317bbdede","686d226cabeef709c732f8e1","686e3113b15c5da6427a5929","6171357438c12a4317bbdede","","","[0]","","","2","demographics","","","","","","","","","","","","","","","","","","","","","","","","","","","","","","","","","","","","","",""
"2791","","","{""menstrual_cycle"":""Yes""}","survey-multi-choice","8","118181","0.0-6.0-3.0","17","1","2025-07-09 09:06:42","7701e855f2ef39aa3fd6c71abdc6918a","82.146.238.62","Mozilla/5.0 (Windows NT 10.0; Win64; x64) AppleWebKit/537.36 (KHTML, like Gecko) Chrome/138.0.0.0 Safari/537.36","WebKit","Chrome","138.0.0.0","Windows","10.0","https://app.prolific.com/","pl-PL,pl;q=0.9,en-US;q=0.8,en;q=0.7","6171357438c12a4317bbdede","686d226cabeef709c732f8e1","686e3113b15c5da6427a5929","6171357438c12a4317bbdede","","","[0]","","","4","demographics","","","","","","","","","","","","","","","","","","","","","","","","","","","","","","","","","","","","","",""
"6344","","","{""education"":""Master's Degree (e.g., MSc)""}","survey-multi-choice","9","124525","0.0-6.0-4.0","17","1","2025-07-09 09:06:42","7701e855f2ef39aa3fd6c71abdc6918a","82.146.238.62","Mozilla/5.0 (Windows NT 10.0; Win64; x64) AppleWebKit/537.36 (KHTML, like Gecko) Chrome/138.0.0.0 Safari/537.36","WebKit","Chrome","138.0.0.0","Windows","10.0","https://app.prolific.com/","pl-PL,pl;q=0.9,en-US;q=0.8,en;q=0.7","6171357438c12a4317bbdede","686d226cabeef709c732f8e1","686e3113b15c5da6427a5929","6171357438c12a4317bbdede","","","[0]","","","5","demographics","","","","","","","","","","","","","","","","","","","","","","","","","","","","","","","","","","","","","",""
"6127","","","{""education"":""Higher National Diploma""}","survey-multi-choice","10","130653","0.0-6.0-5.0","17","1","2025-07-09 09:06:42","7701e855f2ef39aa3fd6c71abdc6918a","82.146.238.62","Mozilla/5.0 (Windows NT 10.0; Win64; x64) AppleWebKit/537.36 (KHTML, like Gecko) Chrome/138.0.0.0 Safari/537.36","WebKit","Chrome","138.0.0.0","Windows","10.0","https://app.prolific.com/","pl-PL,pl;q=0.9,en-US;q=0.8,en;q=0.7","6171357438c12a4317bbdede","686d226cabeef709c732f8e1","686e3113b15c5da6427a5929","6171357438c12a4317bbdede","2025-07-09T09:08:54.376Z","","[0]","","","6","demographics","","","","","","","","","","","","","","","","","","","","","","","","","","","","","","","","","","","","","",""
"9094","","","{""mental_health_condition"":""no"",""mental_health_treatment"":""no"",""psychiatric_medication"":""""}","survey-text","11","139749","0.0-7.0-0.0","17","1","2025-07-09 09:06:42","7701e855f2ef39aa3fd6c71abdc6918a","82.146.238.62","Mozilla/5.0 (Windows NT 10.0; Win64; x64) AppleWebKit/537.36 (KHTML, like Gecko) Chrome/138.0.0.0 Safari/537.36","WebKit","Chrome","138.0.0.0","Windows","10.0","https://app.prolific.com/","pl-PL,pl;q=0.9,en-US;q=0.8,en;q=0.7","6171357438c12a4317bbdede","686d226cabeef709c732f8e1","686e3113b15c5da6427a5929","6171357438c12a4317bbdede","2025-07-09T09:09:03.471Z","","","","","1","mental_health","","","","","","","","","","","","","","","","","","","","","","","","","","","","","","","","","","","","","",""
"6503","","","{""depression_history"":[""Yes""]}","survey-multi-select","12","146253","0.0-7.0-1.0","17","1","2025-07-09 09:06:42","7701e855f2ef39aa3fd6c71abdc6918a","82.146.238.62","Mozilla/5.0 (Windows NT 10.0; Win64; x64) AppleWebKit/537.36 (KHTML, like Gecko) Chrome/138.0.0.0 Safari/537.36","WebKit","Chrome","138.0.0.0","Windows","10.0","https://app.prolific.com/","pl-PL,pl;q=0.9,en-US;q=0.8,en;q=0.7","6171357438c12a4317bbdede","686d226cabeef709c732f8e1","686e3113b15c5da6427a5929","6171357438c12a4317bbdede","","","[0]","","","","mental_health","","","","","","","","","","","","","","","","","","","","","","","","","","","","","","","","","","","","","",""
"7775","","","{""depression_episodes"":""more than 5"",""depression_recent"":""Within the past year""}","survey-multi-choice","13","154029","0.0-7.0-2.0-0.0","17","1","2025-07-09 09:06:42","7701e855f2ef39aa3fd6c71abdc6918a","82.146.238.62","Mozilla/5.0 (Windows NT 10.0; Win64; x64) AppleWebKit/537.36 (KHTML, like Gecko) Chrome/138.0.0.0 Safari/537.36","WebKit","Chrome","138.0.0.0","Windows","10.0","https://app.prolific.com/","pl-PL,pl;q=0.9,en-US;q=0.8,en;q=0.7","6171357438c12a4317bbdede","686d226cabeef709c732f8e1","686e3113b15c5da6427a5929","6171357438c12a4317bbdede","2025-07-09T09:09:17.751Z","","[0,1]","","","3","mental_health","","","","","","","","","","","","","","","","","","","","","","","","","","","","","","","","","","","","","",""
"46223.800000000745","","","","survey-template","14","200256","0.0-7.0-3.0","17","1","2025-07-09 09:06:42","7701e855f2ef39aa3fd6c71abdc6918a","82.146.238.62","Mozilla/5.0 (Windows NT 10.0; Win64; x64) AppleWebKit/537.36 (KHTML, like Gecko) Chrome/138.0.0.0 Safari/537.36","WebKit","Chrome","138.0.0.0","Windows","10.0","https://app.prolific.com/","pl-PL,pl;q=0.9,en-US;q=0.8,en;q=0.7","6171357438c12a4317bbdede","686d226cabeef709c732f8e1","686e3113b15c5da6427a5929","6171357438c12a4317bbdede","2025-07-09T09:10:03.978Z","","","","","","ius","{""Q01"":""3"",""Q02"":""4"",""Q03"":""2"",""Q04"":""2"",""Q05"":""1"",""Q06"":""0"",""Q07"":""1"",""Q08"":""0"",""Q09"":""1"",""Q10"":""0"",""Q11"":""1"",""Q12"":""2"",""Q13"":""0""}","[0,1,2,3,4,5,6,7,8,9,10,11,12]","[""Q01"",""Q02"",""Q03"",""Q04"",""Q05"",""Q06"",""Q07"",""Q08"",""Q09"",""Q10"",""Q11"",""Q12"",""Q13""]","[5013.9000000003725,8765.900000000373,13317.800000000745,17261.900000000373,21197.900000000373,24701.900000000373,27966,30661.900000000373,34317.800000000745,37181.90000000037,39933.90000000037,42597.90000000037,45485.90000000037]","[]","[5013.9000000003725,7334,8341.800000000745,8765.900000000373,13317.800000000745,17261.900000000373,21197.900000000373,24142,24701.900000000373,27582,27966,30661.900000000373,34317.800000000745,37181.90000000037,39933.90000000037,42597.90000000037,45485.90000000037,46221.90000000037]","0.3076923076923077","0.75","0","","","","","","","","","","","","","","","","","","","","","","","","","","","","",""
"2989","1752052206967","<p style='font-size:1.1em;line-height:1.25'>In the following, we will ask you a few questions relating to your experiences over the past month.<br></p><p style='font-size:1.1em;line-height:1.25'>Press the <strong>Next</strong> button to continue.</p>","0","custom-html-button-response","15","203245","0.0-7.0-4.0","17","1","2025-07-09 09:06:42","7701e855f2ef39aa3fd6c71abdc6918a","82.146.238.62","Mozilla/5.0 (Windows NT 10.0; Win64; x64) AppleWebKit/537.36 (KHTML, like Gecko) Chrome/138.0.0.0 Safari/537.36","WebKit","Chrome","138.0.0.0","Windows","10.0","https://app.prolific.com/","pl-PL,pl;q=0.9,en-US;q=0.8,en;q=0.7","6171357438c12a4317bbdede","686d226cabeef709c732f8e1","686e3113b15c5da6427a5929","6171357438c12a4317bbdede","2025-07-09T09:10:06.967Z","","","","","","","","","","","","","","","","","","","","","","","","","","","","","","","","","","","","","","","","","","","",""
"44121","","","","survey-template","16","247368","0.0-7.0-5.0","17","1","2025-07-09 09:06:42","7701e855f2ef39aa3fd6c71abdc6918a","82.146.238.62","Mozilla/5.0 (Windows NT 10.0; Win64; x64) AppleWebKit/537.36 (KHTML, like Gecko) Chrome/138.0.0.0 Safari/537.36","WebKit","Chrome","138.0.0.0","Windows","10.0","https://app.prolific.com/","pl-PL,pl;q=0.9,en-US;q=0.8,en;q=0.7","6171357438c12a4317bbdede","686d226cabeef709c732f8e1","686e3113b15c5da6427a5929","6171357438c12a4317bbdede","2025-07-09T09:10:51.090Z","","","","","","pss","{""Q01"":""2"",""Q02"":""4"",""Q03"":""4"",""Q04"":""3"",""Q05"":""3"",""Q06"":""4"",""Q07"":""3"",""Q08"":""2"",""Q09"":""3"",""Q10"":""3""}","[0,1,2,3,4,5,6,7,8,9]","[""Q01"",""Q02"",""Q03"",""Q04"",""Q05"",""Q06"",""Q07"",""Q08"",""Q08"",""Q09"",""Q10""]","[8135.0999999996275,11447.099999999627,13599.099999999627,17719.099999999627,21535,25575.099999999627,31431,34311,35895.09999999963,39918.90000000037,43607]","[]","[0,7551,8135.0999999996275,11447.099999999627,13599.099999999627,17719.099999999627,21535,25575.099999999627,30631.099999999627,31111.400000000373,31431,34311,35895.09999999963,39918.90000000037,43607,44119.09999999963]","0.3","0.2222222222222222","0","","","","","","","","","","","","","","","","","","","","","","","","","","","","",""
"1789","1752052252879","<p style='font-size:1.1em;line-height:1.25'>Thank you for your answers! Now we will ask you a few more questions relating to your feelings in the last 24 hours.<br></p><p style='font-size:1.1em;line-height:1.25'>Press the <strong>Next</strong> button to continue.</p>","0","custom-html-button-response","17","249157","0.0-7.0-6.0","17","1","2025-07-09 09:06:42","7701e855f2ef39aa3fd6c71abdc6918a","82.146.238.62","Mozilla/5.0 (Windows NT 10.0; Win64; x64) AppleWebKit/537.36 (KHTML, like Gecko) Chrome/138.0.0.0 Safari/537.36","WebKit","Chrome","138.0.0.0","Windows","10.0","https://app.prolific.com/","pl-PL,pl;q=0.9,en-US;q=0.8,en;q=0.7","6171357438c12a4317bbdede","686d226cabeef709c732f8e1","686e3113b15c5da6427a5929","6171357438c12a4317bbdede","2025-07-09T09:10:52.879Z","","","","","","","","","","","","","","","","","","","","","","","","","","","","","","","","","","","","","","","","","","","",""
"64441.699999999255","","","","survey-template","18","313601","0.0-7.0-7.0","17","1","2025-07-09 09:06:42","7701e855f2ef39aa3fd6c71abdc6918a","82.146.238.62","Mozilla/5.0 (Windows NT 10.0; Win64; x64) AppleWebKit/537.36 (KHTML, like Gecko) Chrome/138.0.0.0 Safari/537.36","WebKit","Chrome","138.0.0.0","Windows","10.0","https://app.prolific.com/","pl-PL,pl;q=0.9,en-US;q=0.8,en;q=0.7","6171357438c12a4317bbdede","686d226cabeef709c732f8e1","686e3113b15c5da6427a5929","6171357438c12a4317bbdede","2025-07-09T09:11:57.323Z","","","","","","drsp","{""Q01"":""5"",""Q02"":""5"",""Q03"":""5"",""Q04"":""5"",""Q05"":""4"",""Q06"":""4"",""Q07"":""2"",""Q08"":""2"",""Q09"":""4"",""Q10"":""0"",""Q11"":""5"",""Q12"":""0"",""Q13"":""0"",""Q14"":""1"",""Q15"":""4"",""Q16"":""4"",""Q17"":""5"",""Q18"":""0"",""Q19"":""1"",""Q20"":""1"",""Q21"":""3""}","[0,1,2,3,4,5,6,7,8,9,10,11,12,13,14,15,16,17,18,19,20]","[""Q01"",""Q02"",""Q03"",""Q04"",""Q05"",""Q06"",""Q07"",""Q08"",""Q08"",""Q09"",""Q10"",""Q11"",""Q12"",""Q13"",""Q14"",""Q15"",""Q15"",""Q16"",""Q17"",""Q18"",""Q19"",""Q19"",""Q20"",""Q21""]","[3894.5,6118.4000000003725,6974.5,8462.599999999627,10254.5,13414.400000000373,15830.5,17854.5,19286.400000000373,22430.400000000373,25046.400000000373,28030.400000000373,29902.5,31806.400000000373,35430.40000000037,37918.40000000037,41086.40000000037,43246.40000000037,45198.300000000745,47654.40000000037,51918.40000000037,54134.300000000745,59718.300000000745,63846.40000000037]","[]","[0,3894.5,6118.4000000003725,6974.5,8462.599999999627,10254.5,13414.400000000373,15830.5,17854.5,19286.400000000373,22430.400000000373,25046.400000000373,28030.400000000373,29902.5,31806.400000000373,35430.40000000037,37406.5,37918.40000000037,41086.40000000037,42774.5,43246.40000000037,45198.300000000745,47654.40000000037,51918.40000000037,54134.300000000745,59718.300000000745,63846.40000000037,64438.5]","0.2857142857142857","0.35","0","","","","","","","","","","","","","","","","","","","","","","","","","","","","",""
"9051.699999999255","","","","survey-template","19","322654","0.0-7.0-8.0","17","1","2025-07-09 09:06:42","7701e855f2ef39aa3fd6c71abdc6918a","82.146.238.62","Mozilla/5.0 (Windows NT 10.0; Win64; x64) AppleWebKit/537.36 (KHTML, like Gecko) Chrome/138.0.0.0 Safari/537.36","WebKit","Chrome","138.0.0.0","Windows","10.0","https://app.prolific.com/","pl-PL,pl;q=0.9,en-US;q=0.8,en;q=0.7","6171357438c12a4317bbdede","686d226cabeef709c732f8e1","686e3113b15c5da6427a5929","6171357438c12a4317bbdede","2025-07-09T09:12:06.376Z","","","","","","stress","{""Q01"":""5"",""Q02"":""5"",""Q03"":""5""}","[0,1,2]","[""Q01"",""Q02"",""Q03""]","[3643,5867.0999999996275,8595]","[]","[3643,5867.0999999996275,8595,9051]","0.6666666666666666","1","0","","","","","","","","","","","","","","","","","","","","","","","","","","","","",""
"62639","","","","instructions","20","385293","0.0-8.0-0.0","17","1","2025-07-09 09:06:42","7701e855f2ef39aa3fd6c71abdc6918a","82.146.238.62","Mozilla/5.0 (Windows NT 10.0; Win64; x64) AppleWebKit/537.36 (KHTML, like Gecko) Chrome/138.0.0.0 Safari/537.36","WebKit","Chrome","138.0.0.0","Windows","10.0","https://app.prolific.com/","pl-PL,pl;q=0.9,en-US;q=0.8,en;q=0.7","6171357438c12a4317bbdede","686d226cabeef709c732f8e1","686e3113b15c5da6427a5929","6171357438c12a4317bbdede","","[{""page_index"":0,""viewing_time"":14135},{""page_index"":1,""viewing_time"":27840},{""page_index"":2,""viewing_time"":10720},{""page_index"":3,""viewing_time"":9944}]","","","","","","","","","","","","","","","","","","","","","","","","","","","","","","","","","","","","","","","","","","",""
"","","","","ctl-task-cpt","21","419428","0.0-8.0-1.0","17","1","2025-07-09 09:06:42","7701e855f2ef39aa3fd6c71abdc6918a","82.146.238.62","Mozilla/5.0 (Windows NT 10.0; Win64; x64) AppleWebKit/537.36 (KHTML, like Gecko) Chrome/138.0.0.0 Safari/537.36","WebKit","Chrome","138.0.0.0","Windows","10.0","https://app.prolific.com/","pl-PL,pl;q=0.9,en-US;q=0.8,en;q=0.7","6171357438c12a4317bbdede","686d226cabeef709c732f8e1","686e3113b15c5da6427a5929","6171357438c12a4317bbdede","","","","","","","","","","","","","","","","","win-only","1","g1:NE,g2:SW","1","0","1","386629.5","2008.8","6011.9","31128","2","4","4","6","1","2","0","0","0","0","2148.9","4000","2390","[""up"",""right""]","{""num_key_presses"":6,""num_perfect"":4,""num_errors"":2,""num_randdir"":0,""num_randdir_good_moves"":0,""num_whilered"":0,""num_whileblue"":0,""num_blue"":3,""num_good_moves"":4}","[403.9683035714286,393.8745535714286,1.1,402.9683035714286,393.8745535714286,108.2,402.9683035714286,393.8745535714286,212.5,402.9683035714286,393.8745535714286,312.8,402.9683035714286,399.8745535714286,417.6,404.9683035714286,407.8745535714286,522.2,411.9683035714286,404.8745535714286,622.2,444.9683035714286,375.8745535714286,722.8,460.9683035714286,360.8745535714286,826.8,468.9683035714286,350.8745535714286,927.5,468.9683035714286,350.8745535714286,1028.1,468.9683035714286,350.8745535714286,1131.5,468.9683035714286,347.8745535714286,1232,468.9683035714286,347.8745535714286,1332.6,468.9683035714286,343.8745535714286,1437.1,450.9683035714286,367.8745535714286,1537.4,422.9683035714286,406.8745535714286,1641.6,440.9683035714286,385.8745535714286,1742.1,540.9683035714286,262.8745535714286,1842.7,672.9683035714286,116.87455357142856,1943.2,697.9683035714286,83.87455357142856,2043.4,706.9683035714286,76.87455357142856,2143.4,706.9683035714286,76.87455357142856,2247.3,706.9683035714286,81.87455357142856,2347.5,697.9683035714286,132.87455357142858,2447.6,703.9683035714286,232.87455357142858,2547.7,707.9683035714286,269.8745535714286,2651.7,707.9683035714286,271.8745535714286,2752.3,707.9683035714286,271.8745535714286,2853.8,707.9683035714286,271.8745535714286,2957.1,707.9683035714286,271.8745535714286,3061.9,707.9683035714286,271.8745535714286,3162.1,707.9683035714286,271.8745535714286,3263.8,707.9683035714286,271.8745535714286,3363.8,707.9683035714286,271.8745535714286,3467,707.9683035714286,271.8745535714286,3567.3,706.9683035714286,274.8745535714286,3673.5,706.9683035714286,274.8745535714286,3778.1,706.9683035714286,274.8745535714286,3881.6,706.9683035714286,274.8745535714286,3982.2]","[369.2,369.3,1000,0,-630.7,""error"",""-"",""-"",""no_move"",7684.8,7314.4,2638.3,4659.2,387.3,""smooth"",""up"",""up"",""good_move"",8153.6,466.2,2825.2,7687.5,-2359.1,""error"",""-"",""-"",""no_move"",12085,3931.3,2477.8,9154.5,452.8,""smooth"",""right"",""right"",""good_move"",18665.9,6578.9,2480,15750.1,435.9,""smooth"",""up"",""up"",""good_move"",25018.1,6350.9,2472.8,22153.9,391.4,""smooth"",""right"",""right"",""good_move""]","",""
"9536","","","","instructions","22","428966","0.0-8.0-2.0","17","1","2025-07-09 09:06:42","7701e855f2ef39aa3fd6c71abdc6918a","82.146.238.62","Mozilla/5.0 (Windows NT 10.0; Win64; x64) AppleWebKit/537.36 (KHTML, like Gecko) Chrome/138.0.0.0 Safari/537.36","WebKit","Chrome","138.0.0.0","Windows","10.0","https://app.prolific.com/","pl-PL,pl;q=0.9,en-US;q=0.8,en;q=0.7","6171357438c12a4317bbdede","686d226cabeef709c732f8e1","686e3113b15c5da6427a5929","6171357438c12a4317bbdede","","[{""page_index"":0,""viewing_time"":9536}]","","","","","","","","","","","","","","","","","","","","","","","","","","","","","","","","","","","","","","","","","","",""
"","","","","ctl-task-cpt","23","464609","0.0-8.0-3.0","17","1","2025-07-09 09:06:42","7701e855f2ef39aa3fd6c71abdc6918a","82.146.238.62","Mozilla/5.0 (Windows NT 10.0; Win64; x64) AppleWebKit/537.36 (KHTML, like Gecko) Chrome/138.0.0.0 Safari/537.36","WebKit","Chrome","138.0.0.0","Windows","10.0","https://app.prolific.com/","pl-PL,pl;q=0.9,en-US;q=0.8,en;q=0.7","6171357438c12a4317bbdede","686d226cabeef709c732f8e1","686e3113b15c5da6427a5929","6171357438c12a4317bbdede","","","","","","","","","","","","","","","","","win-only","1","g1:NE,g2:SW","0.35","0","3","430299","900","4907.4","32635.4","2","4","8","6","1","-2","-2","0","0","0","1788.1","4000","-2700","[""up"",""right""]","{""num_key_presses"":9,""num_perfect"":3,""num_errors"":0,""num_randdir"":6,""num_randdir_good_moves"":2,""num_whilered"":0,""num_whileblue"":0,""num_blue"":0,""num_good_moves"":5}","[394.9683035714286,404.8745535714286,0,394.9683035714286,404.8745535714286,100.2,394.9683035714286,404.8745535714286,200.6,394.9683035714286,404.8745535714286,301.5,394.9683035714286,404.8745535714286,402.5,394.9683035714286,404.8745535714286,503,394.9683035714286,404.8745535714286,605.5,394.9683035714286,404.8745535714286,706,395.9683035714286,402.8745535714286,811.3,640.9683035714286,227.87455357142858,916.5,683.9683035714286,162.87455357142858,1021.1,694.9683035714286,156.87455357142858,1125.9,708.9683035714286,137.87455357142858,1230.3,709.9683035714286,133.87455357142858,1331.7,709.9683035714286,133.87455357142858,1436.9,709.9683035714286,126.87455357142856,1541.1,712.9683035714286,114.87455357142856,1646.2,718.9683035714286,95.87455357142856,1746.3,718.9683035714286,95.87455357142856,1849.8,718.9683035714286,95.87455357142856,1955.2,713.9683035714286,112.87455357142856,2055.9,683.9683035714286,226.87455357142858,2156.1,673.9683035714286,370.8745535714286,2260.4,666.9683035714286,413.8745535714286,2361,666.9683035714286,413.8745535714286,2465.8,666.9683035714286,413.8745535714286,2570.4,666.9683035714286,413.8745535714286,2671.2,666.9683035714286,413.8745535714286,2771.2,666.9683035714286,413.8745535714286,2871.2,666.9683035714286,413.8745535714286,2971.2,666.9683035714286,413.8745535714286,3075.9,666.9683035714286,413.8745535714286,3180.4,666.9683035714286,413.8745535714286,3281.1,666.9683035714286,413.8745535714286,3385.4,666.9683035714286,413.8745535714286,3485.4,666.9683035714286,413.8745535714286,3591,666.9683035714286,413.8745535714286,3691,666.9683035714286,413.8745535714286,3795.9,666.9683035714286,413.8745535714286,3896,666.9683035714286,413.8745535714286,3996.2]","[1547.9,1547.9,1000,0,547.9,""oops"",""up"",""left"",""bad_move"",6028.6,4480,4099.1,1548.6,380.9,""smooth"",""right"",""right"",""good_move"",8389.1,2360.2,1572.8,6028.9,787.4,""oops"",""right"",""down"",""bad_move"",11892.2,3501.8,2859.8,8390.5,641.9,""oops"",""right"",""up"",""good_move"",14956.1,3063.2,2708,11892.9,355.2,""smooth"",""right"",""right"",""good_move"",16924.7,1968.3,1641.5,14956.4,326.8,""oops"",""up"",""left"",""bad_move"",19588,2662.9,2274.4,16925.1,388.5,""smooth"",""right"",""right"",""good_move"",22147.6,2559.3,2257,19588.3,302.3,""oops"",""up"",""up"",""good_move"",25419.8,3272,2932,22147.8,340,""oops"",""right"",""left"",""bad_move""]","",""
"20507","","","","instructions","24","485118","0.0-8.0-4.0","17","1","2025-07-09 09:06:42","7701e855f2ef39aa3fd6c71abdc6918a","82.146.238.62","Mozilla/5.0 (Windows NT 10.0; Win64; x64) AppleWebKit/537.36 (KHTML, like Gecko) Chrome/138.0.0.0 Safari/537.36","WebKit","Chrome","138.0.0.0","Windows","10.0","https://app.prolific.com/","pl-PL,pl;q=0.9,en-US;q=0.8,en;q=0.7","6171357438c12a4317bbdede","686d226cabeef709c732f8e1","686e3113b15c5da6427a5929","6171357438c12a4317bbdede","","[{""page_index"":0,""viewing_time"":6211},{""page_index"":1,""viewing_time"":14296}]","","","","","","","","","","","","","","","","","","","","","","","","","","","","","","","","","","","","","","","","","","",""
"5751","","","{""green_ball"":[""Ball sometimes shakes and moves in a random direction""]}","survey-multi-select","25","490870","0.0-8.0-5.0-0.0","17","1","2025-07-09 09:06:42","7701e855f2ef39aa3fd6c71abdc6918a","82.146.238.62","Mozilla/5.0 (Windows NT 10.0; Win64; x64) AppleWebKit/537.36 (KHTML, like Gecko) Chrome/138.0.0.0 Safari/537.36","WebKit","Chrome","138.0.0.0","Windows","10.0","https://app.prolific.com/","pl-PL,pl;q=0.9,en-US;q=0.8,en;q=0.7","6171357438c12a4317bbdede","686d226cabeef709c732f8e1","686e3113b15c5da6427a5929","6171357438c12a4317bbdede","","","[0]","","","","quiz","","","","","","","","","","","","","","","","","","","","","","","","","","","","","","","","","","","","","true",""
"1311","","<p align='center'><b>CORRECT!</b> Indeed, the green ball may sometimes shake and move in a random direction.</p>","0","html-button-response","26","492182","0.0-8.0-5.0-1.0","17","1","2025-07-09 09:06:42","7701e855f2ef39aa3fd6c71abdc6918a","82.146.238.62","Mozilla/5.0 (Windows NT 10.0; Win64; x64) AppleWebKit/537.36 (KHTML, like Gecko) Chrome/138.0.0.0 Safari/537.36","WebKit","Chrome","138.0.0.0","Windows","10.0","https://app.prolific.com/","pl-PL,pl;q=0.9,en-US;q=0.8,en;q=0.7","6171357438c12a4317bbdede","686d226cabeef709c732f8e1","686e3113b15c5da6427a5929","6171357438c12a4317bbdede","","","","","","","","","","","","","","","","","","","","","","","","","","","","","","","","","","","","","","","","","","","","",""
"17599","","","{""yellow_ball"":[""Ball always shakes and moves in a random direction""]}","survey-multi-select","27","509782","0.0-8.0-6.0-0.0","17","1","2025-07-09 09:06:42","7701e855f2ef39aa3fd6c71abdc6918a","82.146.238.62","Mozilla/5.0 (Windows NT 10.0; Win64; x64) AppleWebKit/537.36 (KHTML, like Gecko) Chrome/138.0.0.0 Safari/537.36","WebKit","Chrome","138.0.0.0","Windows","10.0","https://app.prolific.com/","pl-PL,pl;q=0.9,en-US;q=0.8,en;q=0.7","6171357438c12a4317bbdede","686d226cabeef709c732f8e1","686e3113b15c5da6427a5929","6171357438c12a4317bbdede","","","[0]","","","","quiz","","","","","","","","","","","","","","","","","","","","","","","","","","","","","","","","","","","","","false",""
"4607","","<p align='center'><b>INCORRECT.</b> The yellow ball never moves and you reveice a penalty if you press anyways. </p>","0","html-button-response","28","514390","0.0-8.0-6.0-1.0","17","1","2025-07-09 09:06:42","7701e855f2ef39aa3fd6c71abdc6918a","82.146.238.62","Mozilla/5.0 (Windows NT 10.0; Win64; x64) AppleWebKit/537.36 (KHTML, like Gecko) Chrome/138.0.0.0 Safari/537.36","WebKit","Chrome","138.0.0.0","Windows","10.0","https://app.prolific.com/","pl-PL,pl;q=0.9,en-US;q=0.8,en;q=0.7","6171357438c12a4317bbdede","686d226cabeef709c732f8e1","686e3113b15c5da6427a5929","6171357438c12a4317bbdede","","","","","","","","","","","","","","","","","","","","","","","","","","","","","","","","","","","","","","","","","","","","",""
"3815","","","{""yellow_ball"":[""Ball doesn‘t move and I get -1 penalty point""]}","survey-multi-select","29","518206","0.0-8.0-6.1-0.1","17","1","2025-07-09 09:06:42","7701e855f2ef39aa3fd6c71abdc6918a","82.146.238.62","Mozilla/5.0 (Windows NT 10.0; Win64; x64) AppleWebKit/537.36 (KHTML, like Gecko) Chrome/138.0.0.0 Safari/537.36","WebKit","Chrome","138.0.0.0","Windows","10.0","https://app.prolific.com/","pl-PL,pl;q=0.9,en-US;q=0.8,en;q=0.7","6171357438c12a4317bbdede","686d226cabeef709c732f8e1","686e3113b15c5da6427a5929","6171357438c12a4317bbdede","","","[0]","","","","quiz","","","","","","","","","","","","","","","","","","","","","","","","","","","","","","","","","","","","","true",""
"879","","<p align='center'><b>CORRECT!</b> Indeed, the yellow ball never moves and you receive a penalty.</p>","0","html-button-response","30","519086","0.0-8.0-6.1-1.1","17","1","2025-07-09 09:06:42","7701e855f2ef39aa3fd6c71abdc6918a","82.146.238.62","Mozilla/5.0 (Windows NT 10.0; Win64; x64) AppleWebKit/537.36 (KHTML, like Gecko) Chrome/138.0.0.0 Safari/537.36","WebKit","Chrome","138.0.0.0","Windows","10.0","https://app.prolific.com/","pl-PL,pl;q=0.9,en-US;q=0.8,en;q=0.7","6171357438c12a4317bbdede","686d226cabeef709c732f8e1","686e3113b15c5da6427a5929","6171357438c12a4317bbdede","","","","","","","","","","","","","","","","","","","","","","","","","","","","","","","","","","","","","","","","","","","","",""
"10342","","","{""blue_ball"":[""Ball doesn‘t move and I get -1 penalty point""]}","survey-multi-select","31","529430","0.0-8.0-7.0-0.0","17","1","2025-07-09 09:06:42","7701e855f2ef39aa3fd6c71abdc6918a","82.146.238.62","Mozilla/5.0 (Windows NT 10.0; Win64; x64) AppleWebKit/537.36 (KHTML, like Gecko) Chrome/138.0.0.0 Safari/537.36","WebKit","Chrome","138.0.0.0","Windows","10.0","https://app.prolific.com/","pl-PL,pl;q=0.9,en-US;q=0.8,en;q=0.7","6171357438c12a4317bbdede","686d226cabeef709c732f8e1","686e3113b15c5da6427a5929","6171357438c12a4317bbdede","","","[0]","","","","quiz","","","","","","","","","","","","","","","","","","","","","","","","","","","","","","","","","","","","","false",""
"1551","","<p align='center'><b>INCORRECT.</b> The blue ball always shakes and moves randomly.</p>","0","html-button-response","32","530982","0.0-8.0-7.0-1.0","17","1","2025-07-09 09:06:42","7701e855f2ef39aa3fd6c71abdc6918a","82.146.238.62","Mozilla/5.0 (Windows NT 10.0; Win64; x64) AppleWebKit/537.36 (KHTML, like Gecko) Chrome/138.0.0.0 Safari/537.36","WebKit","Chrome","138.0.0.0","Windows","10.0","https://app.prolific.com/","pl-PL,pl;q=0.9,en-US;q=0.8,en;q=0.7","6171357438c12a4317bbdede","686d226cabeef709c732f8e1","686e3113b15c5da6427a5929","6171357438c12a4317bbdede","","","","","","","","","","","","","","","","","","","","","","","","","","","","","","","","","","","","","","","","","","","","",""
"3791","","","{""blue_ball"":[""Ball always shakes and moves in a random direction""]}","survey-multi-select","33","534774","0.0-8.0-7.1-0.1","17","1","2025-07-09 09:06:42","7701e855f2ef39aa3fd6c71abdc6918a","82.146.238.62","Mozilla/5.0 (Windows NT 10.0; Win64; x64) AppleWebKit/537.36 (KHTML, like Gecko) Chrome/138.0.0.0 Safari/537.36","WebKit","Chrome","138.0.0.0","Windows","10.0","https://app.prolific.com/","pl-PL,pl;q=0.9,en-US;q=0.8,en;q=0.7","6171357438c12a4317bbdede","686d226cabeef709c732f8e1","686e3113b15c5da6427a5929","6171357438c12a4317bbdede","","","[0]","","","","quiz","","","","","","","","","","","","","","","","","","","","","","","","","","","","","","","","","","","","","true",""
"1935","","<p align='center'><b>CORRECT!</b> Indeed, the blue ball always shakes and moves in a random direction. Also there is a penalty of -1 point.</p>","0","html-button-response","34","536710","0.0-8.0-7.1-1.1","17","1","2025-07-09 09:06:42","7701e855f2ef39aa3fd6c71abdc6918a","82.146.238.62","Mozilla/5.0 (Windows NT 10.0; Win64; x64) AppleWebKit/537.36 (KHTML, like Gecko) Chrome/138.0.0.0 Safari/537.36","WebKit","Chrome","138.0.0.0","Windows","10.0","https://app.prolific.com/","pl-PL,pl;q=0.9,en-US;q=0.8,en;q=0.7","6171357438c12a4317bbdede","686d226cabeef709c732f8e1","686e3113b15c5da6427a5929","6171357438c12a4317bbdede","","","","","","","","","","","","","","","","","","","","","","","","","","","","","","","","","","","","","","","","","","","","",""
"3727","","","{""bonus"":[""When I reach 50% of points""]}","survey-multi-select","35","540438","0.0-8.0-8.0-0.0","17","1","2025-07-09 09:06:42","7701e855f2ef39aa3fd6c71abdc6918a","82.146.238.62","Mozilla/5.0 (Windows NT 10.0; Win64; x64) AppleWebKit/537.36 (KHTML, like Gecko) Chrome/138.0.0.0 Safari/537.36","WebKit","Chrome","138.0.0.0","Windows","10.0","https://app.prolific.com/","pl-PL,pl;q=0.9,en-US;q=0.8,en;q=0.7","6171357438c12a4317bbdede","686d226cabeef709c732f8e1","686e3113b15c5da6427a5929","6171357438c12a4317bbdede","","","[0]","","","","quiz","","","","","","","","","","","","","","","","","","","","","","","","","","","","","","","","","","","","","true",""
"975","","<p align='center'><b>CORRECT!</b> Indeed, you receive 2 pounds extra when you reach 50% of points.</p>","0","html-button-response","36","541414","0.0-8.0-8.0-1.0","17","1","2025-07-09 09:06:42","7701e855f2ef39aa3fd6c71abdc6918a","82.146.238.62","Mozilla/5.0 (Windows NT 10.0; Win64; x64) AppleWebKit/537.36 (KHTML, like Gecko) Chrome/138.0.0.0 Safari/537.36","WebKit","Chrome","138.0.0.0","Windows","10.0","https://app.prolific.com/","pl-PL,pl;q=0.9,en-US;q=0.8,en;q=0.7","6171357438c12a4317bbdede","686d226cabeef709c732f8e1","686e3113b15c5da6427a5929","6171357438c12a4317bbdede","","","","","","","","","","","","","","","","","","","","","","","","","","","","","","","","","","","","","","","","","","","","",""
"1472","","","","instructions","37","542887","0.0-8.0-9.0","17","1","2025-07-09 09:06:42","7701e855f2ef39aa3fd6c71abdc6918a","82.146.238.62","Mozilla/5.0 (Windows NT 10.0; Win64; x64) AppleWebKit/537.36 (KHTML, like Gecko) Chrome/138.0.0.0 Safari/537.36","WebKit","Chrome","138.0.0.0","Windows","10.0","https://app.prolific.com/","pl-PL,pl;q=0.9,en-US;q=0.8,en;q=0.7","6171357438c12a4317bbdede","686d226cabeef709c732f8e1","686e3113b15c5da6427a5929","6171357438c12a4317bbdede","","[{""page_index"":0,""viewing_time"":1472}]","","","","","","","","","","","","","","","","","","","","","","","","","","","","","","","","","","","","","","","","","","",""
"6708","","<p>Before you start with this game please answer the following three questions yourself. </p>
  <p>Through this game, we measure several aspects of your cognitive performance, such as reaction times, multi-tasking capabilities </p>
  <p>and the ability to assess the situation you are in.</p>
  <p></p>
  <p><b>How good do you usually are in such tasks?</b></p>","85","html-slider-response","38","549598","0.0-9.0-0.0","17","1","2025-07-09 09:06:42","7701e855f2ef39aa3fd6c71abdc6918a","82.146.238.62","Mozilla/5.0 (Windows NT 10.0; Win64; x64) AppleWebKit/537.36 (KHTML, like Gecko) Chrome/138.0.0.0 Safari/537.36","WebKit","Chrome","138.0.0.0","Windows","10.0","https://app.prolific.com/","pl-PL,pl;q=0.9,en-US;q=0.8,en;q=0.7","6171357438c12a4317bbdede","686d226cabeef709c732f8e1","686e3113b15c5da6427a5929","6171357438c12a4317bbdede","2025-07-09T09:15:53.320Z","","","","","","PreSkillQ","","","","","","","","","","","","","","","","","","","","","","","","","","","","","","","","","","","","","","50"
"4271","","<div style=""width:500px;"">
  <p>How well do you think you will perform in this task compared to other participants?</p>
  </div>","66","html-slider-response","39","553870","0.0-9.0-1.0","17","1","2025-07-09 09:06:42","7701e855f2ef39aa3fd6c71abdc6918a","82.146.238.62","Mozilla/5.0 (Windows NT 10.0; Win64; x64) AppleWebKit/537.36 (KHTML, like Gecko) Chrome/138.0.0.0 Safari/537.36","WebKit","Chrome","138.0.0.0","Windows","10.0","https://app.prolific.com/","pl-PL,pl;q=0.9,en-US;q=0.8,en;q=0.7","6171357438c12a4317bbdede","686d226cabeef709c732f8e1","686e3113b15c5da6427a5929","6171357438c12a4317bbdede","2025-07-09T09:15:57.592Z","","","","","","PrePerfQ","","","","","","","","","","","","","","","","","","","","","","","","","","","","","","","","","","","","","","50"
"3015","","<div style=""width:500px;"">
  <p>What best describes how you currently feel?</p>
  </div>","37","html-slider-response","40","556886","0.0-9.0-2.0","17","1","2025-07-09 09:06:42","7701e855f2ef39aa3fd6c71abdc6918a","82.146.238.62","Mozilla/5.0 (Windows NT 10.0; Win64; x64) AppleWebKit/537.36 (KHTML, like Gecko) Chrome/138.0.0.0 Safari/537.36","WebKit","Chrome","138.0.0.0","Windows","10.0","https://app.prolific.com/","pl-PL,pl;q=0.9,en-US;q=0.8,en;q=0.7","6171357438c12a4317bbdede","686d226cabeef709c732f8e1","686e3113b15c5da6427a5929","6171357438c12a4317bbdede","2025-07-09T09:16:00.608Z","","","","","","PreMotivationQ","","","","","","","","","","","","","","","","","","","","","","","","","","","","","","","","","","","","","","50"
"","","","","ctl-task-cpt","41","579938","0.0-10.0-0.0","17","1","2025-07-09 09:06:42","7701e855f2ef39aa3fd6c71abdc6918a","82.146.238.62","Mozilla/5.0 (Windows NT 10.0; Win64; x64) AppleWebKit/537.36 (KHTML, like Gecko) Chrome/138.0.0.0 Safari/537.36","WebKit","Chrome","138.0.0.0","Windows","10.0","https://app.prolific.com/","pl-PL,pl;q=0.9,en-US;q=0.8,en;q=0.7","6171357438c12a4317bbdede","686d226cabeef709c732f8e1","686e3113b15c5da6427a5929","6171357438c12a4317bbdede","2025-07-09T09:16:23.660Z","","","","","","","","","","","","","","","","win-only","1","g1:NE,g2:SW","1","1","0","558219.4","958","5961","20025.7","1","4","8","6","1","1","1","1","0","0.007575757575757576","1385.6","3000","1440","[""up"",""right""]","{""num_key_presses"":4,""num_perfect"":4,""num_errors"":0,""num_randdir"":0,""num_randdir_good_moves"":0,""num_whilered"":0,""num_whileblue"":0,""num_blue"":1,""num_good_moves"":4}","[395.9683035714286,396.8745535714286,0.2,395.9683035714286,396.8745535714286,100.9,395.9683035714286,397.8745535714286,201.7,464.9683035714286,451.8745535714286,303.9,468.9683035714286,455.8745535714286,408.2,468.9683035714286,455.8745535714286,508.7,468.9683035714286,455.8745535714286,617.5,466.9683035714286,448.8745535714286,718.2,482.9683035714286,394.8745535714286,819.7,606.9683035714286,295.8745535714286,920.1,658.9683035714286,206.87455357142858,1023,658.9683035714286,203.87455357142858,1123.1,681.9683035714286,170.87455357142858,1228.2,719.9683035714286,117.87455357142856,1328.1,739.9683035714286,82.87455357142856,1430.1,739.9683035714286,81.87455357142856,1533.3,728.9683035714286,131.87455357142858,1638.3,693.9683035714286,269.8745535714286,1747.7,677.9683035714286,305.8745535714286,1850.9,676.9683035714286,307.8745535714286,1952.7,668.9683035714286,314.8745535714286,2053.8,661.9683035714286,319.8745535714286,2157.4,657.9683035714286,323.8745535714286,2257.7,632.9683035714286,338.8745535714286,2367,613.9683035714286,348.8745535714286,2469.2,553.9683035714286,362.8745535714286,2572.3,543.9683035714286,364.8745535714286,2672.8,543.9683035714286,364.8745535714286,2785,543.9683035714286,364.8745535714286,2887.9,543.9683035714286,364.8745535714286,2992.5,543.9683035714286,364.8745535714286,3093.4,543.9683035714286,364.8745535714286,3199.6,543.9683035714286,364.8745535714286,3302.4,540.9683035714286,363.8745535714286,3402.9,537.9683035714286,362.8745535714286,3503.7,537.9683035714286,362.8745535714286,3607.8,537.9683035714286,362.8745535714286,3708.1,537.9683035714286,362.8745535714286,3815.5,537.9683035714286,362.8745535714286,3915.9,537.9683035714286,362.8745535714286,4016.3,537.9683035714286,362.8745535714286,4118.5,537.9683035714286,362.8745535714286,4222.3,537.9683035714286,362.8745535714286,4322.5,537.9683035714286,362.8745535714286,4433.4,537.9683035714286,362.8745535714286,4534.3,537.9683035714286,362.8745535714286,4637.5,537.9683035714286,362.8745535714286,4738.1,537.9683035714286,362.8745535714286,4849.8,537.9683035714286,362.8745535714286,4953.2]","[5053.4,5053.4,2689.3,2012.5,351.6,""smooth"",""up"",""up"",""good_move"",7629.2,2575.6,2127.4,5053.6,448.2,""smooth"",""right"",""right"",""good_move"",10542,2912.5,2393.4,7629.5,519.1,""smooth"",""right"",""right"",""good_move"",13973.9,3431.7,2947.4,10542.2,484.3,""smooth"",""up"",""up"",""good_move""]","",""
"2739","","<div style=""width:500px;"">
  <p>What determined the result of this run?</p>
  </div>","100","html-slider-response","42","582679","0.0-10.0-1.0","17","1","2025-07-09 09:06:42","7701e855f2ef39aa3fd6c71abdc6918a","82.146.238.62","Mozilla/5.0 (Windows NT 10.0; Win64; x64) AppleWebKit/537.36 (KHTML, like Gecko) Chrome/138.0.0.0 Safari/537.36","WebKit","Chrome","138.0.0.0","Windows","10.0","https://app.prolific.com/","pl-PL,pl;q=0.9,en-US;q=0.8,en;q=0.7","6171357438c12a4317bbdede","686d226cabeef709c732f8e1","686e3113b15c5da6427a5929","6171357438c12a4317bbdede","2025-07-09T09:16:26.401Z","","","","","","AttribQ","","","","","","","","","","","","","","","","","","","","","","","","","","","","","","","","","","","","","","50"
"2342","","<div style=""width:500px;"">
  <p>How much control did you have over the ball?</p>
  </div>","100","html-slider-response","43","585022","0.0-10.0-2.0","17","1","2025-07-09 09:06:42","7701e855f2ef39aa3fd6c71abdc6918a","82.146.238.62","Mozilla/5.0 (Windows NT 10.0; Win64; x64) AppleWebKit/537.36 (KHTML, like Gecko) Chrome/138.0.0.0 Safari/537.36","WebKit","Chrome","138.0.0.0","Windows","10.0","https://app.prolific.com/","pl-PL,pl;q=0.9,en-US;q=0.8,en;q=0.7","6171357438c12a4317bbdede","686d226cabeef709c732f8e1","686e3113b15c5da6427a5929","6171357438c12a4317bbdede","2025-07-09T09:16:28.744Z","","","","","","ControlQ","","","","","","","","","","","","","","","","","","","","","","","","","","","","","","","","","","","","","","50"
"3679","","<div style=""width:500px;"">
  <p>How would you describe your current emotional state?</p>
  </div>","62","html-slider-response","44","588702","0.0-10.0-3.0","17","1","2025-07-09 09:06:42","7701e855f2ef39aa3fd6c71abdc6918a","82.146.238.62","Mozilla/5.0 (Windows NT 10.0; Win64; x64) AppleWebKit/537.36 (KHTML, like Gecko) Chrome/138.0.0.0 Safari/537.36","WebKit","Chrome","138.0.0.0","Windows","10.0","https://app.prolific.com/","pl-PL,pl;q=0.9,en-US;q=0.8,en;q=0.7","6171357438c12a4317bbdede","686d226cabeef709c732f8e1","686e3113b15c5da6427a5929","6171357438c12a4317bbdede","2025-07-09T09:16:32.424Z","","","","","","StressQ","","","","","","","","","","","","","","","","","","","","","","","","","","","","","","","","","","","","","","50"
"3007","","<div style=""width:500px;"">
  <p>What best describes how you currently feel?</p>
  </div>","85","html-slider-response","45","591710","0.0-10.0-4.0","17","1","2025-07-09 09:06:42","7701e855f2ef39aa3fd6c71abdc6918a","82.146.238.62","Mozilla/5.0 (Windows NT 10.0; Win64; x64) AppleWebKit/537.36 (KHTML, like Gecko) Chrome/138.0.0.0 Safari/537.36","WebKit","Chrome","138.0.0.0","Windows","10.0","https://app.prolific.com/","pl-PL,pl;q=0.9,en-US;q=0.8,en;q=0.7","6171357438c12a4317bbdede","686d226cabeef709c732f8e1","686e3113b15c5da6427a5929","6171357438c12a4317bbdede","2025-07-09T09:16:35.432Z","","","","","","MotivationQ","","","","","","","","","","","","","","","","","","","","","","","","","","","","","","","","","","","","","","50"
"","","","","ctl-task-cpt","46","610644","0.0-10.0-0.1","17","1","2025-07-09 09:06:42","7701e855f2ef39aa3fd6c71abdc6918a","82.146.238.62","Mozilla/5.0 (Windows NT 10.0; Win64; x64) AppleWebKit/537.36 (KHTML, like Gecko) Chrome/138.0.0.0 Safari/537.36","WebKit","Chrome","138.0.0.0","Windows","10.0","https://app.prolific.com/","pl-PL,pl;q=0.9,en-US;q=0.8,en;q=0.7","6171357438c12a4317bbdede","686d226cabeef709c732f8e1","686e3113b15c5da6427a5929","6171357438c12a4317bbdede","2025-07-09T09:16:54.366Z","","","","","","","","","","","","","","","","win-only","1","g1:NE,g2:SW","0.9","2","0","593043.3","1007.5","6012","15915.4","1","4","4","6","1","1","1","2","1","0.015151515151515152","1008","3000","1510","[""up"",""right""]","{""num_key_presses"":4,""num_perfect"":4,""num_errors"":0,""num_randdir"":0,""num_randdir_good_moves"":0,""num_whilered"":0,""num_whileblue"":0,""num_blue"":0,""num_good_moves"":4}","[399.9683035714286,394.8745535714286,0.2,399.9683035714286,394.8745535714286,103,399.9683035714286,394.8745535714286,203.2,428.9683035714286,464.8745535714286,308.1,458.9683035714286,505.8745535714286,413.7,461.9683035714286,509.8745535714286,514.1,618.9683035714286,395.8745535714286,616.3,631.9683035714286,277.8745535714286,718.1,651.9683035714286,203.87455357142858,818.1,708.9683035714286,135.87455357142858,924.8,738.9683035714286,64.87455357142856,1027.9,739.9683035714286,63.874553571428564,1129.1,729.9683035714286,98.87455357142856,1233.8,710.9683035714286,183.87455357142858,1338.1,690.9683035714286,310.8745535714286,1438.4,674.9683035714286,455.8745535714286,1543.8,663.9683035714286,482.8745535714286,1651.9,663.9683035714286,482.8745535714286,1753.3,663.9683035714286,482.8745535714286,1858.3,663.9683035714286,482.8745535714286,1958.8,663.9683035714286,482.8745535714286,2064.6,663.9683035714286,482.8745535714286,2171.9,663.9683035714286,482.8745535714286,2273.7,663.9683035714286,482.8745535714286,2373.8,663.9683035714286,482.8745535714286,2479.8,662.9683035714286,483.8745535714286,2584.5,652.9683035714286,501.8745535714286,2687.8,636.9683035714286,516.8745535714286,2788.7,636.9683035714286,516.8745535714286,2894,634.9683035714286,517.8745535714286,2998.1,637.9683035714286,517.8745535714286,3098.2,643.9683035714286,515.8745535714286,3201.6,644.9683035714286,514.8745535714286,3303.2,644.9683035714286,514.8745535714286,3403.6,644.9683035714286,514.8745535714286,3506.5,644.9683035714286,514.8745535714286,3608.4,644.9683035714286,514.8745535714286,3708.5,644.9683035714286,514.8745535714286,3815,644.9683035714286,514.8745535714286,3918.5,644.9683035714286,514.8745535714286,4023,644.9683035714286,514.8745535714286,4127.9,644.9683035714286,514.8745535714286,4227.9,644.9683035714286,514.8745535714286,4333.7,644.9683035714286,514.8745535714286,4438.7,644.9683035714286,514.8745535714286,4539,644.9683035714286,514.8745535714286,4642.7,644.9683035714286,514.8745535714286,4742.7,644.9683035714286,514.8745535714286,4843,644.9683035714286,514.8745535714286,4947.8]","[1436.1,1436.1,1000,0,436.1,""smooth"",""right"",""right"",""good_move"",4394.3,2957.9,2601.6,1436.4,356.3,""smooth"",""right"",""right"",""good_move"",6894.3,2499.8,2114.5,4394.5,385.3,""smooth"",""up"",""up"",""good_move"",9811.5,2916.5,2557.2,6895,359.3,""smooth"",""up"",""up"",""good_move""]","",""
"2304","","<div style=""width:500px;"">
  <p>What determined the result of this run?</p>
  </div>","100","html-slider-response","47","612950","0.0-10.0-1.1","17","1","2025-07-09 09:06:42","7701e855f2ef39aa3fd6c71abdc6918a","82.146.238.62","Mozilla/5.0 (Windows NT 10.0; Win64; x64) AppleWebKit/537.36 (KHTML, like Gecko) Chrome/138.0.0.0 Safari/537.36","WebKit","Chrome","138.0.0.0","Windows","10.0","https://app.prolific.com/","pl-PL,pl;q=0.9,en-US;q=0.8,en;q=0.7","6171357438c12a4317bbdede","686d226cabeef709c732f8e1","686e3113b15c5da6427a5929","6171357438c12a4317bbdede","2025-07-09T09:16:56.672Z","","","","","","AttribQ","","","","","","","","","","","","","","","","","","","","","","","","","","","","","","","","","","","","","","50"
"2343","","<div style=""width:500px;"">
  <p>How much control did you have over the ball?</p>
  </div>","100","html-slider-response","48","615294","0.0-10.0-2.1","17","1","2025-07-09 09:06:42","7701e855f2ef39aa3fd6c71abdc6918a","82.146.238.62","Mozilla/5.0 (Windows NT 10.0; Win64; x64) AppleWebKit/537.36 (KHTML, like Gecko) Chrome/138.0.0.0 Safari/537.36","WebKit","Chrome","138.0.0.0","Windows","10.0","https://app.prolific.com/","pl-PL,pl;q=0.9,en-US;q=0.8,en;q=0.7","6171357438c12a4317bbdede","686d226cabeef709c732f8e1","686e3113b15c5da6427a5929","6171357438c12a4317bbdede","2025-07-09T09:16:59.016Z","","","","","","ControlQ","","","","","","","","","","","","","","","","","","","","","","","","","","","","","","","","","","","","","","50"
"2856","","<div style=""width:500px;"">
  <p>How would you describe your current emotional state?</p>
  </div>","49","html-slider-response","49","618151","0.0-10.0-3.1","17","1","2025-07-09 09:06:42","7701e855f2ef39aa3fd6c71abdc6918a","82.146.238.62","Mozilla/5.0 (Windows NT 10.0; Win64; x64) AppleWebKit/537.36 (KHTML, like Gecko) Chrome/138.0.0.0 Safari/537.36","WebKit","Chrome","138.0.0.0","Windows","10.0","https://app.prolific.com/","pl-PL,pl;q=0.9,en-US;q=0.8,en;q=0.7","6171357438c12a4317bbdede","686d226cabeef709c732f8e1","686e3113b15c5da6427a5929","6171357438c12a4317bbdede","2025-07-09T09:17:01.873Z","","","","","","StressQ","","","","","","","","","","","","","","","","","","","","","","","","","","","","","","","","","","","","","","50"
"3223","","<div style=""width:500px;"">
  <p>What best describes how you currently feel?</p>
  </div>","83","html-slider-response","50","621375","0.0-10.0-4.1","17","1","2025-07-09 09:06:42","7701e855f2ef39aa3fd6c71abdc6918a","82.146.238.62","Mozilla/5.0 (Windows NT 10.0; Win64; x64) AppleWebKit/537.36 (KHTML, like Gecko) Chrome/138.0.0.0 Safari/537.36","WebKit","Chrome","138.0.0.0","Windows","10.0","https://app.prolific.com/","pl-PL,pl;q=0.9,en-US;q=0.8,en;q=0.7","6171357438c12a4317bbdede","686d226cabeef709c732f8e1","686e3113b15c5da6427a5929","6171357438c12a4317bbdede","2025-07-09T09:17:05.097Z","","","","","","MotivationQ","","","","","","","","","","","","","","","","","","","","","","","","","","","","","","","","","","","","","","50"
"","","","","ctl-task-cpt","51","651551","0.0-10.0-0.2","17","1","2025-07-09 09:06:42","7701e855f2ef39aa3fd6c71abdc6918a","82.146.238.62","Mozilla/5.0 (Windows NT 10.0; Win64; x64) AppleWebKit/537.36 (KHTML, like Gecko) Chrome/138.0.0.0 Safari/537.36","WebKit","Chrome","138.0.0.0","Windows","10.0","https://app.prolific.com/","pl-PL,pl;q=0.9,en-US;q=0.8,en;q=0.7","6171357438c12a4317bbdede","686d226cabeef709c732f8e1","686e3113b15c5da6427a5929","6171357438c12a4317bbdede","2025-07-09T09:17:35.273Z","","","","","","","","","","","","","","","","win-only","3","g1:SW,g2:NE","0.8","3","0","622708.5","822.7","5826","27161","1","4","4","6","1","1","0","2","2","0.015151515151515152","1071.4","3000","975","[""down"",""left""]","{""num_key_presses"":6,""num_perfect"":4,""num_errors"":1,""num_randdir"":1,""num_randdir_good_moves"":1,""num_whilered"":0,""num_whileblue"":1,""num_blue"":2,""num_good_moves"":5}","[392.9683035714286,391.8745535714286,0.1,392.9683035714286,391.8745535714286,103.3,392.9683035714286,391.8745535714286,210.1,406.9683035714286,394.8745535714286,310.4,471.9683035714286,402.8745535714286,414.2,597.9683035714286,399.8745535714286,518,506.9683035714286,433.8745535714286,618.5,168.96830357142858,651.8745535714286,723.7,164.96830357142858,663.8745535714286,823.7,150.96830357142858,681.8745535714286,929.6,85.96830357142856,705.8745535714286,1034.3,73.96830357142856,709.8745535714286,1137.8,73.96830357142856,709.8745535714286,1237.8,81.96830357142856,708.8745535714286,1343.2,203.96830357142858,681.8745535714286,1444.4,459.9683035714286,625.8745535714286,1548.5,512.9683035714286,610.8745535714286,1653,512.9683035714286,610.8745535714286,1754.3,510.9683035714286,611.8745535714286,1855.8,510.9683035714286,610.8745535714286,1959,506.9683035714286,609.8745535714286,2064.6,506.9683035714286,609.8745535714286,2165.4,506.9683035714286,609.8745535714286,2267.7,506.9683035714286,609.8745535714286,2368.5,506.9683035714286,609.8745535714286,2468.7,506.9683035714286,609.8745535714286,2574.1,506.9683035714286,609.8745535714286,2674.1,506.9683035714286,609.8745535714286,2778.8,506.9683035714286,609.8745535714286,2883.6,506.9683035714286,609.8745535714286,2984.6,506.9683035714286,609.8745535714286,3088.8,506.9683035714286,609.8745535714286,3189.8,506.9683035714286,609.8745535714286,3294.9,506.9683035714286,609.8745535714286,3398.5,506.9683035714286,609.8745535714286,3502.8,506.9683035714286,609.8745535714286,3605.1,506.9683035714286,609.8745535714286,3709.5,506.9683035714286,609.8745535714286,3814.7,506.9683035714286,609.8745535714286,3920.4,506.9683035714286,609.8745535714286,4025.3,506.9683035714286,609.8745535714286,4126.9,506.9683035714286,609.8745535714286,4227.8,506.9683035714286,609.8745535714286,4330,506.9683035714286,609.8745535714286,4433.5,506.9683035714286,609.8745535714286,4534,506.9683035714286,609.8745535714286,4638.1,506.9683035714286,609.8745535714286,4743.6,506.9683035714286,609.8745535714286,4848.6,506.9683035714286,609.8745535714286,4953]","[1404.4,1404.4,1001,0,403.4,""while_blue"",""down"",""right"",""bad_move"",4795.6,3390.9,2880.7,1404.7,510.2,""smooth"",""down"",""down"",""good_move"",8515.2,3719.3,3234.1,4795.9,485.2,""smooth"",""down"",""down"",""good_move"",11187.2,2671.9,2279.9,8515.3,392,""oops"",""left"",""left"",""good_move"",17787.1,6599.6,2264.7,15154.8,367.6,""smooth"",""left"",""left"",""good_move"",21231.5,3444.2,3012.9,17787.4,431.2,""smooth"",""left"",""left"",""good_move""]","",""
"2464","","<div style=""width:500px;"">
  <p>What determined the result of this run?</p>
  </div>","100","html-slider-response","52","654015","0.0-10.0-1.2","17","1","2025-07-09 09:06:42","7701e855f2ef39aa3fd6c71abdc6918a","82.146.238.62","Mozilla/5.0 (Windows NT 10.0; Win64; x64) AppleWebKit/537.36 (KHTML, like Gecko) Chrome/138.0.0.0 Safari/537.36","WebKit","Chrome","138.0.0.0","Windows","10.0","https://app.prolific.com/","pl-PL,pl;q=0.9,en-US;q=0.8,en;q=0.7","6171357438c12a4317bbdede","686d226cabeef709c732f8e1","686e3113b15c5da6427a5929","6171357438c12a4317bbdede","2025-07-09T09:17:37.737Z","","","","","","AttribQ","","","","","","","","","","","","","","","","","","","","","","","","","","","","","","","","","","","","","","50"
"2894","","<div style=""width:500px;"">
  <p>How much control did you have over the ball?</p>
  </div>","99","html-slider-response","53","656911","0.0-10.0-2.2","17","1","2025-07-09 09:06:42","7701e855f2ef39aa3fd6c71abdc6918a","82.146.238.62","Mozilla/5.0 (Windows NT 10.0; Win64; x64) AppleWebKit/537.36 (KHTML, like Gecko) Chrome/138.0.0.0 Safari/537.36","WebKit","Chrome","138.0.0.0","Windows","10.0","https://app.prolific.com/","pl-PL,pl;q=0.9,en-US;q=0.8,en;q=0.7","6171357438c12a4317bbdede","686d226cabeef709c732f8e1","686e3113b15c5da6427a5929","6171357438c12a4317bbdede","2025-07-09T09:17:40.633Z","","","","","","ControlQ","","","","","","","","","","","","","","","","","","","","","","","","","","","","","","","","","","","","","","50"
"3598","","<div style=""width:500px;"">
  <p>How would you describe your current emotional state?</p>
  </div>","46","html-slider-response","54","660510","0.0-10.0-3.2","17","1","2025-07-09 09:06:42","7701e855f2ef39aa3fd6c71abdc6918a","82.146.238.62","Mozilla/5.0 (Windows NT 10.0; Win64; x64) AppleWebKit/537.36 (KHTML, like Gecko) Chrome/138.0.0.0 Safari/537.36","WebKit","Chrome","138.0.0.0","Windows","10.0","https://app.prolific.com/","pl-PL,pl;q=0.9,en-US;q=0.8,en;q=0.7","6171357438c12a4317bbdede","686d226cabeef709c732f8e1","686e3113b15c5da6427a5929","6171357438c12a4317bbdede","2025-07-09T09:17:44.232Z","","","","","","StressQ","","","","","","","","","","","","","","","","","","","","","","","","","","","","","","","","","","","","","","50"
"2672","","<div style=""width:500px;"">
  <p>What best describes how you currently feel?</p>
  </div>","74","html-slider-response","55","663183","0.0-10.0-4.2","17","1","2025-07-09 09:06:42","7701e855f2ef39aa3fd6c71abdc6918a","82.146.238.62","Mozilla/5.0 (Windows NT 10.0; Win64; x64) AppleWebKit/537.36 (KHTML, like Gecko) Chrome/138.0.0.0 Safari/537.36","WebKit","Chrome","138.0.0.0","Windows","10.0","https://app.prolific.com/","pl-PL,pl;q=0.9,en-US;q=0.8,en;q=0.7","6171357438c12a4317bbdede","686d226cabeef709c732f8e1","686e3113b15c5da6427a5929","6171357438c12a4317bbdede","2025-07-09T09:17:46.905Z","","","","","","MotivationQ","","","","","","","","","","","","","","","","","","","","","","","","","","","","","","","","","","","","","","50"
"","","","","ctl-task-cpt","56","684274","0.0-10.0-0.3","17","1","2025-07-09 09:06:42","7701e855f2ef39aa3fd6c71abdc6918a","82.146.238.62","Mozilla/5.0 (Windows NT 10.0; Win64; x64) AppleWebKit/537.36 (KHTML, like Gecko) Chrome/138.0.0.0 Safari/537.36","WebKit","Chrome","138.0.0.0","Windows","10.0","https://app.prolific.com/","pl-PL,pl;q=0.9,en-US;q=0.8,en;q=0.7","6171357438c12a4317bbdede","686d226cabeef709c732f8e1","686e3113b15c5da6427a5929","6171357438c12a4317bbdede","2025-07-09T09:18:07.996Z","","","","","","","","","","","","","","","","win-only","1","g1:NE,g2:SW","0.7","4","0","664516.9","844.7","5846.2","18066.1","1","4","8","6","1","1","1","3","2","0.022727272727272728","782.2","3000","1635","[""up"",""right""]","{""num_key_presses"":4,""num_perfect"":4,""num_errors"":0,""num_randdir"":0,""num_randdir_good_moves"":0,""num_whilered"":0,""num_whileblue"":0,""num_blue"":1,""num_good_moves"":4}","[388.9683035714286,399.8745535714286,0.3,388.9683035714286,399.8745535714286,101,389.9683035714286,399.8745535714286,201.1,389.9683035714286,401.8745535714286,301.1,537.9683035714286,301.8745535714286,404.2,661.9683035714286,175.87455357142858,506.4,681.9683035714286,149.87455357142858,606.5,707.9683035714286,95.87455357142856,711,711.9683035714286,80.87455357142856,811.5,711.9683035714286,80.87455357142856,916.9,694.9683035714286,147.87455357142858,1019,674.9683035714286,236.87455357142858,1121.5,649.9683035714286,392.8745535714286,1234.4,636.9683035714286,493.8745535714286,1336,634.9683035714286,513.8745535714286,1436,627.9683035714286,579.8745535714286,1536.1,609.9683035714286,652.8745535714286,1636.2,592.9683035714286,660.8745535714286,1740.5,592.9683035714286,660.8745535714286,1842.6,578.9683035714286,670.8745535714286,1952,575.9683035714286,669.8745535714286,2052.6,580.9683035714286,658.8745535714286,2153.1,580.9683035714286,658.8745535714286,2257,580.9683035714286,658.8745535714286,2366.9,580.9683035714286,658.8745535714286,2470.7,580.9683035714286,658.8745535714286,2571,581.9683035714286,653.8745535714286,2671.4,581.9683035714286,652.8745535714286,2771.9,581.9683035714286,652.8745535714286,2875.6,581.9683035714286,652.8745535714286,2987.2,581.9683035714286,652.8745535714286,3100,581.9683035714286,652.8745535714286,3200,581.9683035714286,652.8745535714286,3300.9,581.9683035714286,652.8745535714286,3401.1,581.9683035714286,652.8745535714286,3505.5,581.9683035714286,652.8745535714286,3606.1,581.9683035714286,652.8745535714286,3716.5,581.9683035714286,652.8745535714286,3820.5,581.9683035714286,652.8745535714286,3920.5,581.9683035714286,652.8745535714286,4021.6,581.9683035714286,652.8745535714286,4126,581.9683035714286,652.8745535714286,4231.7,581.9683035714286,652.8745535714286,4332.3,581.9683035714286,652.8745535714286,4436.1,581.9683035714286,652.8745535714286,4549.4,581.9683035714286,652.8745535714286,4650.6,581.9683035714286,652.8745535714286,4751,581.9683035714286,652.8745535714286,4851.3,581.9683035714286,652.8745535714286,4951.5]","[1562.3,1562.3,1000,0,562.3,""smooth"",""right"",""right"",""good_move"",3575.7,2013,1526.4,1562.8,486.5,""smooth"",""right"",""right"",""good_move"",9230.3,5654.1,2476.5,6414.5,339.3,""smooth"",""up"",""up"",""good_move"",12104.5,2874,2488.8,9230.5,385.2,""smooth"",""up"",""up"",""good_move""]","",""
"2115","","<div style=""width:500px;"">
  <p>What determined the result of this run?</p>
  </div>","100","html-slider-response","57","686390","0.0-10.0-1.3","17","1","2025-07-09 09:06:42","7701e855f2ef39aa3fd6c71abdc6918a","82.146.238.62","Mozilla/5.0 (Windows NT 10.0; Win64; x64) AppleWebKit/537.36 (KHTML, like Gecko) Chrome/138.0.0.0 Safari/537.36","WebKit","Chrome","138.0.0.0","Windows","10.0","https://app.prolific.com/","pl-PL,pl;q=0.9,en-US;q=0.8,en;q=0.7","6171357438c12a4317bbdede","686d226cabeef709c732f8e1","686e3113b15c5da6427a5929","6171357438c12a4317bbdede","2025-07-09T09:18:10.112Z","","","","","","AttribQ","","","","","","","","","","","","","","","","","","","","","","","","","","","","","","","","","","","","","","50"
"1871","","<div style=""width:500px;"">
  <p>How much control did you have over the ball?</p>
  </div>","100","html-slider-response","58","688262","0.0-10.0-2.3","17","1","2025-07-09 09:06:42","7701e855f2ef39aa3fd6c71abdc6918a","82.146.238.62","Mozilla/5.0 (Windows NT 10.0; Win64; x64) AppleWebKit/537.36 (KHTML, like Gecko) Chrome/138.0.0.0 Safari/537.36","WebKit","Chrome","138.0.0.0","Windows","10.0","https://app.prolific.com/","pl-PL,pl;q=0.9,en-US;q=0.8,en;q=0.7","6171357438c12a4317bbdede","686d226cabeef709c732f8e1","686e3113b15c5da6427a5929","6171357438c12a4317bbdede","2025-07-09T09:18:11.984Z","","","","","","ControlQ","","","","","","","","","","","","","","","","","","","","","","","","","","","","","","","","","","","","","","50"
"2591","","<div style=""width:500px;"">
  <p>How would you describe your current emotional state?</p>
  </div>","46","html-slider-response","59","690854","0.0-10.0-3.3","17","1","2025-07-09 09:06:42","7701e855f2ef39aa3fd6c71abdc6918a","82.146.238.62","Mozilla/5.0 (Windows NT 10.0; Win64; x64) AppleWebKit/537.36 (KHTML, like Gecko) Chrome/138.0.0.0 Safari/537.36","WebKit","Chrome","138.0.0.0","Windows","10.0","https://app.prolific.com/","pl-PL,pl;q=0.9,en-US;q=0.8,en;q=0.7","6171357438c12a4317bbdede","686d226cabeef709c732f8e1","686e3113b15c5da6427a5929","6171357438c12a4317bbdede","2025-07-09T09:18:14.577Z","","","","","","StressQ","","","","","","","","","","","","","","","","","","","","","","","","","","","","","","","","","","","","","","50"
"2646","","<div style=""width:500px;"">
  <p>What best describes how you currently feel?</p>
  </div>","90","html-slider-response","60","693502","0.0-10.0-4.3","17","1","2025-07-09 09:06:42","7701e855f2ef39aa3fd6c71abdc6918a","82.146.238.62","Mozilla/5.0 (Windows NT 10.0; Win64; x64) AppleWebKit/537.36 (KHTML, like Gecko) Chrome/138.0.0.0 Safari/537.36","WebKit","Chrome","138.0.0.0","Windows","10.0","https://app.prolific.com/","pl-PL,pl;q=0.9,en-US;q=0.8,en;q=0.7","6171357438c12a4317bbdede","686d226cabeef709c732f8e1","686e3113b15c5da6427a5929","6171357438c12a4317bbdede","2025-07-09T09:18:17.224Z","","","","","","MotivationQ","","","","","","","","","","","","","","","","","","","","","","","","","","","","","","","","","","","","","","50"
"","","","","ctl-task-cpt","61","732510","0.0-10.0-0.4","17","1","2025-07-09 09:06:42","7701e855f2ef39aa3fd6c71abdc6918a","82.146.238.62","Mozilla/5.0 (Windows NT 10.0; Win64; x64) AppleWebKit/537.36 (KHTML, like Gecko) Chrome/138.0.0.0 Safari/537.36","WebKit","Chrome","138.0.0.0","Windows","10.0","https://app.prolific.com/","pl-PL,pl;q=0.9,en-US;q=0.8,en;q=0.7","6171357438c12a4317bbdede","686d226cabeef709c732f8e1","686e3113b15c5da6427a5929","6171357438c12a4317bbdede","2025-07-09T09:18:56.232Z","","","","","","","","","","","","","","","","win-only","3","g1:SW,g2:NE","0.6","5","0","694835.5","834.5","5835.6","35991.1","1","4","8","6","1","1","1","4","3","0.030303030303030304","821.1","3000","195","[""down"",""left""]","{""num_key_presses"":8,""num_perfect"":5,""num_errors"":0,""num_randdir"":3,""num_randdir_good_moves"":1,""num_whilered"":0,""num_whileblue"":0,""num_blue"":3,""num_good_moves"":6}","[397.9683035714286,395.8745535714286,0.2,397.9683035714286,395.8745535714286,101.3,397.9683035714286,395.8745535714286,201.3,396.9683035714286,401.8745535714286,301.6,396.9683035714286,404.8745535714286,402.6,293.9683035714286,501.8745535714286,506.2,102.96830357142856,686.8745535714286,610.5,105.96830357142856,722.8745535714286,714.3,105.96830357142856,726.8745535714286,816.4,105.96830357142856,726.8745535714286,922.6,105.96830357142856,726.8745535714286,1035.1,152.96830357142858,707.8745535714286,1136.1,269.9683035714286,677.8745535714286,1236.8,481.9683035714286,641.8745535714286,1350.9,483.9683035714286,640.8745535714286,1451.7,483.9683035714286,640.8745535714286,1551.8,483.9683035714286,640.8745535714286,1653.3,483.9683035714286,640.8745535714286,1758,485.9683035714286,639.8745535714286,1861.9,485.9683035714286,639.8745535714286,1966.7,485.9683035714286,639.8745535714286,2070.2,485.9683035714286,639.8745535714286,2172.2,485.9683035714286,639.8745535714286,2276.5,485.9683035714286,639.8745535714286,2381.4,485.9683035714286,639.8745535714286,2482.8,485.9683035714286,639.8745535714286,2586.6,462.9683035714286,642.8745535714286,2700.8,443.9683035714286,654.8745535714286,2801.2,443.9683035714286,654.8745535714286,2904.3,443.9683035714286,654.8745535714286,3016.4,443.9683035714286,652.8745535714286,3116.9,441.9683035714286,648.8745535714286,3222.3,441.9683035714286,648.8745535714286,3326,441.9683035714286,648.8745535714286,3426.8,441.9683035714286,648.8745535714286,3531.6,441.9683035714286,648.8745535714286,3636.8,441.9683035714286,648.8745535714286,3741.4,441.9683035714286,648.8745535714286,3846.3,441.9683035714286,648.8745535714286,3951,441.9683035714286,648.8745535714286,4056.5,441.9683035714286,648.8745535714286,4166.5,441.9683035714286,648.8745535714286,4271,441.9683035714286,648.8745535714286,4371.3,441.9683035714286,648.8745535714286,4471.6,441.9683035714286,648.8745535714286,4576.8,441.9683035714286,648.8745535714286,4681.7,441.9683035714286,648.8745535714286,4782.1,441.9683035714286,648.8745535714286,4886.4,441.9683035714286,648.8745535714286,4986.5]","[1546.7,1546.7,1000,0,546.7,""smooth"",""left"",""left"",""good_move"",11244.7,9697.8,2744.3,8115,385.4,""smooth"",""left"",""left"",""good_move"",16587.1,5342.2,1933.9,14248.4,404.8,""oops"",""down"",""up"",""bad_move"",19257.9,2670.1,1949.3,16587.8,720.8,""smooth"",""down"",""down"",""good_move"",22123.8,2865.7,2367.9,19258.1,497.8,""oops"",""down"",""right"",""bad_move"",25242.3,3118.1,2720.4,22124.2,397.7,""oops"",""left"",""down"",""good_move"",28153.5,2911,2421.8,25242.6,489.1,""smooth"",""left"",""left"",""good_move"",30052.6,1898.7,1528.3,28153.9,370.4,""smooth"",""down"",""down"",""good_move""]","",""
"3345","","<div style=""width:500px;"">
  <p>What determined the result of this run?</p>
  </div>","76","html-slider-response","62","735856","0.0-10.0-1.4","17","1","2025-07-09 09:06:42","7701e855f2ef39aa3fd6c71abdc6918a","82.146.238.62","Mozilla/5.0 (Windows NT 10.0; Win64; x64) AppleWebKit/537.36 (KHTML, like Gecko) Chrome/138.0.0.0 Safari/537.36","WebKit","Chrome","138.0.0.0","Windows","10.0","https://app.prolific.com/","pl-PL,pl;q=0.9,en-US;q=0.8,en;q=0.7","6171357438c12a4317bbdede","686d226cabeef709c732f8e1","686e3113b15c5da6427a5929","6171357438c12a4317bbdede","2025-07-09T09:18:59.578Z","","","","","","AttribQ","","","","","","","","","","","","","","","","","","","","","","","","","","","","","","","","","","","","","","50"
"2758","","<div style=""width:500px;"">
  <p>How much control did you have over the ball?</p>
  </div>","62","html-slider-response","63","738616","0.0-10.0-2.4","17","1","2025-07-09 09:06:42","7701e855f2ef39aa3fd6c71abdc6918a","82.146.238.62","Mozilla/5.0 (Windows NT 10.0; Win64; x64) AppleWebKit/537.36 (KHTML, like Gecko) Chrome/138.0.0.0 Safari/537.36","WebKit","Chrome","138.0.0.0","Windows","10.0","https://app.prolific.com/","pl-PL,pl;q=0.9,en-US;q=0.8,en;q=0.7","6171357438c12a4317bbdede","686d226cabeef709c732f8e1","686e3113b15c5da6427a5929","6171357438c12a4317bbdede","2025-07-09T09:19:02.338Z","","","","","","ControlQ","","","","","","","","","","","","","","","","","","","","","","","","","","","","","","","","","","","","","","50"
"2358","","<div style=""width:500px;"">
  <p>How would you describe your current emotional state?</p>
  </div>","54","html-slider-response","64","740974","0.0-10.0-3.4","17","1","2025-07-09 09:06:42","7701e855f2ef39aa3fd6c71abdc6918a","82.146.238.62","Mozilla/5.0 (Windows NT 10.0; Win64; x64) AppleWebKit/537.36 (KHTML, like Gecko) Chrome/138.0.0.0 Safari/537.36","WebKit","Chrome","138.0.0.0","Windows","10.0","https://app.prolific.com/","pl-PL,pl;q=0.9,en-US;q=0.8,en;q=0.7","6171357438c12a4317bbdede","686d226cabeef709c732f8e1","686e3113b15c5da6427a5929","6171357438c12a4317bbdede","2025-07-09T09:19:04.697Z","","","","","","StressQ","","","","","","","","","","","","","","","","","","","","","","","","","","","","","","","","","","","","","","50"
"2263","","<div style=""width:500px;"">
  <p>What best describes how you currently feel?</p>
  </div>","73","html-slider-response","65","743238","0.0-10.0-4.4","17","1","2025-07-09 09:06:42","7701e855f2ef39aa3fd6c71abdc6918a","82.146.238.62","Mozilla/5.0 (Windows NT 10.0; Win64; x64) AppleWebKit/537.36 (KHTML, like Gecko) Chrome/138.0.0.0 Safari/537.36","WebKit","Chrome","138.0.0.0","Windows","10.0","https://app.prolific.com/","pl-PL,pl;q=0.9,en-US;q=0.8,en;q=0.7","6171357438c12a4317bbdede","686d226cabeef709c732f8e1","686e3113b15c5da6427a5929","6171357438c12a4317bbdede","2025-07-09T09:19:06.960Z","","","","","","MotivationQ","","","","","","","","","","","","","","","","","","","","","","","","","","","","","","","","","","","","","","50"
"","","","","ctl-task-cpt","66","772716","0.0-10.0-0.5","17","1","2025-07-09 09:06:42","7701e855f2ef39aa3fd6c71abdc6918a","82.146.238.62","Mozilla/5.0 (Windows NT 10.0; Win64; x64) AppleWebKit/537.36 (KHTML, like Gecko) Chrome/138.0.0.0 Safari/537.36","WebKit","Chrome","138.0.0.0","Windows","10.0","https://app.prolific.com/","pl-PL,pl;q=0.9,en-US;q=0.8,en;q=0.7","6171357438c12a4317bbdede","686d226cabeef709c732f8e1","686e3113b15c5da6427a5929","6171357438c12a4317bbdede","2025-07-09T09:19:36.438Z","","","","","","","","","","","","","","","","win-only","3","g1:SW,g2:NE","0.5","6","0","744571.2","785","5787.7","26450.4","1","4","4","6","1","1","1","5","4","0.03787878787878788","907.6","3000","1760","[""down"",""left""]","{""num_key_presses"":4,""num_perfect"":2,""num_errors"":0,""num_randdir"":2,""num_randdir_good_moves"":2,""num_whilered"":0,""num_whileblue"":0,""num_blue"":3,""num_good_moves"":4}","[396.9683035714286,397.8745535714286,0.2,396.9683035714286,397.8745535714286,100.8,396.9683035714286,397.8745535714286,201.8,394.9683035714286,398.8745535714286,305.7,467.9683035714286,356.8745535714286,412.2,520.9683035714286,272.8745535714286,515.5,230.96830357142858,520.8745535714286,617,59.968303571428564,734.8745535714286,720.9,49.968303571428564,755.8745535714286,826.5,49.968303571428564,755.8745535714286,926.5,49.968303571428564,755.8745535714286,1031.7,49.968303571428564,755.8745535714286,1135.7,75.96830357142856,744.8745535714286,1242.8,233.96830357142858,697.8745535714286,1342.9,308.9683035714286,675.8745535714286,1446,311.9683035714286,678.8745535714286,1551.4,300.9683035714286,720.8745535714286,1661.8,285.9683035714286,754.8745535714286,1765.6,285.9683035714286,757.8745535714286,1865.7,285.9683035714286,757.8745535714286,1965.8,285.9683035714286,757.8745535714286,2075.5,284.9683035714286,758.8745535714286,2178.5,282.9683035714286,759.8745535714286,2280.3,282.9683035714286,759.8745535714286,2380.5,282.9683035714286,759.8745535714286,2485,282.9683035714286,759.8745535714286,2586.7,282.9683035714286,759.8745535714286,2692.4,282.9683035714286,759.8745535714286,2798.3,282.9683035714286,759.8745535714286,2900.2,282.9683035714286,759.8745535714286,3005.7,282.9683035714286,759.8745535714286,3109.1,282.9683035714286,759.8745535714286,3210.7,282.9683035714286,759.8745535714286,3312.2,282.9683035714286,759.8745535714286,3412.2,282.9683035714286,759.8745535714286,3515.6,282.9683035714286,759.8745535714286,3621.9,282.9683035714286,759.8745535714286,3723.4,282.9683035714286,759.8745535714286,3825.1,286.9683035714286,779.8745535714286,3925.3,277.9683035714286,818.8745535714286,4031.3,277.9683035714286,819.8745535714286,4136.7,277.9683035714286,819.8745535714286,4240.9,277.9683035714286,819.8745535714286,4344.2,277.9683035714286,819.8745535714286,4447.4,277.9683035714286,819.8745535714286,4551.4,277.9683035714286,819.8745535714286,4659.5,277.9683035714286,819.8745535714286,4760.8,277.9683035714286,819.8745535714286,4861.3,277.9683035714286,819.8745535714286,4965.9]","[4676.1,4676.1,2252.4,2027.7,396,""oops"",""down"",""left"",""good_move"",10251.6,5575.1,2252.7,7582.1,416.8,""oops"",""down"",""down"",""good_move"",14221.1,3968.8,3464.3,10252.3,504.5,""smooth"",""down"",""down"",""good_move"",20563.7,6342.4,2500.5,17657.3,405.9,""smooth"",""left"",""left"",""good_move""]","",""
"2137","","<div style=""width:500px;"">
  <p>What determined the result of this run?</p>
  </div>","100","html-slider-response","67","774854","0.0-10.0-1.5","17","1","2025-07-09 09:06:42","7701e855f2ef39aa3fd6c71abdc6918a","82.146.238.62","Mozilla/5.0 (Windows NT 10.0; Win64; x64) AppleWebKit/537.36 (KHTML, like Gecko) Chrome/138.0.0.0 Safari/537.36","WebKit","Chrome","138.0.0.0","Windows","10.0","https://app.prolific.com/","pl-PL,pl;q=0.9,en-US;q=0.8,en;q=0.7","6171357438c12a4317bbdede","686d226cabeef709c732f8e1","686e3113b15c5da6427a5929","6171357438c12a4317bbdede","2025-07-09T09:19:38.576Z","","","","","","AttribQ","","","","","","","","","","","","","","","","","","","","","","","","","","","","","","","","","","","","","","50"
"2735","","<div style=""width:500px;"">
  <p>How much control did you have over the ball?</p>
  </div>","76","html-slider-response","68","777590","0.0-10.0-2.5","17","1","2025-07-09 09:06:42","7701e855f2ef39aa3fd6c71abdc6918a","82.146.238.62","Mozilla/5.0 (Windows NT 10.0; Win64; x64) AppleWebKit/537.36 (KHTML, like Gecko) Chrome/138.0.0.0 Safari/537.36","WebKit","Chrome","138.0.0.0","Windows","10.0","https://app.prolific.com/","pl-PL,pl;q=0.9,en-US;q=0.8,en;q=0.7","6171357438c12a4317bbdede","686d226cabeef709c732f8e1","686e3113b15c5da6427a5929","6171357438c12a4317bbdede","2025-07-09T09:19:41.312Z","","","","","","ControlQ","","","","","","","","","","","","","","","","","","","","","","","","","","","","","","","","","","","","","","50"
"2535","","<div style=""width:500px;"">
  <p>How would you describe your current emotional state?</p>
  </div>","47","html-slider-response","69","780126","0.0-10.0-3.5","17","1","2025-07-09 09:06:42","7701e855f2ef39aa3fd6c71abdc6918a","82.146.238.62","Mozilla/5.0 (Windows NT 10.0; Win64; x64) AppleWebKit/537.36 (KHTML, like Gecko) Chrome/138.0.0.0 Safari/537.36","WebKit","Chrome","138.0.0.0","Windows","10.0","https://app.prolific.com/","pl-PL,pl;q=0.9,en-US;q=0.8,en;q=0.7","6171357438c12a4317bbdede","686d226cabeef709c732f8e1","686e3113b15c5da6427a5929","6171357438c12a4317bbdede","2025-07-09T09:19:43.848Z","","","","","","StressQ","","","","","","","","","","","","","","","","","","","","","","","","","","","","","","","","","","","","","","50"
"2184","","<div style=""width:500px;"">
  <p>What best describes how you currently feel?</p>
  </div>","67","html-slider-response","70","782311","0.0-10.0-4.5","17","1","2025-07-09 09:06:42","7701e855f2ef39aa3fd6c71abdc6918a","82.146.238.62","Mozilla/5.0 (Windows NT 10.0; Win64; x64) AppleWebKit/537.36 (KHTML, like Gecko) Chrome/138.0.0.0 Safari/537.36","WebKit","Chrome","138.0.0.0","Windows","10.0","https://app.prolific.com/","pl-PL,pl;q=0.9,en-US;q=0.8,en;q=0.7","6171357438c12a4317bbdede","686d226cabeef709c732f8e1","686e3113b15c5da6427a5929","6171357438c12a4317bbdede","2025-07-09T09:19:46.033Z","","","","","","MotivationQ","","","","","","","","","","","","","","","","","","","","","","","","","","","","","","","","","","","","","","50"
"","","","","ctl-task-cpt","71","824516","0.0-10.0-0.6","17","1","2025-07-09 09:06:42","7701e855f2ef39aa3fd6c71abdc6918a","82.146.238.62","Mozilla/5.0 (Windows NT 10.0; Win64; x64) AppleWebKit/537.36 (KHTML, like Gecko) Chrome/138.0.0.0 Safari/537.36","WebKit","Chrome","138.0.0.0","Windows","10.0","https://app.prolific.com/","pl-PL,pl;q=0.9,en-US;q=0.8,en;q=0.7","6171357438c12a4317bbdede","686d226cabeef709c732f8e1","686e3113b15c5da6427a5929","6171357438c12a4317bbdede","2025-07-09T09:20:28.238Z","","","","","","","","","","","","","","","","win-only","3","g1:SW,g2:NE","0.4","7","0","783644.2","823.1","5832.1","39186.6","1","4","8","6","1","-1","-2","3","5","0.022727272727272728","840.2","3000","-2025","[""down"",""left""]","{""num_key_presses"":8,""num_perfect"":4,""num_errors"":1,""num_randdir"":3,""num_randdir_good_moves"":0,""num_whilered"":0,""num_whileblue"":1,""num_blue"":4,""num_good_moves"":4}","[395.9683035714286,390.8745535714286,0.3,395.9683035714286,390.8745535714286,103.8,395.9683035714286,390.8745535714286,203.8,391.9683035714286,390.8745535714286,310.6,365.9683035714286,450.8745535714286,413.1,207.96830357142858,624.8745535714286,513.3,145.96830357142858,703.8745535714286,617.7,124.96830357142856,703.8745535714286,723.7,104.96830357142856,709.8745535714286,827.1,104.96830357142856,709.8745535714286,927.6,104.96830357142856,709.8745535714286,1043.2,161.96830357142858,698.8745535714286,1143.3,302.9683035714286,688.8745535714286,1243.7,347.9683035714286,686.8745535714286,1349.9,347.9683035714286,686.8745535714286,1459.5,347.9683035714286,686.8745535714286,1563.6,347.9683035714286,686.8745535714286,1669.5,347.9683035714286,686.8745535714286,1773.3,347.9683035714286,686.8745535714286,1875.8,347.9683035714286,686.8745535714286,1978.3,347.9683035714286,686.8745535714286,2098.7,347.9683035714286,686.8745535714286,2212.3,349.9683035714286,685.8745535714286,2312.6,359.9683035714286,678.8745535714286,2432.7,360.9683035714286,678.8745535714286,2541.9,360.9683035714286,678.8745535714286,2643.7,360.9683035714286,678.8745535714286,2745.3,360.9683035714286,678.8745535714286,2863.1,360.9683035714286,678.8745535714286,2974.7,363.9683035714286,678.8745535714286,3080.5,363.9683035714286,678.8745535714286,3193,363.9683035714286,678.8745535714286,3294.1,363.9683035714286,678.8745535714286,3408.5,363.9683035714286,678.8745535714286,3509,363.9683035714286,678.8745535714286,3624.1,363.9683035714286,678.8745535714286,3727.1,363.9683035714286,678.8745535714286,3828.2,363.9683035714286,678.8745535714286,3928.7,363.9683035714286,678.8745535714286,4042.9,363.9683035714286,678.8745535714286,4149.3,363.9683035714286,678.8745535714286,4259,363.9683035714286,678.8745535714286,4364,363.9683035714286,678.8745535714286,4465.3,363.9683035714286,678.8745535714286,4567.9,363.9683035714286,678.8745535714286,4669.2,363.9683035714286,678.8745535714286,4774,363.9683035714286,678.8745535714286,4874.5,363.9683035714286,678.8745535714286,4977.5]","[5327.8,5327.8,2881.2,2031.1,415.5,""smooth"",""down"",""down"",""good_move"",11502.4,6174.2,2353.5,8865.1,283.8,""while_blue"",""down"",""right"",""bad_move"",14213.1,2709.8,2164.8,11503.3,545,""oops"",""down"",""right"",""bad_move"",16877.9,2664.7,2040,14213.2,624.7,""smooth"",""down"",""down"",""good_move"",18941.2,2062.9,1614.3,16878.4,448.5,""smooth"",""left"",""left"",""good_move"",22406,3464.5,2960.1,18941.5,504.4,""smooth"",""left"",""left"",""good_move"",28693.6,6287.6,2206,26125.5,362.1,""oops"",""left"",""right"",""bad_move"",30866,2172.1,1625.1,28693.9,547,""oops"",""left"",""up"",""bad_move""]","",""