"rt","response_timestamp","stimulus","response","trial_type","trial_index","time_elapsed","internal_node_id","run_id","condition","recorded_at","source_code_version","ip","user_agent","device","browser","browser_version","platform","platform_version","referer","accept_language","PROLIFIC_PID","STUDY_ID","SESSION_ID","prolific_id","realtime","view_history","question_order","consent","success","question_id","eventType","responses","item_order","radio_event_ids","radio_event_times","key_event_times","mouse_event_times","straightlining","zigzagging","honeypot","which_type","canvas_config","goals_layout","control_level","trial_number","tutorial_trial_number","trial_start_time","phase1_start_time","phase2_start_time","phase3_start_time","goal_1_value","goal_1_distance","goal_2_value","goal_2_distance","goal_selected","outcome","outcome_total","participant_final_score","participant_initial_score","participant_final_score_prop","goal_choice_rt","allocated_time","allocated_time_remaining","goal_direction","counts","mouse_movements","key_presses","correct","slider_start","sub_question"
"2244","1752053918576","<p style='font-size:40px;line-height:1.25'><strong>Welcome to the experiment!</strong></p><p style='font-size:1.1em;line-height:1.25'>Thank you for your interest in our experiment! Before you begin, it is important that we obtain your informed consent to participate in the study.</p><p style='font-size:1.1em;line-height:1.25'>On the next screen will be an <strong>information sheet</strong> for you to read. To participate in the study we need you to read this information sheet and the following consent form carefully. If you agree with all the statements, please click the <strong>I agree</strong> button.</p><p style='font-size:1.1em;line-height:1.25'>Press <strong>Next</strong> to read the information sheet.</p>","0","custom-html-button-response","0","2245","0.0-0.0","229","1","2025-07-09 09:38:10","7701e855f2ef39aa3fd6c71abdc6918a","164.127.220.133","Mozilla/5.0 (Windows NT 10.0; Win64; x64) AppleWebKit/537.36 (KHTML, like Gecko) Chrome/138.0.0.0 Safari/537.36 Edg/138.0.0.0","WebKit","Edge","138.0.0.0","Windows","10.0","https://app.prolific.com/","pl,en;q=0.9,en-GB;q=0.8,en-US;q=0.7","5ede9653252ba51223688917","686d226cabeef709c732f8e1","686e3135458ca28eec5836e3","5ede9653252ba51223688917","2025-07-09T09:38:38.577Z","","","","","","","","","","","","","","","","","","","","","","","","","","","","","","","","","","","","","","","","","","","","",""
"10969","","","","instructions","1","13216","0.0-1.0","229","1","2025-07-09 09:38:10","7701e855f2ef39aa3fd6c71abdc6918a","164.127.220.133","Mozilla/5.0 (Windows NT 10.0; Win64; x64) AppleWebKit/537.36 (KHTML, like Gecko) Chrome/138.0.0.0 Safari/537.36 Edg/138.0.0.0","WebKit","Edge","138.0.0.0","Windows","10.0","https://app.prolific.com/","pl,en;q=0.9,en-GB;q=0.8,en-US;q=0.7","5ede9653252ba51223688917","686d226cabeef709c732f8e1","686e3135458ca28eec5836e3","5ede9653252ba51223688917","","[{""page_index"":0,""viewing_time"":8784},{""page_index"":1,""viewing_time"":2185}]","","","","","","","","","","","","","","","","","","","","","","","","","","","","","","","","","","","","","","","","","","","",""
"8337","","","{""Q0"":"""",""Q1"":"""",""Q2"":"""",""Q3"":"""",""Q4"":"""",""Q5"":"""",""Q6"":""I agree""}","survey-multi-choice","2","21557","0.0-2.0","229","1","2025-07-09 09:38:10","7701e855f2ef39aa3fd6c71abdc6918a","164.127.220.133","Mozilla/5.0 (Windows NT 10.0; Win64; x64) AppleWebKit/537.36 (KHTML, like Gecko) Chrome/138.0.0.0 Safari/537.36 Edg/138.0.0.0","WebKit","Edge","138.0.0.0","Windows","10.0","https://app.prolific.com/","pl,en;q=0.9,en-GB;q=0.8,en-US;q=0.7","5ede9653252ba51223688917","686d226cabeef709c732f8e1","686e3135458ca28eec5836e3","5ede9653252ba51223688917","","","[0,1,2,3,4,5,6]","true","","","","","","","","","","","","","","","","","","","","","","","","","","","","","","","","","","","","","","","","","",""
"9014","","","","fullscreen","3","31574","0.0-4.0","229","1","2025-07-09 09:38:10","7701e855f2ef39aa3fd6c71abdc6918a","164.127.220.133","Mozilla/5.0 (Windows NT 10.0; Win64; x64) AppleWebKit/537.36 (KHTML, like Gecko) Chrome/138.0.0.0 Safari/537.36 Edg/138.0.0.0","WebKit","Edge","138.0.0.0","Windows","10.0","https://app.prolific.com/","pl,en;q=0.9,en-GB;q=0.8,en-US;q=0.7","5ede9653252ba51223688917","686d226cabeef709c732f8e1","686e3135458ca28eec5836e3","5ede9653252ba51223688917","","","","","true","","","","","","","","","","","","","","","","","","","","","","","","","","","","","","","","","","","","","","","","",""
"2437","1752053950345"," <p style='font-size:1.1em;line-height:1.25'>Thank you for completing the consent form and closing all other tabs.</p><p style='font-size:1.1em;line-height:1.25'>We will now invite you to fill in some demographic information and questionnaires, before starting the game.<br>This will take about 5 minutes.<br></p><p style='font-size:1.1em;line-height:1.25'>Press the <strong>Next</strong> button to continue.</p>","0","custom-html-button-response","4","34013","0.0-5.0","229","1","2025-07-09 09:38:10","7701e855f2ef39aa3fd6c71abdc6918a","164.127.220.133","Mozilla/5.0 (Windows NT 10.0; Win64; x64) AppleWebKit/537.36 (KHTML, like Gecko) Chrome/138.0.0.0 Safari/537.36 Edg/138.0.0.0","WebKit","Edge","138.0.0.0","Windows","10.0","https://app.prolific.com/","pl,en;q=0.9,en-GB;q=0.8,en-US;q=0.7","5ede9653252ba51223688917","686d226cabeef709c732f8e1","686e3135458ca28eec5836e3","5ede9653252ba51223688917","2025-07-09T09:39:10.346Z","","","","","","","","","","","","","","","","","","","","","","","","","","","","","","","","","","","","","","","","","","","","",""
"3023","","","{""age"":""25""}","survey-text","5","37040","0.0-6.0-0.0","229","1","2025-07-09 09:38:10","7701e855f2ef39aa3fd6c71abdc6918a","164.127.220.133","Mozilla/5.0 (Windows NT 10.0; Win64; x64) AppleWebKit/537.36 (KHTML, like Gecko) Chrome/138.0.0.0 Safari/537.36 Edg/138.0.0.0","WebKit","Edge","138.0.0.0","Windows","10.0","https://app.prolific.com/","pl,en;q=0.9,en-GB;q=0.8,en-US;q=0.7","5ede9653252ba51223688917","686d226cabeef709c732f8e1","686e3135458ca28eec5836e3","5ede9653252ba51223688917","","","","","","0","demographics","","","","","","","","","","","","","","","","","","","","","","","","","","","","","","","","","","","","","","",""
"3490","","","{""gender_identity"":""female/woman""}","survey-multi-choice","6","40531","0.0-6.0-1.0","229","1","2025-07-09 09:38:10","7701e855f2ef39aa3fd6c71abdc6918a","164.127.220.133","Mozilla/5.0 (Windows NT 10.0; Win64; x64) AppleWebKit/537.36 (KHTML, like Gecko) Chrome/138.0.0.0 Safari/537.36 Edg/138.0.0.0","WebKit","Edge","138.0.0.0","Windows","10.0","https://app.prolific.com/","pl,en;q=0.9,en-GB;q=0.8,en-US;q=0.7","5ede9653252ba51223688917","686d226cabeef709c732f8e1","686e3135458ca28eec5836e3","5ede9653252ba51223688917","","","[0]","","","1","demographics","","","","","","","","","","","","","","","","","","","","","","","","","","","","","","","","","","","","","","",""
"2751","","","{""assigned_sex"":""female""}","survey-multi-choice","7","43282","0.0-6.0-2.0","229","1","2025-07-09 09:38:10","7701e855f2ef39aa3fd6c71abdc6918a","164.127.220.133","Mozilla/5.0 (Windows NT 10.0; Win64; x64) AppleWebKit/537.36 (KHTML, like Gecko) Chrome/138.0.0.0 Safari/537.36 Edg/138.0.0.0","WebKit","Edge","138.0.0.0","Windows","10.0","https://app.prolific.com/","pl,en;q=0.9,en-GB;q=0.8,en-US;q=0.7","5ede9653252ba51223688917","686d226cabeef709c732f8e1","686e3135458ca28eec5836e3","5ede9653252ba51223688917","","","[0]","","","2","demographics","","","","","","","","","","","","","","","","","","","","","","","","","","","","","","","","","","","","","","",""
"2097","","","{""menstrual_cycle"":""Yes""}","survey-multi-choice","8","45380","0.0-6.0-3.0","229","1","2025-07-09 09:38:10","7701e855f2ef39aa3fd6c71abdc6918a","164.127.220.133","Mozilla/5.0 (Windows NT 10.0; Win64; x64) AppleWebKit/537.36 (KHTML, like Gecko) Chrome/138.0.0.0 Safari/537.36 Edg/138.0.0.0","WebKit","Edge","138.0.0.0","Windows","10.0","https://app.prolific.com/","pl,en;q=0.9,en-GB;q=0.8,en-US;q=0.7","5ede9653252ba51223688917","686d226cabeef709c732f8e1","686e3135458ca28eec5836e3","5ede9653252ba51223688917","","","[0]","","","4","demographics","","","","","","","","","","","","","","","","","","","","","","","","","","","","","","","","","","","","","","",""
"2456","","","{""education"":""A-level/National Diploma/Highers""}","survey-multi-choice","9","47837","0.0-6.0-4.0","229","1","2025-07-09 09:38:10","7701e855f2ef39aa3fd6c71abdc6918a","164.127.220.133","Mozilla/5.0 (Windows NT 10.0; Win64; x64) AppleWebKit/537.36 (KHTML, like Gecko) Chrome/138.0.0.0 Safari/537.36 Edg/138.0.0.0","WebKit","Edge","138.0.0.0","Windows","10.0","https://app.prolific.com/","pl,en;q=0.9,en-GB;q=0.8,en-US;q=0.7","5ede9653252ba51223688917","686d226cabeef709c732f8e1","686e3135458ca28eec5836e3","5ede9653252ba51223688917","","","[0]","","","5","demographics","","","","","","","","","","","","","","","","","","","","","","","","","","","","","","","","","","","","","","",""
"2257","","","{""education"":""A-level/National Diploma/Highers""}","survey-multi-choice","10","50095","0.0-6.0-5.0","229","1","2025-07-09 09:38:10","7701e855f2ef39aa3fd6c71abdc6918a","164.127.220.133","Mozilla/5.0 (Windows NT 10.0; Win64; x64) AppleWebKit/537.36 (KHTML, like Gecko) Chrome/138.0.0.0 Safari/537.36 Edg/138.0.0.0","WebKit","Edge","138.0.0.0","Windows","10.0","https://app.prolific.com/","pl,en;q=0.9,en-GB;q=0.8,en-US;q=0.7","5ede9653252ba51223688917","686d226cabeef709c732f8e1","686e3135458ca28eec5836e3","5ede9653252ba51223688917","2025-07-09T09:39:26.427Z","","[0]","","","6","demographics","","","","","","","","","","","","","","","","","","","","","","","","","","","","","","","","","","","","","","",""
"2504","","","{""mental_health_condition"":"""",""mental_health_treatment"":"""",""psychiatric_medication"":""""}","survey-text","11","52601","0.0-7.0-0.0","229","1","2025-07-09 09:38:10","7701e855f2ef39aa3fd6c71abdc6918a","164.127.220.133","Mozilla/5.0 (Windows NT 10.0; Win64; x64) AppleWebKit/537.36 (KHTML, like Gecko) Chrome/138.0.0.0 Safari/537.36 Edg/138.0.0.0","WebKit","Edge","138.0.0.0","Windows","10.0","https://app.prolific.com/","pl,en;q=0.9,en-GB;q=0.8,en-US;q=0.7","5ede9653252ba51223688917","686d226cabeef709c732f8e1","686e3135458ca28eec5836e3","5ede9653252ba51223688917","2025-07-09T09:39:28.933Z","","","","","1","mental_health","","","","","","","","","","","","","","","","","","","","","","","","","","","","","","","","","","","","","","",""
"3353","","","{""depression_history"":[""Yes""]}","survey-multi-select","12","55957","0.0-7.0-1.0","229","1","2025-07-09 09:38:10","7701e855f2ef39aa3fd6c71abdc6918a","164.127.220.133","Mozilla/5.0 (Windows NT 10.0; Win64; x64) AppleWebKit/537.36 (KHTML, like Gecko) Chrome/138.0.0.0 Safari/537.36 Edg/138.0.0.0","WebKit","Edge","138.0.0.0","Windows","10.0","https://app.prolific.com/","pl,en;q=0.9,en-GB;q=0.8,en-US;q=0.7","5ede9653252ba51223688917","686d226cabeef709c732f8e1","686e3135458ca28eec5836e3","5ede9653252ba51223688917","","","[0]","","","","mental_health","","","","","","","","","","","","","","","","","","","","","","","","","","","","","","","","","","","","","","",""
"8484","","","{""depression_episodes"":""1-2"",""depression_recent"":""More than 1 year ago""}","survey-multi-choice","13","64443","0.0-7.0-2.0-0.0","229","1","2025-07-09 09:38:10","7701e855f2ef39aa3fd6c71abdc6918a","164.127.220.133","Mozilla/5.0 (Windows NT 10.0; Win64; x64) AppleWebKit/537.36 (KHTML, like Gecko) Chrome/138.0.0.0 Safari/537.36 Edg/138.0.0.0","WebKit","Edge","138.0.0.0","Windows","10.0","https://app.prolific.com/","pl,en;q=0.9,en-GB;q=0.8,en-US;q=0.7","5ede9653252ba51223688917","686d226cabeef709c732f8e1","686e3135458ca28eec5836e3","5ede9653252ba51223688917","2025-07-09T09:39:40.775Z","","[0,1]","","","3","mental_health","","","","","","","","","","","","","","","","","","","","","","","","","","","","","","","","","","","","","","",""
"40555.30000114441","","","","survey-template","14","105001","0.0-7.0-3.0","229","1","2025-07-09 09:38:10","7701e855f2ef39aa3fd6c71abdc6918a","164.127.220.133","Mozilla/5.0 (Windows NT 10.0; Win64; x64) AppleWebKit/537.36 (KHTML, like Gecko) Chrome/138.0.0.0 Safari/537.36 Edg/138.0.0.0","WebKit","Edge","138.0.0.0","Windows","10.0","https://app.prolific.com/","pl,en;q=0.9,en-GB;q=0.8,en-US;q=0.7","5ede9653252ba51223688917","686d226cabeef709c732f8e1","686e3135458ca28eec5836e3","5ede9653252ba51223688917","2025-07-09T09:40:21.333Z","","","","","","ius","{""Q01"":""4"",""Q02"":""4"",""Q03"":""4"",""Q04"":""4"",""Q05"":""4"",""Q06"":""4"",""Q07"":""4"",""Q08"":""0"",""Q09"":""4"",""Q10"":""4"",""Q11"":""4"",""Q12"":""3"",""Q13"":""4""}","[0,1,2,3,4,5,6,7,8,9,10,11,12]","[""Q01"",""Q03"",""Q02"",""Q04"",""Q05"",""Q06"",""Q08"",""Q07"",""Q09"",""Q10"",""Q11"",""Q12"",""Q13""]","[4324.900001525879,6386.300001144409,7470.900001525879,10424.20000076294,12766.80000114441,14878.400001525879,19046.30000114441,24378.10000038147,30184.20000076294,31082.40000152588,33238.60000038147,37909.30000114441,39741.5]","[]","[2614,3691.900001525879,4324.900001525879,5114.5,6386.300001144409,7470.900001525879,9662.80000114441,10424.20000076294,12766.80000114441,14878.400001525879,19046.30000114441,24378.10000038147,28574.60000038147,29616.70000076294,30184.20000076294,31082.40000152588,33238.60000038147,37909.30000114441,39741.5,40553.90000152588]","0.8461538461538461","0.3333333333333333","0","","","","","","","","","","","","","","","","","","","","","","","","","","","","","",""
"1994","1752054023327","<p style='font-size:1.1em;line-height:1.25'>In the following, we will ask you a few questions relating to your experiences over the past month.<br></p><p style='font-size:1.1em;line-height:1.25'>Press the <strong>Next</strong> button to continue.</p>","0","custom-html-button-response","15","106996","0.0-7.0-4.0","229","1","2025-07-09 09:38:10","7701e855f2ef39aa3fd6c71abdc6918a","164.127.220.133","Mozilla/5.0 (Windows NT 10.0; Win64; x64) AppleWebKit/537.36 (KHTML, like Gecko) Chrome/138.0.0.0 Safari/537.36 Edg/138.0.0.0","WebKit","Edge","138.0.0.0","Windows","10.0","https://app.prolific.com/","pl,en;q=0.9,en-GB;q=0.8,en-US;q=0.7","5ede9653252ba51223688917","686d226cabeef709c732f8e1","686e3135458ca28eec5836e3","5ede9653252ba51223688917","2025-07-09T09:40:23.328Z","","","","","","","","","","","","","","","","","","","","","","","","","","","","","","","","","","","","","","","","","","","","",""
"52295.29999923706","","","","survey-template","16","159295","0.0-7.0-5.0","229","1","2025-07-09 09:38:10","7701e855f2ef39aa3fd6c71abdc6918a","164.127.220.133","Mozilla/5.0 (Windows NT 10.0; Win64; x64) AppleWebKit/537.36 (KHTML, like Gecko) Chrome/138.0.0.0 Safari/537.36 Edg/138.0.0.0","WebKit","Edge","138.0.0.0","Windows","10.0","https://app.prolific.com/","pl,en;q=0.9,en-GB;q=0.8,en-US;q=0.7","5ede9653252ba51223688917","686d226cabeef709c732f8e1","686e3135458ca28eec5836e3","5ede9653252ba51223688917","2025-07-09T09:41:15.628Z","","","","","","pss","{""Q01"":""4"",""Q02"":""3"",""Q03"":""4"",""Q04"":""3"",""Q05"":""3"",""Q06"":""1"",""Q07"":""3"",""Q08"":""3"",""Q09"":""3"",""Q10"":""4""}","[0,1,2,3,4,5,6,7,8,9]","[""Q01"",""Q02"",""Q03"",""Q02"",""Q04"",""Q05"",""Q06"",""Q07"",""Q08"",""Q09"",""Q10"",""Q10""]","[5236.700000762939,9827.60000038147,10934.70000076294,11847.39999961853,18616.29999923706,24744.79999923706,28675.5,31578.20000076294,34043.39999961853,38599.79999923706,47472.70000076294,49635.70000076294]","[]","[8.200000762939453,3763.7000007629395,5236.700000762939,8054,9009.29999923706,9827.60000038147,10934.70000076294,11847.39999961853,16596.70000076294,18616.29999923706,24744.79999923706,28675.5,31578.20000076294,34043.39999961853,37196.39999961853,38599.79999923706,47472.70000076294,49635.70000076294,52293.89999961853]","0.5","0.3333333333333333","0","","","","","","","","","","","","","","","","","","","","","","","","","","","","","",""
"1901","1752054077534","<p style='font-size:1.1em;line-height:1.25'>Thank you for your answers! Now we will ask you a few more questions relating to your feelings in the last 24 hours.<br></p><p style='font-size:1.1em;line-height:1.25'>Press the <strong>Next</strong> button to continue.</p>","0","custom-html-button-response","17","161203","0.0-7.0-6.0","229","1","2025-07-09 09:38:10","7701e855f2ef39aa3fd6c71abdc6918a","164.127.220.133","Mozilla/5.0 (Windows NT 10.0; Win64; x64) AppleWebKit/537.36 (KHTML, like Gecko) Chrome/138.0.0.0 Safari/537.36 Edg/138.0.0.0","WebKit","Edge","138.0.0.0","Windows","10.0","https://app.prolific.com/","pl,en;q=0.9,en-GB;q=0.8,en-US;q=0.7","5ede9653252ba51223688917","686d226cabeef709c732f8e1","686e3135458ca28eec5836e3","5ede9653252ba51223688917","2025-07-09T09:41:17.535Z","","","","","","","","","","","","","","","","","","","","","","","","","","","","","","","","","","","","","","","","","","","","",""
"83481.60000038147","","","","survey-template","18","244689","0.0-7.0-7.0","229","1","2025-07-09 09:38:10","7701e855f2ef39aa3fd6c71abdc6918a","164.127.220.133","Mozilla/5.0 (Windows NT 10.0; Win64; x64) AppleWebKit/537.36 (KHTML, like Gecko) Chrome/138.0.0.0 Safari/537.36 Edg/138.0.0.0","WebKit","Edge","138.0.0.0","Windows","10.0","https://app.prolific.com/","pl,en;q=0.9,en-GB;q=0.8,en-US;q=0.7","5ede9653252ba51223688917","686d226cabeef709c732f8e1","686e3135458ca28eec5836e3","5ede9653252ba51223688917","2025-07-09T09:42:41.021Z","","","","","","drsp","{""Q01"":""4"",""Q02"":""3"",""Q03"":""4"",""Q04"":""4"",""Q05"":""4"",""Q06"":""1"",""Q07"":""3"",""Q08"":""1"",""Q09"":""4"",""Q10"":""4"",""Q11"":""4"",""Q12"":""2"",""Q13"":""3"",""Q14"":""3"",""Q15"":""0"",""Q16"":""4"",""Q17"":""1"",""Q18"":""5"",""Q19"":""5"",""Q20"":""5"",""Q21"":""4""}","[0,1,2,3,4,5,6,7,8,9,10,11,12,13,14,15,16,17,18,19,20]","[""Q01"",""Q02"",""Q03"",""Q04"",""Q05"",""Q05"",""Q08"",""Q06"",""Q07"",""Q04"",""Q18"",""Q19"",""Q20"",""Q21"",""Q17"",""Q16"",""Q15"",""Q14"",""Q13"",""Q12"",""Q11"",""Q10"",""Q09""]","[4760.10000038147,7218.699998855591,10868.19999885559,11967,13943.89999961853,15545.10000038147,19576.60000038147,24348,28106.10000038147,33675,40349.79999923706,42915.69999885559,43949.60000038147,50309.5,57739.79999923706,62590.19999885559,63977.29999923706,66426.10000038147,73325.79999923706,74194.19999885559,76983.29999923706,78218.60000038147,79749.29999923706]","[]","[23.799999237060547,4760.10000038147,7218.699998855591,8884.69999885559,10120.89999961853,10868.19999885559,11967,13943.89999961853,15545.10000038147,19576.60000038147,24348,28106.10000038147,33675,40349.79999923706,42225.39999961853,42915.69999885559,43949.60000038147,49712.39999961853,50309.5,57739.79999923706,61425.60000038147,62590.19999885559,63977.29999923706,66426.10000038147,70601.69999885559,73325.79999923706,74194.19999885559,76983.29999923706,78218.60000038147,79749.29999923706,83478.89999961853]","0.42857142857142855","0.2","0","","","","","","","","","","","","","","","","","","","","","","","","","","","","","",""
"27898.29999923706","","","","survey-template","19","272589","0.0-7.0-8.0","229","1","2025-07-09 09:38:10","7701e855f2ef39aa3fd6c71abdc6918a","164.127.220.133","Mozilla/5.0 (Windows NT 10.0; Win64; x64) AppleWebKit/537.36 (KHTML, like Gecko) Chrome/138.0.0.0 Safari/537.36 Edg/138.0.0.0","WebKit","Edge","138.0.0.0","Windows","10.0","https://app.prolific.com/","pl,en;q=0.9,en-GB;q=0.8,en-US;q=0.7","5ede9653252ba51223688917","686d226cabeef709c732f8e1","686e3135458ca28eec5836e3","5ede9653252ba51223688917","2025-07-09T09:43:08.921Z","","","","","","stress","{""Q01"":""5"",""Q02"":""4"",""Q03"":""4""}","[0,1,2]","[""Q01"",""Q01"",""Q02"",""Q03""]","[6525.299999237061,15212.79999923706,23420.69999885559,26834.69999885559]","[]","[273.1999988555908,5641.799999237061,6525.299999237061,15212.79999923706,18797.59999847412,23420.69999885559,26834.69999885559,27897.89999961853]","0.3333333333333333","0","0","","","","","","","","","","","","","","","","","","","","","","","","","","","","","",""
"9888","","","","instructions","20","282477","0.0-8.0-0.0","229","1","2025-07-09 09:38:10","7701e855f2ef39aa3fd6c71abdc6918a","164.127.220.133","Mozilla/5.0 (Windows NT 10.0; Win64; x64) AppleWebKit/537.36 (KHTML, like Gecko) Chrome/138.0.0.0 Safari/537.36 Edg/138.0.0.0","WebKit","Edge","138.0.0.0","Windows","10.0","https://app.prolific.com/","pl,en;q=0.9,en-GB;q=0.8,en-US;q=0.7","5ede9653252ba51223688917","686d226cabeef709c732f8e1","686e3135458ca28eec5836e3","5ede9653252ba51223688917","","[{""page_index"":0,""viewing_time"":3808},{""page_index"":1,""viewing_time"":2372},{""page_index"":2,""viewing_time"":2091},{""page_index"":3,""viewing_time"":1617}]","","","","","","","","","","","","","","","","","","","","","","","","","","","","","","","","","","","","","","","","","","","",""
"","","","","ctl-task-cpt","21","308378","0.0-8.0-1.0","229","1","2025-07-09 09:38:10","7701e855f2ef39aa3fd6c71abdc6918a","164.127.220.133","Mozilla/5.0 (Windows NT 10.0; Win64; x64) AppleWebKit/537.36 (KHTML, like Gecko) Chrome/138.0.0.0 Safari/537.36 Edg/138.0.0.0","WebKit","Edge","138.0.0.0","Windows","10.0","https://app.prolific.com/","pl,en;q=0.9,en-GB;q=0.8,en-US;q=0.7","5ede9653252ba51223688917","686d226cabeef709c732f8e1","686e3135458ca28eec5836e3","5ede9653252ba51223688917","","","","","","","","","","","","","","","","","win-only","3","g1:SW,g2:NE","1","0","1","298676.9","1579.6","5580.8","22891.7","2","4","4","6","1","2","1","1","0","0.007575757575757576","2335.3","4000","2165","[""down"",""left""]","{""num_key_presses"":5,""num_perfect"":4,""num_errors"":1,""num_randdir"":0,""num_randdir_good_moves"":0,""num_whilered"":0,""num_whileblue"":0,""num_blue"":1,""num_good_moves"":4}","[421.5714133126395,414.07142761775424,0.3,421.5714133126395,414.07142761775424,100.7,421.5714133126395,414.07142761775424,200.9,421.5714133126395,414.07142761775424,301.9,546.5714133126395,449.07142761775424,406.4,550.3214133126395,451.57142761775424,511.6,550.3214133126395,451.57142761775424,617.1,550.3214133126395,451.57142761775424,720.9,550.3214133126395,451.57142761775424,822.3,550.3214133126395,451.57142761775424,927.5,550.3214133126395,451.57142761775424,1033.3,550.3214133126395,451.57142761775424,1133.5,550.3214133126395,451.57142761775424,1236,550.3214133126395,451.57142761775424,1336.2,550.3214133126395,451.57142761775424,1441.9,550.3214133126395,451.57142761775424,1541.9,464.0714133126395,551.5714276177542,1650.5,302.8214133126395,656.5714276177542,1751.4,232.8214133126395,655.3214276177542,1856.5,87.8214133126395,692.8214276177542,1961.3,69.0714133126395,695.3214276177542,2068.1,69.0714133126395,695.3214276177542,2171,69.0714133126395,722.8214276177542,2271,69.0714133126395,722.8214276177542,2371.3,69.0714133126395,722.8214276177542,2472.1,69.0714133126395,722.8214276177542,2575.7,69.0714133126395,722.8214276177542,2678,466.5714133126395,680.3214276177542,2783.3,701.5714133126395,680.3214276177542,2883.8,866.5714133126395,674.0714276177542,2986.4,866.5714133126395,674.0714276177542,3090.9,866.5714133126395,674.0714276177542,3200.3,866.5714133126395,674.0714276177542,3300.3,866.5714133126395,674.0714276177542,3401.1,866.5714133126395,674.0714276177542,3506.4,866.5714133126395,674.0714276177542,3606.5,866.5714133126395,674.0714276177542,3717.2,866.5714133126395,674.0714276177542,3821.3,866.5714133126395,674.0714276177542,3926.1]","[375.6,375.5,1000,0.1,-624.5,""error"",""-"",""-"",""no_move"",4849.4,4473.6,2868.8,1382.5,598.1,""smooth"",""down"",""down"",""good_move"",7702.6,2852.8,2275,4849.8,577.8,""smooth"",""left"",""left"",""good_move"",10271.9,2569.1,2201.2,7702.8,367.9,""smooth"",""down"",""down"",""good_move"",17200.4,6928.3,2674.6,13969.4,556.4,""smooth"",""left"",""left"",""good_move""]","","",""
"1856","","","","instructions","22","310235","0.0-8.0-2.0","229","1","2025-07-09 09:38:10","7701e855f2ef39aa3fd6c71abdc6918a","164.127.220.133","Mozilla/5.0 (Windows NT 10.0; Win64; x64) AppleWebKit/537.36 (KHTML, like Gecko) Chrome/138.0.0.0 Safari/537.36 Edg/138.0.0.0","WebKit","Edge","138.0.0.0","Windows","10.0","https://app.prolific.com/","pl,en;q=0.9,en-GB;q=0.8,en-US;q=0.7","5ede9653252ba51223688917","686d226cabeef709c732f8e1","686e3135458ca28eec5836e3","5ede9653252ba51223688917","","[{""page_index"":0,""viewing_time"":1856}]","","","","","","","","","","","","","","","","","","","","","","","","","","","","","","","","","","","","","","","","","","","",""
"","","","","ctl-task-cpt","23","359617","0.0-8.0-3.0","229","1","2025-07-09 09:38:10","7701e855f2ef39aa3fd6c71abdc6918a","164.127.220.133","Mozilla/5.0 (Windows NT 10.0; Win64; x64) AppleWebKit/537.36 (KHTML, like Gecko) Chrome/138.0.0.0 Safari/537.36 Edg/138.0.0.0","WebKit","Edge","138.0.0.0","Windows","10.0","https://app.prolific.com/","pl,en;q=0.9,en-GB;q=0.8,en-US;q=0.7","5ede9653252ba51223688917","686d226cabeef709c732f8e1","686e3135458ca28eec5836e3","5ede9653252ba51223688917","","","","","","","","","","","","","","","","","win-only","3","g1:SW,g2:NE","0.35","0","3","326432.1","2009.3","6011.2","46376.6","2","4","8","6","1","-2","-2","0","0","0","1575.8","4000","-2950","[""down"",""left""]","{""num_key_presses"":10,""num_perfect"":4,""num_errors"":0,""num_randdir"":6,""num_randdir_good_moves"":2,""num_whilered"":0,""num_whileblue"":0,""num_blue"":3,""num_good_moves"":6}","[419.0714133126395,406.57142761775424,0.3,419.0714133126395,406.57142761775424,101,419.0714133126395,406.57142761775424,206.3,419.0714133126395,406.57142761775424,307.1,419.0714133126395,406.57142761775424,411.4,419.0714133126395,406.57142761775424,511.5,559.0714133126395,315.32142761775424,611.8,677.8214133126395,214.07142761775424,718,664.0714133126395,161.57142761775424,821.8,681.5714133126395,130.32142761775424,926.1,567.8214133126395,376.57142761775424,1026.7,220.3214133126395,716.5714276177542,1134,220.3214133126395,716.5714276177542,1235.9,147.8214133126395,766.5714276177542,1336.3,124.0714133126395,751.5714276177542,1436.6,121.5714133126395,744.0714276177542,1537.6,121.5714133126395,744.0714276177542,1641.6,121.5714133126395,744.0714276177542,1741.6,121.5714133126395,744.0714276177542,1842.4,121.5714133126395,744.0714276177542,1950.9,121.5714133126395,744.0714276177542,2051.5,121.5714133126395,744.0714276177542,2151.9,121.5714133126395,744.0714276177542,2256.7,121.5714133126395,744.0714276177542,2361.8,121.5714133126395,744.0714276177542,2461.8,121.5714133126395,744.0714276177542,2561.9,121.5714133126395,744.0714276177542,2668.1,121.5714133126395,744.0714276177542,2768.5,121.5714133126395,744.0714276177542,2871.2,121.5714133126395,744.0714276177542,2971.6,121.5714133126395,744.0714276177542,3076.2,121.5714133126395,744.0714276177542,3177.1,121.5714133126395,744.0714276177542,3283.8,121.5714133126395,744.0714276177542,3384.2,121.5714133126395,744.0714276177542,3484.7,121.5714133126395,744.0714276177542,3586.2,121.5714133126395,744.0714276177542,3686.5,121.5714133126395,744.0714276177542,3791.6,121.5714133126395,744.0714276177542,3891.7,121.5714133126395,744.0714276177542,3992.2]","[1418.1,1418.1,1000,0,418.1,""smooth"",""down"",""down"",""good_move"",4601,3182.5,2712.7,1418.5,469.8,""smooth"",""left"",""left"",""good_move"",7282.3,2680.7,2272.3,4601.7,408.3,""oops"",""left"",""down"",""good_move"",9571.8,2289.1,1941.9,7282.8,347.1,""oops"",""left"",""right"",""bad_move"",12229,2657,2312.1,9572.1,344.9,""oops"",""left"",""left"",""good_move"",14954.3,2724.6,2399.9,12229.7,324.7,""oops"",""left"",""up"",""bad_move"",21381.4,6426.7,2618.3,18350.2,412.9,""smooth"",""left"",""left"",""good_move"",27874.3,6492.6,2403.3,24929.7,541.3,""oops"",""down"",""up"",""bad_move"",34853.3,6978.7,2649.2,31719.6,484.5,""smooth"",""down"",""down"",""good_move"",37855,3001.3,2628.2,34853.7,373.1,""oops"",""down"",""up"",""bad_move""]","","",""
"3520","","","","instructions","24","363138","0.0-8.0-4.0","229","1","2025-07-09 09:38:10","7701e855f2ef39aa3fd6c71abdc6918a","164.127.220.133","Mozilla/5.0 (Windows NT 10.0; Win64; x64) AppleWebKit/537.36 (KHTML, like Gecko) Chrome/138.0.0.0 Safari/537.36 Edg/138.0.0.0","WebKit","Edge","138.0.0.0","Windows","10.0","https://app.prolific.com/","pl,en;q=0.9,en-GB;q=0.8,en-US;q=0.7","5ede9653252ba51223688917","686d226cabeef709c732f8e1","686e3135458ca28eec5836e3","5ede9653252ba51223688917","","[{""page_index"":0,""viewing_time"":2027},{""page_index"":1,""viewing_time"":1489}]","","","","","","","","","","","","","","","","","","","","","","","","","","","","","","","","","","","","","","","","","","","",""
"9414","","","{""green_ball"":[""Ball sometimes shakes and moves in a random direction""]}","survey-multi-select","25","372565","0.0-8.0-5.0-0.0","229","1","2025-07-09 09:38:10","7701e855f2ef39aa3fd6c71abdc6918a","164.127.220.133","Mozilla/5.0 (Windows NT 10.0; Win64; x64) AppleWebKit/537.36 (KHTML, like Gecko) Chrome/138.0.0.0 Safari/537.36 Edg/138.0.0.0","WebKit","Edge","138.0.0.0","Windows","10.0","https://app.prolific.com/","pl,en;q=0.9,en-GB;q=0.8,en-US;q=0.7","5ede9653252ba51223688917","686d226cabeef709c732f8e1","686e3135458ca28eec5836e3","5ede9653252ba51223688917","","","[0]","","","","quiz","","","","","","","","","","","","","","","","","","","","","","","","","","","","","","","","","","","","","true","",""
"1227","","<p align='center'><b>CORRECT!</b> Indeed, the green ball may sometimes shake and move in a random direction.</p>","0","html-button-response","26","373794","0.0-8.0-5.0-1.0","229","1","2025-07-09 09:38:10","7701e855f2ef39aa3fd6c71abdc6918a","164.127.220.133","Mozilla/5.0 (Windows NT 10.0; Win64; x64) AppleWebKit/537.36 (KHTML, like Gecko) Chrome/138.0.0.0 Safari/537.36 Edg/138.0.0.0","WebKit","Edge","138.0.0.0","Windows","10.0","https://app.prolific.com/","pl,en;q=0.9,en-GB;q=0.8,en-US;q=0.7","5ede9653252ba51223688917","686d226cabeef709c732f8e1","686e3135458ca28eec5836e3","5ede9653252ba51223688917","","","","","","","","","","","","","","","","","","","","","","","","","","","","","","","","","","","","","","","","","","","","","",""
"3148","","","{""yellow_ball"":[""Ball doesn‘t move and I get -1 penalty point""]}","survey-multi-select","27","376944","0.0-8.0-6.0-0.0","229","1","2025-07-09 09:38:10","7701e855f2ef39aa3fd6c71abdc6918a","164.127.220.133","Mozilla/5.0 (Windows NT 10.0; Win64; x64) AppleWebKit/537.36 (KHTML, like Gecko) Chrome/138.0.0.0 Safari/537.36 Edg/138.0.0.0","WebKit","Edge","138.0.0.0","Windows","10.0","https://app.prolific.com/","pl,en;q=0.9,en-GB;q=0.8,en-US;q=0.7","5ede9653252ba51223688917","686d226cabeef709c732f8e1","686e3135458ca28eec5836e3","5ede9653252ba51223688917","","","[0]","","","","quiz","","","","","","","","","","","","","","","","","","","","","","","","","","","","","","","","","","","","","true","",""
"881","","<p align='center'><b>CORRECT!</b> Indeed, the yellow ball never moves and you receive a penalty.</p>","0","html-button-response","28","377827","0.0-8.0-6.0-1.0","229","1","2025-07-09 09:38:10","7701e855f2ef39aa3fd6c71abdc6918a","164.127.220.133","Mozilla/5.0 (Windows NT 10.0; Win64; x64) AppleWebKit/537.36 (KHTML, like Gecko) Chrome/138.0.0.0 Safari/537.36 Edg/138.0.0.0","WebKit","Edge","138.0.0.0","Windows","10.0","https://app.prolific.com/","pl,en;q=0.9,en-GB;q=0.8,en-US;q=0.7","5ede9653252ba51223688917","686d226cabeef709c732f8e1","686e3135458ca28eec5836e3","5ede9653252ba51223688917","","","","","","","","","","","","","","","","","","","","","","","","","","","","","","","","","","","","","","","","","","","","","",""
"3463","","","{""blue_ball"":[""Ball always shakes and moves in a random direction""]}","survey-multi-select","29","381292","0.0-8.0-7.0-0.0","229","1","2025-07-09 09:38:10","7701e855f2ef39aa3fd6c71abdc6918a","164.127.220.133","Mozilla/5.0 (Windows NT 10.0; Win64; x64) AppleWebKit/537.36 (KHTML, like Gecko) Chrome/138.0.0.0 Safari/537.36 Edg/138.0.0.0","WebKit","Edge","138.0.0.0","Windows","10.0","https://app.prolific.com/","pl,en;q=0.9,en-GB;q=0.8,en-US;q=0.7","5ede9653252ba51223688917","686d226cabeef709c732f8e1","686e3135458ca28eec5836e3","5ede9653252ba51223688917","","","[0]","","","","quiz","","","","","","","","","","","","","","","","","","","","","","","","","","","","","","","","","","","","","true","",""
"904","","<p align='center'><b>CORRECT!</b> Indeed, the blue ball always shakes and moves in a random direction. Also there is a penalty of -1 point.</p>","0","html-button-response","30","382197","0.0-8.0-7.0-1.0","229","1","2025-07-09 09:38:10","7701e855f2ef39aa3fd6c71abdc6918a","164.127.220.133","Mozilla/5.0 (Windows NT 10.0; Win64; x64) AppleWebKit/537.36 (KHTML, like Gecko) Chrome/138.0.0.0 Safari/537.36 Edg/138.0.0.0","WebKit","Edge","138.0.0.0","Windows","10.0","https://app.prolific.com/","pl,en;q=0.9,en-GB;q=0.8,en-US;q=0.7","5ede9653252ba51223688917","686d226cabeef709c732f8e1","686e3135458ca28eec5836e3","5ede9653252ba51223688917","","","","","","","","","","","","","","","","","","","","","","","","","","","","","","","","","","","","","","","","","","","","","",""
"2774","","","{""bonus"":[""When I reach 50% of points""]}","survey-multi-select","31","384972","0.0-8.0-8.0-0.0","229","1","2025-07-09 09:38:10","7701e855f2ef39aa3fd6c71abdc6918a","164.127.220.133","Mozilla/5.0 (Windows NT 10.0; Win64; x64) AppleWebKit/537.36 (KHTML, like Gecko) Chrome/138.0.0.0 Safari/537.36 Edg/138.0.0.0","WebKit","Edge","138.0.0.0","Windows","10.0","https://app.prolific.com/","pl,en;q=0.9,en-GB;q=0.8,en-US;q=0.7","5ede9653252ba51223688917","686d226cabeef709c732f8e1","686e3135458ca28eec5836e3","5ede9653252ba51223688917","","","[0]","","","","quiz","","","","","","","","","","","","","","","","","","","","","","","","","","","","","","","","","","","","","true","",""
"1604","","<p align='center'><b>CORRECT!</b> Indeed, you receive 2 pounds extra when you reach 50% of points.</p>","0","html-button-response","32","386581","0.0-8.0-8.0-1.0","229","1","2025-07-09 09:38:10","7701e855f2ef39aa3fd6c71abdc6918a","164.127.220.133","Mozilla/5.0 (Windows NT 10.0; Win64; x64) AppleWebKit/537.36 (KHTML, like Gecko) Chrome/138.0.0.0 Safari/537.36 Edg/138.0.0.0","WebKit","Edge","138.0.0.0","Windows","10.0","https://app.prolific.com/","pl,en;q=0.9,en-GB;q=0.8,en-US;q=0.7","5ede9653252ba51223688917","686d226cabeef709c732f8e1","686e3135458ca28eec5836e3","5ede9653252ba51223688917","","","","","","","","","","","","","","","","","","","","","","","","","","","","","","","","","","","","","","","","","","","","","",""
"1817","","","","instructions","33","388400","0.0-8.0-9.0","229","1","2025-07-09 09:38:10","7701e855f2ef39aa3fd6c71abdc6918a","164.127.220.133","Mozilla/5.0 (Windows NT 10.0; Win64; x64) AppleWebKit/537.36 (KHTML, like Gecko) Chrome/138.0.0.0 Safari/537.36 Edg/138.0.0.0","WebKit","Edge","138.0.0.0","Windows","10.0","https://app.prolific.com/","pl,en;q=0.9,en-GB;q=0.8,en-US;q=0.7","5ede9653252ba51223688917","686d226cabeef709c732f8e1","686e3135458ca28eec5836e3","5ede9653252ba51223688917","","[{""page_index"":0,""viewing_time"":1817}]","","","","","","","","","","","","","","","","","","","","","","","","","","","","","","","","","","","","","","","","","","","",""
"3428","","<p>Before you start with this game please answer the following three questions yourself. </p>
  <p>Through this game, we measure several aspects of your cognitive performance, such as reaction times, multi-tasking capabilities </p>
  <p>and the ability to assess the situation you are in.</p>
  <p></p>
  <p><b>How good do you usually are in such tasks?</b></p>","68","html-slider-response","34","391829","0.0-9.0-0.0","229","1","2025-07-09 09:38:10","7701e855f2ef39aa3fd6c71abdc6918a","164.127.220.133","Mozilla/5.0 (Windows NT 10.0; Win64; x64) AppleWebKit/537.36 (KHTML, like Gecko) Chrome/138.0.0.0 Safari/537.36 Edg/138.0.0.0","WebKit","Edge","138.0.0.0","Windows","10.0","https://app.prolific.com/","pl,en;q=0.9,en-GB;q=0.8,en-US;q=0.7","5ede9653252ba51223688917","686d226cabeef709c732f8e1","686e3135458ca28eec5836e3","5ede9653252ba51223688917","2025-07-09T09:45:08.161Z","","","","","","PreSkillQ","","","","","","","","","","","","","","","","","","","","","","","","","","","","","","","","","","","","","","50",""
"4226","","<div style=""width:500px;"">
  <p>How well do you think you will perform in this task compared to other participants?</p>
  </div>","61","html-slider-response","35","396056","0.0-9.0-1.0","229","1","2025-07-09 09:38:10","7701e855f2ef39aa3fd6c71abdc6918a","164.127.220.133","Mozilla/5.0 (Windows NT 10.0; Win64; x64) AppleWebKit/537.36 (KHTML, like Gecko) Chrome/138.0.0.0 Safari/537.36 Edg/138.0.0.0","WebKit","Edge","138.0.0.0","Windows","10.0","https://app.prolific.com/","pl,en;q=0.9,en-GB;q=0.8,en-US;q=0.7","5ede9653252ba51223688917","686d226cabeef709c732f8e1","686e3135458ca28eec5836e3","5ede9653252ba51223688917","2025-07-09T09:45:12.388Z","","","","","","PrePerfQ","","","","","","","","","","","","","","","","","","","","","","","","","","","","","","","","","","","","","","50",""
"3418","","<div style=""width:500px;"">
  <p>What best describes how you currently feel?</p>
  </div>","89","html-slider-response","36","399475","0.0-9.0-2.0","229","1","2025-07-09 09:38:10","7701e855f2ef39aa3fd6c71abdc6918a","164.127.220.133","Mozilla/5.0 (Windows NT 10.0; Win64; x64) AppleWebKit/537.36 (KHTML, like Gecko) Chrome/138.0.0.0 Safari/537.36 Edg/138.0.0.0","WebKit","Edge","138.0.0.0","Windows","10.0","https://app.prolific.com/","pl,en;q=0.9,en-GB;q=0.8,en-US;q=0.7","5ede9653252ba51223688917","686d226cabeef709c732f8e1","686e3135458ca28eec5836e3","5ede9653252ba51223688917","2025-07-09T09:45:15.807Z","","","","","","PreMotivationQ","","","","","","","","","","","","","","","","","","","","","","","","","","","","","","","","","","","","","","50",""
"","","","","ctl-task-cpt","37","424995","0.0-10.0-0.0","229","1","2025-07-09 09:38:10","7701e855f2ef39aa3fd6c71abdc6918a","164.127.220.133","Mozilla/5.0 (Windows NT 10.0; Win64; x64) AppleWebKit/537.36 (KHTML, like Gecko) Chrome/138.0.0.0 Safari/537.36 Edg/138.0.0.0","WebKit","Edge","138.0.0.0","Windows","10.0","https://app.prolific.com/","pl,en;q=0.9,en-GB;q=0.8,en-US;q=0.7","5ede9653252ba51223688917","686d226cabeef709c732f8e1","686e3135458ca28eec5836e3","5ede9653252ba51223688917","2025-07-09T09:45:41.327Z","","","","","","","","","","","","","","","","win-only","2","g1:SE,g2:NW","1","1","0","415673.6","1178.4","6180.7","22511.1","1","4","4","6","2","4","4","4","0","0.030303030303030304","1870.2","3000","950","[""left"",""up""]","{""num_key_presses"":6,""num_perfect"":6,""num_errors"":0,""num_randdir"":0,""num_randdir_good_moves"":0,""num_whilered"":0,""num_whileblue"":0,""num_blue"":0,""num_good_moves"":6}","[414.0714133126395,409.07142761775424,0.2,414.0714133126395,409.07142761775424,102,414.0714133126395,409.07142761775424,210,414.0714133126395,409.07142761775424,311.8,414.0714133126395,409.07142761775424,412.8,420.3214133126395,416.57142761775424,517,701.5714133126395,631.5714276177542,617.7,774.0714133126395,681.5714276177542,721.9,774.0714133126395,681.5714276177542,821.9,386.5714133126395,331.57142761775424,929.2,276.5714133126395,260.32142761775424,1032.3,276.5714133126395,260.32142761775424,1139.2,171.5714133126395,137.82142761775424,1246.3,151.5714133126395,116.57142761775425,1346.6,151.5714133126395,114.07142761775425,1446.7,151.5714133126395,114.07142761775425,1552.2,151.5714133126395,114.07142761775425,1652.4,112.8214133126395,94.07142761775425,1752.7,105.3214133126395,89.07142761775425,1853.4,105.3214133126395,89.07142761775425,1956.2,105.3214133126395,89.07142761775425,2062.9,105.3214133126395,89.07142761775425,2164.1,105.3214133126395,89.07142761775425,2267.7,105.3214133126395,89.07142761775425,2372.4,105.3214133126395,89.07142761775425,2485,105.3214133126395,89.07142761775425,2587.9,105.3214133126395,89.07142761775425,2697.1,105.3214133126395,89.07142761775425,2800.8,105.3214133126395,89.07142761775425,2902.7,105.3214133126395,89.07142761775425,3004,105.3214133126395,89.07142761775425,3110.3,105.3214133126395,89.07142761775425,3215,105.3214133126395,89.07142761775425,3317.2,105.3214133126395,89.07142761775425,3417.5,105.3214133126395,89.07142761775425,3517.6,105.3214133126395,89.07142761775425,3617.9,105.3214133126395,89.07142761775425,3725.5,105.3214133126395,89.07142761775425,3831.2,105.3214133126395,89.07142761775425,3932,105.3214133126395,89.07142761775425,4032.2,105.3214133126395,89.07142761775425,4138.8,105.3214133126395,89.07142761775425,4248.6,105.3214133126395,89.07142761775425,4351.7,105.3214133126395,89.07142761775425,4452.2,105.3214133126395,89.07142761775425,4552.4,105.3214133126395,89.07142761775425,4660.5,105.3214133126395,89.07142761775425,4762.3,105.3214133126395,89.07142761775425,4867.5,105.3214133126395,89.07142761775425,4977.9]","[1507.9,1507.9,1000,0,507.9,""smooth"",""up"",""up"",""good_move"",4225.3,2715.4,2271,1509.9,444.4,""smooth"",""up"",""up"",""good_move"",7171.8,2946.3,2591.9,4225.5,354.4,""smooth"",""left"",""left"",""good_move"",10633,3460.8,3100.8,7172.2,360,""smooth"",""left"",""left"",""good_move"",13421.8,2788.6,2462.9,10633.2,325.7,""smooth"",""left"",""left"",""good_move"",16237.8,2815.5,2489,13422.3,326.5,""smooth"",""up"",""up"",""good_move""]","","",""
"4786","","<div style=""width:500px;"">
  <p>What determined the result of this run?</p>
  </div>","100","html-slider-response","38","429786","0.0-10.0-1.0","229","1","2025-07-09 09:38:10","7701e855f2ef39aa3fd6c71abdc6918a","164.127.220.133","Mozilla/5.0 (Windows NT 10.0; Win64; x64) AppleWebKit/537.36 (KHTML, like Gecko) Chrome/138.0.0.0 Safari/537.36 Edg/138.0.0.0","WebKit","Edge","138.0.0.0","Windows","10.0","https://app.prolific.com/","pl,en;q=0.9,en-GB;q=0.8,en-US;q=0.7","5ede9653252ba51223688917","686d226cabeef709c732f8e1","686e3135458ca28eec5836e3","5ede9653252ba51223688917","2025-07-09T09:45:46.120Z","","","","","","AttribQ","","","","","","","","","","","","","","","","","","","","","","","","","","","","","","","","","","","","","","50",""
"5661","","<div style=""width:500px;"">
  <p>How much control did you have over the ball?</p>
  </div>","100","html-slider-response","39","435463","0.0-10.0-2.0","229","1","2025-07-09 09:38:10","7701e855f2ef39aa3fd6c71abdc6918a","164.127.220.133","Mozilla/5.0 (Windows NT 10.0; Win64; x64) AppleWebKit/537.36 (KHTML, like Gecko) Chrome/138.0.0.0 Safari/537.36 Edg/138.0.0.0","WebKit","Edge","138.0.0.0","Windows","10.0","https://app.prolific.com/","pl,en;q=0.9,en-GB;q=0.8,en-US;q=0.7","5ede9653252ba51223688917","686d226cabeef709c732f8e1","686e3135458ca28eec5836e3","5ede9653252ba51223688917","2025-07-09T09:45:51.797Z","","","","","","ControlQ","","","","","","","","","","","","","","","","","","","","","","","","","","","","","","","","","","","","","","50",""
"3966","","<div style=""width:500px;"">
  <p>How would you describe your current emotional state?</p>
  </div>","6","html-slider-response","40","439445","0.0-10.0-3.0","229","1","2025-07-09 09:38:10","7701e855f2ef39aa3fd6c71abdc6918a","164.127.220.133","Mozilla/5.0 (Windows NT 10.0; Win64; x64) AppleWebKit/537.36 (KHTML, like Gecko) Chrome/138.0.0.0 Safari/537.36 Edg/138.0.0.0","WebKit","Edge","138.0.0.0","Windows","10.0","https://app.prolific.com/","pl,en;q=0.9,en-GB;q=0.8,en-US;q=0.7","5ede9653252ba51223688917","686d226cabeef709c732f8e1","686e3135458ca28eec5836e3","5ede9653252ba51223688917","2025-07-09T09:45:55.777Z","","","","","","StressQ","","","","","","","","","","","","","","","","","","","","","","","","","","","","","","","","","","","","","","50",""
"3862","","<div style=""width:500px;"">
  <p>What best describes how you currently feel?</p>
  </div>","99","html-slider-response","41","443311","0.0-10.0-4.0","229","1","2025-07-09 09:38:10","7701e855f2ef39aa3fd6c71abdc6918a","164.127.220.133","Mozilla/5.0 (Windows NT 10.0; Win64; x64) AppleWebKit/537.36 (KHTML, like Gecko) Chrome/138.0.0.0 Safari/537.36 Edg/138.0.0.0","WebKit","Edge","138.0.0.0","Windows","10.0","https://app.prolific.com/","pl,en;q=0.9,en-GB;q=0.8,en-US;q=0.7","5ede9653252ba51223688917","686d226cabeef709c732f8e1","686e3135458ca28eec5836e3","5ede9653252ba51223688917","2025-07-09T09:45:59.643Z","","","","","","MotivationQ","","","","","","","","","","","","","","","","","","","","","","","","","","","","","","","","","","","","","","50",""
"","","","","ctl-task-cpt","42","464490","0.0-10.0-0.1","229","1","2025-07-09 09:38:10","7701e855f2ef39aa3fd6c71abdc6918a","164.127.220.133","Mozilla/5.0 (Windows NT 10.0; Win64; x64) AppleWebKit/537.36 (KHTML, like Gecko) Chrome/138.0.0.0 Safari/537.36 Edg/138.0.0.0","WebKit","Edge","138.0.0.0","Windows","10.0","https://app.prolific.com/","pl,en;q=0.9,en-GB;q=0.8,en-US;q=0.7","5ede9653252ba51223688917","686d226cabeef709c732f8e1","686e3135458ca28eec5836e3","5ede9653252ba51223688917","2025-07-09T09:46:20.822Z","","","","","","","","","","","","","","","","win-only","2","g1:SE,g2:NW","0.9","2","0","459510.5","1729.1","6731.4","18173.7","1","4","8","6","1","1","1","5","4","0.03787878787878788","2515.5","3000","1825","[""down"",""right""]","{""num_key_presses"":4,""num_perfect"":4,""num_errors"":0,""num_randdir"":0,""num_randdir_good_moves"":0,""num_whilered"":0,""num_whileblue"":0,""num_blue"":0,""num_good_moves"":4}","[411.5714133126395,429.07142761775424,0.4,411.5714133126395,429.07142761775424,102.6,411.5714133126395,429.07142761775424,210.8,411.5714133126395,429.07142761775424,313.6,411.5714133126395,429.07142761775424,416.9,411.5714133126395,429.07142761775424,523.3,469.0714133126395,470.32142761775424,623.3,497.8214133126395,489.07142761775424,724.8,497.8214133126395,489.07142761775424,829.2,497.8214133126395,489.07142761775424,929.9,497.8214133126395,489.07142761775424,1032.1,431.5714133126395,365.32142761775424,1137.1,221.5714133126395,231.57142761775424,1243.7,214.0714133126395,204.07142761775424,1346.1,214.0714133126395,204.07142761775424,1446.2,214.0714133126395,204.07142761775424,1547.1,341.5714133126395,287.82142761775424,1651.3,452.8214133126395,402.82142761775424,1751.8,452.8214133126395,402.82142761775424,1852,632.8214133126395,525.3214276177542,1952,709.0714133126395,601.5714276177542,2063.2,746.5714133126395,687.8214276177542,2166.3,751.5714133126395,696.5714276177542,2281.3,784.0714133126395,756.5714276177542,2381.7,784.0714133126395,756.5714276177542,2482,784.0714133126395,756.5714276177542,2591.8,784.0714133126395,756.5714276177542,2694.6,784.0714133126395,756.5714276177542,2795.5,824.0714133126395,706.5714276177542,2897.4,870.3214133126395,651.5714276177542,3001.6,872.8214133126395,647.8214276177542,3102,872.8214133126395,647.8214276177542,3213.5,872.8214133126395,647.8214276177542,3314.5,872.8214133126395,647.8214276177542,3416.6,872.8214133126395,647.8214276177542,3516.8,872.8214133126395,647.8214276177542,3625.4,872.8214133126395,647.8214276177542,3729.9,872.8214133126395,647.8214276177542,3832.2,872.8214133126395,647.8214276177542,3944.6,872.8214133126395,647.8214276177542,4046.9,872.8214133126395,647.8214276177542,4146.9,872.8214133126395,647.8214276177542,4262,872.8214133126395,647.8214276177542,4366.4,872.8214133126395,647.8214276177542,4467,872.8214133126395,647.8214276177542,4576.3,872.8214133126395,647.8214276177542,4676.9,872.8214133126395,647.8214276177542,4777.9,872.8214133126395,647.8214276177542,4879.2,872.8214133126395,647.8214276177542,4981.4]","[1496.6,1496.6,1000,0,496.6,""smooth"",""down"",""down"",""good_move"",4893.8,3396.9,3013.4,1497,383.5,""smooth"",""right"",""right"",""good_move"",8227.5,3331.7,3004.9,4895.8,326.8,""smooth"",""down"",""down"",""good_move"",11314.1,3086.2,2734.6,8227.9,351.6,""smooth"",""right"",""right"",""good_move""]","","",""
"6872","","<div style=""width:500px;"">
  <p>What determined the result of this run?</p>
  </div>","100","html-slider-response","43","471366","0.0-10.0-1.1","229","1","2025-07-09 09:38:10","7701e855f2ef39aa3fd6c71abdc6918a","164.127.220.133","Mozilla/5.0 (Windows NT 10.0; Win64; x64) AppleWebKit/537.36 (KHTML, like Gecko) Chrome/138.0.0.0 Safari/537.36 Edg/138.0.0.0","WebKit","Edge","138.0.0.0","Windows","10.0","https://app.prolific.com/","pl,en;q=0.9,en-GB;q=0.8,en-US;q=0.7","5ede9653252ba51223688917","686d226cabeef709c732f8e1","686e3135458ca28eec5836e3","5ede9653252ba51223688917","2025-07-09T09:46:27.699Z","","","","","","AttribQ","","","","","","","","","","","","","","","","","","","","","","","","","","","","","","","","","","","","","","50",""
"3530","","<div style=""width:500px;"">
  <p>How much control did you have over the ball?</p>
  </div>","100","html-slider-response","44","474906","0.0-10.0-2.1","229","1","2025-07-09 09:38:10","7701e855f2ef39aa3fd6c71abdc6918a","164.127.220.133","Mozilla/5.0 (Windows NT 10.0; Win64; x64) AppleWebKit/537.36 (KHTML, like Gecko) Chrome/138.0.0.0 Safari/537.36 Edg/138.0.0.0","WebKit","Edge","138.0.0.0","Windows","10.0","https://app.prolific.com/","pl,en;q=0.9,en-GB;q=0.8,en-US;q=0.7","5ede9653252ba51223688917","686d226cabeef709c732f8e1","686e3135458ca28eec5836e3","5ede9653252ba51223688917","2025-07-09T09:46:31.238Z","","","","","","ControlQ","","","","","","","","","","","","","","","","","","","","","","","","","","","","","","","","","","","","","","50",""
"7349","","<div style=""width:500px;"">
  <p>How would you describe your current emotional state?</p>
  </div>","1","html-slider-response","45","482258","0.0-10.0-3.1","229","1","2025-07-09 09:38:10","7701e855f2ef39aa3fd6c71abdc6918a","164.127.220.133","Mozilla/5.0 (Windows NT 10.0; Win64; x64) AppleWebKit/537.36 (KHTML, like Gecko) Chrome/138.0.0.0 Safari/537.36 Edg/138.0.0.0","WebKit","Edge","138.0.0.0","Windows","10.0","https://app.prolific.com/","pl,en;q=0.9,en-GB;q=0.8,en-US;q=0.7","5ede9653252ba51223688917","686d226cabeef709c732f8e1","686e3135458ca28eec5836e3","5ede9653252ba51223688917","2025-07-09T09:46:38.592Z","","","","","","StressQ","","","","","","","","","","","","","","","","","","","","","","","","","","","","","","","","","","","","","","50",""
"8523","","<div style=""width:500px;"">
  <p>What best describes how you currently feel?</p>
  </div>","99","html-slider-response","46","490795","0.0-10.0-4.1","229","1","2025-07-09 09:38:10","7701e855f2ef39aa3fd6c71abdc6918a","164.127.220.133","Mozilla/5.0 (Windows NT 10.0; Win64; x64) AppleWebKit/537.36 (KHTML, like Gecko) Chrome/138.0.0.0 Safari/537.36 Edg/138.0.0.0","WebKit","Edge","138.0.0.0","Windows","10.0","https://app.prolific.com/","pl,en;q=0.9,en-GB;q=0.8,en-US;q=0.7","5ede9653252ba51223688917","686d226cabeef709c732f8e1","686e3135458ca28eec5836e3","5ede9653252ba51223688917","2025-07-09T09:46:47.128Z","","","","","","MotivationQ","","","","","","","","","","","","","","","","","","","","","","","","","","","","","","","","","","","","","","50",""
"","","","","ctl-task-cpt","47","532158","0.0-10.0-0.2","229","1","2025-07-09 09:38:10","7701e855f2ef39aa3fd6c71abdc6918a","164.127.220.133","Mozilla/5.0 (Windows NT 10.0; Win64; x64) AppleWebKit/537.36 (KHTML, like Gecko) Chrome/138.0.0.0 Safari/537.36 Edg/138.0.0.0","WebKit","Edge","138.0.0.0","Windows","10.0","https://app.prolific.com/","pl,en;q=0.9,en-GB;q=0.8,en-US;q=0.7","5ede9653252ba51223688917","686d226cabeef709c732f8e1","686e3135458ca28eec5836e3","5ede9653252ba51223688917","2025-07-09T09:47:28.490Z","","","","","","","","","","","","","","","","win-only","0","g1:NW,g2:SE","0.8","3","0","507012.4","1289","6290.9","38322.8","1","4","8","6","1","1","1","6","5","0.045454545454545456","1836.8","3000","600","[""left"",""up""]","{""num_key_presses"":8,""num_perfect"":6,""num_errors"":0,""num_randdir"":2,""num_randdir_good_moves"":0,""num_whilered"":0,""num_whileblue"":0,""num_blue"":2,""num_good_moves"":6}","[416.5714133126395,416.57142761775424,0.2,416.5714133126395,416.57142761775424,102.2,416.5714133126395,416.57142761775424,203.6,416.5714133126395,416.57142761775424,317.6,416.5714133126395,416.57142761775424,419.3,416.5714133126395,416.57142761775424,521.5,686.5714133126395,652.8214276177542,637.4,655.3214133126395,636.5714276177542,754.6,416.5714133126395,325.32142761775424,855.1,344.0714133126395,261.57142761775424,956.5,344.0714133126395,261.57142761775424,1056.9,236.5714133126395,166.57142761775424,1172.6,176.5714133126395,121.57142761775425,1273.2,162.8214133126395,117.82142761775425,1379,162.8214133126395,117.82142761775425,1479.4,162.8214133126395,117.82142761775425,1580.3,162.8214133126395,117.82142761775425,1684.2,134.0714133126395,99.07142761775425,1787.3,134.0714133126395,99.07142761775425,1888.1,134.0714133126395,99.07142761775425,2003.2,134.0714133126395,99.07142761775425,2117.9,134.0714133126395,99.07142761775425,2221.5,134.0714133126395,99.07142761775425,2321.7,134.0714133126395,99.07142761775425,2423,134.0714133126395,99.07142761775425,2527.1,134.0714133126395,99.07142761775425,2631.7,134.0714133126395,99.07142761775425,2735.1,134.0714133126395,99.07142761775425,2837.9,134.0714133126395,99.07142761775425,2952.6,134.0714133126395,99.07142761775425,3052.8,134.0714133126395,99.07142761775425,3154.5,134.0714133126395,99.07142761775425,3255.1,134.0714133126395,99.07142761775425,3357.9,134.0714133126395,99.07142761775425,3466.6,134.0714133126395,99.07142761775425,3585.7,134.0714133126395,99.07142761775425,3687.4,134.0714133126395,99.07142761775425,3792.5,134.0714133126395,99.07142761775425,3894.4,134.0714133126395,99.07142761775425,3999.1,134.0714133126395,99.07142761775425,4100.2,134.0714133126395,99.07142761775425,4201.6,134.0714133126395,99.07142761775425,4308.2,134.0714133126395,99.07142761775425,4417.2,134.0714133126395,99.07142761775425,4522.5,134.0714133126395,99.07142761775425,4632.1,134.0714133126395,99.07142761775425,4732.6,134.0714133126395,99.07142761775425,4836.7,134.0714133126395,99.07142761775425,4937]","[1399.9,1399.9,1000,0,399.9,""smooth"",""left"",""left"",""good_move"",4583.2,3179.5,2780.1,1403.7,399.4,""oops"",""up"",""right"",""bad_move"",8752.5,4168.5,3766.3,4584,402.2,""smooth"",""up"",""up"",""good_move"",15336.2,6583.4,2533.2,12405.1,397.9,""smooth"",""left"",""left"",""good_move"",21780.9,6444.3,2456.8,18878.3,445.8,""oops"",""left"",""right"",""bad_move"",25216.3,3433.6,2766.2,21782.8,667.4,""smooth"",""left"",""left"",""good_move"",28120.7,2904.1,2489.7,25216.6,414.4,""smooth"",""left"",""left"",""good_move"",31904,3783.2,3411.5,28120.8,371.7,""smooth"",""up"",""up"",""good_move""]","","",""
"13864","","<div style=""width:500px;"">
  <p>What determined the result of this run?</p>
  </div>","84","html-slider-response","48","546026","0.0-10.0-1.2","229","1","2025-07-09 09:38:10","7701e855f2ef39aa3fd6c71abdc6918a","164.127.220.133","Mozilla/5.0 (Windows NT 10.0; Win64; x64) AppleWebKit/537.36 (KHTML, like Gecko) Chrome/138.0.0.0 Safari/537.36 Edg/138.0.0.0","WebKit","Edge","138.0.0.0","Windows","10.0","https://app.prolific.com/","pl,en;q=0.9,en-GB;q=0.8,en-US;q=0.7","5ede9653252ba51223688917","686d226cabeef709c732f8e1","686e3135458ca28eec5836e3","5ede9653252ba51223688917","2025-07-09T09:47:42.359Z","","","","","","AttribQ","","","","","","","","","","","","","","","","","","","","","","","","","","","","","","","","","","","","","","50",""
"13917","","<div style=""width:500px;"">
  <p>How much control did you have over the ball?</p>
  </div>","73","html-slider-response","49","559955","0.0-10.0-2.2","229","1","2025-07-09 09:38:10","7701e855f2ef39aa3fd6c71abdc6918a","164.127.220.133","Mozilla/5.0 (Windows NT 10.0; Win64; x64) AppleWebKit/537.36 (KHTML, like Gecko) Chrome/138.0.0.0 Safari/537.36 Edg/138.0.0.0","WebKit","Edge","138.0.0.0","Windows","10.0","https://app.prolific.com/","pl,en;q=0.9,en-GB;q=0.8,en-US;q=0.7","5ede9653252ba51223688917","686d226cabeef709c732f8e1","686e3135458ca28eec5836e3","5ede9653252ba51223688917","2025-07-09T09:47:56.288Z","","","","","","ControlQ","","","","","","","","","","","","","","","","","","","","","","","","","","","","","","","","","","","","","","50",""
"5397","","<div style=""width:500px;"">
  <p>How would you describe your current emotional state?</p>
  </div>","17","html-slider-response","50","565357","0.0-10.0-3.2","229","1","2025-07-09 09:38:10","7701e855f2ef39aa3fd6c71abdc6918a","164.127.220.133","Mozilla/5.0 (Windows NT 10.0; Win64; x64) AppleWebKit/537.36 (KHTML, like Gecko) Chrome/138.0.0.0 Safari/537.36 Edg/138.0.0.0","WebKit","Edge","138.0.0.0","Windows","10.0","https://app.prolific.com/","pl,en;q=0.9,en-GB;q=0.8,en-US;q=0.7","5ede9653252ba51223688917","686d226cabeef709c732f8e1","686e3135458ca28eec5836e3","5ede9653252ba51223688917","2025-07-09T09:48:01.690Z","","","","","","StressQ","","","","","","","","","","","","","","","","","","","","","","","","","","","","","","","","","","","","","","50",""
"7683","","<div style=""width:500px;"">
  <p>What best describes how you currently feel?</p>
  </div>","94","html-slider-response","51","573054","0.0-10.0-4.2","229","1","2025-07-09 09:38:10","7701e855f2ef39aa3fd6c71abdc6918a","164.127.220.133","Mozilla/5.0 (Windows NT 10.0; Win64; x64) AppleWebKit/537.36 (KHTML, like Gecko) Chrome/138.0.0.0 Safari/537.36 Edg/138.0.0.0","WebKit","Edge","138.0.0.0","Windows","10.0","https://app.prolific.com/","pl,en;q=0.9,en-GB;q=0.8,en-US;q=0.7","5ede9653252ba51223688917","686d226cabeef709c732f8e1","686e3135458ca28eec5836e3","5ede9653252ba51223688917","2025-07-09T09:48:09.387Z","","","","","","MotivationQ","","","","","","","","","","","","","","","","","","","","","","","","","","","","","","","","","","","","","","50",""
"","","","","ctl-task-cpt","52","602493","0.0-10.0-0.3","229","1","2025-07-09 09:38:10","7701e855f2ef39aa3fd6c71abdc6918a","164.127.220.133","Mozilla/5.0 (Windows NT 10.0; Win64; x64) AppleWebKit/537.36 (KHTML, like Gecko) Chrome/138.0.0.0 Safari/537.36 Edg/138.0.0.0","WebKit","Edge","138.0.0.0","Windows","10.0","https://app.prolific.com/","pl,en;q=0.9,en-GB;q=0.8,en-US;q=0.7","5ede9653252ba51223688917","686d226cabeef709c732f8e1","686e3135458ca28eec5836e3","5ede9653252ba51223688917","2025-07-09T09:48:38.825Z","","","","","","","","","","","","","","","","win-only","2","g1:SE,g2:NW","0.7","4","0","589270.9","1591.6","6608.5","26401.1","1","4","4","6","1","1","1","7","6","0.05303030303030303","1509.2","3000","1810","[""down"",""right""]","{""num_key_presses"":4,""num_perfect"":2,""num_errors"":0,""num_randdir"":2,""num_randdir_good_moves"":2,""num_whilered"":0,""num_whileblue"":0,""num_blue"":3,""num_good_moves"":4}","[409.0714133126395,421.57142761775424,0.1,409.0714133126395,421.57142761775424,101.6,409.0714133126395,421.57142761775424,213.1,409.0714133126395,421.57142761775424,315.5,542.8214133126395,516.5714276177542,415.6,570.3214133126395,550.3214276177542,531.4,570.3214133126395,550.3214276177542,644.1,570.3214133126395,550.3214276177542,749.3,570.3214133126395,550.3214276177542,860.8,570.3214133126395,550.3214276177542,961.7,694.0714133126395,657.8214276177542,1075,707.8214133126395,684.0714276177542,1179.1,711.5714133126395,705.3214276177542,1279.5,746.5714133126395,760.3214276177542,1380.9,747.8214133126395,761.5714276177542,1501.4,747.8214133126395,761.5714276177542,1601.5,747.8214133126395,761.5714276177542,1712.6,747.8214133126395,761.5714276177542,1819,926.5714133126395,782.8214276177542,1930.6,936.5714133126395,786.5714276177542,2033,952.8214133126395,790.3214276177542,2134.6,952.8214133126395,790.3214276177542,2235.1,952.8214133126395,790.3214276177542,2336.5,952.8214133126395,790.3214276177542,2436.5,952.8214133126395,790.3214276177542,2539.3,952.8214133126395,790.3214276177542,2641.4,952.8214133126395,790.3214276177542,2745,952.8214133126395,790.3214276177542,2849.5,952.8214133126395,790.3214276177542,2950.7,952.8214133126395,790.3214276177542,3057.1,952.8214133126395,790.3214276177542,3160.8,952.8214133126395,790.3214276177542,3261.2,952.8214133126395,790.3214276177542,3365,952.8214133126395,790.3214276177542,3465.6,952.8214133126395,790.3214276177542,3576.1,952.8214133126395,790.3214276177542,3677.4,952.8214133126395,790.3214276177542,3779.3,952.8214133126395,790.3214276177542,3879.3,952.8214133126395,790.3214276177542,3979.4,952.8214133126395,790.3214276177542,4079.4,952.8214133126395,790.3214276177542,4179.4,952.8214133126395,790.3214276177542,4279.6,952.8214133126395,790.3214276177542,4386.4,952.8214133126395,790.3214276177542,4488.1,952.8214133126395,790.3214276177542,4588.6,952.8214133126395,790.3214276177542,4688.6,952.8214133126395,790.3214276177542,4795.1,952.8214133126395,790.3214276177542,4907.7]","[12033,12033,3172.1,8453.8,407.1,""smooth"",""down"",""down"",""good_move"",15177.9,3144.2,2560.4,12033.7,583.8,""smooth"",""right"",""right"",""good_move"",17542.5,2364.5,1978.2,15178.1,386.3,""oops"",""down"",""down"",""good_move"",19660,2116.5,1761.4,17543.6,355,""oops"",""right"",""right"",""good_move""]","","",""
"10059","","<div style=""width:500px;"">
  <p>What determined the result of this run?</p>
  </div>","82","html-slider-response","53","612556","0.0-10.0-1.3","229","1","2025-07-09 09:38:10","7701e855f2ef39aa3fd6c71abdc6918a","164.127.220.133","Mozilla/5.0 (Windows NT 10.0; Win64; x64) AppleWebKit/537.36 (KHTML, like Gecko) Chrome/138.0.0.0 Safari/537.36 Edg/138.0.0.0","WebKit","Edge","138.0.0.0","Windows","10.0","https://app.prolific.com/","pl,en;q=0.9,en-GB;q=0.8,en-US;q=0.7","5ede9653252ba51223688917","686d226cabeef709c732f8e1","686e3135458ca28eec5836e3","5ede9653252ba51223688917","2025-07-09T09:48:48.889Z","","","","","","AttribQ","","","","","","","","","","","","","","","","","","","","","","","","","","","","","","","","","","","","","","50",""
"6682","","<div style=""width:500px;"">
  <p>How much control did you have over the ball?</p>
  </div>","76","html-slider-response","54","619257","0.0-10.0-2.3","229","1","2025-07-09 09:38:10","7701e855f2ef39aa3fd6c71abdc6918a","164.127.220.133","Mozilla/5.0 (Windows NT 10.0; Win64; x64) AppleWebKit/537.36 (KHTML, like Gecko) Chrome/138.0.0.0 Safari/537.36 Edg/138.0.0.0","WebKit","Edge","138.0.0.0","Windows","10.0","https://app.prolific.com/","pl,en;q=0.9,en-GB;q=0.8,en-US;q=0.7","5ede9653252ba51223688917","686d226cabeef709c732f8e1","686e3135458ca28eec5836e3","5ede9653252ba51223688917","2025-07-09T09:48:55.590Z","","","","","","ControlQ","","","","","","","","","","","","","","","","","","","","","","","","","","","","","","","","","","","","","","50",""
"12786","","<div style=""width:500px;"">
  <p>How would you describe your current emotional state?</p>
  </div>","19","html-slider-response","55","632056","0.0-10.0-3.3","229","1","2025-07-09 09:38:10","7701e855f2ef39aa3fd6c71abdc6918a","164.127.220.133","Mozilla/5.0 (Windows NT 10.0; Win64; x64) AppleWebKit/537.36 (KHTML, like Gecko) Chrome/138.0.0.0 Safari/537.36 Edg/138.0.0.0","WebKit","Edge","138.0.0.0","Windows","10.0","https://app.prolific.com/","pl,en;q=0.9,en-GB;q=0.8,en-US;q=0.7","5ede9653252ba51223688917","686d226cabeef709c732f8e1","686e3135458ca28eec5836e3","5ede9653252ba51223688917","2025-07-09T09:49:08.388Z","","","","","","StressQ","","","","","","","","","","","","","","","","","","","","","","","","","","","","","","","","","","","","","","50",""
"9331","","<div style=""width:500px;"">
  <p>What best describes how you currently feel?</p>
  </div>","88","html-slider-response","56","641387","0.0-10.0-4.3","229","1","2025-07-09 09:38:10","7701e855f2ef39aa3fd6c71abdc6918a","164.127.220.133","Mozilla/5.0 (Windows NT 10.0; Win64; x64) AppleWebKit/537.36 (KHTML, like Gecko) Chrome/138.0.0.0 Safari/537.36 Edg/138.0.0.0","WebKit","Edge","138.0.0.0","Windows","10.0","https://app.prolific.com/","pl,en;q=0.9,en-GB;q=0.8,en-US;q=0.7","5ede9653252ba51223688917","686d226cabeef709c732f8e1","686e3135458ca28eec5836e3","5ede9653252ba51223688917","2025-07-09T09:49:17.720Z","","","","","","MotivationQ","","","","","","","","","","","","","","","","","","","","","","","","","","","","","","","","","","","","","","50",""
"","","","","ctl-task-cpt","57","682724","0.0-10.0-0.4","229","1","2025-07-09 09:38:10","7701e855f2ef39aa3fd6c71abdc6918a","164.127.220.133","Mozilla/5.0 (Windows NT 10.0; Win64; x64) AppleWebKit/537.36 (KHTML, like Gecko) Chrome/138.0.0.0 Safari/537.36 Edg/138.0.0.0","WebKit","Edge","138.0.0.0","Windows","10.0","https://app.prolific.com/","pl,en;q=0.9,en-GB;q=0.8,en-US;q=0.7","5ede9653252ba51223688917","686d226cabeef709c732f8e1","686e3135458ca28eec5836e3","5ede9653252ba51223688917","2025-07-09T09:49:59.056Z","","","","","","","","","","","","","","","","win-only","2","g1:SE,g2:NW","0.6","5","0","657586","2043.5","7061.7","38306.1","1","4","4","6","1","1","1","8","7","0.06060606060606061","1572.2","3000","1505","[""down"",""right""]","{""num_key_presses"":10,""num_perfect"":6,""num_errors"":0,""num_randdir"":4,""num_randdir_good_moves"":1,""num_whilered"":0,""num_whileblue"":0,""num_blue"":1,""num_good_moves"":7}","[416.5714133126395,412.82142761775424,0.2,416.5714133126395,412.82142761775424,115.7,416.5714133126395,412.82142761775424,221.6,416.5714133126395,412.82142761775424,327.9,416.5714133126395,412.82142761775424,427.9,416.5714133126395,412.82142761775424,528,440.3214133126395,426.57142761775424,637.1,585.3214133126395,510.32142761775424,740.4,740.3214133126395,685.3214276177542,844.2,740.3214133126395,685.3214276177542,954,740.3214133126395,685.3214276177542,1055,766.5714133126395,757.8214276177542,1165.9,766.5714133126395,760.3214276177542,1266,766.5714133126395,760.3214276177542,1373.6,766.5714133126395,760.3214276177542,1479.6,766.5714133126395,760.3214276177542,1597.1,766.5714133126395,760.3214276177542,1699.7,766.5714133126395,760.3214276177542,1812.7,876.5714133126395,726.5714276177542,1926.4,884.0714133126395,722.8214276177542,2029.2,884.0714133126395,722.8214276177542,2129.4,884.0714133126395,722.8214276177542,2232.8,884.0714133126395,722.8214276177542,2337.8,884.0714133126395,722.8214276177542,2439.1,884.0714133126395,722.8214276177542,2540.1,884.0714133126395,722.8214276177542,2651.1,884.0714133126395,722.8214276177542,2761.7,884.0714133126395,722.8214276177542,2868.9,884.0714133126395,722.8214276177542,2978.5,884.0714133126395,722.8214276177542,3088.2,884.0714133126395,722.8214276177542,3193.4,884.0714133126395,722.8214276177542,3296.5,884.0714133126395,722.8214276177542,3397.3,884.0714133126395,722.8214276177542,3504.9,884.0714133126395,722.8214276177542,3609.7,884.0714133126395,722.8214276177542,3718,884.0714133126395,722.8214276177542,3827.9,884.0714133126395,722.8214276177542,3931.9,884.0714133126395,722.8214276177542,4049.8,884.0714133126395,722.8214276177542,4156.9,884.0714133126395,722.8214276177542,4274.2,884.0714133126395,722.8214276177542,4387.9,884.0714133126395,722.8214276177542,4498.5,884.0714133126395,722.8214276177542,4603.7,884.0714133126395,722.8214276177542,4708,884.0714133126395,722.8214276177542,4816.5,884.0714133126395,722.8214276177542,4918.9]","[1485.6,1485.6,1000,0,485.6,""smooth"",""down"",""down"",""good_move"",4855.4,3369.3,2932.5,1486.1,436.8,""smooth"",""right"",""right"",""good_move"",7689.4,2833.3,2462,4856.2,371.2,""oops"",""down"",""down"",""good_move"",13446.5,5756.6,1904.9,10884.8,656.8,""oops"",""right"",""left"",""bad_move"",16634,3186.3,2733.8,13447.7,452.5,""oops"",""right"",""left"",""bad_move"",19276.5,2642.1,2019.6,16634.4,622.5,""smooth"",""right"",""right"",""good_move"",22354.2,3077.5,2704.9,19276.7,372.6,""smooth"",""right"",""right"",""good_move"",25581.4,3226.8,2788.7,22354.6,438.1,""oops"",""right"",""left"",""bad_move"",28284.7,2702.5,2289.7,25582.2,412.8,""smooth"",""right"",""right"",""good_move"",30975.8,2690.7,2332.5,28285.2,358.1,""smooth"",""right"",""right"",""good_move""]","","",""
"9338","","<div style=""width:500px;"">
  <p>What determined the result of this run?</p>
  </div>","66","html-slider-response","58","692064","0.0-10.0-1.4","229","1","2025-07-09 09:38:10","7701e855f2ef39aa3fd6c71abdc6918a","164.127.220.133","Mozilla/5.0 (Windows NT 10.0; Win64; x64) AppleWebKit/537.36 (KHTML, like Gecko) Chrome/138.0.0.0 Safari/537.36 Edg/138.0.0.0","WebKit","Edge","138.0.0.0","Windows","10.0","https://app.prolific.com/","pl,en;q=0.9,en-GB;q=0.8,en-US;q=0.7","5ede9653252ba51223688917","686d226cabeef709c732f8e1","686e3135458ca28eec5836e3","5ede9653252ba51223688917","2025-07-09T09:50:08.396Z","","","","","","AttribQ","","","","","","","","","","","","","","","","","","","","","","","","","","","","","","","","","","","","","","50",""
"5139","","<div style=""width:500px;"">
  <p>How much control did you have over the ball?</p>
  </div>","59","html-slider-response","59","697203","0.0-10.0-2.4","229","1","2025-07-09 09:38:10","7701e855f2ef39aa3fd6c71abdc6918a","164.127.220.133","Mozilla/5.0 (Windows NT 10.0; Win64; x64) AppleWebKit/537.36 (KHTML, like Gecko) Chrome/138.0.0.0 Safari/537.36 Edg/138.0.0.0","WebKit","Edge","138.0.0.0","Windows","10.0","https://app.prolific.com/","pl,en;q=0.9,en-GB;q=0.8,en-US;q=0.7","5ede9653252ba51223688917","686d226cabeef709c732f8e1","686e3135458ca28eec5836e3","5ede9653252ba51223688917","2025-07-09T09:50:13.535Z","","","","","","ControlQ","","","","","","","","","","","","","","","","","","","","","","","","","","","","","","","","","","","","","","50",""
"4586","","<div style=""width:500px;"">
  <p>How would you describe your current emotional state?</p>
  </div>","22","html-slider-response","60","701791","0.0-10.0-3.4","229","1","2025-07-09 09:38:10","7701e855f2ef39aa3fd6c71abdc6918a","164.127.220.133","Mozilla/5.0 (Windows NT 10.0; Win64; x64) AppleWebKit/537.36 (KHTML, like Gecko) Chrome/138.0.0.0 Safari/537.36 Edg/138.0.0.0","WebKit","Edge","138.0.0.0","Windows","10.0","https://app.prolific.com/","pl,en;q=0.9,en-GB;q=0.8,en-US;q=0.7","5ede9653252ba51223688917","686d226cabeef709c732f8e1","686e3135458ca28eec5836e3","5ede9653252ba51223688917","2025-07-09T09:50:18.123Z","","","","","","StressQ","","","","","","","","","","","","","","","","","","","","","","","","","","","","","","","","","","","","","","50",""
"5053","","<div style=""width:500px;"">
  <p>What best describes how you currently feel?</p>
  </div>","92","html-slider-response","61","706845","0.0-10.0-4.4","229","1","2025-07-09 09:38:10","7701e855f2ef39aa3fd6c71abdc6918a","164.127.220.133","Mozilla/5.0 (Windows NT 10.0; Win64; x64) AppleWebKit/537.36 (KHTML, like Gecko) Chrome/138.0.0.0 Safari/537.36 Edg/138.0.0.0","WebKit","Edge","138.0.0.0","Windows","10.0","https://app.prolific.com/","pl,en;q=0.9,en-GB;q=0.8,en-US;q=0.7","5ede9653252ba51223688917","686d226cabeef709c732f8e1","686e3135458ca28eec5836e3","5ede9653252ba51223688917","2025-07-09T09:50:23.177Z","","","","","","MotivationQ","","","","","","","","","","","","","","","","","","","","","","","","","","","","","","","","","","","","","","50",""
"","","","","ctl-task-cpt","62","750621","0.0-10.0-0.5","229","1","2025-07-09 09:38:10","7701e855f2ef39aa3fd6c71abdc6918a","164.127.220.133","Mozilla/5.0 (Windows NT 10.0; Win64; x64) AppleWebKit/537.36 (KHTML, like Gecko) Chrome/138.0.0.0 Safari/537.36 Edg/138.0.0.0","WebKit","Edge","138.0.0.0","Windows","10.0","https://app.prolific.com/","pl,en;q=0.9,en-GB;q=0.8,en-US;q=0.7","5ede9653252ba51223688917","686d226cabeef709c732f8e1","686e3135458ca28eec5836e3","5ede9653252ba51223688917","2025-07-09T09:51:06.953Z","","","","","","","","","","","","","","","","win-only","0","g1:NW,g2:SE","0.5","6","0","723043.3","1273.8","6289","40757.9","1","4","8","6","1","1","1","9","8","0.06818181818181818","1739.7","3000","1600","[""left"",""up""]","{""num_key_presses"":10,""num_perfect"":5,""num_errors"":0,""num_randdir"":5,""num_randdir_good_moves"":2,""num_whilered"":0,""num_whileblue"":0,""num_blue"":2,""num_good_moves"":7}","[419.0714133126395,416.57142761775424,0.1,419.0714133126395,416.57142761775424,110.6,419.0714133126395,416.57142761775424,227.4,419.0714133126395,416.57142761775424,339,419.0714133126395,416.57142761775424,444.5,419.0714133126395,416.57142761775424,548.7,419.0714133126395,416.57142761775424,655.2,419.0714133126395,416.57142761775424,766.5,462.8214133126395,415.32142761775424,868.8,521.5714133126395,431.57142761775424,973.2,521.5714133126395,431.57142761775424,1077.2,411.5714133126395,356.57142761775424,1198.7,105.3214133126395,149.07142761775424,1306.6,101.5714133126395,147.82142761775424,1415,101.5714133126395,147.82142761775424,1526.2,87.8214133126395,136.57142761775424,1626.5,87.8214133126395,130.32142761775424,1728.5,87.8214133126395,130.32142761775424,1847.2,87.8214133126395,130.32142761775424,1953.4,246.5714133126395,191.57142761775424,2068.2,509.0714133126395,322.82142761775424,2184.4,514.0714133126395,324.07142761775424,2296.9,514.0714133126395,324.07142761775424,2404.8,514.0714133126395,324.07142761775424,2511.7,514.0714133126395,324.07142761775424,2621.8,514.0714133126395,324.07142761775424,2724.7,514.0714133126395,324.07142761775424,2837.3,514.0714133126395,324.07142761775424,2951.3,514.0714133126395,324.07142761775424,3064.4,514.0714133126395,324.07142761775424,3166.5,514.0714133126395,324.07142761775424,3268.2,514.0714133126395,324.07142761775424,3382.6,514.0714133126395,324.07142761775424,3499.7,514.0714133126395,324.07142761775424,3615.6,514.0714133126395,324.07142761775424,3728.5,514.0714133126395,324.07142761775424,3840.1,514.0714133126395,324.07142761775424,3952.8,514.0714133126395,324.07142761775424,4069.8,514.0714133126395,324.07142761775424,4169.8,514.0714133126395,324.07142761775424,4287.2,514.0714133126395,324.07142761775424,4388.6,514.0714133126395,324.07142761775424,4507,514.0714133126395,324.07142761775424,4619.8,514.0714133126395,324.07142761775424,4740.2,514.0714133126395,324.07142761775424,4850.3,514.0714133126395,324.07142761775424,4962.6]","[1619.5,1619.5,1000,0,619.5,""smooth"",""up"",""up"",""good_move"",7782.5,6162.4,1796.1,5518.7,467.7,""oops"",""left"",""left"",""good_move"",11041.2,3258.5,2829,7782.7,429.5,""oops"",""left"",""right"",""bad_move"",13319.9,2277.7,1827.6,11042.2,450.1,""smooth"",""left"",""left"",""good_move"",16774,3453.3,3092.5,13320.7,360.8,""oops"",""left"",""right"",""bad_move"",19403.2,2628.8,2234.9,16774.4,393.9,""oops"",""left"",""up"",""good_move"",22224.6,2821.1,2020.3,19403.5,800.8,""oops"",""left"",""down"",""bad_move"",24479.8,2254.8,1924,22225,330.8,""smooth"",""left"",""left"",""good_move"",31537.8,7057.8,2833.8,28253.8,450.2,""smooth"",""left"",""left"",""good_move"",34228.5,2690.2,1921.7,31538.4,768.4,""smooth"",""up"",""up"",""good_move""]","","",""
"6971","","<div style=""width:500px;"">
  <p>What determined the result of this run?</p>
  </div>","66","html-slider-response","63","757594","0.0-10.0-1.5","229","1","2025-07-09 09:38:10","7701e855f2ef39aa3fd6c71abdc6918a","164.127.220.133","Mozilla/5.0 (Windows NT 10.0; Win64; x64) AppleWebKit/537.36 (KHTML, like Gecko) Chrome/138.0.0.0 Safari/537.36 Edg/138.0.0.0","WebKit","Edge","138.0.0.0","Windows","10.0","https://app.prolific.com/","pl,en;q=0.9,en-GB;q=0.8,en-US;q=0.7","5ede9653252ba51223688917","686d226cabeef709c732f8e1","686e3135458ca28eec5836e3","5ede9653252ba51223688917","2025-07-09T09:51:13.926Z","","","","","","AttribQ","","","","","","","","","","","","","","","","","","","","","","","","","","","","","","","","","","","","","","50",""
"3952","","<div style=""width:500px;"">
  <p>How much control did you have over the ball?</p>
  </div>","58","html-slider-response","64","761547","0.0-10.0-2.5","229","1","2025-07-09 09:38:10","7701e855f2ef39aa3fd6c71abdc6918a","164.127.220.133","Mozilla/5.0 (Windows NT 10.0; Win64; x64) AppleWebKit/537.36 (KHTML, like Gecko) Chrome/138.0.0.0 Safari/537.36 Edg/138.0.0.0","WebKit","Edge","138.0.0.0","Windows","10.0","https://app.prolific.com/","pl,en;q=0.9,en-GB;q=0.8,en-US;q=0.7","5ede9653252ba51223688917","686d226cabeef709c732f8e1","686e3135458ca28eec5836e3","5ede9653252ba51223688917","2025-07-09T09:51:17.879Z","","","","","","ControlQ","","","","","","","","","","","","","","","","","","","","","","","","","","","","","","","","","","","","","","50",""
"3394","","<div style=""width:500px;"">
  <p>How would you describe your current emotional state?</p>
  </div>","18","html-slider-response","65","764942","0.0-10.0-3.5","229","1","2025-07-09 09:38:10","7701e855f2ef39aa3fd6c71abdc6918a","164.127.220.133","Mozilla/5.0 (Windows NT 10.0; Win64; x64) AppleWebKit/537.36 (KHTML, like Gecko) Chrome/138.0.0.0 Safari/537.36 Edg/138.0.0.0","WebKit","Edge","138.0.0.0","Windows","10.0","https://app.prolific.com/","pl,en;q=0.9,en-GB;q=0.8,en-US;q=0.7","5ede9653252ba51223688917","686d226cabeef709c732f8e1","686e3135458ca28eec5836e3","5ede9653252ba51223688917","2025-07-09T09:51:21.274Z","","","","","","StressQ","","","","","","","","","","","","","","","","","","","","","","","","","","","","","","","","","","","","","","50",""
"2707","","<div style=""width:500px;"">
  <p>What best describes how you currently feel?</p>
  </div>","92","html-slider-response","66","767651","0.0-10.0-4.5","229","1","2025-07-09 09:38:10","7701e855f2ef39aa3fd6c71abdc6918a","164.127.220.133","Mozilla/5.0 (Windows NT 10.0; Win64; x64) AppleWebKit/537.36 (KHTML, like Gecko) Chrome/138.0.0.0 Safari/537.36 Edg/138.0.0.0","WebKit","Edge","138.0.0.0","Windows","10.0","https://app.prolific.com/","pl,en;q=0.9,en-GB;q=0.8,en-US;q=0.7","5ede9653252ba51223688917","686d226cabeef709c732f8e1","686e3135458ca28eec5836e3","5ede9653252ba51223688917","2025-07-09T09:51:23.983Z","","","","","","MotivationQ","","","","","","","","","","","","","","","","","","","","","","","","","","","","","","","","","","","","","","50",""
"","","","","ctl-task-cpt","67","806064","0.0-10.0-0.6","229","1","2025-07-09 09:38:10","7701e855f2ef39aa3fd6c71abdc6918a","164.127.220.133","Mozilla/5.0 (Windows NT 10.0; Win64; x64) AppleWebKit/537.36 (KHTML, like Gecko) Chrome/138.0.0.0 Safari/537.36 Edg/138.0.0.0","WebKit","Edge","138.0.0.0","Windows","10.0","https://app.prolific.com/","pl,en;q=0.9,en-GB;q=0.8,en-US;q=0.7","5ede9653252ba51223688917","686d226cabeef709c732f8e1","686e3135458ca28eec5836e3","5ede9653252ba51223688917","2025-07-09T09:52:02.396Z","","","","","","","","","","","","","","","","win-only","2","g1:SE,g2:NW","0.4","7","0","783850.4","996.4","6005.1","35381.6","1","4","4","6","1","1","1","10","9","0.07575757575757576","1337.6","3000","1745","[""down"",""right""]","{""num_key_presses"":8,""num_perfect"":4,""num_errors"":0,""num_randdir"":4,""num_randdir_good_moves"":2,""num_whilered"":0,""num_whileblue"":0,""num_blue"":2,""num_good_moves"":6}","[416.5714133126395,416.57142761775424,0.2,416.5714133126395,416.57142761775424,104.1,416.5714133126395,416.57142761775424,210.9,416.5714133126395,416.57142761775424,327.3,416.5714133126395,416.57142761775424,432.4,416.5714133126395,416.57142761775424,536.6,416.5714133126395,416.57142761775424,639,579.0714133126395,581.5714276177542,742.6,646.5714133126395,666.5714276177542,852,645.3214133126395,667.8214276177542,953.8,685.3214133126395,727.8214276177542,1066.7,712.8214133126395,734.0714276177542,1176.6,716.5714133126395,734.0714276177542,1279.8,716.5714133126395,734.0714276177542,1393.9,716.5714133126395,734.0714276177542,1500.6,716.5714133126395,734.0714276177542,1601.2,735.3214133126395,729.0714276177542,1706.9,885.3214133126395,681.5714276177542,1814.4,1016.5714133126395,624.0714276177542,1916.3,1056.5714133126396,616.5714276177542,2020.7,1056.5714133126396,616.5714276177542,2126.2,1056.5714133126396,616.5714276177542,2226.9,1056.5714133126396,616.5714276177542,2338.1,1056.5714133126396,616.5714276177542,2444.7,1056.5714133126396,616.5714276177542,2550.8,1056.5714133126396,616.5714276177542,2660.8,1056.5714133126396,616.5714276177542,2763.2,1056.5714133126396,616.5714276177542,2867.7,1056.5714133126396,616.5714276177542,2973,1056.5714133126396,616.5714276177542,3080.5,1056.5714133126396,616.5714276177542,3195.3,1056.5714133126396,616.5714276177542,3295.8,1056.5714133126396,616.5714276177542,3407.5,1056.5714133126396,616.5714276177542,3511.7,1056.5714133126396,616.5714276177542,3611.9,1056.5714133126396,616.5714276177542,3712.9,1056.5714133126396,616.5714276177542,3822.7,1056.5714133126396,616.5714276177542,3935.6,1056.5714133126396,616.5714276177542,4046,1056.5714133126396,616.5714276177542,4158.7,1056.5714133126396,616.5714276177542,4267.9,1056.5714133126396,616.5714276177542,4371,1056.5714133126396,616.5714276177542,4483.4,1056.5714133126396,616.5714276177542,4592,1056.5714133126396,616.5714276177542,4699.3,1056.5714133126396,616.5714276177542,4803.1,1056.5714133126396,616.5714276177542,4918.7]","[1412.2,1412.1,1000,0.1,412.1,""oops"",""down"",""left"",""bad_move"",8183.9,6770.9,2524.6,5104,555.3,""smooth"",""down"",""down"",""good_move"",11420.5,3236.3,2740.4,8184.2,495.9,""oops"",""right"",""up"",""bad_move"",14568.9,3147.9,2679.3,11421,468.6,""smooth"",""right"",""right"",""good_move"",17353.2,2784,2375.7,14569.2,408.3,""oops"",""down"",""down"",""good_move"",19858.7,2505.3,2117.2,17353.4,388.1,""smooth"",""right"",""right"",""good_move"",25896.4,6037.2,1893.5,23479,523.9,""smooth"",""down"",""down"",""good_move"",29099.4,3202.5,2754.3,25896.9,448.2,""oops"",""right"",""right"",""good_move""]","","",""
"13057","","<div style=""width:500px;"">
  <p>What determined the result of this run?</p>
  </div>","41","html-slider-response","68","819122","0.0-10.0-1.6","229","1","2025-07-09 09:38:10","7701e855f2ef39aa3fd6c71abdc6918a","164.127.220.133","Mozilla/5.0 (Windows NT 10.0; Win64; x64) AppleWebKit/537.36 (KHTML, like Gecko) Chrome/138.0.0.0 Safari/537.36 Edg/138.0.0.0","WebKit","Edge","138.0.0.0","Windows","10.0","https://app.prolific.com/","pl,en;q=0.9,en-GB;q=0.8,en-US;q=0.7","5ede9653252ba51223688917","686d226cabeef709c732f8e1","686e3135458ca28eec5836e3","5ede9653252ba51223688917","2025-07-09T09:52:15.454Z","","","","","","AttribQ","","","","","","","","","","","","","","","","","","","","","","","","","","","","","","","","","","","","","","50",""
"4262","","<div style=""width:500px;"">
  <p>How much control did you have over the ball?</p>
  </div>","52","html-slider-response","69","823385","0.0-10.0-2.6","229","1","2025-07-09 09:38:10","7701e855f2ef39aa3fd6c71abdc6918a","164.127.220.133","Mozilla/5.0 (Windows NT 10.0; Win64; x64) AppleWebKit/537.36 (KHTML, like Gecko) Chrome/138.0.0.0 Safari/537.36 Edg/138.0.0.0","WebKit","Edge","138.0.0.0","Windows","10.0","https://app.prolific.com/","pl,en;q=0.9,en-GB;q=0.8,en-US;q=0.7","5ede9653252ba51223688917","686d226cabeef709c732f8e1","686e3135458ca28eec5836e3","5ede9653252ba51223688917","2025-07-09T09:52:19.717Z","","","","","","ControlQ","","","","","","","","","","","","","","","","","","","","","","","","","","","","","","","","","","","","","","50",""
"4171","","<div style=""width:500px;"">
  <p>How would you describe your current emotional state?</p>
  </div>","19","html-slider-response","70","827558","0.0-10.0-3.6","229","1","2025-07-09 09:38:10","7701e855f2ef39aa3fd6c71abdc6918a","164.127.220.133","Mozilla/5.0 (Windows NT 10.0; Win64; x64) AppleWebKit/537.36 (KHTML, like Gecko) Chrome/138.0.0.0 Safari/537.36 Edg/138.0.0.0","WebKit","Edge","138.0.0.0","Windows","10.0","https://app.prolific.com/","pl,en;q=0.9,en-GB;q=0.8,en-US;q=0.7","5ede9653252ba51223688917","686d226cabeef709c732f8e1","686e3135458ca28eec5836e3","5ede9653252ba51223688917","2025-07-09T09:52:23.890Z","","","","","","StressQ","","","","","","","","","","","","","","","","","","","","","","","","","","","","","","","","","","","","","","50",""
"3219","","<div style=""width:500px;"">
  <p>What best describes how you currently feel?</p>
  </div>","95","html-slider-response","71","830778","0.0-10.0-4.6","229","1","2025-07-09 09:38:10","7701e855f2ef39aa3fd6c71abdc6918a","164.127.220.133","Mozilla/5.0 (Windows NT 10.0; Win64; x64) AppleWebKit/537.36 (KHTML, like Gecko) Chrome/138.0.0.0 Safari/537.36 Edg/138.0.0.0","WebKit","Edge","138.0.0.0","Windows","10.0","https://app.prolific.com/","pl,en;q=0.9,en-GB;q=0.8,en-US;q=0.7","5ede9653252ba51223688917","686d226cabeef709c732f8e1","686e3135458ca28eec5836e3","5ede9653252ba51223688917","2025-07-09T09:52:27.110Z","","","","","","MotivationQ","","","","","","","","","","","","","","","","","","","","","","","","","","","","","","","","","","","","","","50",""
"","","","","ctl-task-cpt","72","889327","0.0-10.0-0.7","229","1","2025-07-09 09:38:10","7701e855f2ef39aa3fd6c71abdc6918a","164.127.220.133","Mozilla/5.0 (Windows NT 10.0; Win64; x64) AppleWebKit/537.36 (KHTML, like Gecko) Chrome/138.0.0.0 Safari/537.36 Edg/138.0.0.0","WebKit","Edge","138.0.0.0","Windows","10.0","https://app.prolific.com/","pl,en;q=0.9,en-GB;q=0.8,en-US;q=0.7","5ede9653252ba51223688917","686d226cabeef709c732f8e1","686e3135458ca28eec5836e3","5ede9653252ba51223688917","2025-07-09T09:53:25.659Z","","","","","","","","","","","","","","","","win-only","2","g1:SE,g2:NW","0.3","8","0","846976.1","1616.4","6624.6","55529.2","1","4","8","6","1","1","1","11","10","0.08333333333333333","1899.2","3000","1915","[""down"",""right""]","{""num_key_presses"":8,""num_perfect"":2,""num_errors"":0,""num_randdir"":6,""num_randdir_good_moves"":4,""num_whilered"":0,""num_whileblue"":0,""num_blue"":6,""num_good_moves"":6}","[414.0714133126395,417.82142761775424,0.2,414.0714133126395,417.82142761775424,108.2,414.0714133126395,417.82142761775424,218.8,414.0714133126395,417.82142761775424,331.9,414.0714133126395,417.82142761775424,439.6,414.0714133126395,417.82142761775424,542.8,414.0714133126395,417.82142761775424,658.1,414.0714133126395,417.82142761775424,771.9,456.5714133126395,465.32142761775424,880.8,631.5714133126395,660.3214276177542,1000.2,631.5714133126395,660.3214276177542,1104.8,631.5714133126395,660.3214276177542,1217.1,759.0714133126395,785.3214276177542,1321.5,786.5714133126395,820.3214276177542,1440.8,800.3214133126395,836.5714276177542,1553,796.5714133126395,831.5714276177542,1661.2,796.5714133126395,831.5714276177542,1762.7,796.5714133126395,831.5714276177542,1867.5,796.5714133126395,831.5714276177542,1979.8,796.5714133126395,831.5714276177542,2096.7,796.5714133126395,831.5714276177542,2202,796.5714133126395,831.5714276177542,2303.6,796.5714133126395,831.5714276177542,2407.4,796.5714133126395,831.5714276177542,2521,796.5714133126395,831.5714276177542,2635.8,796.5714133126395,831.5714276177542,2737.8,1004.0714133126395,794.0714276177542,2839,1049.0714133126396,766.5714276177542,2940,1077.8214133126396,742.8214276177542,3044.3,1077.8214133126396,742.8214276177542,3160.1,1077.8214133126396,742.8214276177542,3262.6,1077.8214133126396,742.8214276177542,3369.2,1077.8214133126396,742.8214276177542,3480.7,1077.8214133126396,742.8214276177542,3592.4,1077.8214133126396,742.8214276177542,3696.1,1077.8214133126396,742.8214276177542,3808.1,1077.8214133126396,742.8214276177542,3909.6,1077.8214133126396,742.8214276177542,4017.5,1077.8214133126396,742.8214276177542,4127.8,1077.8214133126396,742.8214276177542,4242.6,1077.8214133126396,742.8214276177542,4354.4,1077.8214133126396,742.8214276177542,4463.7,1077.8214133126396,742.8214276177542,4571.2,1077.8214133126396,742.8214276177542,4676.5,1077.8214133126396,742.8214276177542,4783.5,1077.8214133126396,742.8214276177542,4892.1,1077.8214133126396,742.8214276177542,4997]","[1597.3,1597.3,1000,0,597.3,""oops"",""down"",""right"",""good_move"",12856.2,11258.1,3205.1,9012.9,638.2,""oops"",""down"",""up"",""bad_move"",16690.6,3833.7,2200.5,12856.9,1633.2,""oops"",""down"",""down"",""good_move"",19648.7,2957.7,2517.2,16691,440.5,""smooth"",""down"",""down"",""good_move"",38183.8,18534.7,2501.6,35104.9,577.3,""oops"",""down"",""up"",""bad_move"",42066.3,3881,3410,38185.3,471,""oops"",""down"",""right"",""good_move"",45624.2,3557.2,3140.3,42067,416.9,""smooth"",""down"",""down"",""good_move"",48590.1,2965.2,2501,45625,464.2,""oops"",""down"",""down"",""good_move""]","","",""
"5514","","<div style=""width:500px;"">
  <p>What determined the result of this run?</p>
  </div>","42","html-slider-response","73","894842","0.0-10.0-1.7","229","1","2025-07-09 09:38:10","7701e855f2ef39aa3fd6c71abdc6918a","164.127.220.133","Mozilla/5.0 (Windows NT 10.0; Win64; x64) AppleWebKit/537.36 (KHTML, like Gecko) Chrome/138.0.0.0 Safari/537.36 Edg/138.0.0.0","WebKit","Edge","138.0.0.0","Windows","10.0","https://app.prolific.com/","pl,en;q=0.9,en-GB;q=0.8,en-US;q=0.7","5ede9653252ba51223688917","686d226cabeef709c732f8e1","686e3135458ca28eec5836e3","5ede9653252ba51223688917","2025-07-09T09:53:31.174Z","","","","","","AttribQ","","","","","","","","","","","","","","","","","","","","","","","","","","","","","","","","","","","","","","50",""
"6320","","<div style=""width:500px;"">
  <p>How much control did you have over the ball?</p>
  </div>","49","html-slider-response","74","901163","0.0-10.0-2.7","229","1","2025-07-09 09:38:10","7701e855f2ef39aa3fd6c71abdc6918a","164.127.220.133","Mozilla/5.0 (Windows NT 10.0; Win64; x64) AppleWebKit/537.36 (KHTML, like Gecko) Chrome/138.0.0.0 Safari/537.36 Edg/138.0.0.0","WebKit","Edge","138.0.0.0","Windows","10.0","https://app.prolific.com/","pl,en;q=0.9,en-GB;q=0.8,en-US;q=0.7","5ede9653252ba51223688917","686d226cabeef709c732f8e1","686e3135458ca28eec5836e3","5ede9653252ba51223688917","2025-07-09T09:53:37.495Z","","","","","","ControlQ","","","","","","","","","","","","","","","","","","","","","","","","","","","","","","","","","","","","","","50",""
"5570","","<div style=""width:500px;"">
  <p>How would you describe your current emotional state?</p>
  </div>","32","html-slider-response","75","906734","0.0-10.0-3.7","229","1","2025-07-09 09:38:10","7701e855f2ef39aa3fd6c71abdc6918a","164.127.220.133","Mozilla/5.0 (Windows NT 10.0; Win64; x64) AppleWebKit/537.36 (KHTML, like Gecko) Chrome/138.0.0.0 Safari/537.36 Edg/138.0.0.0","WebKit","Edge","138.0.0.0","Windows","10.0","https://app.prolific.com/","pl,en;q=0.9,en-GB;q=0.8,en-US;q=0.7","5ede9653252ba51223688917","686d226cabeef709c732f8e1","686e3135458ca28eec5836e3","5ede9653252ba51223688917","2025-07-09T09:53:43.066Z","","","","","","StressQ","","","","","","","","","","","","","","","","","","","","","","","","","","","","","","","","","","","","","","50",""
"5858","","<div style=""width:500px;"">
  <p>What best describes how you currently feel?</p>
  </div>","86","html-slider-response","76","912593","0.0-10.0-4.7","229","1","2025-07-09 09:38:10","7701e855f2ef39aa3fd6c71abdc6918a","164.127.220.133","Mozilla/5.0 (Windows NT 10.0; Win64; x64) AppleWebKit/537.36 (KHTML, like Gecko) Chrome/138.0.0.0 Safari/537.36 Edg/138.0.0.0","WebKit","Edge","138.0.0.0","Windows","10.0","https://app.prolific.com/","pl,en;q=0.9,en-GB;q=0.8,en-US;q=0.7","5ede9653252ba51223688917","686d226cabeef709c732f8e1","686e3135458ca28eec5836e3","5ede9653252ba51223688917","2025-07-09T09:53:48.925Z","","","","","","MotivationQ","","","","","","","","","","","","","","","","","","","","","","","","","","","","","","","","","","","","","","50",""
"","","","","ctl-task-cpt","77","1025098","0.0-10.0-0.8","229","1","2025-07-09 09:38:10","7701e855f2ef39aa3fd6c71abdc6918a","164.127.220.133","Mozilla/5.0 (Windows NT 10.0; Win64; x64) AppleWebKit/537.36 (KHTML, like Gecko) Chrome/138.0.0.0 Safari/537.36 Edg/138.0.0.0","WebKit","Edge","138.0.0.0","Windows","10.0","https://app.prolific.com/","pl,en;q=0.9,en-GB;q=0.8,en-US;q=0.7","5ede9653252ba51223688917","686d226cabeef709c732f8e1","686e3135458ca28eec5836e3","5ede9653252ba51223688917","2025-07-09T09:55:41.430Z","","","","","","","","","","","","","","","","win-only","1","g1:NE,g2:SW","0.2","9","0","928790.7","1974.7","6981","109478.8","1","4","4","6","2","-4","-4","7","11","0.05303030303030303","2598.5","3000","-905","[""down"",""left""]","{""num_key_presses"":24,""num_perfect"":6,""num_errors"":0,""num_randdir"":18,""num_randdir_good_moves"":8,""num_whilered"":0,""num_whileblue"":0,""num_blue"":8,""num_good_moves"":14}","[417.8214133126395,414.07142761775424,0.2,417.8214133126395,414.07142761775424,105.3,417.8214133126395,414.07142761775424,221.3,417.8214133126395,414.07142761775424,322,417.8214133126395,414.07142761775424,424.2,417.8214133126395,414.07142761775424,533.1,417.8214133126395,414.07142761775424,649.8,417.8214133126395,414.07142761775424,760.6,546.5714133126395,289.07142761775424,870.2,546.5714133126395,286.57142761775424,986.4,546.5714133126395,286.57142761775424,1094.4,675.3214133126395,192.82142761775424,1211,710.3214133126395,165.32142761775424,1321.4,710.3214133126395,165.32142761775424,1424.1,721.5714133126395,134.07142761775424,1529.2,725.3214133126395,124.07142761775425,1644.8,519.0714133126395,291.57142761775424,1745.5,294.0714133126395,576.5714276177542,1849.5,281.5714133126395,587.8214276177542,1957.3,281.5714133126395,587.8214276177542,2064.7,181.5714133126395,714.0714276177542,2169.4,160.3214133126395,737.8214276177542,2283.7,119.0714133126395,741.5714276177542,2387.1,82.8214133126395,740.3214276177542,2500.6,82.8214133126395,740.3214276177542,2618.2,82.8214133126395,740.3214276177542,2734.6,82.8214133126395,740.3214276177542,2850,82.8214133126395,740.3214276177542,2965.5,82.8214133126395,740.3214276177542,3073.5,82.8214133126395,740.3214276177542,3176.4,82.8214133126395,740.3214276177542,3292.7,82.8214133126395,740.3214276177542,3394.7,82.8214133126395,740.3214276177542,3506.7,82.8214133126395,740.3214276177542,3609.2,82.8214133126395,740.3214276177542,3713.3,82.8214133126395,740.3214276177542,3826.9,82.8214133126395,740.3214276177542,3939.7,82.8214133126395,740.3214276177542,4054.5,82.8214133126395,740.3214276177542,4156.9,82.8214133126395,740.3214276177542,4264.7,82.8214133126395,740.3214276177542,4372.5,82.8214133126395,740.3214276177542,4476.5,82.8214133126395,740.3214276177542,4587.2,82.8214133126395,740.3214276177542,4689.3,82.8214133126395,740.3214276177542,4790.3,82.8214133126395,740.3214276177542,4905.9]","[1418.7,1418.7,1000,0,418.7,""smooth"",""down"",""down"",""good_move"",4502.3,3083,2648.4,1419.3,434.6,""oops"",""left"",""right"",""bad_move"",7247.6,2744.8,2204.3,4502.9,540.5,""oops"",""left"",""up"",""bad_move"",10606.2,3358.1,2962.2,7248.2,395.9,""smooth"",""left"",""left"",""good_move"",13605.4,2998.4,2234.9,10607,763.5,""oops"",""left"",""right"",""bad_move"",15828.9,2222.8,1743.4,13606.1,479.4,""oops"",""left"",""up"",""bad_move"",18843.1,3013.8,2285.2,15829.4,728.6,""oops"",""left"",""down"",""good_move"",21673.2,2829.2,2493.9,18844,335.3,""oops"",""left"",""up"",""bad_move"",25132.8,3459.2,1674.7,21673.6,1784.5,""oops"",""down"",""down"",""good_move"",28664.3,3531.1,3145.1,25133.2,386,""oops"",""down"",""right"",""bad_move"",31539.6,2874.1,2029.6,28665.5,844.5,""smooth"",""down"",""down"",""good_move"",34811,3270.7,2939.1,31540.4,331.5,""smooth"",""left"",""left"",""good_move"",37844.6,3033.2,2450.9,34811.4,582.3,""oops"",""left"",""down"",""good_move"",40473.3,2628.4,2242.3,37844.9,386.1,""oops"",""left"",""down"",""good_move"",43321.9,2847.8,2518.6,40474.1,329.2,""oops"",""left"",""left"",""good_move"",53557.1,10234.7,2661.1,50481.7,414.3,""oops"",""left"",""right"",""bad_move"",57050.7,3493.2,3040,53557.5,453.2,""oops"",""left"",""left"",""good_move"",62846.7,5794.9,1640.7,60728.5,477.5,""oops"",""left"",""left"",""good_move"",69668.3,6821.5,2413.5,66841.6,413.2,""oops"",""left"",""left"",""good_move"",77640.5,7972,3219.7,73999.2,421.6,""oops"",""left"",""right"",""bad_move"",80811.5,3170.2,2678.3,77641.3,491.9,""smooth"",""left"",""left"",""good_move"",94751.1,13939.4,3157.9,91104.2,489.1,""oops"",""left"",""right"",""bad_move"",96726.8,1975.4,1408.8,94751.4,566.6,""oops"",""left"",""right"",""bad_move"",99626.4,2899.2,2439.8,96727.2,459.4,""smooth"",""left"",""left"",""good_move""]","","",""
"4789","","<div style=""width:500px;"">
  <p>What determined the result of this run?</p>
  </div>","0","html-slider-response","78","1029890","0.0-10.0-1.8","229","1","2025-07-09 09:38:10","7701e855f2ef39aa3fd6c71abdc6918a","164.127.220.133","Mozilla/5.0 (Windows NT 10.0; Win64; x64) AppleWebKit/537.36 (KHTML, like Gecko) Chrome/138.0.0.0 Safari/537.36 Edg/138.0.0.0","WebKit","Edge","138.0.0.0","Windows","10.0","https://app.prolific.com/","pl,en;q=0.9,en-GB;q=0.8,en-US;q=0.7","5ede9653252ba51223688917","686d226cabeef709c732f8e1","686e3135458ca28eec5836e3","5ede9653252ba51223688917","2025-07-09T09:55:46.222Z","","","","","","AttribQ","","","","","","","","","","","","","","","","","","","","","","","","","","","","","","","","","","","","","","50",""
"3613","","<div style=""width:500px;"">
  <p>How much control did you have over the ball?</p>
  </div>","25","html-slider-response","79","1033504","0.0-10.0-2.8","229","1","2025-07-09 09:38:10","7701e855f2ef39aa3fd6c71abdc6918a","164.127.220.133","Mozilla/5.0 (Windows NT 10.0; Win64; x64) AppleWebKit/537.36 (KHTML, like Gecko) Chrome/138.0.0.0 Safari/537.36 Edg/138.0.0.0","WebKit","Edge","138.0.0.0","Windows","10.0","https://app.prolific.com/","pl,en;q=0.9,en-GB;q=0.8,en-US;q=0.7","5ede9653252ba51223688917","686d226cabeef709c732f8e1","686e3135458ca28eec5836e3","5ede9653252ba51223688917","2025-07-09T09:55:49.836Z","","","","","","ControlQ","","","","","","","","","","","","","","","","","","","","","","","","","","","","","","","","","","","","","","50",""
"3557","","<div style=""width:500px;"">
  <p>How would you describe your current emotional state?</p>
  </div>","37","html-slider-response","80","1037062","0.0-10.0-3.8","229","1","2025-07-09 09:38:10","7701e855f2ef39aa3fd6c71abdc6918a","164.127.220.133","Mozilla/5.0 (Windows NT 10.0; Win64; x64) AppleWebKit/537.36 (KHTML, like Gecko) Chrome/138.0.0.0 Safari/537.36 Edg/138.0.0.0","WebKit","Edge","138.0.0.0","Windows","10.0","https://app.prolific.com/","pl,en;q=0.9,en-GB;q=0.8,en-US;q=0.7","5ede9653252ba51223688917","686d226cabeef709c732f8e1","686e3135458ca28eec5836e3","5ede9653252ba51223688917","2025-07-09T09:55:53.394Z","","","","","","StressQ","","","","","","","","","","","","","","","","","","","","","","","","","","","","","","","","","","","","","","50",""
"3548","","<div style=""width:500px;"">
  <p>What best describes how you currently feel?</p>
  </div>","85","html-slider-response","81","1040612","0.0-10.0-4.8","229","1","2025-07-09 09:38:10","7701e855f2ef39aa3fd6c71abdc6918a","164.127.220.133","Mozilla/5.0 (Windows NT 10.0; Win64; x64) AppleWebKit/537.36 (KHTML, like Gecko) Chrome/138.0.0.0 Safari/537.36 Edg/138.0.0.0","WebKit","Edge","138.0.0.0","Windows","10.0","https://app.prolific.com/","pl,en;q=0.9,en-GB;q=0.8,en-US;q=0.7","5ede9653252ba51223688917","686d226cabeef709c732f8e1","686e3135458ca28eec5836e3","5ede9653252ba51223688917","2025-07-09T09:55:56.944Z","","","","","","MotivationQ","","","","","","","","","","","","","","","","","","","","","","","","","","","","","","","","","","","","","","50",""
