"rt","response_timestamp","stimulus","response","trial_type","trial_index","time_elapsed","internal_node_id","run_id","condition","recorded_at","source_code_version","ip","user_agent","device","browser","browser_version","platform","platform_version","referer","accept_language","PROLIFIC_PID","STUDY_ID","SESSION_ID","prolific_id","realtime","view_history","question_order","consent","success","question_id","eventType","responses","item_order","radio_event_ids","radio_event_times","key_event_times","mouse_event_times","straightlining","zigzagging","honeypot","which_type","canvas_config","goals_layout","control_level","trial_number","tutorial_trial_number","trial_start_time","phase1_start_time","phase2_start_time","phase3_start_time","goal_1_value","goal_1_distance","goal_2_value","goal_2_distance","goal_selected","outcome","outcome_total","participant_final_score","participant_initial_score","participant_final_score_prop","goal_choice_rt","allocated_time","allocated_time_remaining","goal_direction","counts","mouse_movements","key_presses","correct","slider_start","sub_question"
"75561","1752052228660","<p style='font-size:40px;line-height:1.25'><strong>Welcome to the experiment!</strong></p><p style='font-size:1.1em;line-height:1.25'>Thank you for your interest in our experiment! Before you begin, it is important that we obtain your informed consent to participate in the study.</p><p style='font-size:1.1em;line-height:1.25'>On the next screen will be an <strong>information sheet</strong> for you to read. To participate in the study we need you to read this information sheet and the following consent form carefully. If you agree with all the statements, please click the <strong>I agree</strong> button.</p><p style='font-size:1.1em;line-height:1.25'>Press <strong>Next</strong> to read the information sheet.</p>","0","custom-html-button-response","0","75580","0.0-0.0","141","1","2025-07-09 09:09:11","7701e855f2ef39aa3fd6c71abdc6918a","105.245.110.57","Mozilla/5.0 (X11; Linux x86_64) AppleWebKit/537.36 (KHTML, like Gecko) Chrome/137.0.0.0 Safari/537.36","WebKit","Chrome","137.0.0.0","Linux","","https://app.prolific.com/","en-ZA,en-GB;q=0.9,en-US;q=0.8,en;q=0.7","666316060a19030e10987142","686d226cabeef709c732f8e1","686e311ae87699bd112bf2bb","666316060a19030e10987142","2025-07-09T09:10:28.669Z","","","","","","","","","","","","","","","","","","","","","","","","","","","","","","","","","","","","","","","","","","","","",""
"86684","","","","instructions","1","162277","0.0-1.0","141","1","2025-07-09 09:09:11","7701e855f2ef39aa3fd6c71abdc6918a","105.245.110.57","Mozilla/5.0 (X11; Linux x86_64) AppleWebKit/537.36 (KHTML, like Gecko) Chrome/137.0.0.0 Safari/537.36","WebKit","Chrome","137.0.0.0","Linux","","https://app.prolific.com/","en-ZA,en-GB;q=0.9,en-US;q=0.8,en;q=0.7","666316060a19030e10987142","686d226cabeef709c732f8e1","686e311ae87699bd112bf2bb","666316060a19030e10987142","","[{""page_index"":0,""viewing_time"":33529},{""page_index"":1,""viewing_time"":53153}]","","","","","","","","","","","","","","","","","","","","","","","","","","","","","","","","","","","","","","","","","","","",""
"14626","","","{""Q0"":"""",""Q1"":"""",""Q2"":"""",""Q3"":"""",""Q4"":"""",""Q5"":"""",""Q6"":""I agree""}","survey-multi-choice","2","176920","0.0-2.0","141","1","2025-07-09 09:09:11","7701e855f2ef39aa3fd6c71abdc6918a","105.245.110.57","Mozilla/5.0 (X11; Linux x86_64) AppleWebKit/537.36 (KHTML, like Gecko) Chrome/137.0.0.0 Safari/537.36","WebKit","Chrome","137.0.0.0","Linux","","https://app.prolific.com/","en-ZA,en-GB;q=0.9,en-US;q=0.8,en;q=0.7","666316060a19030e10987142","686d226cabeef709c732f8e1","686e311ae87699bd112bf2bb","666316060a19030e10987142","","","[0,1,2,3,4,5,6]","true","","","","","","","","","","","","","","","","","","","","","","","","","","","","","","","","","","","","","","","","","",""
"18399","","","","fullscreen","3","196341","0.0-4.0","141","1","2025-07-09 09:09:11","7701e855f2ef39aa3fd6c71abdc6918a","105.245.110.57","Mozilla/5.0 (X11; Linux x86_64) AppleWebKit/537.36 (KHTML, like Gecko) Chrome/137.0.0.0 Safari/537.36","WebKit","Chrome","137.0.0.0","Linux","","https://app.prolific.com/","en-ZA,en-GB;q=0.9,en-US;q=0.8,en;q=0.7","666316060a19030e10987142","686d226cabeef709c732f8e1","686e311ae87699bd112bf2bb","666316060a19030e10987142","","","","","true","","","","","","","","","","","","","","","","","","","","","","","","","","","","","","","","","","","","","","","","",""
"5136","1752052354572"," <p style='font-size:1.1em;line-height:1.25'>Thank you for completing the consent form and closing all other tabs.</p><p style='font-size:1.1em;line-height:1.25'>We will now invite you to fill in some demographic information and questionnaires, before starting the game.<br>This will take about 5 minutes.<br></p><p style='font-size:1.1em;line-height:1.25'>Press the <strong>Next</strong> button to continue.</p>","0","custom-html-button-response","4","201486","0.0-5.0","141","1","2025-07-09 09:09:11","7701e855f2ef39aa3fd6c71abdc6918a","105.245.110.57","Mozilla/5.0 (X11; Linux x86_64) AppleWebKit/537.36 (KHTML, like Gecko) Chrome/137.0.0.0 Safari/537.36","WebKit","Chrome","137.0.0.0","Linux","","https://app.prolific.com/","en-ZA,en-GB;q=0.9,en-US;q=0.8,en;q=0.7","666316060a19030e10987142","686d226cabeef709c732f8e1","686e311ae87699bd112bf2bb","666316060a19030e10987142","2025-07-09T09:12:34.574Z","","","","","","","","","","","","","","","","","","","","","","","","","","","","","","","","","","","","","","","","","","","","",""
"27272","","","{""age"":""24""}","survey-text","5","228777","0.0-6.0-0.0","141","1","2025-07-09 09:09:11","7701e855f2ef39aa3fd6c71abdc6918a","105.245.110.57","Mozilla/5.0 (X11; Linux x86_64) AppleWebKit/537.36 (KHTML, like Gecko) Chrome/137.0.0.0 Safari/537.36","WebKit","Chrome","137.0.0.0","Linux","","https://app.prolific.com/","en-ZA,en-GB;q=0.9,en-US;q=0.8,en;q=0.7","666316060a19030e10987142","686d226cabeef709c732f8e1","686e311ae87699bd112bf2bb","666316060a19030e10987142","","","","","","0","demographics","","","","","","","","","","","","","","","","","","","","","","","","","","","","","","","","","","","","","","",""
"3070","","","{""gender_identity"":""female/woman""}","survey-multi-choice","6","231857","0.0-6.0-1.0","141","1","2025-07-09 09:09:11","7701e855f2ef39aa3fd6c71abdc6918a","105.245.110.57","Mozilla/5.0 (X11; Linux x86_64) AppleWebKit/537.36 (KHTML, like Gecko) Chrome/137.0.0.0 Safari/537.36","WebKit","Chrome","137.0.0.0","Linux","","https://app.prolific.com/","en-ZA,en-GB;q=0.9,en-US;q=0.8,en;q=0.7","666316060a19030e10987142","686d226cabeef709c732f8e1","686e311ae87699bd112bf2bb","666316060a19030e10987142","","","[0]","","","1","demographics","","","","","","","","","","","","","","","","","","","","","","","","","","","","","","","","","","","","","","",""
"18510","","","{""assigned_sex"":""female""}","survey-multi-choice","7","250376","0.0-6.0-2.0","141","1","2025-07-09 09:09:11","7701e855f2ef39aa3fd6c71abdc6918a","105.245.110.57","Mozilla/5.0 (X11; Linux x86_64) AppleWebKit/537.36 (KHTML, like Gecko) Chrome/137.0.0.0 Safari/537.36","WebKit","Chrome","137.0.0.0","Linux","","https://app.prolific.com/","en-ZA,en-GB;q=0.9,en-US;q=0.8,en;q=0.7","666316060a19030e10987142","686d226cabeef709c732f8e1","686e311ae87699bd112bf2bb","666316060a19030e10987142","","","[0]","","","2","demographics","","","","","","","","","","","","","","","","","","","","","","","","","","","","","","","","","","","","","","",""
"11706","","","{""menstrual_cycle"":""Yes""}","survey-multi-choice","8","262091","0.0-6.0-3.0","141","1","2025-07-09 09:09:11","7701e855f2ef39aa3fd6c71abdc6918a","105.245.110.57","Mozilla/5.0 (X11; Linux x86_64) AppleWebKit/537.36 (KHTML, like Gecko) Chrome/137.0.0.0 Safari/537.36","WebKit","Chrome","137.0.0.0","Linux","","https://app.prolific.com/","en-ZA,en-GB;q=0.9,en-US;q=0.8,en;q=0.7","666316060a19030e10987142","686d226cabeef709c732f8e1","686e311ae87699bd112bf2bb","666316060a19030e10987142","","","[0]","","","4","demographics","","","","","","","","","","","","","","","","","","","","","","","","","","","","","","","","","","","","","","",""
"17431","","","{""education"":""Bachelor's Degree (e.g., BA)""}","survey-multi-choice","9","279530","0.0-6.0-4.0","141","1","2025-07-09 09:09:11","7701e855f2ef39aa3fd6c71abdc6918a","105.245.110.57","Mozilla/5.0 (X11; Linux x86_64) AppleWebKit/537.36 (KHTML, like Gecko) Chrome/137.0.0.0 Safari/537.36","WebKit","Chrome","137.0.0.0","Linux","","https://app.prolific.com/","en-ZA,en-GB;q=0.9,en-US;q=0.8,en;q=0.7","666316060a19030e10987142","686d226cabeef709c732f8e1","686e311ae87699bd112bf2bb","666316060a19030e10987142","","","[0]","","","5","demographics","","","","","","","","","","","","","","","","","","","","","","","","","","","","","","","","","","","","","","",""
"24923","","","{""education"":""Doctoral Degree (e.g., PhD)""}","survey-multi-choice","10","304462","0.0-6.0-5.0","141","1","2025-07-09 09:09:11","7701e855f2ef39aa3fd6c71abdc6918a","105.245.110.57","Mozilla/5.0 (X11; Linux x86_64) AppleWebKit/537.36 (KHTML, like Gecko) Chrome/137.0.0.0 Safari/537.36","WebKit","Chrome","137.0.0.0","Linux","","https://app.prolific.com/","en-ZA,en-GB;q=0.9,en-US;q=0.8,en;q=0.7","666316060a19030e10987142","686d226cabeef709c732f8e1","686e311ae87699bd112bf2bb","666316060a19030e10987142","2025-07-09T09:14:17.550Z","","[0]","","","6","demographics","","","","","","","","","","","","","","","","","","","","","","","","","","","","","","","","","","","","","","",""
"86958","","","{""mental_health_condition"":""No"",""mental_health_treatment"":""No"",""psychiatric_medication"":""Not taking psychiatric  medication ""}","survey-text","11","391441","0.0-7.0-0.0","141","1","2025-07-09 09:09:11","7701e855f2ef39aa3fd6c71abdc6918a","105.245.110.57","Mozilla/5.0 (X11; Linux x86_64) AppleWebKit/537.36 (KHTML, like Gecko) Chrome/137.0.0.0 Safari/537.36","WebKit","Chrome","137.0.0.0","Linux","","https://app.prolific.com/","en-ZA,en-GB;q=0.9,en-US;q=0.8,en;q=0.7","666316060a19030e10987142","686d226cabeef709c732f8e1","686e311ae87699bd112bf2bb","666316060a19030e10987142","2025-07-09T09:15:44.530Z","","","","","1","mental_health","","","","","","","","","","","","","","","","","","","","","","","","","","","","","","","","","","","","","","",""
"19941","","","{""depression_history"":[""No""]}","survey-multi-select","12","411401","0.0-7.0-1.0","141","1","2025-07-09 09:09:11","7701e855f2ef39aa3fd6c71abdc6918a","105.245.110.57","Mozilla/5.0 (X11; Linux x86_64) AppleWebKit/537.36 (KHTML, like Gecko) Chrome/137.0.0.0 Safari/537.36","WebKit","Chrome","137.0.0.0","Linux","","https://app.prolific.com/","en-ZA,en-GB;q=0.9,en-US;q=0.8,en;q=0.7","666316060a19030e10987142","686d226cabeef709c732f8e1","686e311ae87699bd112bf2bb","666316060a19030e10987142","","","[0]","","","","mental_health","","","","","","","","","","","","","","","","","","","","","","","","","","","","","","","","","","","","","","",""
"147252.90000000037","","","","survey-template","13","558680","0.0-7.0-3.0","141","1","2025-07-09 09:09:11","7701e855f2ef39aa3fd6c71abdc6918a","105.245.110.57","Mozilla/5.0 (X11; Linux x86_64) AppleWebKit/537.36 (KHTML, like Gecko) Chrome/137.0.0.0 Safari/537.36","WebKit","Chrome","137.0.0.0","Linux","","https://app.prolific.com/","en-ZA,en-GB;q=0.9,en-US;q=0.8,en;q=0.7","666316060a19030e10987142","686d226cabeef709c732f8e1","686e311ae87699bd112bf2bb","666316060a19030e10987142","2025-07-09T09:18:31.769Z","","","","","","ius","{""Q01"":""0"",""Q02"":""4"",""Q03"":""0"",""Q04"":""4"",""Q05"":""1"",""Q06"":""0"",""Q07"":""0"",""Q08"":""0"",""Q09"":""4"",""Q10"":""4"",""Q11"":""0"",""Q12"":""4"",""Q13"":""3""}","[0,1,2,3,4,5,6,7,8,9,10,11,12]","[""Q01"",""Q02"",""Q03"",""Q04"",""Q05"",""Q05"",""Q06"",""Q07"",""Q08"",""Q09"",""Q10"",""Q11"",""Q12"",""Q13""]","[32059.900000000373,40171.5,53690.5,64830.29999999888,81032.19999999925,85174.79999999888,92669.59999999963,98958.90000000037,105066.19999999925,118008.59999999963,125300.79999999888,130974.19999999925,137615.19999999925,145641.09999999963]","[]","[32059.900000000373,40171.5,53690.5,63485.5,64830.29999999888,78570.09999999963,81032.19999999925,85174.79999999888,92669.59999999963,98958.90000000037,105066.19999999925,118008.59999999963,125300.79999999888,130225.29999999888,130974.19999999925,137615.19999999925,145641.09999999963,147232.79999999888]","0.46153846153846156","0.6666666666666666","0","","","","","","","","","","","","","","","","","","","","","","","","","","","","","",""
"4803","1752052716578","<p style='font-size:1.1em;line-height:1.25'>In the following, we will ask you a few questions relating to your experiences over the past month.<br></p><p style='font-size:1.1em;line-height:1.25'>Press the <strong>Next</strong> button to continue.</p>","0","custom-html-button-response","14","563500","0.0-7.0-4.0","141","1","2025-07-09 09:09:11","7701e855f2ef39aa3fd6c71abdc6918a","105.245.110.57","Mozilla/5.0 (X11; Linux x86_64) AppleWebKit/537.36 (KHTML, like Gecko) Chrome/137.0.0.0 Safari/537.36","WebKit","Chrome","137.0.0.0","Linux","","https://app.prolific.com/","en-ZA,en-GB;q=0.9,en-US;q=0.8,en;q=0.7","666316060a19030e10987142","686d226cabeef709c732f8e1","686e311ae87699bd112bf2bb","666316060a19030e10987142","2025-07-09T09:18:36.588Z","","","","","","","","","","","","","","","","","","","","","","","","","","","","","","","","","","","","","","","","","","","","",""
"143266.3999999985","","","","survey-template","15","706780","0.0-7.0-5.0","141","1","2025-07-09 09:09:11","7701e855f2ef39aa3fd6c71abdc6918a","105.245.110.57","Mozilla/5.0 (X11; Linux x86_64) AppleWebKit/537.36 (KHTML, like Gecko) Chrome/137.0.0.0 Safari/537.36","WebKit","Chrome","137.0.0.0","Linux","","https://app.prolific.com/","en-ZA,en-GB;q=0.9,en-US;q=0.8,en;q=0.7","666316060a19030e10987142","686d226cabeef709c732f8e1","686e311ae87699bd112bf2bb","666316060a19030e10987142","2025-07-09T09:20:59.869Z","","","","","","pss","{""Q01"":""2"",""Q02"":""0"",""Q03"":""2"",""Q04"":""0"",""Q05"":""0"",""Q06"":""0"",""Q07"":""0"",""Q08"":""0"",""Q09"":""2"",""Q10"":""0""}","[0,1,2,3,4,5,6,7,8,9]","[""Q01"",""Q02"",""Q03"",""Q04"",""Q05"",""Q06"",""Q07"",""Q08"",""Q09"",""Q10""]","[13943.199999999255,28397.699999999255,37723.699999999255,52907.59999999963,62140.199999999255,78503.5,91558.59999999963,106164.29999999888,123443.29999999888,140715.29999999888]","[]","[0.19999999925494194,13943.199999999255,28397.699999999255,37723.699999999255,52907.59999999963,62140.199999999255,78503.5,90413.5,91558.59999999963,106164.29999999888,123443.29999999888,140715.29999999888,143249.09999999963]","0.4","0.2222222222222222","0","","","","","","","","","","","","","","","","","","","","","","","","","","","","","",""
"4093","1752052863966","<p style='font-size:1.1em;line-height:1.25'>Thank you for your answers! Now we will ask you a few more questions relating to your feelings in the last 24 hours.<br></p><p style='font-size:1.1em;line-height:1.25'>Press the <strong>Next</strong> button to continue.</p>","0","custom-html-button-response","16","710879","0.0-7.0-6.0","141","1","2025-07-09 09:09:11","7701e855f2ef39aa3fd6c71abdc6918a","105.245.110.57","Mozilla/5.0 (X11; Linux x86_64) AppleWebKit/537.36 (KHTML, like Gecko) Chrome/137.0.0.0 Safari/537.36","WebKit","Chrome","137.0.0.0","Linux","","https://app.prolific.com/","en-ZA,en-GB;q=0.9,en-US;q=0.8,en;q=0.7","666316060a19030e10987142","686d226cabeef709c732f8e1","686e311ae87699bd112bf2bb","666316060a19030e10987142","2025-07-09T09:21:03.968Z","","","","","","","","","","","","","","","","","","","","","","","","","","","","","","","","","","","","","","","","","","","","",""
"122336.40000000037","","","","survey-template","17","833243","0.0-7.0-7.0","141","1","2025-07-09 09:09:11","7701e855f2ef39aa3fd6c71abdc6918a","105.245.110.57","Mozilla/5.0 (X11; Linux x86_64) AppleWebKit/537.36 (KHTML, like Gecko) Chrome/137.0.0.0 Safari/537.36","WebKit","Chrome","137.0.0.0","Linux","","https://app.prolific.com/","en-ZA,en-GB;q=0.9,en-US;q=0.8,en;q=0.7","666316060a19030e10987142","686d226cabeef709c732f8e1","686e311ae87699bd112bf2bb","666316060a19030e10987142","2025-07-09T09:23:06.331Z","","","","","","drsp","{""Q01"":""0"",""Q02"":""0"",""Q03"":""0"",""Q04"":""0"",""Q05"":""0"",""Q06"":""0"",""Q07"":""0"",""Q08"":""0"",""Q09"":""0"",""Q10"":""0"",""Q11"":""0"",""Q12"":""5"",""Q13"":""5"",""Q14"":""0"",""Q15"":""0"",""Q16"":""2"",""Q17"":""0"",""Q18"":""0"",""Q19"":""0"",""Q20"":""0"",""Q21"":""0""}","[0,1,2,3,4,5,6,7,8,9,10,11,12,13,14,15,16,17,18,19,20]","[""Q01"",""Q02"",""Q03"",""Q04"",""Q05"",""Q06"",""Q07"",""Q08"",""Q09"",""Q10"",""Q11"",""Q12"",""Q13"",""Q14"",""Q15"",""Q16"",""Q16"",""Q17"",""Q16"",""Q18"",""Q19"",""Q20"",""Q21""]","[8580.699999999255,10570.099999999627,12908.599999999627,15273.900000000373,17095.799999998882,20592.400000000373,22512.199999999255,24913.400000000373,27310.299999998882,29089.799999998882,31646.5,39915.59999999963,43699.79999999888,54676.5,59307.90000000037,67613.19999999925,68280.29999999888,72741.5,83599.69999999925,91183,101175.59999999963,107607.90000000037,120363.79999999888]","[]","[0.19999999925494194,8580.699999999255,10570.099999999627,12908.599999999627,15273.900000000373,17095.799999998882,20592.400000000373,22512.199999999255,24913.400000000373,27310.299999998882,29089.799999998882,31646.5,39915.59999999963,43699.79999999888,54676.5,59307.90000000037,67613.19999999925,68280.29999999888,71681.29999999888,72741.5,81949.79999999888,82795.79999999888,83599.69999999925,91183,101175.59999999963,107607.90000000037,119099.90000000037,119847.29999999888,120363.79999999888,122301.09999999963]","0.8571428571428571","0.1","0","","","","","","","","","","","","","","","","","","","","","","","","","","","","","",""
"23911.5","","","","survey-template","18","857163","0.0-7.0-8.0","141","1","2025-07-09 09:09:11","7701e855f2ef39aa3fd6c71abdc6918a","105.245.110.57","Mozilla/5.0 (X11; Linux x86_64) AppleWebKit/537.36 (KHTML, like Gecko) Chrome/137.0.0.0 Safari/537.36","WebKit","Chrome","137.0.0.0","Linux","","https://app.prolific.com/","en-ZA,en-GB;q=0.9,en-US;q=0.8,en;q=0.7","666316060a19030e10987142","686d226cabeef709c732f8e1","686e311ae87699bd112bf2bb","666316060a19030e10987142","2025-07-09T09:23:30.252Z","","","","","","stress","{""Q01"":""0"",""Q02"":""0"",""Q03"":""0""}","[0,1,2]","[""Q01"",""Q02"",""Q03""]","[5861.799999998882,10948.299999998882,18443.699999999255]","[]","[5861.799999998882,10948.299999998882,18443.699999999255,23904.699999999255]","0.6666666666666666","1","0","","","","","","","","","","","","","","","","","","","","","","","","","","","","","",""
"375354","","","","instructions","19","1232523","0.0-8.0-0.0","141","1","2025-07-09 09:09:11","7701e855f2ef39aa3fd6c71abdc6918a","105.245.110.57","Mozilla/5.0 (X11; Linux x86_64) AppleWebKit/537.36 (KHTML, like Gecko) Chrome/137.0.0.0 Safari/537.36","WebKit","Chrome","137.0.0.0","Linux","","https://app.prolific.com/","en-ZA,en-GB;q=0.9,en-US;q=0.8,en;q=0.7","666316060a19030e10987142","686d226cabeef709c732f8e1","686e311ae87699bd112bf2bb","666316060a19030e10987142","","[{""page_index"":0,""viewing_time"":51026},{""page_index"":1,""viewing_time"":68519},{""page_index"":2,""viewing_time"":205530},{""page_index"":3,""viewing_time"":50277}]","","","","","","","","","","","","","","","","","","","","","","","","","","","","","","","","","","","","","","","","","","","",""
"","","","","ctl-task-cpt","20","1255380","0.0-8.0-1.0","141","1","2025-07-09 09:09:11","7701e855f2ef39aa3fd6c71abdc6918a","105.245.110.57","Mozilla/5.0 (X11; Linux x86_64) AppleWebKit/537.36 (KHTML, like Gecko) Chrome/137.0.0.0 Safari/537.36","WebKit","Chrome","137.0.0.0","Linux","","https://app.prolific.com/","en-ZA,en-GB;q=0.9,en-US;q=0.8,en;q=0.7","666316060a19030e10987142","686d226cabeef709c732f8e1","686e311ae87699bd112bf2bb","666316060a19030e10987142","","","","","","","","","","","","","","","","","win-only","2","g1:SE,g2:NW","1","0","1","1235312.7","6040.6","10055.4","19816.2","2","4","4","6","2","-4","-4","0","0","0","4014.5","4000","-1910","[""left"",""up""]","{""num_key_presses"":0,""num_perfect"":0,""num_errors"":0,""num_randdir"":0,""num_randdir_good_moves"":0,""num_whilered"":0,""num_whileblue"":0,""num_blue"":0,""num_good_moves"":0}","[271.7142857142857,273.5111607142857,3.8,271.7142857142857,273.5111607142857,116.2,271.7142857142857,273.5111607142857,232.6,271.7142857142857,273.5111607142857,346.6,271.7142857142857,273.5111607142857,450.2,271.7142857142857,273.5111607142857,556.1,271.7142857142857,273.5111607142857,658.1,271.7142857142857,273.5111607142857,780.4,271.7142857142857,273.5111607142857,902.7,271.7142857142857,273.5111607142857,1015.7,271.7142857142857,273.5111607142857,1119.2,271.7142857142857,273.5111607142857,1232.5,271.7142857142857,273.5111607142857,1343.4,271.7142857142857,273.5111607142857,1448.9,271.7142857142857,273.5111607142857,1550.5,271.7142857142857,273.5111607142857,1684.2,271.7142857142857,273.5111607142857,1806.6,271.7142857142857,273.5111607142857,1916.9,271.7142857142857,273.5111607142857,2070.6,271.7142857142857,273.5111607142857,2182.6,271.7142857142857,273.5111607142857,2285.2,307.7142857142857,315.5111607142857,2385.7,307.7142857142857,315.5111607142857,2497.9,307.7142857142857,315.5111607142857,2615.1,307.7142857142857,315.5111607142857,2717.5,307.7142857142857,315.5111607142857,2818.5,307.7142857142857,315.5111607142857,2978.2,307.7142857142857,315.5111607142857,3078.2,319.7142857142857,315.5111607142857,3208.2,319.7142857142857,315.5111607142857,3359.9,319.7142857142857,315.5111607142857,3466.5,319.7142857142857,315.5111607142857,3583.2,319.7142857142857,315.5111607142857,3690.9,319.7142857142857,315.5111607142857,3794.6,319.7142857142857,315.5111607142857,3898.7]","[]","","",""
"85490","","","","instructions","21","1340872","0.0-8.0-2.0","141","1","2025-07-09 09:09:11","7701e855f2ef39aa3fd6c71abdc6918a","105.245.110.57","Mozilla/5.0 (X11; Linux x86_64) AppleWebKit/537.36 (KHTML, like Gecko) Chrome/137.0.0.0 Safari/537.36","WebKit","Chrome","137.0.0.0","Linux","","https://app.prolific.com/","en-ZA,en-GB;q=0.9,en-US;q=0.8,en;q=0.7","666316060a19030e10987142","686d226cabeef709c732f8e1","686e311ae87699bd112bf2bb","666316060a19030e10987142","","[{""page_index"":0,""viewing_time"":85488}]","","","","","","","","","","","","","","","","","","","","","","","","","","","","","","","","","","","","","","","","","","","",""
"","","","","ctl-task-cpt","22","1429895","0.0-8.0-3.0","141","1","2025-07-09 09:09:11","7701e855f2ef39aa3fd6c71abdc6918a","105.245.110.57","Mozilla/5.0 (X11; Linux x86_64) AppleWebKit/537.36 (KHTML, like Gecko) Chrome/137.0.0.0 Safari/537.36","WebKit","Chrome","137.0.0.0","Linux","","https://app.prolific.com/","en-ZA,en-GB;q=0.9,en-US;q=0.8,en;q=0.7","666316060a19030e10987142","686d226cabeef709c732f8e1","686e311ae87699bd112bf2bb","666316060a19030e10987142","","","","","","","","","","","","","","","","","win-only","2","g1:SE,g2:NW","0.35","0","3","1343639.6","13460.6","17466.7","86000","2","4","8","6","2","8","1","1","0","0.007575757575757576","4006.1","4000","480","[""left"",""up""]","{""num_key_presses"":25,""num_perfect"":6,""num_errors"":7,""num_randdir"":9,""num_randdir_good_moves"":4,""num_whilered"":3,""num_whileblue"":1,""num_blue"":4,""num_good_moves"":11}","[275.7142857142857,281.5111607142857,1.8,275.7142857142857,281.5111607142857,127.8,275.7142857142857,281.5111607142857,232.2,275.7142857142857,281.5111607142857,332.7,275.7142857142857,281.5111607142857,434.3,275.7142857142857,281.5111607142857,535.3,275.7142857142857,281.5111607142857,637.8,275.7142857142857,281.5111607142857,765.6,275.7142857142857,281.5111607142857,869,275.7142857142857,281.5111607142857,998.9,275.7142857142857,281.5111607142857,1110.4,275.7142857142857,281.5111607142857,1241.8,275.7142857142857,281.5111607142857,1342.4,275.7142857142857,281.5111607142857,1445.7,275.7142857142857,281.5111607142857,1546.9,275.7142857142857,281.5111607142857,1659.9,275.7142857142857,281.5111607142857,1771.8,275.7142857142857,281.5111607142857,1875.5,275.7142857142857,281.5111607142857,1999.4,275.7142857142857,281.5111607142857,2126.3,275.7142857142857,281.5111607142857,2246.7,275.7142857142857,281.5111607142857,2370.1,275.7142857142857,281.5111607142857,2474.8,275.7142857142857,281.5111607142857,2603.4,275.7142857142857,281.5111607142857,2705.9,275.7142857142857,281.5111607142857,2807.9,275.7142857142857,281.5111607142857,2915.8,275.7142857142857,281.5111607142857,3032.8,275.7142857142857,281.5111607142857,3154.4,275.7142857142857,281.5111607142857,3286.1,275.7142857142857,281.5111607142857,3398.4,275.7142857142857,281.5111607142857,3503.3,275.7142857142857,281.5111607142857,3623.6,275.7142857142857,281.5111607142857,3726.3,275.7142857142857,281.5111607142857,3832.2,275.7142857142857,281.5111607142857,3935.9]","[219.2,219.2,1000,0,-780.8,""error"",""-"",""-"",""no_move"",771.3,551.1,1000,0,-228.5,""while_red"",""-"",""-"",""no_move"",2656.5,2436.3,2510.4,1221.1,-1074.8,""error"",""-"",""-"",""no_move"",5992.5,3334.4,1623.3,3658.5,710.7,""smooth"",""up"",""up"",""good_move"",6484.6,490.4,2646.5,5994.3,-2156.1,""error"",""-"",""-"",""no_move"",6771.5,285.7,2646.5,5994.3,-1869.3,""while_red"",""-"",""-"",""no_move"",7006.6,520.8,2646.5,5994.3,-1634.2,""while_red"",""-"",""-"",""no_move"",10796.9,4311.1,2343.6,10794,-2340.7,""error"",""-"",""-"",""no_move"",18238.7,7439.2,2015.6,15712.1,511.1,""smooth"",""left"",""left"",""good_move"",21916.6,3676.1,2917.2,18240.7,758.8,""oops"",""left"",""right"",""bad_move"",25162,3242.9,2766.7,21919.1,476.2,""smooth"",""left"",""left"",""good_move"",27975.3,2811.5,2249.3,25163.8,562.3,""oops"",""left"",""down"",""bad_move"",30948.4,2970.6,2452.4,27977.9,518.2,""oops"",""up"",""left"",""good_move"",37464.8,6515.1,2707.6,34201.3,555.9,""oops"",""up"",""down"",""bad_move"",41218.2,3752.5,3061,37465.8,691.4,""smooth"",""left"",""left"",""good_move"",44303.7,3084.3,2577.6,41219.4,506.7,""oops"",""up"",""up"",""good_move"",47063,2758,2221.9,44305,536.1,""oops"",""up"",""down"",""bad_move"",49694,2629.4,1754.7,47064.6,874.7,""oops"",""down"",""down"",""bad_move"",53005,3307.4,2917.3,49697.6,390.2,""while_blue"",""up"",""up"",""good_move"",53984.9,978.7,2158.7,53006.3,-1180,""error"",""-"",""-"",""no_move"",55392.2,1406.9,2253.8,54986.3,-1847.9,""error"",""-"",""-"",""no_move"",59329.6,3936.5,2460.5,56405.9,463.2,""oops"",""up"",""up"",""good_move"",62627.3,3296.5,2827.5,59330.8,469,""smooth"",""up"",""up"",""good_move"",65400.2,2771.6,2344.2,62628.6,427.4,""oops"",""up"",""up"",""good_move"",68346.8,2944.7,2502.2,65402.2,442.4,""smooth"",""up"",""up"",""good_move""]","","",""
"54308","","","","instructions","23","1484207","0.0-8.0-4.0","141","1","2025-07-09 09:09:11","7701e855f2ef39aa3fd6c71abdc6918a","105.245.110.57","Mozilla/5.0 (X11; Linux x86_64) AppleWebKit/537.36 (KHTML, like Gecko) Chrome/137.0.0.0 Safari/537.36","WebKit","Chrome","137.0.0.0","Linux","","https://app.prolific.com/","en-ZA,en-GB;q=0.9,en-US;q=0.8,en;q=0.7","666316060a19030e10987142","686d226cabeef709c732f8e1","686e311ae87699bd112bf2bb","666316060a19030e10987142","","[{""page_index"":0,""viewing_time"":51412},{""page_index"":1,""viewing_time"":2895}]","","","","","","","","","","","","","","","","","","","","","","","","","","","","","","","","","","","","","","","","","","","",""
"105853","","","{""green_ball"":[""Ball always moves in the direction I press""]}","survey-multi-select","24","1590082","0.0-8.0-5.0-0.0","141","1","2025-07-09 09:09:11","7701e855f2ef39aa3fd6c71abdc6918a","105.245.110.57","Mozilla/5.0 (X11; Linux x86_64) AppleWebKit/537.36 (KHTML, like Gecko) Chrome/137.0.0.0 Safari/537.36","WebKit","Chrome","137.0.0.0","Linux","","https://app.prolific.com/","en-ZA,en-GB;q=0.9,en-US;q=0.8,en;q=0.7","666316060a19030e10987142","686d226cabeef709c732f8e1","686e311ae87699bd112bf2bb","666316060a19030e10987142","","","[0]","","","","quiz","","","","","","","","","","","","","","","","","","","","","","","","","","","","","","","","","","","","","false","",""
"47893","","<p align='center'><b>INCORRECT.</b> Usually the green ball moves in the indicated direction, but sometimes it shakes and moves randomly. </p>","0","html-button-response","25","1637987","0.0-8.0-5.0-1.0","141","1","2025-07-09 09:09:11","7701e855f2ef39aa3fd6c71abdc6918a","105.245.110.57","Mozilla/5.0 (X11; Linux x86_64) AppleWebKit/537.36 (KHTML, like Gecko) Chrome/137.0.0.0 Safari/537.36","WebKit","Chrome","137.0.0.0","Linux","","https://app.prolific.com/","en-ZA,en-GB;q=0.9,en-US;q=0.8,en;q=0.7","666316060a19030e10987142","686d226cabeef709c732f8e1","686e311ae87699bd112bf2bb","666316060a19030e10987142","","","","","","","","","","","","","","","","","","","","","","","","","","","","","","","","","","","","","","","","","","","","","",""
"221705","","","{""green_ball"":[""Ball sometimes shakes and moves in a random direction""]}","survey-multi-select","26","1859709","0.0-8.0-5.1-0.1","141","1","2025-07-09 09:09:11","7701e855f2ef39aa3fd6c71abdc6918a","105.245.110.57","Mozilla/5.0 (X11; Linux x86_64) AppleWebKit/537.36 (KHTML, like Gecko) Chrome/137.0.0.0 Safari/537.36","WebKit","Chrome","137.0.0.0","Linux","","https://app.prolific.com/","en-ZA,en-GB;q=0.9,en-US;q=0.8,en;q=0.7","666316060a19030e10987142","686d226cabeef709c732f8e1","686e311ae87699bd112bf2bb","666316060a19030e10987142","","","[0]","","","","quiz","","","","","","","","","","","","","","","","","","","","","","","","","","","","","","","","","","","","","true","",""
"31492","","<p align='center'><b>CORRECT!</b> Indeed, the green ball may sometimes shake and move in a random direction.</p>","0","html-button-response","27","1891216","0.0-8.0-5.1-1.1","141","1","2025-07-09 09:09:11","7701e855f2ef39aa3fd6c71abdc6918a","105.245.110.57","Mozilla/5.0 (X11; Linux x86_64) AppleWebKit/537.36 (KHTML, like Gecko) Chrome/137.0.0.0 Safari/537.36","WebKit","Chrome","137.0.0.0","Linux","","https://app.prolific.com/","en-ZA,en-GB;q=0.9,en-US;q=0.8,en;q=0.7","666316060a19030e10987142","686d226cabeef709c732f8e1","686e311ae87699bd112bf2bb","666316060a19030e10987142","","","","","","","","","","","","","","","","","","","","","","","","","","","","","","","","","","","","","","","","","","","","","",""
"87290","","","{""yellow_ball"":[""Ball always shakes and moves in a random direction""]}","survey-multi-select","28","1978523","0.0-8.0-6.0-0.0","141","1","2025-07-09 09:09:11","7701e855f2ef39aa3fd6c71abdc6918a","105.245.110.57","Mozilla/5.0 (X11; Linux x86_64) AppleWebKit/537.36 (KHTML, like Gecko) Chrome/137.0.0.0 Safari/537.36","WebKit","Chrome","137.0.0.0","Linux","","https://app.prolific.com/","en-ZA,en-GB;q=0.9,en-US;q=0.8,en;q=0.7","666316060a19030e10987142","686d226cabeef709c732f8e1","686e311ae87699bd112bf2bb","666316060a19030e10987142","","","[0]","","","","quiz","","","","","","","","","","","","","","","","","","","","","","","","","","","","","","","","","","","","","false","",""
"21051","","<p align='center'><b>INCORRECT.</b> The yellow ball never moves and you reveice a penalty if you press anyways. </p>","0","html-button-response","29","1999584","0.0-8.0-6.0-1.0","141","1","2025-07-09 09:09:11","7701e855f2ef39aa3fd6c71abdc6918a","105.245.110.57","Mozilla/5.0 (X11; Linux x86_64) AppleWebKit/537.36 (KHTML, like Gecko) Chrome/137.0.0.0 Safari/537.36","WebKit","Chrome","137.0.0.0","Linux","","https://app.prolific.com/","en-ZA,en-GB;q=0.9,en-US;q=0.8,en;q=0.7","666316060a19030e10987142","686d226cabeef709c732f8e1","686e311ae87699bd112bf2bb","666316060a19030e10987142","","","","","","","","","","","","","","","","","","","","","","","","","","","","","","","","","","","","","","","","","","","","","",""
"26620","","","{""yellow_ball"":[""Ball doesn‘t move and I get -1 penalty point""]}","survey-multi-select","30","2026230","0.0-8.0-6.1-0.1","141","1","2025-07-09 09:09:11","7701e855f2ef39aa3fd6c71abdc6918a","105.245.110.57","Mozilla/5.0 (X11; Linux x86_64) AppleWebKit/537.36 (KHTML, like Gecko) Chrome/137.0.0.0 Safari/537.36","WebKit","Chrome","137.0.0.0","Linux","","https://app.prolific.com/","en-ZA,en-GB;q=0.9,en-US;q=0.8,en;q=0.7","666316060a19030e10987142","686d226cabeef709c732f8e1","686e311ae87699bd112bf2bb","666316060a19030e10987142","","","[0]","","","","quiz","","","","","","","","","","","","","","","","","","","","","","","","","","","","","","","","","","","","","true","",""
"84441","","<p align='center'><b>CORRECT!</b> Indeed, the yellow ball never moves and you receive a penalty.</p>","0","html-button-response","31","2110680","0.0-8.0-6.1-1.1","141","1","2025-07-09 09:09:11","7701e855f2ef39aa3fd6c71abdc6918a","105.245.110.57","Mozilla/5.0 (X11; Linux x86_64) AppleWebKit/537.36 (KHTML, like Gecko) Chrome/137.0.0.0 Safari/537.36","WebKit","Chrome","137.0.0.0","Linux","","https://app.prolific.com/","en-ZA,en-GB;q=0.9,en-US;q=0.8,en;q=0.7","666316060a19030e10987142","686d226cabeef709c732f8e1","686e311ae87699bd112bf2bb","666316060a19030e10987142","","","","","","","","","","","","","","","","","","","","","","","","","","","","","","","","","","","","","","","","","","","","","",""
"127880","","","{""blue_ball"":[""Ball always shakes and moves in a random direction""]}","survey-multi-select","32","2238589","0.0-8.0-7.0-0.0","141","1","2025-07-09 09:09:11","7701e855f2ef39aa3fd6c71abdc6918a","105.245.110.57","Mozilla/5.0 (X11; Linux x86_64) AppleWebKit/537.36 (KHTML, like Gecko) Chrome/137.0.0.0 Safari/537.36","WebKit","Chrome","137.0.0.0","Linux","","https://app.prolific.com/","en-ZA,en-GB;q=0.9,en-US;q=0.8,en;q=0.7","666316060a19030e10987142","686d226cabeef709c732f8e1","686e311ae87699bd112bf2bb","666316060a19030e10987142","","","[0]","","","","quiz","","","","","","","","","","","","","","","","","","","","","","","","","","","","","","","","","","","","","true","",""
"35754","","<p align='center'><b>CORRECT!</b> Indeed, the blue ball always shakes and moves in a random direction. Also there is a penalty of -1 point.</p>","0","html-button-response","33","2274354","0.0-8.0-7.0-1.0","141","1","2025-07-09 09:09:11","7701e855f2ef39aa3fd6c71abdc6918a","105.245.110.57","Mozilla/5.0 (X11; Linux x86_64) AppleWebKit/537.36 (KHTML, like Gecko) Chrome/137.0.0.0 Safari/537.36","WebKit","Chrome","137.0.0.0","Linux","","https://app.prolific.com/","en-ZA,en-GB;q=0.9,en-US;q=0.8,en;q=0.7","666316060a19030e10987142","686d226cabeef709c732f8e1","686e311ae87699bd112bf2bb","666316060a19030e10987142","","","","","","","","","","","","","","","","","","","","","","","","","","","","","","","","","","","","","","","","","","","","","",""
"113385","","","{""bonus"":[""When I reach all possible points""]}","survey-multi-select","34","2387763","0.0-8.0-8.0-0.0","141","1","2025-07-09 09:09:11","7701e855f2ef39aa3fd6c71abdc6918a","105.245.110.57","Mozilla/5.0 (X11; Linux x86_64) AppleWebKit/537.36 (KHTML, like Gecko) Chrome/137.0.0.0 Safari/537.36","WebKit","Chrome","137.0.0.0","Linux","","https://app.prolific.com/","en-ZA,en-GB;q=0.9,en-US;q=0.8,en;q=0.7","666316060a19030e10987142","686d226cabeef709c732f8e1","686e311ae87699bd112bf2bb","666316060a19030e10987142","","","[0]","","","","quiz","","","","","","","","","","","","","","","","","","","","","","","","","","","","","","","","","","","","","false","",""
"8647","","<p align='center'><b>INCORRECT.</b> You receive 2 pounds extra when you reach 50% of points </p>","0","html-button-response","35","2396423","0.0-8.0-8.0-1.0","141","1","2025-07-09 09:09:11","7701e855f2ef39aa3fd6c71abdc6918a","105.245.110.57","Mozilla/5.0 (X11; Linux x86_64) AppleWebKit/537.36 (KHTML, like Gecko) Chrome/137.0.0.0 Safari/537.36","WebKit","Chrome","137.0.0.0","Linux","","https://app.prolific.com/","en-ZA,en-GB;q=0.9,en-US;q=0.8,en;q=0.7","666316060a19030e10987142","686d226cabeef709c732f8e1","686e311ae87699bd112bf2bb","666316060a19030e10987142","","","","","","","","","","","","","","","","","","","","","","","","","","","","","","","","","","","","","","","","","","","","","",""
"175119","","","{""bonus"":[""When I reach 50% of points""]}","survey-multi-select","36","2571563","0.0-8.0-8.1-0.1","141","1","2025-07-09 09:09:11","7701e855f2ef39aa3fd6c71abdc6918a","105.245.110.57","Mozilla/5.0 (X11; Linux x86_64) AppleWebKit/537.36 (KHTML, like Gecko) Chrome/137.0.0.0 Safari/537.36","WebKit","Chrome","137.0.0.0","Linux","","https://app.prolific.com/","en-ZA,en-GB;q=0.9,en-US;q=0.8,en;q=0.7","666316060a19030e10987142","686d226cabeef709c732f8e1","686e311ae87699bd112bf2bb","666316060a19030e10987142","","","[0]","","","","quiz","","","","","","","","","","","","","","","","","","","","","","","","","","","","","","","","","","","","","true","",""
"31063","","<p align='center'><b>CORRECT!</b> Indeed, you receive 2 pounds extra when you reach 50% of points.</p>","0","html-button-response","37","2602638","0.0-8.0-8.1-1.1","141","1","2025-07-09 09:09:11","7701e855f2ef39aa3fd6c71abdc6918a","105.245.110.57","Mozilla/5.0 (X11; Linux x86_64) AppleWebKit/537.36 (KHTML, like Gecko) Chrome/137.0.0.0 Safari/537.36","WebKit","Chrome","137.0.0.0","Linux","","https://app.prolific.com/","en-ZA,en-GB;q=0.9,en-US;q=0.8,en;q=0.7","666316060a19030e10987142","686d226cabeef709c732f8e1","686e311ae87699bd112bf2bb","666316060a19030e10987142","","","","","","","","","","","","","","","","","","","","","","","","","","","","","","","","","","","","","","","","","","","","","",""
"63561","","","","instructions","38","2666206","0.0-8.0-9.0","141","1","2025-07-09 09:09:11","7701e855f2ef39aa3fd6c71abdc6918a","105.245.110.57","Mozilla/5.0 (X11; Linux x86_64) AppleWebKit/537.36 (KHTML, like Gecko) Chrome/137.0.0.0 Safari/537.36","WebKit","Chrome","137.0.0.0","Linux","","https://app.prolific.com/","en-ZA,en-GB;q=0.9,en-US;q=0.8,en;q=0.7","666316060a19030e10987142","686d226cabeef709c732f8e1","686e311ae87699bd112bf2bb","666316060a19030e10987142","","[{""page_index"":0,""viewing_time"":63559}]","","","","","","","","","","","","","","","","","","","","","","","","","","","","","","","","","","","","","","","","","","","",""
"80295","","<p>Before you start with this game please answer the following three questions yourself. </p>
  <p>Through this game, we measure several aspects of your cognitive performance, such as reaction times, multi-tasking capabilities </p>
  <p>and the ability to assess the situation you are in.</p>
  <p></p>
  <p><b>How good do you usually are in such tasks?</b></p>","83","html-slider-response","39","2746519","0.0-9.0-0.0","141","1","2025-07-09 09:09:11","7701e855f2ef39aa3fd6c71abdc6918a","105.245.110.57","Mozilla/5.0 (X11; Linux x86_64) AppleWebKit/537.36 (KHTML, like Gecko) Chrome/137.0.0.0 Safari/537.36","WebKit","Chrome","137.0.0.0","Linux","","https://app.prolific.com/","en-ZA,en-GB;q=0.9,en-US;q=0.8,en;q=0.7","666316060a19030e10987142","686d226cabeef709c732f8e1","686e311ae87699bd112bf2bb","666316060a19030e10987142","2025-07-09T09:54:59.608Z","","","","","","PreSkillQ","","","","","","","","","","","","","","","","","","","","","","","","","","","","","","","","","","","","","","50",""
"42335","","<div style=""width:500px;"">
  <p>How well do you think you will perform in this task compared to other participants?</p>
  </div>","59","html-slider-response","40","2788864","0.0-9.0-1.0","141","1","2025-07-09 09:09:11","7701e855f2ef39aa3fd6c71abdc6918a","105.245.110.57","Mozilla/5.0 (X11; Linux x86_64) AppleWebKit/537.36 (KHTML, like Gecko) Chrome/137.0.0.0 Safari/537.36","WebKit","Chrome","137.0.0.0","Linux","","https://app.prolific.com/","en-ZA,en-GB;q=0.9,en-US;q=0.8,en;q=0.7","666316060a19030e10987142","686d226cabeef709c732f8e1","686e311ae87699bd112bf2bb","666316060a19030e10987142","2025-07-09T09:55:41.953Z","","","","","","PrePerfQ","","","","","","","","","","","","","","","","","","","","","","","","","","","","","","","","","","","","","","50",""
"79050","","<div style=""width:500px;"">
  <p>What best describes how you currently feel?</p>
  </div>","100","html-slider-response","41","2867924","0.0-9.0-2.0","141","1","2025-07-09 09:09:11","7701e855f2ef39aa3fd6c71abdc6918a","105.245.110.57","Mozilla/5.0 (X11; Linux x86_64) AppleWebKit/537.36 (KHTML, like Gecko) Chrome/137.0.0.0 Safari/537.36","WebKit","Chrome","137.0.0.0","Linux","","https://app.prolific.com/","en-ZA,en-GB;q=0.9,en-US;q=0.8,en;q=0.7","666316060a19030e10987142","686d226cabeef709c732f8e1","686e311ae87699bd112bf2bb","666316060a19030e10987142","2025-07-09T09:57:01.013Z","","","","","","PreMotivationQ","","","","","","","","","","","","","","","","","","","","","","","","","","","","","","","","","","","","","","50",""
"","","","","ctl-task-cpt","42","2964052","0.0-10.0-0.0","141","1","2025-07-09 09:09:11","7701e855f2ef39aa3fd6c71abdc6918a","105.245.110.57","Mozilla/5.0 (X11; Linux x86_64) AppleWebKit/537.36 (KHTML, like Gecko) Chrome/137.0.0.0 Safari/537.36","WebKit","Chrome","137.0.0.0","Linux","","https://app.prolific.com/","en-ZA,en-GB;q=0.9,en-US;q=0.8,en;q=0.7","666316060a19030e10987142","686d226cabeef709c732f8e1","686e311ae87699bd112bf2bb","666316060a19030e10987142","2025-07-09T09:58:37.140Z","","","","","","","","","","","","","","","","win-only","2","g1:SE,g2:NW","1","1","0","2870721.8","51374.4","56379.4","93061.9","1","4","4","6","1","1","-1","0","0","0","5004.9","3000","1635","[""down"",""right""]","{""num_key_presses"":9,""num_perfect"":7,""num_errors"":2,""num_randdir"":0,""num_randdir_good_moves"":0,""num_whilered"":0,""num_whileblue"":1,""num_blue"":4,""num_good_moves"":6}","[279.7142857142857,273.5111607142857,1.7,279.7142857142857,273.5111607142857,108.9,279.7142857142857,273.5111607142857,215.7,279.7142857142857,273.5111607142857,324.8,279.7142857142857,273.5111607142857,430.1,279.7142857142857,273.5111607142857,535.3,279.7142857142857,273.5111607142857,637.1,279.7142857142857,273.5111607142857,751.6,279.7142857142857,273.5111607142857,860.8,279.7142857142857,273.5111607142857,971.1,279.7142857142857,273.5111607142857,1081.5,279.7142857142857,273.5111607142857,1241.2,279.7142857142857,273.5111607142857,1342.4,279.7142857142857,273.5111607142857,1451.5,279.7142857142857,273.5111607142857,1559.7,279.7142857142857,273.5111607142857,1670.9,279.7142857142857,273.5111607142857,1774.1,279.7142857142857,273.5111607142857,1884.7,279.7142857142857,273.5111607142857,1996.8,279.7142857142857,273.5111607142857,2105,279.7142857142857,273.5111607142857,2212.1,279.7142857142857,273.5111607142857,2321.3,279.7142857142857,273.5111607142857,2431,279.7142857142857,273.5111607142857,2569.4,279.7142857142857,273.5111607142857,2677.8,279.7142857142857,273.5111607142857,2794.5,279.7142857142857,273.5111607142857,2910.2,279.7142857142857,273.5111607142857,3022.6,279.7142857142857,273.5111607142857,3127.8,279.7142857142857,273.5111607142857,3239.9,279.7142857142857,273.5111607142857,3343.8,279.7142857142857,273.5111607142857,3448.6,279.7142857142857,273.5111607142857,3560.3,279.7142857142857,273.5111607142857,3666.6,279.7142857142857,273.5111607142857,3775.7,279.7142857142857,273.5111607142857,3876.2,279.7142857142857,273.5111607142857,3984.1,279.7142857142857,273.5111607142857,4091.5,279.7142857142857,273.5111607142857,4260,279.7142857142857,273.5111607142857,4361.9,279.7142857142857,273.5111607142857,4470.8,279.7142857142857,273.5111607142857,4579.8,279.7142857142857,273.5111607142857,4687.6,279.7142857142857,273.5111607142857,4862.7,279.7142857142857,273.5111607142857,4964.6]","[1594,1593.9,1000,0.1,594.1,""smooth"",""left"",""left"",""bad_move"",5158.6,3562.2,2986.9,1596.9,574.9,""smooth"",""left"",""left"",""bad_move"",14081.9,8921.1,2114.3,13471.8,-1504.2,""error"",""-"",""-"",""no_move"",17620.2,3536.8,1990.1,15092,538.1,""smooth"",""down"",""down"",""good_move"",21062,3439.3,2885.9,17622.7,553.5,""smooth"",""down"",""down"",""good_move"",23910.7,2845.8,2262.7,21065,583.1,""smooth"",""right"",""right"",""good_move"",27041.9,3129,2652.3,23913,476.6,""while_blue"",""right"",""right"",""good_move"",33376.1,6332.4,2790.5,30002,583.7,""smooth"",""right"",""right"",""good_move"",36422,3044.9,2364.1,33377.2,680.8,""smooth"",""right"",""right"",""good_move""]","","",""
"10489","","<div style=""width:500px;"">
  <p>What determined the result of this run?</p>
  </div>","100","html-slider-response","43","2974550","0.0-10.0-1.0","141","1","2025-07-09 09:09:11","7701e855f2ef39aa3fd6c71abdc6918a","105.245.110.57","Mozilla/5.0 (X11; Linux x86_64) AppleWebKit/537.36 (KHTML, like Gecko) Chrome/137.0.0.0 Safari/537.36","WebKit","Chrome","137.0.0.0","Linux","","https://app.prolific.com/","en-ZA,en-GB;q=0.9,en-US;q=0.8,en;q=0.7","666316060a19030e10987142","686d226cabeef709c732f8e1","686e311ae87699bd112bf2bb","666316060a19030e10987142","2025-07-09T09:58:47.639Z","","","","","","AttribQ","","","","","","","","","","","","","","","","","","","","","","","","","","","","","","","","","","","","","","50",""
"4878","","<div style=""width:500px;"">
  <p>How much control did you have over the ball?</p>
  </div>","72","html-slider-response","44","2979439","0.0-10.0-2.0","141","1","2025-07-09 09:09:11","7701e855f2ef39aa3fd6c71abdc6918a","105.245.110.57","Mozilla/5.0 (X11; Linux x86_64) AppleWebKit/537.36 (KHTML, like Gecko) Chrome/137.0.0.0 Safari/537.36","WebKit","Chrome","137.0.0.0","Linux","","https://app.prolific.com/","en-ZA,en-GB;q=0.9,en-US;q=0.8,en;q=0.7","666316060a19030e10987142","686d226cabeef709c732f8e1","686e311ae87699bd112bf2bb","666316060a19030e10987142","2025-07-09T09:58:52.528Z","","","","","","ControlQ","","","","","","","","","","","","","","","","","","","","","","","","","","","","","","","","","","","","","","50",""
"10003","","<div style=""width:500px;"">
  <p>How would you describe your current emotional state?</p>
  </div>","0","html-slider-response","45","2989453","0.0-10.0-3.0","141","1","2025-07-09 09:09:11","7701e855f2ef39aa3fd6c71abdc6918a","105.245.110.57","Mozilla/5.0 (X11; Linux x86_64) AppleWebKit/537.36 (KHTML, like Gecko) Chrome/137.0.0.0 Safari/537.36","WebKit","Chrome","137.0.0.0","Linux","","https://app.prolific.com/","en-ZA,en-GB;q=0.9,en-US;q=0.8,en;q=0.7","666316060a19030e10987142","686d226cabeef709c732f8e1","686e311ae87699bd112bf2bb","666316060a19030e10987142","2025-07-09T09:59:02.542Z","","","","","","StressQ","","","","","","","","","","","","","","","","","","","","","","","","","","","","","","","","","","","","","","50",""
"86808","","<div style=""width:500px;"">
  <p>What best describes how you currently feel?</p>
  </div>","100","html-slider-response","46","3076269","0.0-10.0-4.0","141","1","2025-07-09 09:09:11","7701e855f2ef39aa3fd6c71abdc6918a","105.245.110.57","Mozilla/5.0 (X11; Linux x86_64) AppleWebKit/537.36 (KHTML, like Gecko) Chrome/137.0.0.0 Safari/537.36","WebKit","Chrome","137.0.0.0","Linux","","https://app.prolific.com/","en-ZA,en-GB;q=0.9,en-US;q=0.8,en;q=0.7","666316060a19030e10987142","686d226cabeef709c732f8e1","686e311ae87699bd112bf2bb","666316060a19030e10987142","2025-07-09T10:00:29.358Z","","","","","","MotivationQ","","","","","","","","","","","","","","","","","","","","","","","","","","","","","","","","","","","","","","50",""
"","","","","ctl-task-cpt","47","3146479","0.0-10.0-0.1","141","1","2025-07-09 09:09:11","7701e855f2ef39aa3fd6c71abdc6918a","105.245.110.57","Mozilla/5.0 (X11; Linux x86_64) AppleWebKit/537.36 (KHTML, like Gecko) Chrome/137.0.0.0 Safari/537.36","WebKit","Chrome","137.0.0.0","Linux","","https://app.prolific.com/","en-ZA,en-GB;q=0.9,en-US;q=0.8,en;q=0.7","666316060a19030e10987142","686d226cabeef709c732f8e1","686e311ae87699bd112bf2bb","666316060a19030e10987142","2025-07-09T10:01:39.568Z","","","","","","","","","","","","","","","","win-only","0","g1:NW,g2:SE","0.9","2","0","3079039.1","42055.3","47087.1","67171.8","1","4","8","6","2","8","8","8","0","0.06060606060606061","5031.8","3000","2085","[""down"",""right""]","{""num_key_presses"":6,""num_perfect"":5,""num_errors"":0,""num_randdir"":1,""num_randdir_good_moves"":1,""num_whilered"":0,""num_whileblue"":0,""num_blue"":1,""num_good_moves"":6}","[279.7142857142857,285.5111607142857,1.4,279.7142857142857,285.5111607142857,105.2,279.7142857142857,285.5111607142857,223,279.7142857142857,285.5111607142857,330.8,279.7142857142857,285.5111607142857,508.8,279.7142857142857,285.5111607142857,609,279.7142857142857,285.5111607142857,745.2,279.7142857142857,285.5111607142857,851.1,279.7142857142857,285.5111607142857,987,279.7142857142857,285.5111607142857,1109.7,279.7142857142857,285.5111607142857,1213.4,279.7142857142857,285.5111607142857,1314.9,279.7142857142857,285.5111607142857,1448.3,279.7142857142857,285.5111607142857,1556.7,279.7142857142857,285.5111607142857,1685.7,279.7142857142857,285.5111607142857,1788.5,279.7142857142857,285.5111607142857,1902.7,279.7142857142857,285.5111607142857,2033.8,279.7142857142857,285.5111607142857,2160,279.7142857142857,285.5111607142857,2269,279.7142857142857,285.5111607142857,2377,279.7142857142857,285.5111607142857,2503.7,279.7142857142857,285.5111607142857,2607.9,279.7142857142857,285.5111607142857,2757.8,279.7142857142857,285.5111607142857,2862.1,279.7142857142857,285.5111607142857,2968.5,279.7142857142857,285.5111607142857,3099.6,279.7142857142857,285.5111607142857,3200.8,279.7142857142857,285.5111607142857,3313.8,279.7142857142857,285.5111607142857,3414.8,279.7142857142857,285.5111607142857,3567.6,279.7142857142857,285.5111607142857,3670.8,279.7142857142857,285.5111607142857,3778.1,279.7142857142857,285.5111607142857,3893.9,279.7142857142857,285.5111607142857,4004.3,279.7142857142857,285.5111607142857,4149.8,279.7142857142857,285.5111607142857,4251.7,279.7142857142857,285.5111607142857,4364.6,279.7142857142857,285.5111607142857,4474.2,279.7142857142857,285.5111607142857,4605.3,279.7142857142857,285.5111607142857,4718.1,279.7142857142857,285.5111607142857,4824.8,279.7142857142857,285.5111607142857,4927.6]","[1585.2,1585.2,1000,0,585.3,""smooth"",""down"",""down"",""good_move"",4515.2,2928.2,2310.3,1587.1,617.8,""oops"",""down"",""right"",""good_move"",7675.1,3157.8,2598,4517.5,559.6,""smooth"",""down"",""down"",""good_move"",11107.5,3430.7,2893.2,7676.8,537.5,""smooth"",""down"",""down"",""good_move"",17009.9,5900.7,2354.5,14166.7,488.8,""smooth"",""right"",""right"",""good_move"",19737.3,2726.3,2151.5,17011.3,574.7,""smooth"",""right"",""right"",""good_move""]","","",""
"4593","","<div style=""width:500px;"">
  <p>What determined the result of this run?</p>
  </div>","100","html-slider-response","48","3151080","0.0-10.0-1.1","141","1","2025-07-09 09:09:11","7701e855f2ef39aa3fd6c71abdc6918a","105.245.110.57","Mozilla/5.0 (X11; Linux x86_64) AppleWebKit/537.36 (KHTML, like Gecko) Chrome/137.0.0.0 Safari/537.36","WebKit","Chrome","137.0.0.0","Linux","","https://app.prolific.com/","en-ZA,en-GB;q=0.9,en-US;q=0.8,en;q=0.7","666316060a19030e10987142","686d226cabeef709c732f8e1","686e311ae87699bd112bf2bb","666316060a19030e10987142","2025-07-09T10:01:44.169Z","","","","","","AttribQ","","","","","","","","","","","","","","","","","","","","","","","","","","","","","","","","","","","","","","50",""
"2975","","<div style=""width:500px;"">
  <p>How much control did you have over the ball?</p>
  </div>","100","html-slider-response","49","3154064","0.0-10.0-2.1","141","1","2025-07-09 09:09:11","7701e855f2ef39aa3fd6c71abdc6918a","105.245.110.57","Mozilla/5.0 (X11; Linux x86_64) AppleWebKit/537.36 (KHTML, like Gecko) Chrome/137.0.0.0 Safari/537.36","WebKit","Chrome","137.0.0.0","Linux","","https://app.prolific.com/","en-ZA,en-GB;q=0.9,en-US;q=0.8,en;q=0.7","666316060a19030e10987142","686d226cabeef709c732f8e1","686e311ae87699bd112bf2bb","666316060a19030e10987142","2025-07-09T10:01:47.152Z","","","","","","ControlQ","","","","","","","","","","","","","","","","","","","","","","","","","","","","","","","","","","","","","","50",""
"5280","","<div style=""width:500px;"">
  <p>How would you describe your current emotional state?</p>
  </div>","0","html-slider-response","50","3159353","0.0-10.0-3.1","141","1","2025-07-09 09:09:11","7701e855f2ef39aa3fd6c71abdc6918a","105.245.110.57","Mozilla/5.0 (X11; Linux x86_64) AppleWebKit/537.36 (KHTML, like Gecko) Chrome/137.0.0.0 Safari/537.36","WebKit","Chrome","137.0.0.0","Linux","","https://app.prolific.com/","en-ZA,en-GB;q=0.9,en-US;q=0.8,en;q=0.7","666316060a19030e10987142","686d226cabeef709c732f8e1","686e311ae87699bd112bf2bb","666316060a19030e10987142","2025-07-09T10:01:52.442Z","","","","","","StressQ","","","","","","","","","","","","","","","","","","","","","","","","","","","","","","","","","","","","","","50",""
"3616","","<div style=""width:500px;"">
  <p>What best describes how you currently feel?</p>
  </div>","100","html-slider-response","51","3162980","0.0-10.0-4.1","141","1","2025-07-09 09:09:11","7701e855f2ef39aa3fd6c71abdc6918a","105.245.110.57","Mozilla/5.0 (X11; Linux x86_64) AppleWebKit/537.36 (KHTML, like Gecko) Chrome/137.0.0.0 Safari/537.36","WebKit","Chrome","137.0.0.0","Linux","","https://app.prolific.com/","en-ZA,en-GB;q=0.9,en-US;q=0.8,en;q=0.7","666316060a19030e10987142","686d226cabeef709c732f8e1","686e311ae87699bd112bf2bb","666316060a19030e10987142","2025-07-09T10:01:56.068Z","","","","","","MotivationQ","","","","","","","","","","","","","","","","","","","","","","","","","","","","","","","","","","","","","","50",""
"","","","","ctl-task-cpt","52","3225704","0.0-10.0-0.2","141","1","2025-07-09 09:09:11","7701e855f2ef39aa3fd6c71abdc6918a","105.245.110.57","Mozilla/5.0 (X11; Linux x86_64) AppleWebKit/537.36 (KHTML, like Gecko) Chrome/137.0.0.0 Safari/537.36","WebKit","Chrome","137.0.0.0","Linux","","https://app.prolific.com/","en-ZA,en-GB;q=0.9,en-US;q=0.8,en;q=0.7","666316060a19030e10987142","686d226cabeef709c732f8e1","686e311ae87699bd112bf2bb","666316060a19030e10987142","2025-07-09T10:02:58.792Z","","","","","","","","","","","","","","","","win-only","2","g1:SE,g2:NW","0.8","3","0","3165743.8","19518.5","24536.8","59671.4","1","4","8","6","2","8","8","16","8","0.12121212121212122","5018.3","3000","2050","[""left"",""up""]","{""num_key_presses"":8,""num_perfect"":6,""num_errors"":0,""num_randdir"":2,""num_randdir_good_moves"":1,""num_whilered"":0,""num_whileblue"":0,""num_blue"":1,""num_good_moves"":7}","[281.7142857142857,269.5111607142857,1.7,281.7142857142857,269.5111607142857,107.7,281.7142857142857,269.5111607142857,227.5,281.7142857142857,269.5111607142857,400.6,281.7142857142857,269.5111607142857,532.6,281.7142857142857,269.5111607142857,643.7,281.7142857142857,269.5111607142857,750.3,281.7142857142857,269.5111607142857,855.7,281.7142857142857,269.5111607142857,966.7,281.7142857142857,269.5111607142857,1080.1,281.7142857142857,269.5111607142857,1199,281.7142857142857,269.5111607142857,1305.6,281.7142857142857,269.5111607142857,1421.1,281.7142857142857,269.5111607142857,1533.3,281.7142857142857,269.5111607142857,1637.3,281.7142857142857,269.5111607142857,1739.7,281.7142857142857,269.5111607142857,1840.6,281.7142857142857,269.5111607142857,1945.9,281.7142857142857,269.5111607142857,2065,281.7142857142857,269.5111607142857,2182.1,281.7142857142857,269.5111607142857,2310.9,281.7142857142857,269.5111607142857,2416,281.7142857142857,269.5111607142857,2522.9,281.7142857142857,269.5111607142857,2633.5,281.7142857142857,269.5111607142857,2750.5,281.7142857142857,269.5111607142857,2869,281.7142857142857,269.5111607142857,2976.9,281.7142857142857,269.5111607142857,3077.9,281.7142857142857,269.5111607142857,3178.4,281.7142857142857,269.5111607142857,3294.9,281.7142857142857,269.5111607142857,3397.7,281.7142857142857,269.5111607142857,3514.4,281.7142857142857,269.5111607142857,3614.8,281.7142857142857,269.5111607142857,3717.1,281.7142857142857,269.5111607142857,3833.8,281.7142857142857,269.5111607142857,3980,281.7142857142857,269.5111607142857,4085.1,281.7142857142857,269.5111607142857,4198.3,281.7142857142857,269.5111607142857,4299.4,281.7142857142857,269.5111607142857,4411.8,281.7142857142857,269.5111607142857,4528,281.7142857142857,269.5111607142857,4635.9,281.7142857142857,269.5111607142857,4745.6,281.7142857142857,269.5111607142857,4847,281.7142857142857,269.5111607142857,4958.3]","[1607.8,1607.8,1000,0,607.8,""smooth"",""up"",""up"",""good_move"",5706.1,4094.7,1623.9,1611.6,2470.8,""smooth"",""up"",""up"",""good_move"",9606.7,3896.5,1148.5,5710.3,2748,""oops"",""up"",""up"",""good_move"",13537.2,3928.4,2898.9,9609,1029.4,""oops"",""left"",""right"",""bad_move"",16787.2,3248.6,2616.4,13538.7,632.2,""smooth"",""left"",""left"",""good_move"",21139,4349.9,2405.9,16789.2,1944,""smooth"",""left"",""left"",""good_move"",25773.2,4632.3,2749,21141,1883.3,""smooth"",""left"",""left"",""good_move"",34549.5,8774.7,2128.6,31849.3,571.6,""smooth"",""left"",""left"",""good_move""]","","",""
"4983","","<div style=""width:500px;"">
  <p>What determined the result of this run?</p>
  </div>","100","html-slider-response","53","3230700","0.0-10.0-1.2","141","1","2025-07-09 09:09:11","7701e855f2ef39aa3fd6c71abdc6918a","105.245.110.57","Mozilla/5.0 (X11; Linux x86_64) AppleWebKit/537.36 (KHTML, like Gecko) Chrome/137.0.0.0 Safari/537.36","WebKit","Chrome","137.0.0.0","Linux","","https://app.prolific.com/","en-ZA,en-GB;q=0.9,en-US;q=0.8,en;q=0.7","666316060a19030e10987142","686d226cabeef709c732f8e1","686e311ae87699bd112bf2bb","666316060a19030e10987142","2025-07-09T10:03:03.789Z","","","","","","AttribQ","","","","","","","","","","","","","","","","","","","","","","","","","","","","","","","","","","","","","","50",""
"3906","","<div style=""width:500px;"">
  <p>How much control did you have over the ball?</p>
  </div>","100","html-slider-response","54","3234616","0.0-10.0-2.2","141","1","2025-07-09 09:09:11","7701e855f2ef39aa3fd6c71abdc6918a","105.245.110.57","Mozilla/5.0 (X11; Linux x86_64) AppleWebKit/537.36 (KHTML, like Gecko) Chrome/137.0.0.0 Safari/537.36","WebKit","Chrome","137.0.0.0","Linux","","https://app.prolific.com/","en-ZA,en-GB;q=0.9,en-US;q=0.8,en;q=0.7","666316060a19030e10987142","686d226cabeef709c732f8e1","686e311ae87699bd112bf2bb","666316060a19030e10987142","2025-07-09T10:03:07.704Z","","","","","","ControlQ","","","","","","","","","","","","","","","","","","","","","","","","","","","","","","","","","","","","","","50",""
"4380","","<div style=""width:500px;"">
  <p>How would you describe your current emotional state?</p>
  </div>","0","html-slider-response","55","3239001","0.0-10.0-3.2","141","1","2025-07-09 09:09:11","7701e855f2ef39aa3fd6c71abdc6918a","105.245.110.57","Mozilla/5.0 (X11; Linux x86_64) AppleWebKit/537.36 (KHTML, like Gecko) Chrome/137.0.0.0 Safari/537.36","WebKit","Chrome","137.0.0.0","Linux","","https://app.prolific.com/","en-ZA,en-GB;q=0.9,en-US;q=0.8,en;q=0.7","666316060a19030e10987142","686d226cabeef709c732f8e1","686e311ae87699bd112bf2bb","666316060a19030e10987142","2025-07-09T10:03:12.090Z","","","","","","StressQ","","","","","","","","","","","","","","","","","","","","","","","","","","","","","","","","","","","","","","50",""
"2651","","<div style=""width:500px;"">
  <p>What best describes how you currently feel?</p>
  </div>","100","html-slider-response","56","3241660","0.0-10.0-4.2","141","1","2025-07-09 09:09:11","7701e855f2ef39aa3fd6c71abdc6918a","105.245.110.57","Mozilla/5.0 (X11; Linux x86_64) AppleWebKit/537.36 (KHTML, like Gecko) Chrome/137.0.0.0 Safari/537.36","WebKit","Chrome","137.0.0.0","Linux","","https://app.prolific.com/","en-ZA,en-GB;q=0.9,en-US;q=0.8,en;q=0.7","666316060a19030e10987142","686d226cabeef709c732f8e1","686e311ae87699bd112bf2bb","666316060a19030e10987142","2025-07-09T10:03:14.748Z","","","","","","MotivationQ","","","","","","","","","","","","","","","","","","","","","","","","","","","","","","","","","","","","","","50",""
"","","","","ctl-task-cpt","57","3288765","0.0-10.0-0.3","141","1","2025-07-09 09:09:11","7701e855f2ef39aa3fd6c71abdc6918a","105.245.110.57","Mozilla/5.0 (X11; Linux x86_64) AppleWebKit/537.36 (KHTML, like Gecko) Chrome/137.0.0.0 Safari/537.36","WebKit","Chrome","137.0.0.0","Linux","","https://app.prolific.com/","en-ZA,en-GB;q=0.9,en-US;q=0.8,en;q=0.7","666316060a19030e10987142","686d226cabeef709c732f8e1","686e311ae87699bd112bf2bb","666316060a19030e10987142","2025-07-09T10:04:01.854Z","","","","","","","","","","","","","","","","win-only","3","g1:SW,g2:NE","0.7","4","0","3244426.5","16647.1","21668.6","44055.6","1","4","4","6","1","1","1","17","16","0.12878787878787878","5021.5","3000","2330","[""down"",""left""]","{""num_key_presses"":6,""num_perfect"":5,""num_errors"":0,""num_randdir"":1,""num_randdir_good_moves"":0,""num_whilered"":0,""num_whileblue"":0,""num_blue"":0,""num_good_moves"":5}","[277.7142857142857,273.5111607142857,1.3,277.7142857142857,273.5111607142857,111.6,277.7142857142857,273.5111607142857,215.8,277.7142857142857,273.5111607142857,334.2,277.7142857142857,273.5111607142857,436.2,277.7142857142857,273.5111607142857,547.6,277.7142857142857,273.5111607142857,672.8,277.7142857142857,273.5111607142857,794.5,277.7142857142857,273.5111607142857,899.8,277.7142857142857,273.5111607142857,999.9,277.7142857142857,273.5111607142857,1102.9,277.7142857142857,273.5111607142857,1209.6,277.7142857142857,273.5111607142857,1331.7,277.7142857142857,273.5111607142857,1451.8,277.7142857142857,273.5111607142857,1569.9,277.7142857142857,273.5111607142857,1689.6,277.7142857142857,273.5111607142857,1804.5,277.7142857142857,273.5111607142857,1904.6,277.7142857142857,273.5111607142857,2005.8,277.7142857142857,273.5111607142857,2114.4,277.7142857142857,273.5111607142857,2232.2,277.7142857142857,273.5111607142857,2336.4,277.7142857142857,273.5111607142857,2443.3,277.7142857142857,273.5111607142857,2544.4,277.7142857142857,273.5111607142857,2665.8,277.7142857142857,273.5111607142857,2768.4,277.7142857142857,273.5111607142857,2885.6,277.7142857142857,273.5111607142857,2988.7,277.7142857142857,273.5111607142857,3109.7,277.7142857142857,273.5111607142857,3215.3,277.7142857142857,273.5111607142857,3333,277.7142857142857,273.5111607142857,3441.8,277.7142857142857,273.5111607142857,3553.4,277.7142857142857,273.5111607142857,3655.3,277.7142857142857,273.5111607142857,3775.9,277.7142857142857,273.5111607142857,3886.3,277.7142857142857,273.5111607142857,3999.6,277.7142857142857,273.5111607142857,4123.3,277.7142857142857,273.5111607142857,4226.9,277.7142857142857,273.5111607142857,4343.2,277.7142857142857,273.5111607142857,4445.6,277.7142857142857,273.5111607142857,4552.9,277.7142857142857,273.5111607142857,4670.9,277.7142857142857,273.5111607142857,4772.2,277.7142857142857,273.5111607142857,4877.1,277.7142857142857,273.5111607142857,4990.3]","[1836.8,1836.8,1000,0,836.8,""smooth"",""down"",""down"",""good_move"",5271.4,3432.5,2915.2,1838.9,517.3,""smooth"",""down"",""down"",""good_move"",8465,3192.2,2660.1,5272.9,532.1,""smooth"",""left"",""left"",""good_move"",13137.3,4670.5,2225,8466.8,2445.5,""oops"",""left"",""up"",""bad_move"",18233.4,5093.6,2640,13139.9,2453.5,""smooth"",""down"",""down"",""good_move"",21854.3,3619,3160.4,18235.3,458.6,""smooth"",""left"",""left"",""good_move""]","","",""
"5571","","<div style=""width:500px;"">
  <p>What determined the result of this run?</p>
  </div>","100","html-slider-response","58","3294345","0.0-10.0-1.3","141","1","2025-07-09 09:09:11","7701e855f2ef39aa3fd6c71abdc6918a","105.245.110.57","Mozilla/5.0 (X11; Linux x86_64) AppleWebKit/537.36 (KHTML, like Gecko) Chrome/137.0.0.0 Safari/537.36","WebKit","Chrome","137.0.0.0","Linux","","https://app.prolific.com/","en-ZA,en-GB;q=0.9,en-US;q=0.8,en;q=0.7","666316060a19030e10987142","686d226cabeef709c732f8e1","686e311ae87699bd112bf2bb","666316060a19030e10987142","2025-07-09T10:04:07.434Z","","","","","","AttribQ","","","","","","","","","","","","","","","","","","","","","","","","","","","","","","","","","","","","","","50",""
"5242","","<div style=""width:500px;"">
  <p>How much control did you have over the ball?</p>
  </div>","94","html-slider-response","59","3299596","0.0-10.0-2.3","141","1","2025-07-09 09:09:11","7701e855f2ef39aa3fd6c71abdc6918a","105.245.110.57","Mozilla/5.0 (X11; Linux x86_64) AppleWebKit/537.36 (KHTML, like Gecko) Chrome/137.0.0.0 Safari/537.36","WebKit","Chrome","137.0.0.0","Linux","","https://app.prolific.com/","en-ZA,en-GB;q=0.9,en-US;q=0.8,en;q=0.7","666316060a19030e10987142","686d226cabeef709c732f8e1","686e311ae87699bd112bf2bb","666316060a19030e10987142","2025-07-09T10:04:12.684Z","","","","","","ControlQ","","","","","","","","","","","","","","","","","","","","","","","","","","","","","","","","","","","","","","50",""
"10185","","<div style=""width:500px;"">
  <p>How would you describe your current emotional state?</p>
  </div>","2","html-slider-response","60","3309790","0.0-10.0-3.3","141","1","2025-07-09 09:09:11","7701e855f2ef39aa3fd6c71abdc6918a","105.245.110.57","Mozilla/5.0 (X11; Linux x86_64) AppleWebKit/537.36 (KHTML, like Gecko) Chrome/137.0.0.0 Safari/537.36","WebKit","Chrome","137.0.0.0","Linux","","https://app.prolific.com/","en-ZA,en-GB;q=0.9,en-US;q=0.8,en;q=0.7","666316060a19030e10987142","686d226cabeef709c732f8e1","686e311ae87699bd112bf2bb","666316060a19030e10987142","2025-07-09T10:04:22.878Z","","","","","","StressQ","","","","","","","","","","","","","","","","","","","","","","","","","","","","","","","","","","","","","","50",""
"47224","","<div style=""width:500px;"">
  <p>What best describes how you currently feel?</p>
  </div>","96","html-slider-response","61","3357022","0.0-10.0-4.3","141","1","2025-07-09 09:09:11","7701e855f2ef39aa3fd6c71abdc6918a","105.245.110.57","Mozilla/5.0 (X11; Linux x86_64) AppleWebKit/537.36 (KHTML, like Gecko) Chrome/137.0.0.0 Safari/537.36","WebKit","Chrome","137.0.0.0","Linux","","https://app.prolific.com/","en-ZA,en-GB;q=0.9,en-US;q=0.8,en;q=0.7","666316060a19030e10987142","686d226cabeef709c732f8e1","686e311ae87699bd112bf2bb","666316060a19030e10987142","2025-07-09T10:05:10.110Z","","","","","","MotivationQ","","","","","","","","","","","","","","","","","","","","","","","","","","","","","","","","","","","","","","50",""
"","","","","ctl-task-cpt","62","3425504","0.0-10.0-0.4","141","1","2025-07-09 09:09:11","7701e855f2ef39aa3fd6c71abdc6918a","105.245.110.57","Mozilla/5.0 (X11; Linux x86_64) AppleWebKit/537.36 (KHTML, like Gecko) Chrome/137.0.0.0 Safari/537.36","WebKit","Chrome","137.0.0.0","Linux","","https://app.prolific.com/","en-ZA,en-GB;q=0.9,en-US;q=0.8,en;q=0.7","666316060a19030e10987142","686d226cabeef709c732f8e1","686e311ae87699bd112bf2bb","666316060a19030e10987142","2025-07-09T10:06:18.593Z","","","","","","","","","","","","","","","","win-only","3","g1:SW,g2:NE","0.6","5","0","3359791.4","36174.8","41181.9","65427.7","1","4","4","6","1","1","1","18","17","0.13636363636363635","5007.1","3000","2425","[""down"",""left""]","{""num_key_presses"":6,""num_perfect"":4,""num_errors"":0,""num_randdir"":2,""num_randdir_good_moves"":1,""num_whilered"":0,""num_whileblue"":0,""num_blue"":0,""num_good_moves"":5}","[277.7142857142857,279.5111607142857,1.5,277.7142857142857,279.5111607142857,110.4,277.7142857142857,279.5111607142857,217,277.7142857142857,279.5111607142857,318.1,277.7142857142857,279.5111607142857,418.3,277.7142857142857,279.5111607142857,544.3,277.7142857142857,279.5111607142857,645.7,277.7142857142857,279.5111607142857,756,277.7142857142857,279.5111607142857,865.1,277.7142857142857,279.5111607142857,971.6,277.7142857142857,279.5111607142857,1080.4,277.7142857142857,279.5111607142857,1187.2,277.7142857142857,279.5111607142857,1294.5,277.7142857142857,279.5111607142857,1400.6,277.7142857142857,279.5111607142857,1507.5,277.7142857142857,279.5111607142857,1615.8,277.7142857142857,279.5111607142857,1733.5,277.7142857142857,279.5111607142857,1838.9,277.7142857142857,279.5111607142857,1945.7,277.7142857142857,279.5111607142857,2064,277.7142857142857,279.5111607142857,2187.8,277.7142857142857,279.5111607142857,2310.6,277.7142857142857,279.5111607142857,2415.4,277.7142857142857,279.5111607142857,2529.6,277.7142857142857,279.5111607142857,2631.4,277.7142857142857,279.5111607142857,2746.5,277.7142857142857,279.5111607142857,2857.9,277.7142857142857,279.5111607142857,2982.4,277.7142857142857,279.5111607142857,3100.5,277.7142857142857,279.5111607142857,3209.7,277.7142857142857,279.5111607142857,3339.5,277.7142857142857,279.5111607142857,3457.5,277.7142857142857,279.5111607142857,3562.5,277.7142857142857,279.5111607142857,3672.2,277.7142857142857,279.5111607142857,3783.6,277.7142857142857,279.5111607142857,3884.5,277.7142857142857,279.5111607142857,3994.9,277.7142857142857,279.5111607142857,4116.8,277.7142857142857,279.5111607142857,4219.6,277.7142857142857,279.5111607142857,4333,277.7142857142857,279.5111607142857,4452.6,277.7142857142857,279.5111607142857,4558.1,277.7142857142857,279.5111607142857,4672.7,277.7142857142857,279.5111607142857,4790.4,277.7142857142857,279.5111607142857,4894.2]","[1555,1555,1000,0,555,""smooth"",""down"",""down"",""good_move"",4735.5,3175.7,2449.7,1559.9,726,""oops"",""down"",""right"",""bad_move"",7849,3109.1,2597.8,4740.1,511.2,""oops"",""down"",""down"",""good_move"",10687.4,2836.8,2313.2,7850.7,523.5,""smooth"",""left"",""left"",""good_move"",16691.6,6002.4,2252.6,10689.4,3749.7,""smooth"",""left"",""left"",""good_move"",23476.6,6783.8,3599.8,16692.9,3184,""smooth"",""left"",""left"",""good_move""]","","",""
"2337","","<div style=""width:500px;"">
  <p>What determined the result of this run?</p>
  </div>","100","html-slider-response","63","3427849","0.0-10.0-1.4","141","1","2025-07-09 09:09:11","7701e855f2ef39aa3fd6c71abdc6918a","105.245.110.57","Mozilla/5.0 (X11; Linux x86_64) AppleWebKit/537.36 (KHTML, like Gecko) Chrome/137.0.0.0 Safari/537.36","WebKit","Chrome","137.0.0.0","Linux","","https://app.prolific.com/","en-ZA,en-GB;q=0.9,en-US;q=0.8,en;q=0.7","666316060a19030e10987142","686d226cabeef709c732f8e1","686e311ae87699bd112bf2bb","666316060a19030e10987142","2025-07-09T10:06:20.937Z","","","","","","AttribQ","","","","","","","","","","","","","","","","","","","","","","","","","","","","","","","","","","","","","","50",""
"2096","","<div style=""width:500px;"">
  <p>How much control did you have over the ball?</p>
  </div>","100","html-slider-response","64","3429951","0.0-10.0-2.4","141","1","2025-07-09 09:09:11","7701e855f2ef39aa3fd6c71abdc6918a","105.245.110.57","Mozilla/5.0 (X11; Linux x86_64) AppleWebKit/537.36 (KHTML, like Gecko) Chrome/137.0.0.0 Safari/537.36","WebKit","Chrome","137.0.0.0","Linux","","https://app.prolific.com/","en-ZA,en-GB;q=0.9,en-US;q=0.8,en;q=0.7","666316060a19030e10987142","686d226cabeef709c732f8e1","686e311ae87699bd112bf2bb","666316060a19030e10987142","2025-07-09T10:06:23.039Z","","","","","","ControlQ","","","","","","","","","","","","","","","","","","","","","","","","","","","","","","","","","","","","","","50",""
"4570","","<div style=""width:500px;"">
  <p>How would you describe your current emotional state?</p>
  </div>","0","html-slider-response","65","3434528","0.0-10.0-3.4","141","1","2025-07-09 09:09:11","7701e855f2ef39aa3fd6c71abdc6918a","105.245.110.57","Mozilla/5.0 (X11; Linux x86_64) AppleWebKit/537.36 (KHTML, like Gecko) Chrome/137.0.0.0 Safari/537.36","WebKit","Chrome","137.0.0.0","Linux","","https://app.prolific.com/","en-ZA,en-GB;q=0.9,en-US;q=0.8,en;q=0.7","666316060a19030e10987142","686d226cabeef709c732f8e1","686e311ae87699bd112bf2bb","666316060a19030e10987142","2025-07-09T10:06:27.617Z","","","","","","StressQ","","","","","","","","","","","","","","","","","","","","","","","","","","","","","","","","","","","","","","50",""
"2973","","<div style=""width:500px;"">
  <p>What best describes how you currently feel?</p>
  </div>","100","html-slider-response","66","3437508","0.0-10.0-4.4","141","1","2025-07-09 09:09:11","7701e855f2ef39aa3fd6c71abdc6918a","105.245.110.57","Mozilla/5.0 (X11; Linux x86_64) AppleWebKit/537.36 (KHTML, like Gecko) Chrome/137.0.0.0 Safari/537.36","WebKit","Chrome","137.0.0.0","Linux","","https://app.prolific.com/","en-ZA,en-GB;q=0.9,en-US;q=0.8,en;q=0.7","666316060a19030e10987142","686d226cabeef709c732f8e1","686e311ae87699bd112bf2bb","666316060a19030e10987142","2025-07-09T10:06:30.597Z","","","","","","MotivationQ","","","","","","","","","","","","","","","","","","","","","","","","","","","","","","","","","","","","","","50",""
"","","","","ctl-task-cpt","67","3493977","0.0-10.0-0.5","141","1","2025-07-09 09:09:11","7701e855f2ef39aa3fd6c71abdc6918a","105.245.110.57","Mozilla/5.0 (X11; Linux x86_64) AppleWebKit/537.36 (KHTML, like Gecko) Chrome/137.0.0.0 Safari/537.36","WebKit","Chrome","137.0.0.0","Linux","","https://app.prolific.com/","en-ZA,en-GB;q=0.9,en-US;q=0.8,en;q=0.7","666316060a19030e10987142","686d226cabeef709c732f8e1","686e311ae87699bd112bf2bb","666316060a19030e10987142","2025-07-09T10:07:27.065Z","","","","","","","","","","","","","","","","win-only","0","g1:NW,g2:SE","0.5","6","0","3440276.2","16252.1","21253.8","53397.8","1","4","8","6","2","8","8","26","18","0.19696969696969696","5001.7","3000","2515","[""down"",""right""]","{""num_key_presses"":8,""num_perfect"":5,""num_errors"":0,""num_randdir"":3,""num_randdir_good_moves"":2,""num_whilered"":0,""num_whileblue"":0,""num_blue"":1,""num_good_moves"":7}","[279.7142857142857,279.5111607142857,2.4,279.7142857142857,279.5111607142857,120.9,279.7142857142857,279.5111607142857,232.7,279.7142857142857,279.5111607142857,345.3,279.7142857142857,279.5111607142857,447.1,279.7142857142857,279.5111607142857,565.2,279.7142857142857,279.5111607142857,674.6,279.7142857142857,279.5111607142857,783.2,279.7142857142857,279.5111607142857,911.1,279.7142857142857,279.5111607142857,1025,279.7142857142857,279.5111607142857,1148,279.7142857142857,279.5111607142857,1261.9,279.7142857142857,279.5111607142857,1376.6,279.7142857142857,279.5111607142857,1478.3,279.7142857142857,279.5111607142857,1594.8,279.7142857142857,279.5111607142857,1707.8,279.7142857142857,279.5111607142857,1808.2,279.7142857142857,279.5111607142857,1924.5,279.7142857142857,279.5111607142857,2030.9,279.7142857142857,279.5111607142857,2150.3,279.7142857142857,279.5111607142857,2284.3,279.7142857142857,279.5111607142857,2405.9,279.7142857142857,279.5111607142857,2530.8,279.7142857142857,279.5111607142857,2641.5,279.7142857142857,279.5111607142857,2743.1,279.7142857142857,279.5111607142857,2869.3,279.7142857142857,279.5111607142857,2987,279.7142857142857,279.5111607142857,3101.6,279.7142857142857,279.5111607142857,3226.3,279.7142857142857,279.5111607142857,3341.2,279.7142857142857,279.5111607142857,3466.5,279.7142857142857,279.5111607142857,3590.3,279.7142857142857,279.5111607142857,3699.7,279.7142857142857,279.5111607142857,3821.4,279.7142857142857,279.5111607142857,3940.2,279.7142857142857,279.5111607142857,4060.8,279.7142857142857,279.5111607142857,4186.3,279.7142857142857,279.5111607142857,4299.3,279.7142857142857,279.5111607142857,4430.7,279.7142857142857,279.5111607142857,4547.3,279.7142857142857,279.5111607142857,4654.6,279.7142857142857,279.5111607142857,4759,279.7142857142857,279.5111607142857,4880.4]","[1507.9,1507.9,1000,0,507.9,""oops"",""down"",""down"",""good_move"",4504.2,2993.4,2455.4,1510.9,537.9,""smooth"",""down"",""down"",""good_move"",7399.2,2893.6,2375,4505.7,518.6,""smooth"",""down"",""down"",""good_move"",9641.4,2240.6,1653.7,7400.9,586.9,""smooth"",""right"",""right"",""good_move"",12505.9,2862.6,2362.8,9643.4,499.8,""oops"",""right"",""left"",""bad_move"",21331.9,8824.2,2142.8,12507.9,6681.2,""smooth"",""right"",""right"",""good_move"",24529.9,3197,2643.3,21332.9,553.7,""oops"",""right"",""right"",""good_move"",30706.9,6175.2,2451.5,27737.5,517.9,""smooth"",""right"",""right"",""good_move""]","","",""
"3658","","<div style=""width:500px;"">
  <p>What determined the result of this run?</p>
  </div>","100","html-slider-response","68","3497644","0.0-10.0-1.5","141","1","2025-07-09 09:09:11","7701e855f2ef39aa3fd6c71abdc6918a","105.245.110.57","Mozilla/5.0 (X11; Linux x86_64) AppleWebKit/537.36 (KHTML, like Gecko) Chrome/137.0.0.0 Safari/537.36","WebKit","Chrome","137.0.0.0","Linux","","https://app.prolific.com/","en-ZA,en-GB;q=0.9,en-US;q=0.8,en;q=0.7","666316060a19030e10987142","686d226cabeef709c732f8e1","686e311ae87699bd112bf2bb","666316060a19030e10987142","2025-07-09T10:07:30.732Z","","","","","","AttribQ","","","","","","","","","","","","","","","","","","","","","","","","","","","","","","","","","","","","","","50",""
"2529","","<div style=""width:500px;"">
  <p>How much control did you have over the ball?</p>
  </div>","100","html-slider-response","69","3500179","0.0-10.0-2.5","141","1","2025-07-09 09:09:11","7701e855f2ef39aa3fd6c71abdc6918a","105.245.110.57","Mozilla/5.0 (X11; Linux x86_64) AppleWebKit/537.36 (KHTML, like Gecko) Chrome/137.0.0.0 Safari/537.36","WebKit","Chrome","137.0.0.0","Linux","","https://app.prolific.com/","en-ZA,en-GB;q=0.9,en-US;q=0.8,en;q=0.7","666316060a19030e10987142","686d226cabeef709c732f8e1","686e311ae87699bd112bf2bb","666316060a19030e10987142","2025-07-09T10:07:33.268Z","","","","","","ControlQ","","","","","","","","","","","","","","","","","","","","","","","","","","","","","","","","","","","","","","50",""
"2658","","<div style=""width:500px;"">
  <p>How would you describe your current emotional state?</p>
  </div>","0","html-slider-response","70","3502845","0.0-10.0-3.5","141","1","2025-07-09 09:09:11","7701e855f2ef39aa3fd6c71abdc6918a","105.245.110.57","Mozilla/5.0 (X11; Linux x86_64) AppleWebKit/537.36 (KHTML, like Gecko) Chrome/137.0.0.0 Safari/537.36","WebKit","Chrome","137.0.0.0","Linux","","https://app.prolific.com/","en-ZA,en-GB;q=0.9,en-US;q=0.8,en;q=0.7","666316060a19030e10987142","686d226cabeef709c732f8e1","686e311ae87699bd112bf2bb","666316060a19030e10987142","2025-07-09T10:07:35.933Z","","","","","","StressQ","","","","","","","","","","","","","","","","","","","","","","","","","","","","","","","","","","","","","","50",""
"2497","","<div style=""width:500px;"">
  <p>What best describes how you currently feel?</p>
  </div>","100","html-slider-response","71","3505349","0.0-10.0-4.5","141","1","2025-07-09 09:09:11","7701e855f2ef39aa3fd6c71abdc6918a","105.245.110.57","Mozilla/5.0 (X11; Linux x86_64) AppleWebKit/537.36 (KHTML, like Gecko) Chrome/137.0.0.0 Safari/537.36","WebKit","Chrome","137.0.0.0","Linux","","https://app.prolific.com/","en-ZA,en-GB;q=0.9,en-US;q=0.8,en;q=0.7","666316060a19030e10987142","686d226cabeef709c732f8e1","686e311ae87699bd112bf2bb","666316060a19030e10987142","2025-07-09T10:07:38.437Z","","","","","","MotivationQ","","","","","","","","","","","","","","","","","","","","","","","","","","","","","","","","","","","","","","50",""
"","","","","ctl-task-cpt","72","3570911","0.0-10.0-0.6","141","1","2025-07-09 09:09:11","7701e855f2ef39aa3fd6c71abdc6918a","105.245.110.57","Mozilla/5.0 (X11; Linux x86_64) AppleWebKit/537.36 (KHTML, like Gecko) Chrome/137.0.0.0 Safari/537.36","WebKit","Chrome","137.0.0.0","Linux","","https://app.prolific.com/","en-ZA,en-GB;q=0.9,en-US;q=0.8,en;q=0.7","666316060a19030e10987142","686d226cabeef709c732f8e1","686e311ae87699bd112bf2bb","666316060a19030e10987142","2025-07-09T10:08:44.000Z","","","","","","","","","","","","","","","","win-only","0","g1:NW,g2:SE","0.4","7","0","3508109.2","15092.5","20118.3","62502.5","1","4","4","6","1","1","1","27","26","0.20454545454545456","5025.8","3000","2345","[""left"",""up""]","{""num_key_presses"":8,""num_perfect"":3,""num_errors"":0,""num_randdir"":5,""num_randdir_good_moves"":3,""num_whilered"":0,""num_whileblue"":0,""num_blue"":0,""num_good_moves"":6}","[277.7142857142857,269.5111607142857,2.2,277.7142857142857,269.5111607142857,100.1,277.7142857142857,269.5111607142857,219.9,277.7142857142857,269.5111607142857,321.4,277.7142857142857,269.5111607142857,435.9,277.7142857142857,269.5111607142857,558.2,277.7142857142857,269.5111607142857,678.9,277.7142857142857,269.5111607142857,789.9,277.7142857142857,269.5111607142857,922.1,277.7142857142857,269.5111607142857,1045.7,277.7142857142857,269.5111607142857,1165.6,277.7142857142857,269.5111607142857,1278.8,277.7142857142857,269.5111607142857,1408.7,277.7142857142857,269.5111607142857,1541.7,277.7142857142857,269.5111607142857,1651.3,277.7142857142857,269.5111607142857,1781.5,277.7142857142857,269.5111607142857,1916.1,277.7142857142857,269.5111607142857,2041.2,277.7142857142857,269.5111607142857,2154.6,277.7142857142857,269.5111607142857,2258.2,277.7142857142857,269.5111607142857,2383.5,277.7142857142857,269.5111607142857,2483.5,277.7142857142857,269.5111607142857,2585.8,277.7142857142857,269.5111607142857,2716.9,277.7142857142857,269.5111607142857,2817,277.7142857142857,269.5111607142857,2946.7,277.7142857142857,269.5111607142857,3048.4,277.7142857142857,269.5111607142857,3157,277.7142857142857,269.5111607142857,3286.3,277.7142857142857,269.5111607142857,3395.6,277.7142857142857,269.5111607142857,3500.2,277.7142857142857,269.5111607142857,3614.6,277.7142857142857,269.5111607142857,3721.9,277.7142857142857,269.5111607142857,3836.5,277.7142857142857,269.5111607142857,3967.9,277.7142857142857,269.5111607142857,4080.2,277.7142857142857,269.5111607142857,4188,277.7142857142857,269.5111607142857,4304.2,277.7142857142857,269.5111607142857,4447.2,277.7142857142857,269.5111607142857,4579.3,277.7142857142857,269.5111607142857,4681.5,277.7142857142857,269.5111607142857,4795,277.7142857142857,269.5111607142857,4903.2]","[1644.2,1644.3,1000,0.1,644.3,""oops"",""up"",""down"",""bad_move"",4452.5,2806.6,2287.1,1646,519.4,""oops"",""up"",""left"",""good_move"",11358.6,6904.3,2789.8,4454.3,4114.5,""oops"",""up"",""down"",""bad_move"",15323.7,3963.8,2668.1,11360,1295.7,""oops"",""up"",""up"",""good_move"",22041.9,6715.8,2267.6,15326.3,4448.1,""smooth"",""left"",""left"",""good_move"",28109.4,6066,1515.6,22043.6,4550.3,""smooth"",""up"",""up"",""good_move"",34205.7,6095,2481.6,28110.8,3613.5,""smooth"",""up"",""up"",""good_move"",41673.2,7465.8,3546.4,34207.5,3919.3,""oops"",""up"",""up"",""good_move""]","","",""
"6920","","<div style=""width:500px;"">
  <p>What determined the result of this run?</p>
  </div>","88","html-slider-response","73","3577842","0.0-10.0-1.6","141","1","2025-07-09 09:09:11","7701e855f2ef39aa3fd6c71abdc6918a","105.245.110.57","Mozilla/5.0 (X11; Linux x86_64) AppleWebKit/537.36 (KHTML, like Gecko) Chrome/137.0.0.0 Safari/537.36","WebKit","Chrome","137.0.0.0","Linux","","https://app.prolific.com/","en-ZA,en-GB;q=0.9,en-US;q=0.8,en;q=0.7","666316060a19030e10987142","686d226cabeef709c732f8e1","686e311ae87699bd112bf2bb","666316060a19030e10987142","2025-07-09T10:08:50.931Z","","","","","","AttribQ","","","","","","","","","","","","","","","","","","","","","","","","","","","","","","","","","","","","","","50",""
"3322","","<div style=""width:500px;"">
  <p>How much control did you have over the ball?</p>
  </div>","78","html-slider-response","74","3581174","0.0-10.0-2.6","141","1","2025-07-09 09:09:11","7701e855f2ef39aa3fd6c71abdc6918a","105.245.110.57","Mozilla/5.0 (X11; Linux x86_64) AppleWebKit/537.36 (KHTML, like Gecko) Chrome/137.0.0.0 Safari/537.36","WebKit","Chrome","137.0.0.0","Linux","","https://app.prolific.com/","en-ZA,en-GB;q=0.9,en-US;q=0.8,en;q=0.7","666316060a19030e10987142","686d226cabeef709c732f8e1","686e311ae87699bd112bf2bb","666316060a19030e10987142","2025-07-09T10:08:54.263Z","","","","","","ControlQ","","","","","","","","","","","","","","","","","","","","","","","","","","","","","","","","","","","","","","50",""
"3938","","<div style=""width:500px;"">
  <p>How would you describe your current emotional state?</p>
  </div>","7","html-slider-response","75","3585122","0.0-10.0-3.6","141","1","2025-07-09 09:09:11","7701e855f2ef39aa3fd6c71abdc6918a","105.245.110.57","Mozilla/5.0 (X11; Linux x86_64) AppleWebKit/537.36 (KHTML, like Gecko) Chrome/137.0.0.0 Safari/537.36","WebKit","Chrome","137.0.0.0","Linux","","https://app.prolific.com/","en-ZA,en-GB;q=0.9,en-US;q=0.8,en;q=0.7","666316060a19030e10987142","686d226cabeef709c732f8e1","686e311ae87699bd112bf2bb","666316060a19030e10987142","2025-07-09T10:08:58.211Z","","","","","","StressQ","","","","","","","","","","","","","","","","","","","","","","","","","","","","","","","","","","","","","","50",""
"6058","","<div style=""width:500px;"">
  <p>What best describes how you currently feel?</p>
  </div>","100","html-slider-response","76","3591187","0.0-10.0-4.6","141","1","2025-07-09 09:09:11","7701e855f2ef39aa3fd6c71abdc6918a","105.245.110.57","Mozilla/5.0 (X11; Linux x86_64) AppleWebKit/537.36 (KHTML, like Gecko) Chrome/137.0.0.0 Safari/537.36","WebKit","Chrome","137.0.0.0","Linux","","https://app.prolific.com/","en-ZA,en-GB;q=0.9,en-US;q=0.8,en;q=0.7","666316060a19030e10987142","686d226cabeef709c732f8e1","686e311ae87699bd112bf2bb","666316060a19030e10987142","2025-07-09T10:09:04.276Z","","","","","","MotivationQ","","","","","","","","","","","","","","","","","","","","","","","","","","","","","","","","","","","","","","50",""
"","","","","ctl-task-cpt","77","3739425","0.0-10.0-0.7","141","1","2025-07-09 09:09:11","7701e855f2ef39aa3fd6c71abdc6918a","105.245.110.57","Mozilla/5.0 (X11; Linux x86_64) AppleWebKit/537.36 (KHTML, like Gecko) Chrome/137.0.0.0 Safari/537.36","WebKit","Chrome","137.0.0.0","Linux","","https://app.prolific.com/","en-ZA,en-GB;q=0.9,en-US;q=0.8,en;q=0.7","666316060a19030e10987142","686d226cabeef709c732f8e1","686e311ae87699bd112bf2bb","666316060a19030e10987142","2025-07-09T10:11:32.514Z","","","","","","","","","","","","","","","","win-only","1","g1:NE,g2:SW","0.3","8","0","3593955","23348.6","28370.3","145178.6","1","4","8","6","2","8","6","33","27","0.25","5021.6","3000","1775","[""down"",""left""]","{""num_key_presses"":19,""num_perfect"":5,""num_errors"":2,""num_randdir"":12,""num_randdir_good_moves"":6,""num_whilered"":0,""num_whileblue"":2,""num_blue"":4,""num_good_moves"":13}","[281.7142857142857,273.5111607142857,1.5,281.7142857142857,273.5111607142857,127.9,281.7142857142857,273.5111607142857,242.7,281.7142857142857,273.5111607142857,357.2,281.7142857142857,273.5111607142857,491.7,281.7142857142857,273.5111607142857,609.7,281.7142857142857,273.5111607142857,727.7,281.7142857142857,273.5111607142857,848.3,281.7142857142857,273.5111607142857,960.6,281.7142857142857,273.5111607142857,1085.8,281.7142857142857,273.5111607142857,1192.9,281.7142857142857,273.5111607142857,1309.5,281.7142857142857,273.5111607142857,1431.6,281.7142857142857,273.5111607142857,1537.5,281.7142857142857,273.5111607142857,1654.8,281.7142857142857,273.5111607142857,1778.7,281.7142857142857,273.5111607142857,1891,281.7142857142857,273.5111607142857,2015.4,281.7142857142857,273.5111607142857,2131.4,281.7142857142857,273.5111607142857,2244.8,281.7142857142857,273.5111607142857,2373.1,281.7142857142857,273.5111607142857,2479.2,281.7142857142857,273.5111607142857,2601.6,281.7142857142857,273.5111607142857,2726.3,281.7142857142857,273.5111607142857,2832.3,281.7142857142857,273.5111607142857,2962,281.7142857142857,273.5111607142857,3076.9,281.7142857142857,273.5111607142857,3194.9,281.7142857142857,273.5111607142857,3310.5,281.7142857142857,273.5111607142857,3424.9,281.7142857142857,273.5111607142857,3573.2,281.7142857142857,273.5111607142857,3682.6,281.7142857142857,273.5111607142857,3823.4,281.7142857142857,273.5111607142857,3966.9,281.7142857142857,273.5111607142857,4091.3,281.7142857142857,273.5111607142857,4194.3,281.7142857142857,273.5111607142857,4295.2,281.7142857142857,273.5111607142857,4430.7,281.7142857142857,273.5111607142857,4571.9,281.7142857142857,273.5111607142857,4712.3,281.7142857142857,273.5111607142857,4854.8,281.7142857142857,273.5111607142857,4975.7]","[4936.2,4936.2,2270.3,2019.6,646.3,""oops"",""down"",""up"",""bad_move"",15004.8,10067,9505,4937.9,562.1,""while_blue"",""down"",""left"",""good_move"",26678.1,11670,2892.1,15008.2,8777.8,""oops"",""down"",""down"",""good_move"",29837.2,3156.4,2451.9,26680.8,704.5,""smooth"",""down"",""down"",""good_move"",36297.9,6459.1,1849,33766.8,682.1,""smooth"",""down"",""down"",""good_move"",39526.1,3227,2523.3,36299.2,703.7,""oops"",""down"",""up"",""bad_move"",46989.1,7461.4,6982.4,39527.7,479,""while_blue"",""down"",""down"",""good_move"",49928.5,2937.5,2069.1,46991.1,868.3,""oops"",""down"",""down"",""good_move"",52907.3,2977.5,2168.1,49929.9,809.4,""oops"",""left"",""up"",""bad_move"",62601.1,9692.3,1742.5,52908.8,7949.8,""smooth"",""left"",""left"",""good_move"",73996.2,11394,2508.5,62602.3,8885.5,""oops"",""left"",""down"",""good_move"",77374.4,3377.2,2639.3,73997.3,737.8,""oops"",""left"",""up"",""bad_move"",86607.4,9231.6,2502,77376,6729.5,""oops"",""left"",""up"",""bad_move"",94149.3,7540.4,2201.4,86609.1,5338.9,""oops"",""down"",""right"",""bad_move"",97042.7,2891.4,1636.6,94151.4,1254.7,""oops"",""down"",""left"",""good_move"",105424.3,8380.2,2452.2,97044.2,5927.9,""smooth"",""down"",""down"",""good_move"",109517,4091.1,3356.7,105426,734.3,""oops"",""down"",""down"",""good_move"",112244,2725.5,2126.8,109518.5,598.7,""oops"",""left"",""down"",""good_move"",116146.4,3901,3075.7,112245.4,825.3,""smooth"",""left"",""left"",""good_move""]","","",""
"2989","","<div style=""width:500px;"">
  <p>What determined the result of this run?</p>
  </div>","98","html-slider-response","78","3742422","0.0-10.0-1.7","141","1","2025-07-09 09:09:11","7701e855f2ef39aa3fd6c71abdc6918a","105.245.110.57","Mozilla/5.0 (X11; Linux x86_64) AppleWebKit/537.36 (KHTML, like Gecko) Chrome/137.0.0.0 Safari/537.36","WebKit","Chrome","137.0.0.0","Linux","","https://app.prolific.com/","en-ZA,en-GB;q=0.9,en-US;q=0.8,en;q=0.7","666316060a19030e10987142","686d226cabeef709c732f8e1","686e311ae87699bd112bf2bb","666316060a19030e10987142","2025-07-09T10:11:35.511Z","","","","","","AttribQ","","","","","","","","","","","","","","","","","","","","","","","","","","","","","","","","","","","","","","50",""
"3749","","<div style=""width:500px;"">
  <p>How much control did you have over the ball?</p>
  </div>","83","html-slider-response","79","3746178","0.0-10.0-2.7","141","1","2025-07-09 09:09:11","7701e855f2ef39aa3fd6c71abdc6918a","105.245.110.57","Mozilla/5.0 (X11; Linux x86_64) AppleWebKit/537.36 (KHTML, like Gecko) Chrome/137.0.0.0 Safari/537.36","WebKit","Chrome","137.0.0.0","Linux","","https://app.prolific.com/","en-ZA,en-GB;q=0.9,en-US;q=0.8,en;q=0.7","666316060a19030e10987142","686d226cabeef709c732f8e1","686e311ae87699bd112bf2bb","666316060a19030e10987142","2025-07-09T10:11:39.267Z","","","","","","ControlQ","","","","","","","","","","","","","","","","","","","","","","","","","","","","","","","","","","","","","","50",""
"6240","","<div style=""width:500px;"">
  <p>How would you describe your current emotional state?</p>
  </div>","29","html-slider-response","80","3752425","0.0-10.0-3.7","141","1","2025-07-09 09:09:11","7701e855f2ef39aa3fd6c71abdc6918a","105.245.110.57","Mozilla/5.0 (X11; Linux x86_64) AppleWebKit/537.36 (KHTML, like Gecko) Chrome/137.0.0.0 Safari/537.36","WebKit","Chrome","137.0.0.0","Linux","","https://app.prolific.com/","en-ZA,en-GB;q=0.9,en-US;q=0.8,en;q=0.7","666316060a19030e10987142","686d226cabeef709c732f8e1","686e311ae87699bd112bf2bb","666316060a19030e10987142","2025-07-09T10:11:45.514Z","","","","","","StressQ","","","","","","","","","","","","","","","","","","","","","","","","","","","","","","","","","","","","","","50",""
"4583","","<div style=""width:500px;"">
  <p>What best describes how you currently feel?</p>
  </div>","100","html-slider-response","81","3757017","0.0-10.0-4.7","141","1","2025-07-09 09:09:11","7701e855f2ef39aa3fd6c71abdc6918a","105.245.110.57","Mozilla/5.0 (X11; Linux x86_64) AppleWebKit/537.36 (KHTML, like Gecko) Chrome/137.0.0.0 Safari/537.36","WebKit","Chrome","137.0.0.0","Linux","","https://app.prolific.com/","en-ZA,en-GB;q=0.9,en-US;q=0.8,en;q=0.7","666316060a19030e10987142","686d226cabeef709c732f8e1","686e311ae87699bd112bf2bb","666316060a19030e10987142","2025-07-09T10:11:50.105Z","","","","","","MotivationQ","","","","","","","","","","","","","","","","","","","","","","","","","","","","","","","","","","","","","","50",""
"","","","","ctl-task-cpt","82","3969422","0.0-10.0-0.8","141","1","2025-07-09 09:09:11","7701e855f2ef39aa3fd6c71abdc6918a","105.245.110.57","Mozilla/5.0 (X11; Linux x86_64) AppleWebKit/537.36 (KHTML, like Gecko) Chrome/137.0.0.0 Safari/537.36","WebKit","Chrome","137.0.0.0","Linux","","https://app.prolific.com/","en-ZA,en-GB;q=0.9,en-US;q=0.8,en;q=0.7","666316060a19030e10987142","686d226cabeef709c732f8e1","686e311ae87699bd112bf2bb","666316060a19030e10987142","2025-07-09T10:15:22.510Z","","","","","","","","","","","","","","","","win-only","1","g1:NE,g2:SW","0.2","9","0","3759785.6","20230.9","25242.7","209337.6","1","4","8","6","1","1","1","34","33","0.25757575757575757","5011.8","3000","1475","[""up"",""right""]","{""num_key_presses"":22,""num_perfect"":4,""num_errors"":0,""num_randdir"":18,""num_randdir_good_moves"":9,""num_whilered"":0,""num_whileblue"":0,""num_blue"":10,""num_good_moves"":13}","[283.7142857142857,281.5111607142857,1.5,283.7142857142857,281.5111607142857,133.3,283.7142857142857,281.5111607142857,235.1,283.7142857142857,281.5111607142857,353.2,283.7142857142857,281.5111607142857,461.1,283.7142857142857,281.5111607142857,703.7,283.7142857142857,281.5111607142857,810.5,283.7142857142857,281.5111607142857,935.3,283.7142857142857,281.5111607142857,1040,283.7142857142857,281.5111607142857,1153.7,283.7142857142857,281.5111607142857,1288.1,283.7142857142857,281.5111607142857,1391.3,283.7142857142857,281.5111607142857,1520,283.7142857142857,281.5111607142857,1877.6,283.7142857142857,281.5111607142857,2000.2,283.7142857142857,281.5111607142857,2109.9,283.7142857142857,281.5111607142857,2321.8,283.7142857142857,281.5111607142857,2435.4,283.7142857142857,281.5111607142857,2535.5,283.7142857142857,281.5111607142857,2655.2,283.7142857142857,281.5111607142857,2785,283.7142857142857,281.5111607142857,2917.2,283.7142857142857,281.5111607142857,3051.9,283.7142857142857,281.5111607142857,3162.2,283.7142857142857,281.5111607142857,3292.2,283.7142857142857,281.5111607142857,3412.7,283.7142857142857,281.5111607142857,3524.5,283.7142857142857,281.5111607142857,3650.9,283.7142857142857,281.5111607142857,3761.5,283.7142857142857,281.5111607142857,3886,283.7142857142857,281.5111607142857,4005.6,283.7142857142857,281.5111607142857,4112.3,283.7142857142857,281.5111607142857,4236.7,283.7142857142857,281.5111607142857,4430.8,283.7142857142857,281.5111607142857,4565.3,283.7142857142857,281.5111607142857,4688.5,283.7142857142857,281.5111607142857,4807.5,283.7142857142857,281.5111607142857,4931.3]","[1663.9,1664,1000,0.1,663.9,""smooth"",""up"",""up"",""good_move"",9707.9,8042.4,3154.7,1665.6,4887.7,""smooth"",""up"",""up"",""good_move"",19322.9,9613.1,2750.4,9709.8,6862.7,""oops"",""right"",""left"",""bad_move"",31639.7,12314.9,2397.1,19324.9,9917.7,""oops"",""right"",""left"",""bad_move"",44815.5,13174.8,2549.4,31640.8,10625.4,""oops"",""right"",""down"",""bad_move"",48062.8,3245.9,2416.3,44817,829.5,""oops"",""right"",""up"",""good_move"",56384.1,8319.2,1376.6,48065,6942.5,""oops"",""right"",""down"",""bad_move"",59857.7,3472.5,2862.8,56385.3,609.7,""oops"",""right"",""up"",""good_move"",69419.8,9560.5,2673.5,59859.4,6886.9,""oops"",""right"",""left"",""bad_move"",88225.1,18804.1,2094,85372.1,759.1,""oops"",""right"",""down"",""bad_move"",95345.5,7119.1,2490.4,92237.3,617.8,""oops"",""right"",""down"",""bad_move"",105027.1,9680.2,1738,102459.6,829.5,""smooth"",""up"",""up"",""good_move"",117551.9,12523.6,2705.1,114181.1,665.8,""oops"",""up"",""right"",""good_move"",121088.1,3534.4,2696.2,117553.8,838.2,""smooth"",""up"",""up"",""good_move"",129103.7,8014.1,2192.8,121089.7,5821.3,""oops"",""right"",""down"",""bad_move"",132915.1,3810.2,3108.1,129105.1,702.1,""oops"",""right"",""right"",""good_move"",143513.1,10596,2476,140343.8,693.3,""oops"",""right"",""right"",""good_move"",146134.7,2620.8,1996.7,143514,624.1,""oops"",""right"",""down"",""bad_move"",149506.7,3370.4,2568.5,146136.3,802,""oops"",""up"",""up"",""good_move"",169048,19539.7,2770.9,165430.4,846.8,""oops"",""up"",""up"",""good_move"",179293.7,10244.2,2033.4,169049.8,8210.7,""oops"",""right"",""right"",""good_move"",182434.9,3139.7,2383.8,179295.3,755.8,""oops"",""right"",""right"",""good_move""]","","",""
"5501","","<div style=""width:500px;"">
  <p>What determined the result of this run?</p>
  </div>","100","html-slider-response","83","3974930","0.0-10.0-1.8","141","1","2025-07-09 09:09:11","7701e855f2ef39aa3fd6c71abdc6918a","105.245.110.57","Mozilla/5.0 (X11; Linux x86_64) AppleWebKit/537.36 (KHTML, like Gecko) Chrome/137.0.0.0 Safari/537.36","WebKit","Chrome","137.0.0.0","Linux","","https://app.prolific.com/","en-ZA,en-GB;q=0.9,en-US;q=0.8,en;q=0.7","666316060a19030e10987142","686d226cabeef709c732f8e1","686e311ae87699bd112bf2bb","666316060a19030e10987142","2025-07-09T10:15:28.018Z","","","","","","AttribQ","","","","","","","","","","","","","","","","","","","","","","","","","","","","","","","","","","","","","","50",""
"3692","","<div style=""width:500px;"">
  <p>How much control did you have over the ball?</p>
  </div>","61","html-slider-response","84","3978627","0.0-10.0-2.8","141","1","2025-07-09 09:09:11","7701e855f2ef39aa3fd6c71abdc6918a","105.245.110.57","Mozilla/5.0 (X11; Linux x86_64) AppleWebKit/537.36 (KHTML, like Gecko) Chrome/137.0.0.0 Safari/537.36","WebKit","Chrome","137.0.0.0","Linux","","https://app.prolific.com/","en-ZA,en-GB;q=0.9,en-US;q=0.8,en;q=0.7","666316060a19030e10987142","686d226cabeef709c732f8e1","686e311ae87699bd112bf2bb","666316060a19030e10987142","2025-07-09T10:15:31.716Z","","","","","","ControlQ","","","","","","","","","","","","","","","","","","","","","","","","","","","","","","","","","","","","","","50",""
"3089","","<div style=""width:500px;"">
  <p>How would you describe your current emotional state?</p>
  </div>","76","html-slider-response","85","3981722","0.0-10.0-3.8","141","1","2025-07-09 09:09:11","7701e855f2ef39aa3fd6c71abdc6918a","105.245.110.57","Mozilla/5.0 (X11; Linux x86_64) AppleWebKit/537.36 (KHTML, like Gecko) Chrome/137.0.0.0 Safari/537.36","WebKit","Chrome","137.0.0.0","Linux","","https://app.prolific.com/","en-ZA,en-GB;q=0.9,en-US;q=0.8,en;q=0.7","666316060a19030e10987142","686d226cabeef709c732f8e1","686e311ae87699bd112bf2bb","666316060a19030e10987142","2025-07-09T10:15:34.810Z","","","","","","StressQ","","","","","","","","","","","","","","","","","","","","","","","","","","","","","","","","","","","","","","50",""
"27982","","<div style=""width:500px;"">
  <p>What best describes how you currently feel?</p>
  </div>","100","html-slider-response","86","4009711","0.0-10.0-4.8","141","1","2025-07-09 09:09:11","7701e855f2ef39aa3fd6c71abdc6918a","105.245.110.57","Mozilla/5.0 (X11; Linux x86_64) AppleWebKit/537.36 (KHTML, like Gecko) Chrome/137.0.0.0 Safari/537.36","WebKit","Chrome","137.0.0.0","Linux","","https://app.prolific.com/","en-ZA,en-GB;q=0.9,en-US;q=0.8,en;q=0.7","666316060a19030e10987142","686d226cabeef709c732f8e1","686e311ae87699bd112bf2bb","666316060a19030e10987142","2025-07-09T10:16:02.800Z","","","","","","MotivationQ","","","","","","","","","","","","","","","","","","","","","","","","","","","","","","","","","","","","","","50",""
