"rt","response_timestamp","stimulus","response","trial_type","trial_index","time_elapsed","internal_node_id","run_id","condition","recorded_at","source_code_version","ip","user_agent","device","browser","browser_version","platform","platform_version","referer","accept_language","PROLIFIC_PID","STUDY_ID","SESSION_ID","prolific_id","realtime","view_history","question_order","consent","success","question_id","eventType","responses","item_order","radio_event_ids","radio_event_times","key_event_times","mouse_event_times","straightlining","zigzagging","honeypot","which_type","canvas_config","goals_layout","control_level","trial_number","tutorial_trial_number","trial_start_time","phase1_start_time","phase2_start_time","phase3_start_time","goal_1_value","goal_1_distance","goal_2_value","goal_2_distance","goal_selected","outcome","outcome_total","participant_final_score","participant_initial_score","participant_final_score_prop","goal_choice_rt","allocated_time","allocated_time_remaining","goal_direction","counts","mouse_movements","key_presses","correct","slider_start","sub_question"
"7335","1752052162581","<p style='font-size:40px;line-height:1.25'><strong>Welcome to the experiment!</strong></p><p style='font-size:1.1em;line-height:1.25'>Thank you for your interest in our experiment! Before you begin, it is important that we obtain your informed consent to participate in the study.</p><p style='font-size:1.1em;line-height:1.25'>On the next screen will be an <strong>information sheet</strong> for you to read. To participate in the study we need you to read this information sheet and the following consent form carefully. If you agree with all the statements, please click the <strong>I agree</strong> button.</p><p style='font-size:1.1em;line-height:1.25'>Press <strong>Next</strong> to read the information sheet.</p>","0","custom-html-button-response","0","7336","0.0-0.0","142","1","2025-07-09 09:09:14","7701e855f2ef39aa3fd6c71abdc6918a","94.8.141.152","Mozilla/5.0 (Macintosh; Intel Mac OS X 10_15_7) AppleWebKit/537.36 (KHTML, like Gecko) Chrome/133.0.0.0 Safari/537.36","Macintosh","Chrome","133.0.0.0","OS X","10_15_7","https://app.prolific.com/","en-US,en;q=0.9","66703ac57933f5d73067da2d","686d226cabeef709c732f8e1","686e31444cb2b4370a545401","66703ac57933f5d73067da2d","2025-07-09T09:09:22.582Z","","","","","","","","","","","","","","","","","","","","","","","","","","","","","","","","","","","","","","","","","","","","",""
"10836","","","","instructions","1","18173","0.0-1.0","142","1","2025-07-09 09:09:14","7701e855f2ef39aa3fd6c71abdc6918a","94.8.141.152","Mozilla/5.0 (Macintosh; Intel Mac OS X 10_15_7) AppleWebKit/537.36 (KHTML, like Gecko) Chrome/133.0.0.0 Safari/537.36","Macintosh","Chrome","133.0.0.0","OS X","10_15_7","https://app.prolific.com/","en-US,en;q=0.9","66703ac57933f5d73067da2d","686d226cabeef709c732f8e1","686e31444cb2b4370a545401","66703ac57933f5d73067da2d","","[{""page_index"":0,""viewing_time"":7803},{""page_index"":1,""viewing_time"":3033}]","","","","","","","","","","","","","","","","","","","","","","","","","","","","","","","","","","","","","","","","","","","",""
"6225","","","{""Q0"":"""",""Q1"":"""",""Q2"":"""",""Q3"":"""",""Q4"":"""",""Q5"":"""",""Q6"":""I agree""}","survey-multi-choice","2","24400","0.0-2.0","142","1","2025-07-09 09:09:14","7701e855f2ef39aa3fd6c71abdc6918a","94.8.141.152","Mozilla/5.0 (Macintosh; Intel Mac OS X 10_15_7) AppleWebKit/537.36 (KHTML, like Gecko) Chrome/133.0.0.0 Safari/537.36","Macintosh","Chrome","133.0.0.0","OS X","10_15_7","https://app.prolific.com/","en-US,en;q=0.9","66703ac57933f5d73067da2d","686d226cabeef709c732f8e1","686e31444cb2b4370a545401","66703ac57933f5d73067da2d","","","[0,1,2,3,4,5,6]","true","","","","","","","","","","","","","","","","","","","","","","","","","","","","","","","","","","","","","","","","","",""
"1538","","","","fullscreen","3","26942","0.0-4.0","142","1","2025-07-09 09:09:14","7701e855f2ef39aa3fd6c71abdc6918a","94.8.141.152","Mozilla/5.0 (Macintosh; Intel Mac OS X 10_15_7) AppleWebKit/537.36 (KHTML, like Gecko) Chrome/133.0.0.0 Safari/537.36","Macintosh","Chrome","133.0.0.0","OS X","10_15_7","https://app.prolific.com/","en-US,en;q=0.9","66703ac57933f5d73067da2d","686d226cabeef709c732f8e1","686e31444cb2b4370a545401","66703ac57933f5d73067da2d","","","","","true","","","","","","","","","","","","","","","","","","","","","","","","","","","","","","","","","","","","","","","","",""
"1344","1752052183533"," <p style='font-size:1.1em;line-height:1.25'>Thank you for completing the consent form and closing all other tabs.</p><p style='font-size:1.1em;line-height:1.25'>We will now invite you to fill in some demographic information and questionnaires, before starting the game.<br>This will take about 5 minutes.<br></p><p style='font-size:1.1em;line-height:1.25'>Press the <strong>Next</strong> button to continue.</p>","0","custom-html-button-response","4","28287","0.0-5.0","142","1","2025-07-09 09:09:14","7701e855f2ef39aa3fd6c71abdc6918a","94.8.141.152","Mozilla/5.0 (Macintosh; Intel Mac OS X 10_15_7) AppleWebKit/537.36 (KHTML, like Gecko) Chrome/133.0.0.0 Safari/537.36","Macintosh","Chrome","133.0.0.0","OS X","10_15_7","https://app.prolific.com/","en-US,en;q=0.9","66703ac57933f5d73067da2d","686d226cabeef709c732f8e1","686e31444cb2b4370a545401","66703ac57933f5d73067da2d","2025-07-09T09:09:43.533Z","","","","","","","","","","","","","","","","","","","","","","","","","","","","","","","","","","","","","","","","","","","","",""
"2099","","","{""age"":""25""}","survey-text","5","30390","0.0-6.0-0.0","142","1","2025-07-09 09:09:14","7701e855f2ef39aa3fd6c71abdc6918a","94.8.141.152","Mozilla/5.0 (Macintosh; Intel Mac OS X 10_15_7) AppleWebKit/537.36 (KHTML, like Gecko) Chrome/133.0.0.0 Safari/537.36","Macintosh","Chrome","133.0.0.0","OS X","10_15_7","https://app.prolific.com/","en-US,en;q=0.9","66703ac57933f5d73067da2d","686d226cabeef709c732f8e1","686e31444cb2b4370a545401","66703ac57933f5d73067da2d","","","","","","0","demographics","","","","","","","","","","","","","","","","","","","","","","","","","","","","","","","","","","","","","","",""
"3214","","","{""gender_identity"":""nonbinary""}","survey-multi-choice","6","33606","0.0-6.0-1.0","142","1","2025-07-09 09:09:14","7701e855f2ef39aa3fd6c71abdc6918a","94.8.141.152","Mozilla/5.0 (Macintosh; Intel Mac OS X 10_15_7) AppleWebKit/537.36 (KHTML, like Gecko) Chrome/133.0.0.0 Safari/537.36","Macintosh","Chrome","133.0.0.0","OS X","10_15_7","https://app.prolific.com/","en-US,en;q=0.9","66703ac57933f5d73067da2d","686d226cabeef709c732f8e1","686e31444cb2b4370a545401","66703ac57933f5d73067da2d","","","[0]","","","1","demographics","","","","","","","","","","","","","","","","","","","","","","","","","","","","","","","","","","","","","","",""
"1988","","","{""assigned_sex"":""female""}","survey-multi-choice","7","35595","0.0-6.0-2.0","142","1","2025-07-09 09:09:14","7701e855f2ef39aa3fd6c71abdc6918a","94.8.141.152","Mozilla/5.0 (Macintosh; Intel Mac OS X 10_15_7) AppleWebKit/537.36 (KHTML, like Gecko) Chrome/133.0.0.0 Safari/537.36","Macintosh","Chrome","133.0.0.0","OS X","10_15_7","https://app.prolific.com/","en-US,en;q=0.9","66703ac57933f5d73067da2d","686d226cabeef709c732f8e1","686e31444cb2b4370a545401","66703ac57933f5d73067da2d","","","[0]","","","2","demographics","","","","","","","","","","","","","","","","","","","","","","","","","","","","","","","","","","","","","","",""
"2872","","","{""menstrual_cycle"":""Yes""}","survey-multi-choice","8","38471","0.0-6.0-3.0","142","1","2025-07-09 09:09:14","7701e855f2ef39aa3fd6c71abdc6918a","94.8.141.152","Mozilla/5.0 (Macintosh; Intel Mac OS X 10_15_7) AppleWebKit/537.36 (KHTML, like Gecko) Chrome/133.0.0.0 Safari/537.36","Macintosh","Chrome","133.0.0.0","OS X","10_15_7","https://app.prolific.com/","en-US,en;q=0.9","66703ac57933f5d73067da2d","686d226cabeef709c732f8e1","686e31444cb2b4370a545401","66703ac57933f5d73067da2d","","","[0]","","","4","demographics","","","","","","","","","","","","","","","","","","","","","","","","","","","","","","","","","","","","","","",""
"5685","","","{""education"":""Master's Degree (e.g., MSc)""}","survey-multi-choice","9","44158","0.0-6.0-4.0","142","1","2025-07-09 09:09:14","7701e855f2ef39aa3fd6c71abdc6918a","94.8.141.152","Mozilla/5.0 (Macintosh; Intel Mac OS X 10_15_7) AppleWebKit/537.36 (KHTML, like Gecko) Chrome/133.0.0.0 Safari/537.36","Macintosh","Chrome","133.0.0.0","OS X","10_15_7","https://app.prolific.com/","en-US,en;q=0.9","66703ac57933f5d73067da2d","686d226cabeef709c732f8e1","686e31444cb2b4370a545401","66703ac57933f5d73067da2d","","","[0]","","","5","demographics","","","","","","","","","","","","","","","","","","","","","","","","","","","","","","","","","","","","","","",""
"4289","","","{""education"":""Master's Degree (e.g., MSc)""}","survey-multi-choice","10","48448","0.0-6.0-5.0","142","1","2025-07-09 09:09:14","7701e855f2ef39aa3fd6c71abdc6918a","94.8.141.152","Mozilla/5.0 (Macintosh; Intel Mac OS X 10_15_7) AppleWebKit/537.36 (KHTML, like Gecko) Chrome/133.0.0.0 Safari/537.36","Macintosh","Chrome","133.0.0.0","OS X","10_15_7","https://app.prolific.com/","en-US,en;q=0.9","66703ac57933f5d73067da2d","686d226cabeef709c732f8e1","686e31444cb2b4370a545401","66703ac57933f5d73067da2d","2025-07-09T09:10:03.694Z","","[0]","","","6","demographics","","","","","","","","","","","","","","","","","","","","","","","","","","","","","","","","","","","","","","",""
"61241","","","{""mental_health_condition"":""Depression, Anxiety, PTSD"",""mental_health_treatment"":""Yes--Accelerated Resolution Therapy (ART) "",""psychiatric_medication"":""Wellbutrin XR--150 mg/day. Lexapro--10 mg/day.""}","survey-text","11","109692","0.0-7.0-0.0","142","1","2025-07-09 09:09:14","7701e855f2ef39aa3fd6c71abdc6918a","94.8.141.152","Mozilla/5.0 (Macintosh; Intel Mac OS X 10_15_7) AppleWebKit/537.36 (KHTML, like Gecko) Chrome/133.0.0.0 Safari/537.36","Macintosh","Chrome","133.0.0.0","OS X","10_15_7","https://app.prolific.com/","en-US,en;q=0.9","66703ac57933f5d73067da2d","686d226cabeef709c732f8e1","686e31444cb2b4370a545401","66703ac57933f5d73067da2d","2025-07-09T09:11:04.939Z","","","","","1","mental_health","","","","","","","","","","","","","","","","","","","","","","","","","","","","","","","","","","","","","","",""
"4064","","","{""depression_history"":[""Yes""]}","survey-multi-select","12","113761","0.0-7.0-1.0","142","1","2025-07-09 09:09:14","7701e855f2ef39aa3fd6c71abdc6918a","94.8.141.152","Mozilla/5.0 (Macintosh; Intel Mac OS X 10_15_7) AppleWebKit/537.36 (KHTML, like Gecko) Chrome/133.0.0.0 Safari/537.36","Macintosh","Chrome","133.0.0.0","OS X","10_15_7","https://app.prolific.com/","en-US,en;q=0.9","66703ac57933f5d73067da2d","686d226cabeef709c732f8e1","686e31444cb2b4370a545401","66703ac57933f5d73067da2d","","","[0]","","","","mental_health","","","","","","","","","","","","","","","","","","","","","","","","","","","","","","","","","","","","","","",""
"6076","","","{""depression_episodes"":""more than 5"",""depression_recent"":""Within the past year""}","survey-multi-choice","13","119840","0.0-7.0-2.0-0.0","142","1","2025-07-09 09:09:14","7701e855f2ef39aa3fd6c71abdc6918a","94.8.141.152","Mozilla/5.0 (Macintosh; Intel Mac OS X 10_15_7) AppleWebKit/537.36 (KHTML, like Gecko) Chrome/133.0.0.0 Safari/537.36","Macintosh","Chrome","133.0.0.0","OS X","10_15_7","https://app.prolific.com/","en-US,en;q=0.9","66703ac57933f5d73067da2d","686d226cabeef709c732f8e1","686e31444cb2b4370a545401","66703ac57933f5d73067da2d","2025-07-09T09:11:15.086Z","","[0,1]","","","3","mental_health","","","","","","","","","","","","","","","","","","","","","","","","","","","","","","","","","","","","","","",""
"51950.90000009537","","","","survey-template","14","171796","0.0-7.0-3.0","142","1","2025-07-09 09:09:14","7701e855f2ef39aa3fd6c71abdc6918a","94.8.141.152","Mozilla/5.0 (Macintosh; Intel Mac OS X 10_15_7) AppleWebKit/537.36 (KHTML, like Gecko) Chrome/133.0.0.0 Safari/537.36","Macintosh","Chrome","133.0.0.0","OS X","10_15_7","https://app.prolific.com/","en-US,en;q=0.9","66703ac57933f5d73067da2d","686d226cabeef709c732f8e1","686e31444cb2b4370a545401","66703ac57933f5d73067da2d","2025-07-09T09:12:07.042Z","","","","","","ius","{""Q01"":""2"",""Q02"":""4"",""Q03"":""1"",""Q04"":""1"",""Q05"":""2"",""Q06"":""0"",""Q07"":""2"",""Q08"":""0"",""Q09"":""1"",""Q10"":""0"",""Q11"":""1"",""Q12"":""2"",""Q13"":""1""}","[0,1,2,3,4,5,6,7,8,9,10,11,12]","[""Q01"",""Q02"",""Q03"",""Q01"",""Q01"",""Q04"",""Q05"",""Q06"",""Q07"",""Q07"",""Q08"",""Q09"",""Q10"",""Q11"",""Q12"",""Q13"",""Q13""]","[8628.299999713898,12148.799999713898,13700.5,16435.099999904633,18769.699999809265,22873.299999713898,26640.299999713898,28563.400000095367,31809.400000095367,32763.599999904633,34953.2999997139,39583.09999990463,41731.699999809265,44300.199999809265,46771.09999990463,48848.7999997139,50771.59999990463]","[]","[8628.299999713898,10932.900000095367,12148.799999713898,13700.5,16435.099999904633,18769.699999809265,22873.299999713898,26640.299999713898,28563.400000095367,31809.400000095367,32763.599999904633,34953.2999997139,39583.09999990463,41731.699999809265,44300.199999809265,46771.09999990463,48848.7999997139,50771.59999990463,51948.699999809265]","0.38461538461538464","0.5","0","","","","","","","","","","","","","","","","","","","","","","","","","","","","","",""
"1512","1752052328555","<p style='font-size:1.1em;line-height:1.25'>In the following, we will ask you a few questions relating to your experiences over the past month.<br></p><p style='font-size:1.1em;line-height:1.25'>Press the <strong>Next</strong> button to continue.</p>","0","custom-html-button-response","15","173310","0.0-7.0-4.0","142","1","2025-07-09 09:09:14","7701e855f2ef39aa3fd6c71abdc6918a","94.8.141.152","Mozilla/5.0 (Macintosh; Intel Mac OS X 10_15_7) AppleWebKit/537.36 (KHTML, like Gecko) Chrome/133.0.0.0 Safari/537.36","Macintosh","Chrome","133.0.0.0","OS X","10_15_7","https://app.prolific.com/","en-US,en;q=0.9","66703ac57933f5d73067da2d","686d226cabeef709c732f8e1","686e31444cb2b4370a545401","66703ac57933f5d73067da2d","2025-07-09T09:12:08.556Z","","","","","","","","","","","","","","","","","","","","","","","","","","","","","","","","","","","","","","","","","","","","",""
"41459.5","","","","survey-template","16","214773","0.0-7.0-5.0","142","1","2025-07-09 09:09:14","7701e855f2ef39aa3fd6c71abdc6918a","94.8.141.152","Mozilla/5.0 (Macintosh; Intel Mac OS X 10_15_7) AppleWebKit/537.36 (KHTML, like Gecko) Chrome/133.0.0.0 Safari/537.36","Macintosh","Chrome","133.0.0.0","OS X","10_15_7","https://app.prolific.com/","en-US,en;q=0.9","66703ac57933f5d73067da2d","686d226cabeef709c732f8e1","686e31444cb2b4370a545401","66703ac57933f5d73067da2d","2025-07-09T09:12:50.019Z","","","","","","pss","{""Q01"":""2"",""Q02"":""3"",""Q03"":""2"",""Q04"":""3"",""Q05"":""2"",""Q06"":""2"",""Q07"":""3"",""Q08"":""1"",""Q09"":""2"",""Q10"":""3""}","[0,1,2,3,4,5,6,7,8,9]","[""Q01"",""Q02"",""Q03"",""Q03"",""Q04"",""Q05"",""Q06"",""Q07"",""Q08"",""Q09"",""Q09"",""Q10""]","[6962.799999713898,9354.099999904633,11649,16823.799999713898,21477.599999904633,24575,27485.699999809265,29228.699999809265,31485.299999713898,35050.7999997139,35990.59999990463,39981]","[]","[0,6962.799999713898,9354.099999904633,11649,16823.799999713898,21477.599999904633,24575,27485.699999809265,29228.699999809265,31485.299999713898,35050.7999997139,35990.59999990463,39981,41458.7999997139]","0.5","0.7777777777777778","0","","","","","","","","","","","","","","","","","","","","","","","","","","","","","",""
"1502","1752052371522","<p style='font-size:1.1em;line-height:1.25'>Thank you for your answers! Now we will ask you a few more questions relating to your feelings in the last 24 hours.<br></p><p style='font-size:1.1em;line-height:1.25'>Press the <strong>Next</strong> button to continue.</p>","0","custom-html-button-response","17","216277","0.0-7.0-6.0","142","1","2025-07-09 09:09:14","7701e855f2ef39aa3fd6c71abdc6918a","94.8.141.152","Mozilla/5.0 (Macintosh; Intel Mac OS X 10_15_7) AppleWebKit/537.36 (KHTML, like Gecko) Chrome/133.0.0.0 Safari/537.36","Macintosh","Chrome","133.0.0.0","OS X","10_15_7","https://app.prolific.com/","en-US,en;q=0.9","66703ac57933f5d73067da2d","686d226cabeef709c732f8e1","686e31444cb2b4370a545401","66703ac57933f5d73067da2d","2025-07-09T09:12:51.523Z","","","","","","","","","","","","","","","","","","","","","","","","","","","","","","","","","","","","","","","","","","","","",""
"67177.7000002861","","","","survey-template","18","283463","0.0-7.0-7.0","142","1","2025-07-09 09:09:14","7701e855f2ef39aa3fd6c71abdc6918a","94.8.141.152","Mozilla/5.0 (Macintosh; Intel Mac OS X 10_15_7) AppleWebKit/537.36 (KHTML, like Gecko) Chrome/133.0.0.0 Safari/537.36","Macintosh","Chrome","133.0.0.0","OS X","10_15_7","https://app.prolific.com/","en-US,en;q=0.9","66703ac57933f5d73067da2d","686d226cabeef709c732f8e1","686e31444cb2b4370a545401","66703ac57933f5d73067da2d","2025-07-09T09:13:58.710Z","","","","","","drsp","{""Q01"":""3"",""Q02"":""2"",""Q03"":""2"",""Q04"":""1"",""Q05"":""3"",""Q06"":""4"",""Q07"":""2"",""Q08"":""0"",""Q09"":""4"",""Q10"":""4"",""Q11"":""5"",""Q12"":""3"",""Q13"":""2"",""Q14"":""4"",""Q15"":""0"",""Q16"":""4"",""Q17"":""1"",""Q18"":""3"",""Q19"":""4"",""Q20"":""3"",""Q21"":""3""}","[0,1,2,3,4,5,6,7,8,9,10,11,12,13,14,15,16,17,18,19,20]","[""Q01"",""Q02"",""Q02"",""Q03"",""Q04"",""Q05"",""Q06"",""Q07"",""Q08"",""Q09"",""Q10"",""Q11"",""Q12"",""Q12"",""Q13"",""Q13"",""Q14"",""Q15"",""Q16"",""Q16"",""Q17"",""Q18"",""Q19"",""Q20"",""Q21""]","[5177.60000038147,13296.900000095367,15424.300000190735,17981.900000095367,21120.60000038147,23110.5,26414.700000286102,27854.60000038147,29947.400000095367,31299.200000286102,33996.300000190735,34684.800000190735,36755.800000190735,37548.7000002861,39370.7000002861,40243.2000002861,42605.7000002861,45951.90000009537,48130.90000009537,50007,52843,56382.2000002861,58514.40000009537,60815.800000190735,66288.90000009537]","[]","[0,5177.60000038147,13296.900000095367,15424.300000190735,17981.900000095367,21120.60000038147,23110.5,26414.700000286102,27854.60000038147,29947.400000095367,31299.200000286102,33996.300000190735,34684.800000190735,36755.800000190735,37548.7000002861,39370.7000002861,40243.2000002861,42605.7000002861,45951.90000009537,48130.90000009537,49253.60000038147,50007,52843,56382.2000002861,58514.40000009537,60815.800000190735,66288.90000009537,67173.60000038147]","0.2857142857142857","0.35","0","","","","","","","","","","","","","","","","","","","","","","","","","","","","","",""
"14816.400000095367","","","","survey-template","19","298284","0.0-7.0-8.0","142","1","2025-07-09 09:09:14","7701e855f2ef39aa3fd6c71abdc6918a","94.8.141.152","Mozilla/5.0 (Macintosh; Intel Mac OS X 10_15_7) AppleWebKit/537.36 (KHTML, like Gecko) Chrome/133.0.0.0 Safari/537.36","Macintosh","Chrome","133.0.0.0","OS X","10_15_7","https://app.prolific.com/","en-US,en;q=0.9","66703ac57933f5d73067da2d","686d226cabeef709c732f8e1","686e31444cb2b4370a545401","66703ac57933f5d73067da2d","2025-07-09T09:14:13.530Z","","","","","","stress","{""Q01"":""4"",""Q02"":""4"",""Q03"":""4""}","[0,1,2]","[""Q01"",""Q02"",""Q03""]","[8282.699999809265,10166.299999713898,13963.599999904633]","[]","[8282.699999809265,10166.299999713898,13963.599999904633,14815.099999904633]","0.6666666666666666","0","0","","","","","","","","","","","","","","","","","","","","","","","","","","","","","",""
"49052","","","","instructions","20","347338","0.0-8.0-0.0","142","1","2025-07-09 09:09:14","7701e855f2ef39aa3fd6c71abdc6918a","94.8.141.152","Mozilla/5.0 (Macintosh; Intel Mac OS X 10_15_7) AppleWebKit/537.36 (KHTML, like Gecko) Chrome/133.0.0.0 Safari/537.36","Macintosh","Chrome","133.0.0.0","OS X","10_15_7","https://app.prolific.com/","en-US,en;q=0.9","66703ac57933f5d73067da2d","686d226cabeef709c732f8e1","686e31444cb2b4370a545401","66703ac57933f5d73067da2d","","[{""page_index"":0,""viewing_time"":8117},{""page_index"":1,""viewing_time"":22545},{""page_index"":2,""viewing_time"":6858},{""page_index"":3,""viewing_time"":11532}]","","","","","","","","","","","","","","","","","","","","","","","","","","","","","","","","","","","","","","","","","","","",""
"","","","","ctl-task-cpt","21","397073","0.0-8.0-1.0","142","1","2025-07-09 09:09:14","7701e855f2ef39aa3fd6c71abdc6918a","94.8.141.152","Mozilla/5.0 (Macintosh; Intel Mac OS X 10_15_7) AppleWebKit/537.36 (KHTML, like Gecko) Chrome/133.0.0.0 Safari/537.36","Macintosh","Chrome","133.0.0.0","OS X","10_15_7","https://app.prolific.com/","en-US,en;q=0.9","66703ac57933f5d73067da2d","686d226cabeef709c732f8e1","686e31444cb2b4370a545401","66703ac57933f5d73067da2d","","","","","","","","","","","","","","","","","win-only","2","g1:SE,g2:NW","1","0","1","349068.1","1957.2","5962","46724.3","2","4","4","6","2","4","1","1","0","0.007575757575757576","4004.7","4000","1250","[""left"",""up""]","{""num_key_presses"":9,""num_perfect"":6,""num_errors"":3,""num_randdir"":0,""num_randdir_good_moves"":0,""num_whilered"":0,""num_whileblue"":0,""num_blue"":5,""num_good_moves"":6}","[699.7142857142857,693.5111607142857,1,699.7142857142857,693.5111607142857,104.5,699.7142857142857,693.5111607142857,208,699.7142857142857,693.5111607142857,308.2,699.7142857142857,693.5111607142857,413.9,699.7142857142857,693.5111607142857,519.2,699.7142857142857,693.5111607142857,624.6,699.7142857142857,693.5111607142857,728.2,699.7142857142857,693.5111607142857,829.3,699.7142857142857,693.5111607142857,934,699.7142857142857,693.5111607142857,1034.4,699.7142857142857,693.5111607142857,1139.8,699.7142857142857,693.5111607142857,1243.4,699.7142857142857,693.5111607142857,1343.5,699.7142857142857,693.5111607142857,1443.5,699.7142857142857,693.5111607142857,1549,699.7142857142857,693.5111607142857,1649.1,699.7142857142857,693.5111607142857,1753.6,699.7142857142857,693.5111607142857,1854.9,699.7142857142857,693.5111607142857,1958.3,699.7142857142857,693.5111607142857,2058.3,699.7142857142857,693.5111607142857,2164.2,699.7142857142857,693.5111607142857,2264.7,699.7142857142857,693.5111607142857,2369.7,699.7142857142857,693.5111607142857,2473.5,699.7142857142857,693.5111607142857,2573.9,699.7142857142857,693.5111607142857,2678.8,699.7142857142857,693.5111607142857,2779.1,699.7142857142857,693.5111607142857,2884.6,699.7142857142857,693.5111607142857,2984.7,699.7142857142857,693.5111607142857,3089.1,699.7142857142857,693.5111607142857,3189.4,699.7142857142857,693.5111607142857,3289.6,699.7142857142857,693.5111607142857,3393.6,699.7142857142857,693.5111607142857,3493.7,699.7142857142857,693.5111607142857,3594.3,699.7142857142857,693.5111607142857,3699.1,699.7142857142857,693.5111607142857,3799.2,699.7142857142857,693.5111607142857,3899.6]","[72.9,72.9,1000,0,-927.1,""error"",""-"",""-"",""no_move"",1508.6,1435.4,2138.6,1074.4,-1704.4,""error"",""-"",""-"",""no_move"",20298.3,18789.5,2440.2,17229.6,628.5,""smooth"",""up"",""up"",""good_move"",21086.2,787.7,2922.4,20298.5,-2134.7,""error"",""-"",""-"",""no_move"",25174.2,4087.8,2552.9,22088.3,533,""smooth"",""up"",""up"",""good_move"",28160.5,2986.1,2572.3,25174.4,413.8,""smooth"",""up"",""up"",""good_move"",30741.9,2581.1,2182.9,28160.8,398.2,""smooth"",""left"",""left"",""good_move"",37272.3,6530,2767.2,34073.6,431.5,""smooth"",""left"",""left"",""good_move"",40674.5,3402,3021.2,37272.5,380.8,""smooth"",""left"",""left"",""good_move""]","","",""
"9568","","","","instructions","22","406641","0.0-8.0-2.0","142","1","2025-07-09 09:09:14","7701e855f2ef39aa3fd6c71abdc6918a","94.8.141.152","Mozilla/5.0 (Macintosh; Intel Mac OS X 10_15_7) AppleWebKit/537.36 (KHTML, like Gecko) Chrome/133.0.0.0 Safari/537.36","Macintosh","Chrome","133.0.0.0","OS X","10_15_7","https://app.prolific.com/","en-US,en;q=0.9","66703ac57933f5d73067da2d","686d226cabeef709c732f8e1","686e31444cb2b4370a545401","66703ac57933f5d73067da2d","","[{""page_index"":0,""viewing_time"":9567}]","","","","","","","","","","","","","","","","","","","","","","","","","","","","","","","","","","","","","","","","","","","",""
"","","","","ctl-task-cpt","23","458450","0.0-8.0-3.0","142","1","2025-07-09 09:09:14","7701e855f2ef39aa3fd6c71abdc6918a","94.8.141.152","Mozilla/5.0 (Macintosh; Intel Mac OS X 10_15_7) AppleWebKit/537.36 (KHTML, like Gecko) Chrome/133.0.0.0 Safari/537.36","Macintosh","Chrome","133.0.0.0","OS X","10_15_7","https://app.prolific.com/","en-US,en;q=0.9","66703ac57933f5d73067da2d","686d226cabeef709c732f8e1","686e31444cb2b4370a545401","66703ac57933f5d73067da2d","","","","","","","","","","","","","","","","","win-only","2","g1:SE,g2:NW","0.35","0","3","408367.7","1913.1","5917.2","48797.2","2","4","8","6","2","-8","-8","0","0","0","4004.1","4000","-3010","[""left"",""up""]","{""num_key_presses"":10,""num_perfect"":4,""num_errors"":0,""num_randdir"":6,""num_randdir_good_moves"":3,""num_whilered"":0,""num_whileblue"":0,""num_blue"":3,""num_good_moves"":7}","[717.7142857142857,711.5111607142857,0.1,717.7142857142857,711.5111607142857,102.2,717.7142857142857,711.5111607142857,202.2,717.7142857142857,711.5111607142857,302.3,717.7142857142857,711.5111607142857,402.3,717.7142857142857,711.5111607142857,502.3,717.7142857142857,711.5111607142857,608.4,717.7142857142857,711.5111607142857,713.2,717.7142857142857,711.5111607142857,818.3,717.7142857142857,711.5111607142857,918.7,717.7142857142857,711.5111607142857,1020.3,717.7142857142857,711.5111607142857,1123,717.7142857142857,711.5111607142857,1228.2,717.7142857142857,711.5111607142857,1332.8,717.7142857142857,711.5111607142857,1437.2,717.7142857142857,711.5111607142857,1537.3,717.7142857142857,711.5111607142857,1637.5,717.7142857142857,711.5111607142857,1737.9,717.7142857142857,711.5111607142857,1843,717.7142857142857,711.5111607142857,1943.3,717.7142857142857,711.5111607142857,2043.5,717.7142857142857,711.5111607142857,2147.6,717.7142857142857,711.5111607142857,2248.1,717.7142857142857,711.5111607142857,2352.3,717.7142857142857,711.5111607142857,2452.5,717.7142857142857,711.5111607142857,2557.9,717.7142857142857,711.5111607142857,2662.9,717.7142857142857,711.5111607142857,2767.6,717.7142857142857,711.5111607142857,2867.8,717.7142857142857,711.5111607142857,2972.5,717.7142857142857,711.5111607142857,3073.2,717.7142857142857,711.5111607142857,3173.8,717.7142857142857,711.5111607142857,3278.1,717.7142857142857,711.5111607142857,3383.7,717.7142857142857,711.5111607142857,3487.5,717.7142857142857,711.5111607142857,3587.6,717.7142857142857,711.5111607142857,3692.8,717.7142857142857,711.5111607142857,3798.1,717.7142857142857,711.5111607142857,3902.3]","[1455.4,1455.4,1000,0,455.4,""oops"",""up"",""right"",""bad_move"",5050,3594.3,3190.2,1455.7,404.1,""oops"",""up"",""up"",""good_move"",8285.3,3235.1,2850.2,5050.2,384.9,""smooth"",""up"",""up"",""good_move"",11199.5,2914,2547.7,8285.5,366.3,""oops"",""up"",""left"",""good_move"",14624.1,3424.5,2992.1,11199.6,432.4,""smooth"",""up"",""up"",""good_move"",20653.4,6029.2,2329.9,17878.7,444.8,""oops"",""left"",""right"",""bad_move"",23588.3,2934.8,2559.2,20653.5,375.6,""smooth"",""left"",""left"",""good_move"",33523.2,9934.7,2787.3,30383,352.9,""smooth"",""left"",""left"",""good_move"",36754.9,3231.6,2800.2,33523.3,431.4,""oops"",""left"",""down"",""bad_move"",39966.8,3211.7,2836,36755.1,375.7,""oops"",""left"",""left"",""good_move""]","","",""
"40889","","","","instructions","24","499340","0.0-8.0-4.0","142","1","2025-07-09 09:09:14","7701e855f2ef39aa3fd6c71abdc6918a","94.8.141.152","Mozilla/5.0 (Macintosh; Intel Mac OS X 10_15_7) AppleWebKit/537.36 (KHTML, like Gecko) Chrome/133.0.0.0 Safari/537.36","Macintosh","Chrome","133.0.0.0","OS X","10_15_7","https://app.prolific.com/","en-US,en;q=0.9","66703ac57933f5d73067da2d","686d226cabeef709c732f8e1","686e31444cb2b4370a545401","66703ac57933f5d73067da2d","","[{""page_index"":0,""viewing_time"":11975},{""page_index"":1,""viewing_time"":28914}]","","","","","","","","","","","","","","","","","","","","","","","","","","","","","","","","","","","","","","","","","","","",""
"9502","","","{""green_ball"":[""Ball sometimes shakes and moves in a random direction""]}","survey-multi-select","25","508844","0.0-8.0-5.0-0.0","142","1","2025-07-09 09:09:14","7701e855f2ef39aa3fd6c71abdc6918a","94.8.141.152","Mozilla/5.0 (Macintosh; Intel Mac OS X 10_15_7) AppleWebKit/537.36 (KHTML, like Gecko) Chrome/133.0.0.0 Safari/537.36","Macintosh","Chrome","133.0.0.0","OS X","10_15_7","https://app.prolific.com/","en-US,en;q=0.9","66703ac57933f5d73067da2d","686d226cabeef709c732f8e1","686e31444cb2b4370a545401","66703ac57933f5d73067da2d","","","[0]","","","","quiz","","","","","","","","","","","","","","","","","","","","","","","","","","","","","","","","","","","","","true","",""
"1345","","<p align='center'><b>CORRECT!</b> Indeed, the green ball may sometimes shake and move in a random direction.</p>","0","html-button-response","26","510193","0.0-8.0-5.0-1.0","142","1","2025-07-09 09:09:14","7701e855f2ef39aa3fd6c71abdc6918a","94.8.141.152","Mozilla/5.0 (Macintosh; Intel Mac OS X 10_15_7) AppleWebKit/537.36 (KHTML, like Gecko) Chrome/133.0.0.0 Safari/537.36","Macintosh","Chrome","133.0.0.0","OS X","10_15_7","https://app.prolific.com/","en-US,en;q=0.9","66703ac57933f5d73067da2d","686d226cabeef709c732f8e1","686e31444cb2b4370a545401","66703ac57933f5d73067da2d","","","","","","","","","","","","","","","","","","","","","","","","","","","","","","","","","","","","","","","","","","","","","",""
"4832","","","{""yellow_ball"":[""Ball doesn‘t move and I get -1 penalty point""]}","survey-multi-select","27","515027","0.0-8.0-6.0-0.0","142","1","2025-07-09 09:09:14","7701e855f2ef39aa3fd6c71abdc6918a","94.8.141.152","Mozilla/5.0 (Macintosh; Intel Mac OS X 10_15_7) AppleWebKit/537.36 (KHTML, like Gecko) Chrome/133.0.0.0 Safari/537.36","Macintosh","Chrome","133.0.0.0","OS X","10_15_7","https://app.prolific.com/","en-US,en;q=0.9","66703ac57933f5d73067da2d","686d226cabeef709c732f8e1","686e31444cb2b4370a545401","66703ac57933f5d73067da2d","","","[0]","","","","quiz","","","","","","","","","","","","","","","","","","","","","","","","","","","","","","","","","","","","","true","",""
"1008","","<p align='center'><b>CORRECT!</b> Indeed, the yellow ball never moves and you receive a penalty.</p>","0","html-button-response","28","516036","0.0-8.0-6.0-1.0","142","1","2025-07-09 09:09:14","7701e855f2ef39aa3fd6c71abdc6918a","94.8.141.152","Mozilla/5.0 (Macintosh; Intel Mac OS X 10_15_7) AppleWebKit/537.36 (KHTML, like Gecko) Chrome/133.0.0.0 Safari/537.36","Macintosh","Chrome","133.0.0.0","OS X","10_15_7","https://app.prolific.com/","en-US,en;q=0.9","66703ac57933f5d73067da2d","686d226cabeef709c732f8e1","686e31444cb2b4370a545401","66703ac57933f5d73067da2d","","","","","","","","","","","","","","","","","","","","","","","","","","","","","","","","","","","","","","","","","","","","","",""
"2992","","","{""blue_ball"":[""Ball doesn‘t move and I get -1 penalty point""]}","survey-multi-select","29","519030","0.0-8.0-7.0-0.0","142","1","2025-07-09 09:09:14","7701e855f2ef39aa3fd6c71abdc6918a","94.8.141.152","Mozilla/5.0 (Macintosh; Intel Mac OS X 10_15_7) AppleWebKit/537.36 (KHTML, like Gecko) Chrome/133.0.0.0 Safari/537.36","Macintosh","Chrome","133.0.0.0","OS X","10_15_7","https://app.prolific.com/","en-US,en;q=0.9","66703ac57933f5d73067da2d","686d226cabeef709c732f8e1","686e31444cb2b4370a545401","66703ac57933f5d73067da2d","","","[0]","","","","quiz","","","","","","","","","","","","","","","","","","","","","","","","","","","","","","","","","","","","","false","",""
"2494","","<p align='center'><b>INCORRECT.</b> The blue ball always shakes and moves randomly.</p>","0","html-button-response","30","521525","0.0-8.0-7.0-1.0","142","1","2025-07-09 09:09:14","7701e855f2ef39aa3fd6c71abdc6918a","94.8.141.152","Mozilla/5.0 (Macintosh; Intel Mac OS X 10_15_7) AppleWebKit/537.36 (KHTML, like Gecko) Chrome/133.0.0.0 Safari/537.36","Macintosh","Chrome","133.0.0.0","OS X","10_15_7","https://app.prolific.com/","en-US,en;q=0.9","66703ac57933f5d73067da2d","686d226cabeef709c732f8e1","686e31444cb2b4370a545401","66703ac57933f5d73067da2d","","","","","","","","","","","","","","","","","","","","","","","","","","","","","","","","","","","","","","","","","","","","","",""
"5045","","","{""blue_ball"":[""Ball always shakes and moves in a random direction""]}","survey-multi-select","31","526572","0.0-8.0-7.1-0.1","142","1","2025-07-09 09:09:14","7701e855f2ef39aa3fd6c71abdc6918a","94.8.141.152","Mozilla/5.0 (Macintosh; Intel Mac OS X 10_15_7) AppleWebKit/537.36 (KHTML, like Gecko) Chrome/133.0.0.0 Safari/537.36","Macintosh","Chrome","133.0.0.0","OS X","10_15_7","https://app.prolific.com/","en-US,en;q=0.9","66703ac57933f5d73067da2d","686d226cabeef709c732f8e1","686e31444cb2b4370a545401","66703ac57933f5d73067da2d","","","[0]","","","","quiz","","","","","","","","","","","","","","","","","","","","","","","","","","","","","","","","","","","","","true","",""
"2202","","<p align='center'><b>CORRECT!</b> Indeed, the blue ball always shakes and moves in a random direction. Also there is a penalty of -1 point.</p>","0","html-button-response","32","528776","0.0-8.0-7.1-1.1","142","1","2025-07-09 09:09:14","7701e855f2ef39aa3fd6c71abdc6918a","94.8.141.152","Mozilla/5.0 (Macintosh; Intel Mac OS X 10_15_7) AppleWebKit/537.36 (KHTML, like Gecko) Chrome/133.0.0.0 Safari/537.36","Macintosh","Chrome","133.0.0.0","OS X","10_15_7","https://app.prolific.com/","en-US,en;q=0.9","66703ac57933f5d73067da2d","686d226cabeef709c732f8e1","686e31444cb2b4370a545401","66703ac57933f5d73067da2d","","","","","","","","","","","","","","","","","","","","","","","","","","","","","","","","","","","","","","","","","","","","","",""
"3211","","","{""bonus"":[""When I reach 50% of points""]}","survey-multi-select","33","531989","0.0-8.0-8.0-0.0","142","1","2025-07-09 09:09:14","7701e855f2ef39aa3fd6c71abdc6918a","94.8.141.152","Mozilla/5.0 (Macintosh; Intel Mac OS X 10_15_7) AppleWebKit/537.36 (KHTML, like Gecko) Chrome/133.0.0.0 Safari/537.36","Macintosh","Chrome","133.0.0.0","OS X","10_15_7","https://app.prolific.com/","en-US,en;q=0.9","66703ac57933f5d73067da2d","686d226cabeef709c732f8e1","686e31444cb2b4370a545401","66703ac57933f5d73067da2d","","","[0]","","","","quiz","","","","","","","","","","","","","","","","","","","","","","","","","","","","","","","","","","","","","true","",""
"984","","<p align='center'><b>CORRECT!</b> Indeed, you receive 2 pounds extra when you reach 50% of points.</p>","0","html-button-response","34","532974","0.0-8.0-8.0-1.0","142","1","2025-07-09 09:09:14","7701e855f2ef39aa3fd6c71abdc6918a","94.8.141.152","Mozilla/5.0 (Macintosh; Intel Mac OS X 10_15_7) AppleWebKit/537.36 (KHTML, like Gecko) Chrome/133.0.0.0 Safari/537.36","Macintosh","Chrome","133.0.0.0","OS X","10_15_7","https://app.prolific.com/","en-US,en;q=0.9","66703ac57933f5d73067da2d","686d226cabeef709c732f8e1","686e31444cb2b4370a545401","66703ac57933f5d73067da2d","","","","","","","","","","","","","","","","","","","","","","","","","","","","","","","","","","","","","","","","","","","","","",""
"1532","","","","instructions","35","534507","0.0-8.0-9.0","142","1","2025-07-09 09:09:14","7701e855f2ef39aa3fd6c71abdc6918a","94.8.141.152","Mozilla/5.0 (Macintosh; Intel Mac OS X 10_15_7) AppleWebKit/537.36 (KHTML, like Gecko) Chrome/133.0.0.0 Safari/537.36","Macintosh","Chrome","133.0.0.0","OS X","10_15_7","https://app.prolific.com/","en-US,en;q=0.9","66703ac57933f5d73067da2d","686d226cabeef709c732f8e1","686e31444cb2b4370a545401","66703ac57933f5d73067da2d","","[{""page_index"":0,""viewing_time"":1532}]","","","","","","","","","","","","","","","","","","","","","","","","","","","","","","","","","","","","","","","","","","","",""
"4807","","<p>Before you start with this game please answer the following three questions yourself. </p>
  <p>Through this game, we measure several aspects of your cognitive performance, such as reaction times, multi-tasking capabilities </p>
  <p>and the ability to assess the situation you are in.</p>
  <p></p>
  <p><b>How good do you usually are in such tasks?</b></p>","94","html-slider-response","36","539315","0.0-9.0-0.0","142","1","2025-07-09 09:09:14","7701e855f2ef39aa3fd6c71abdc6918a","94.8.141.152","Mozilla/5.0 (Macintosh; Intel Mac OS X 10_15_7) AppleWebKit/537.36 (KHTML, like Gecko) Chrome/133.0.0.0 Safari/537.36","Macintosh","Chrome","133.0.0.0","OS X","10_15_7","https://app.prolific.com/","en-US,en;q=0.9","66703ac57933f5d73067da2d","686d226cabeef709c732f8e1","686e31444cb2b4370a545401","66703ac57933f5d73067da2d","2025-07-09T09:18:14.561Z","","","","","","PreSkillQ","","","","","","","","","","","","","","","","","","","","","","","","","","","","","","","","","","","","","","50",""
"3015","","<div style=""width:500px;"">
  <p>How well do you think you will perform in this task compared to other participants?</p>
  </div>","57","html-slider-response","37","542331","0.0-9.0-1.0","142","1","2025-07-09 09:09:14","7701e855f2ef39aa3fd6c71abdc6918a","94.8.141.152","Mozilla/5.0 (Macintosh; Intel Mac OS X 10_15_7) AppleWebKit/537.36 (KHTML, like Gecko) Chrome/133.0.0.0 Safari/537.36","Macintosh","Chrome","133.0.0.0","OS X","10_15_7","https://app.prolific.com/","en-US,en;q=0.9","66703ac57933f5d73067da2d","686d226cabeef709c732f8e1","686e31444cb2b4370a545401","66703ac57933f5d73067da2d","2025-07-09T09:18:17.578Z","","","","","","PrePerfQ","","","","","","","","","","","","","","","","","","","","","","","","","","","","","","","","","","","","","","50",""
"3645","","<div style=""width:500px;"">
  <p>What best describes how you currently feel?</p>
  </div>","12","html-slider-response","38","545977","0.0-9.0-2.0","142","1","2025-07-09 09:09:14","7701e855f2ef39aa3fd6c71abdc6918a","94.8.141.152","Mozilla/5.0 (Macintosh; Intel Mac OS X 10_15_7) AppleWebKit/537.36 (KHTML, like Gecko) Chrome/133.0.0.0 Safari/537.36","Macintosh","Chrome","133.0.0.0","OS X","10_15_7","https://app.prolific.com/","en-US,en;q=0.9","66703ac57933f5d73067da2d","686d226cabeef709c732f8e1","686e31444cb2b4370a545401","66703ac57933f5d73067da2d","2025-07-09T09:18:21.223Z","","","","","","PreMotivationQ","","","","","","","","","","","","","","","","","","","","","","","","","","","","","","","","","","","","","","50",""
"","","","","ctl-task-cpt","39","571054","0.0-10.0-0.0","142","1","2025-07-09 09:09:14","7701e855f2ef39aa3fd6c71abdc6918a","94.8.141.152","Mozilla/5.0 (Macintosh; Intel Mac OS X 10_15_7) AppleWebKit/537.36 (KHTML, like Gecko) Chrome/133.0.0.0 Safari/537.36","Macintosh","Chrome","133.0.0.0","OS X","10_15_7","https://app.prolific.com/","en-US,en;q=0.9","66703ac57933f5d73067da2d","686d226cabeef709c732f8e1","686e31444cb2b4370a545401","66703ac57933f5d73067da2d","2025-07-09T09:18:46.300Z","","","","","","","","","","","","","","","","win-only","3","g1:SW,g2:NE","1","1","0","547704.7","2563.6","7566.5","22066.6","1","4","8","6","1","1","1","1","0","0.007575757575757576","5002.8","3000","1240","[""down"",""left""]","{""num_key_presses"":4,""num_perfect"":4,""num_errors"":0,""num_randdir"":0,""num_randdir_good_moves"":0,""num_whilered"":0,""num_whileblue"":0,""num_blue"":1,""num_good_moves"":4}","[697.7142857142857,723.5111607142857,0.2,697.7142857142857,723.5111607142857,102.1,697.7142857142857,723.5111607142857,202.6,697.7142857142857,723.5111607142857,302.7,697.7142857142857,723.5111607142857,407.7,697.7142857142857,723.5111607142857,512.5,697.7142857142857,723.5111607142857,618.6,697.7142857142857,723.5111607142857,722.3,697.7142857142857,723.5111607142857,822.3,697.7142857142857,723.5111607142857,926.5,697.7142857142857,723.5111607142857,1027,697.7142857142857,723.5111607142857,1132.7,697.7142857142857,723.5111607142857,1237,697.7142857142857,723.5111607142857,1341.7,697.7142857142857,723.5111607142857,1442.3,697.7142857142857,723.5111607142857,1542.6,697.7142857142857,723.5111607142857,1647.5,697.7142857142857,723.5111607142857,1752.6,697.7142857142857,723.5111607142857,1852.6,697.7142857142857,723.5111607142857,1957,697.7142857142857,723.5111607142857,2057.3,697.7142857142857,723.5111607142857,2162.1,697.7142857142857,723.5111607142857,2267.6,697.7142857142857,723.5111607142857,2372,697.7142857142857,723.5111607142857,2477,697.7142857142857,723.5111607142857,2577.2,697.7142857142857,723.5111607142857,2677.7,697.7142857142857,723.5111607142857,2782.6,697.7142857142857,723.5111607142857,2886.9,697.7142857142857,723.5111607142857,2992.8,697.7142857142857,723.5111607142857,3098.5,697.7142857142857,723.5111607142857,3202.3,697.7142857142857,723.5111607142857,3302.6,697.7142857142857,723.5111607142857,3407.3,697.7142857142857,723.5111607142857,3507.4,697.7142857142857,723.5111607142857,3612.1,697.7142857142857,723.5111607142857,3718,697.7142857142857,723.5111607142857,3821.7,697.7142857142857,723.5111607142857,3922.6,697.7142857142857,723.5111607142857,4027.5,697.7142857142857,723.5111607142857,4132,697.7142857142857,723.5111607142857,4232.6,697.7142857142857,723.5111607142857,4333,697.7142857142857,723.5111607142857,4437.3,697.7142857142857,723.5111607142857,4541.5,697.7142857142857,723.5111607142857,4642.2,697.7142857142857,723.5111607142857,4750.1,697.7142857142857,723.5111607142857,4851.8,697.7142857142857,723.5111607142857,4952.5]","[4964.1,4964.1,2404.7,2004.4,555,""smooth"",""down"",""down"",""good_move"",7565.2,2600.8,2171.2,4964.4,429.6,""smooth"",""down"",""down"",""good_move"",10346.8,2781.5,2367.4,7565.3,414.1,""smooth"",""left"",""left"",""good_move"",14414.4,4067.3,3679.6,10347.1,387.7,""smooth"",""left"",""left"",""good_move""]","","",""
"5068","","<div style=""width:500px;"">
  <p>What determined the result of this run?</p>
  </div>","79","html-slider-response","40","576124","0.0-10.0-1.0","142","1","2025-07-09 09:09:14","7701e855f2ef39aa3fd6c71abdc6918a","94.8.141.152","Mozilla/5.0 (Macintosh; Intel Mac OS X 10_15_7) AppleWebKit/537.36 (KHTML, like Gecko) Chrome/133.0.0.0 Safari/537.36","Macintosh","Chrome","133.0.0.0","OS X","10_15_7","https://app.prolific.com/","en-US,en;q=0.9","66703ac57933f5d73067da2d","686d226cabeef709c732f8e1","686e31444cb2b4370a545401","66703ac57933f5d73067da2d","2025-07-09T09:18:51.370Z","","","","","","AttribQ","","","","","","","","","","","","","","","","","","","","","","","","","","","","","","","","","","","","","","50",""
"4012","","<div style=""width:500px;"">
  <p>How much control did you have over the ball?</p>
  </div>","100","html-slider-response","41","580136","0.0-10.0-2.0","142","1","2025-07-09 09:09:14","7701e855f2ef39aa3fd6c71abdc6918a","94.8.141.152","Mozilla/5.0 (Macintosh; Intel Mac OS X 10_15_7) AppleWebKit/537.36 (KHTML, like Gecko) Chrome/133.0.0.0 Safari/537.36","Macintosh","Chrome","133.0.0.0","OS X","10_15_7","https://app.prolific.com/","en-US,en;q=0.9","66703ac57933f5d73067da2d","686d226cabeef709c732f8e1","686e31444cb2b4370a545401","66703ac57933f5d73067da2d","2025-07-09T09:18:55.383Z","","","","","","ControlQ","","","","","","","","","","","","","","","","","","","","","","","","","","","","","","","","","","","","","","50",""
"3322","","<div style=""width:500px;"">
  <p>How would you describe your current emotional state?</p>
  </div>","57","html-slider-response","42","583459","0.0-10.0-3.0","142","1","2025-07-09 09:09:14","7701e855f2ef39aa3fd6c71abdc6918a","94.8.141.152","Mozilla/5.0 (Macintosh; Intel Mac OS X 10_15_7) AppleWebKit/537.36 (KHTML, like Gecko) Chrome/133.0.0.0 Safari/537.36","Macintosh","Chrome","133.0.0.0","OS X","10_15_7","https://app.prolific.com/","en-US,en;q=0.9","66703ac57933f5d73067da2d","686d226cabeef709c732f8e1","686e31444cb2b4370a545401","66703ac57933f5d73067da2d","2025-07-09T09:18:58.705Z","","","","","","StressQ","","","","","","","","","","","","","","","","","","","","","","","","","","","","","","","","","","","","","","50",""
"18634","","<div style=""width:500px;"">
  <p>What best describes how you currently feel?</p>
  </div>","45","html-slider-response","43","602094","0.0-10.0-4.0","142","1","2025-07-09 09:09:14","7701e855f2ef39aa3fd6c71abdc6918a","94.8.141.152","Mozilla/5.0 (Macintosh; Intel Mac OS X 10_15_7) AppleWebKit/537.36 (KHTML, like Gecko) Chrome/133.0.0.0 Safari/537.36","Macintosh","Chrome","133.0.0.0","OS X","10_15_7","https://app.prolific.com/","en-US,en;q=0.9","66703ac57933f5d73067da2d","686d226cabeef709c732f8e1","686e31444cb2b4370a545401","66703ac57933f5d73067da2d","2025-07-09T09:19:17.341Z","","","","","","MotivationQ","","","","","","","","","","","","","","","","","","","","","","","","","","","","","","","","","","","","","","50",""
"","","","","ctl-task-cpt","44","632625","0.0-10.0-0.1","142","1","2025-07-09 09:09:14","7701e855f2ef39aa3fd6c71abdc6918a","94.8.141.152","Mozilla/5.0 (Macintosh; Intel Mac OS X 10_15_7) AppleWebKit/537.36 (KHTML, like Gecko) Chrome/133.0.0.0 Safari/537.36","Macintosh","Chrome","133.0.0.0","OS X","10_15_7","https://app.prolific.com/","en-US,en;q=0.9","66703ac57933f5d73067da2d","686d226cabeef709c732f8e1","686e31444cb2b4370a545401","66703ac57933f5d73067da2d","2025-07-09T09:19:47.871Z","","","","","","","","","","","","","","","","win-only","2","g1:SE,g2:NW","0.9","2","0","603822.3","1518.3","6521.2","27518.9","1","4","4","6","2","4","4","5","1","0.03787878787878788","1305.6","3000","300","[""left"",""up""]","{""num_key_presses"":8,""num_perfect"":7,""num_errors"":0,""num_randdir"":1,""num_randdir_good_moves"":0,""num_whilered"":0,""num_whileblue"":0,""num_blue"":0,""num_good_moves"":7}","[711.7142857142857,725.5111607142857,0.1,711.7142857142857,725.5111607142857,103.1,711.7142857142857,725.5111607142857,207.2,711.7142857142857,725.5111607142857,312.5,711.7142857142857,725.5111607142857,412.8,711.7142857142857,725.5111607142857,517.4,711.7142857142857,725.5111607142857,622.2,711.7142857142857,725.5111607142857,722.8,289.7142857142857,363.5111607142857,822.8,161.71428571428572,273.5111607142857,922.8,93.71428571428571,127.51116071428571,1028.4,119.71428571428571,139.51116071428572,1133.1,121.71428571428571,139.51116071428572,1238,119.71428571428571,137.51116071428572,1343.3,119.71428571428571,137.51116071428572,1443.6,119.71428571428571,137.51116071428572,1547.8,119.71428571428571,137.51116071428572,1648.1,119.71428571428571,137.51116071428572,1752.1,119.71428571428571,137.51116071428572,1852.6,119.71428571428571,137.51116071428572,1957.2,119.71428571428571,137.51116071428572,2057.4,119.71428571428571,137.51116071428572,2163.3,119.71428571428571,137.51116071428572,2264,119.71428571428571,137.51116071428572,2367.6,119.71428571428571,137.51116071428572,2472.5,119.71428571428571,137.51116071428572,2578.3,119.71428571428571,137.51116071428572,2682.2,119.71428571428571,137.51116071428572,2787.3,119.71428571428571,137.51116071428572,2891.8,119.71428571428571,137.51116071428572,2991.8,119.71428571428571,137.51116071428572,3098,119.71428571428571,137.51116071428572,3198.1,119.71428571428571,137.51116071428572,3302.9,119.71428571428571,137.51116071428572,3410.2,119.71428571428571,137.51116071428572,3512,119.71428571428571,137.51116071428572,3612.6,119.71428571428571,137.51116071428572,3717.3,119.71428571428571,137.51116071428572,3817.7,119.71428571428571,137.51116071428572,3922.5,119.71428571428571,137.51116071428572,4024.9,119.71428571428571,137.51116071428572,4127.5,-160.28571428571428,209.51116071428572,4229.2,-272.2857142857143,241.51116071428572,4329.4,-276.2857142857143,277.5111607142857,4432.5,-276.2857142857143,275.5111607142857,4532.8,-276.2857142857143,275.5111607142857,4637.2,-276.2857142857143,275.5111607142857,4742.1,-276.2857142857143,275.5111607142857,4844.5,-276.2857142857143,275.5111607142857,4947.3]","[1414.1,1414.1,1000,0,414.1,""smooth"",""up"",""up"",""good_move"",4974.4,3560,3197.7,1414.4,362.3,""oops"",""up"",""down"",""bad_move"",8005.5,3030.9,2709.5,4974.6,321.4,""smooth"",""up"",""up"",""good_move"",10641.3,2635.7,2315.4,8005.6,320.3,""smooth"",""up"",""up"",""good_move"",13242.4,2600.9,2222.4,10641.5,378.5,""smooth"",""up"",""up"",""good_move"",15711.7,2469,2115.5,13242.7,353.5,""smooth"",""left"",""left"",""good_move"",18542,2830,2520.5,15712,309.6,""smooth"",""left"",""left"",""good_move"",20907.7,2365.5,2072.9,18542.2,292.6,""smooth"",""left"",""left"",""good_move""]","","",""
"5921","","<div style=""width:500px;"">
  <p>What determined the result of this run?</p>
  </div>","100","html-slider-response","45","638548","0.0-10.0-1.1","142","1","2025-07-09 09:09:14","7701e855f2ef39aa3fd6c71abdc6918a","94.8.141.152","Mozilla/5.0 (Macintosh; Intel Mac OS X 10_15_7) AppleWebKit/537.36 (KHTML, like Gecko) Chrome/133.0.0.0 Safari/537.36","Macintosh","Chrome","133.0.0.0","OS X","10_15_7","https://app.prolific.com/","en-US,en;q=0.9","66703ac57933f5d73067da2d","686d226cabeef709c732f8e1","686e31444cb2b4370a545401","66703ac57933f5d73067da2d","2025-07-09T09:19:53.794Z","","","","","","AttribQ","","","","","","","","","","","","","","","","","","","","","","","","","","","","","","","","","","","","","","50",""
"8713","","<div style=""width:500px;"">
  <p>How much control did you have over the ball?</p>
  </div>","90","html-slider-response","46","647262","0.0-10.0-2.1","142","1","2025-07-09 09:09:14","7701e855f2ef39aa3fd6c71abdc6918a","94.8.141.152","Mozilla/5.0 (Macintosh; Intel Mac OS X 10_15_7) AppleWebKit/537.36 (KHTML, like Gecko) Chrome/133.0.0.0 Safari/537.36","Macintosh","Chrome","133.0.0.0","OS X","10_15_7","https://app.prolific.com/","en-US,en;q=0.9","66703ac57933f5d73067da2d","686d226cabeef709c732f8e1","686e31444cb2b4370a545401","66703ac57933f5d73067da2d","2025-07-09T09:20:02.508Z","","","","","","ControlQ","","","","","","","","","","","","","","","","","","","","","","","","","","","","","","","","","","","","","","50",""
"3893","","<div style=""width:500px;"">
  <p>How would you describe your current emotional state?</p>
  </div>","48","html-slider-response","47","651156","0.0-10.0-3.1","142","1","2025-07-09 09:09:14","7701e855f2ef39aa3fd6c71abdc6918a","94.8.141.152","Mozilla/5.0 (Macintosh; Intel Mac OS X 10_15_7) AppleWebKit/537.36 (KHTML, like Gecko) Chrome/133.0.0.0 Safari/537.36","Macintosh","Chrome","133.0.0.0","OS X","10_15_7","https://app.prolific.com/","en-US,en;q=0.9","66703ac57933f5d73067da2d","686d226cabeef709c732f8e1","686e31444cb2b4370a545401","66703ac57933f5d73067da2d","2025-07-09T09:20:06.402Z","","","","","","StressQ","","","","","","","","","","","","","","","","","","","","","","","","","","","","","","","","","","","","","","50",""
"3715","","<div style=""width:500px;"">
  <p>What best describes how you currently feel?</p>
  </div>","46","html-slider-response","48","654872","0.0-10.0-4.1","142","1","2025-07-09 09:09:14","7701e855f2ef39aa3fd6c71abdc6918a","94.8.141.152","Mozilla/5.0 (Macintosh; Intel Mac OS X 10_15_7) AppleWebKit/537.36 (KHTML, like Gecko) Chrome/133.0.0.0 Safari/537.36","Macintosh","Chrome","133.0.0.0","OS X","10_15_7","https://app.prolific.com/","en-US,en;q=0.9","66703ac57933f5d73067da2d","686d226cabeef709c732f8e1","686e31444cb2b4370a545401","66703ac57933f5d73067da2d","2025-07-09T09:20:10.118Z","","","","","","MotivationQ","","","","","","","","","","","","","","","","","","","","","","","","","","","","","","","","","","","","","","50",""
"","","","","ctl-task-cpt","49","688039","0.0-10.0-0.2","142","1","2025-07-09 09:09:14","7701e855f2ef39aa3fd6c71abdc6918a","94.8.141.152","Mozilla/5.0 (Macintosh; Intel Mac OS X 10_15_7) AppleWebKit/537.36 (KHTML, like Gecko) Chrome/133.0.0.0 Safari/537.36","Macintosh","Chrome","133.0.0.0","OS X","10_15_7","https://app.prolific.com/","en-US,en;q=0.9","66703ac57933f5d73067da2d","686d226cabeef709c732f8e1","686e31444cb2b4370a545401","66703ac57933f5d73067da2d","2025-07-09T09:20:43.285Z","","","","","","","","","","","","","","","","win-only","3","g1:SW,g2:NE","0.8","3","0","656599.3","1134.3","6138.3","30156.1","1","4","8","6","2","8","8","13","5","0.09848484848484848","1061.2","3000","205","[""up"",""right""]","{""num_key_presses"":8,""num_perfect"":7,""num_errors"":0,""num_randdir"":1,""num_randdir_good_moves"":0,""num_whilered"":0,""num_whileblue"":0,""num_blue"":1,""num_good_moves"":7}","[705.7142857142857,719.5111607142857,0.1,705.7142857142857,719.5111607142857,101.5,705.7142857142857,719.5111607142857,204.9,705.7142857142857,719.5111607142857,306.5,705.7142857142857,719.5111607142857,411.1,705.7142857142857,719.5111607142857,514.1,907.7142857142857,597.5111607142857,617.7,1147.7142857142858,435.5111607142857,720.8,1205.7142857142858,227.51116071428572,821,1259.7142857142858,127.51116071428571,921.6,1327.7142857142858,27.511160714285708,1021.9,1331.7142857142858,19.511160714285708,1127.1,1331.7142857142858,19.511160714285708,1231.2,1331.7142857142858,19.511160714285708,1331.6,1331.7142857142858,19.511160714285708,1433.4,1331.7142857142858,19.511160714285708,1534.6,1331.7142857142858,19.511160714285708,1636,1331.7142857142858,19.511160714285708,1736.4,1331.7142857142858,19.511160714285708,1838.9,1331.7142857142858,19.511160714285708,1941.5,1331.7142857142858,19.511160714285708,2045.7,1331.7142857142858,19.511160714285708,2146.2,1331.7142857142858,19.511160714285708,2246.8,1349.7142857142858,19.511160714285708,2350.3,1535.7142857142858,97.51116071428571,2454.1,1889.7142857142858,207.51116071428572,2556.8,1923.7142857142858,201.51116071428572,2661.9,1923.7142857142858,201.51116071428572,2762.1,1923.7142857142858,201.51116071428572,2862.1,1923.7142857142858,201.51116071428572,2967.6,1923.7142857142858,201.51116071428572,3070.9,1923.7142857142858,201.51116071428572,3171.5,1923.7142857142858,201.51116071428572,3276.7,1923.7142857142858,201.51116071428572,3381.1,1923.7142857142858,201.51116071428572,3484.2,1923.7142857142858,201.51116071428572,3588.2,1923.7142857142858,201.51116071428572,3691.5,1923.7142857142858,201.51116071428572,3791.6,1923.7142857142858,201.51116071428572,3896.5,1923.7142857142858,201.51116071428572,4003.5,1923.7142857142858,201.51116071428572,4108.3,1923.7142857142858,201.51116071428572,4211.7,1923.7142857142858,201.51116071428572,4311.7,1923.7142857142858,201.51116071428572,4417.5,1923.7142857142858,201.51116071428572,4521.6,1923.7142857142858,201.51116071428572,4626,1923.7142857142858,201.51116071428572,4726.7,1923.7142857142858,201.51116071428572,4831.3,1923.7142857142858,201.51116071428572,4931.5]","[1354.9,1354.9,1000,0,354.9,""smooth"",""up"",""up"",""good_move"",7535.6,6180.4,2463.9,4727.5,344.2,""smooth"",""up"",""up"",""good_move"",10429.9,2894.1,2525.6,7535.8,368.5,""oops"",""up"",""left"",""bad_move"",13271.2,2841,2511.8,10430.2,329.2,""smooth"",""up"",""up"",""good_move"",15613.5,2342.2,1972.5,13271.3,369.7,""smooth"",""right"",""right"",""good_move"",18911.5,3297.6,2883.9,15613.9,413.7,""smooth"",""right"",""right"",""good_move"",21717.7,2806.1,2491.2,18911.6,314.9,""smooth"",""right"",""right"",""good_move"",23932.2,2214.4,1855.7,21717.8,358.7,""smooth"",""right"",""right"",""good_move""]","","",""
"4199","","<div style=""width:500px;"">
  <p>What determined the result of this run?</p>
  </div>","96","html-slider-response","50","692239","0.0-10.0-1.2","142","1","2025-07-09 09:09:14","7701e855f2ef39aa3fd6c71abdc6918a","94.8.141.152","Mozilla/5.0 (Macintosh; Intel Mac OS X 10_15_7) AppleWebKit/537.36 (KHTML, like Gecko) Chrome/133.0.0.0 Safari/537.36","Macintosh","Chrome","133.0.0.0","OS X","10_15_7","https://app.prolific.com/","en-US,en;q=0.9","66703ac57933f5d73067da2d","686d226cabeef709c732f8e1","686e31444cb2b4370a545401","66703ac57933f5d73067da2d","2025-07-09T09:20:47.485Z","","","","","","AttribQ","","","","","","","","","","","","","","","","","","","","","","","","","","","","","","","","","","","","","","50",""
"5436","","<div style=""width:500px;"">
  <p>How much control did you have over the ball?</p>
  </div>","93","html-slider-response","51","697676","0.0-10.0-2.2","142","1","2025-07-09 09:09:14","7701e855f2ef39aa3fd6c71abdc6918a","94.8.141.152","Mozilla/5.0 (Macintosh; Intel Mac OS X 10_15_7) AppleWebKit/537.36 (KHTML, like Gecko) Chrome/133.0.0.0 Safari/537.36","Macintosh","Chrome","133.0.0.0","OS X","10_15_7","https://app.prolific.com/","en-US,en;q=0.9","66703ac57933f5d73067da2d","686d226cabeef709c732f8e1","686e31444cb2b4370a545401","66703ac57933f5d73067da2d","2025-07-09T09:20:52.922Z","","","","","","ControlQ","","","","","","","","","","","","","","","","","","","","","","","","","","","","","","","","","","","","","","50",""
"3322","","<div style=""width:500px;"">
  <p>How would you describe your current emotional state?</p>
  </div>","47","html-slider-response","52","700998","0.0-10.0-3.2","142","1","2025-07-09 09:09:14","7701e855f2ef39aa3fd6c71abdc6918a","94.8.141.152","Mozilla/5.0 (Macintosh; Intel Mac OS X 10_15_7) AppleWebKit/537.36 (KHTML, like Gecko) Chrome/133.0.0.0 Safari/537.36","Macintosh","Chrome","133.0.0.0","OS X","10_15_7","https://app.prolific.com/","en-US,en;q=0.9","66703ac57933f5d73067da2d","686d226cabeef709c732f8e1","686e31444cb2b4370a545401","66703ac57933f5d73067da2d","2025-07-09T09:20:56.244Z","","","","","","StressQ","","","","","","","","","","","","","","","","","","","","","","","","","","","","","","","","","","","","","","50",""
"2099","","<div style=""width:500px;"">
  <p>What best describes how you currently feel?</p>
  </div>","56","html-slider-response","53","703098","0.0-10.0-4.2","142","1","2025-07-09 09:09:14","7701e855f2ef39aa3fd6c71abdc6918a","94.8.141.152","Mozilla/5.0 (Macintosh; Intel Mac OS X 10_15_7) AppleWebKit/537.36 (KHTML, like Gecko) Chrome/133.0.0.0 Safari/537.36","Macintosh","Chrome","133.0.0.0","OS X","10_15_7","https://app.prolific.com/","en-US,en;q=0.9","66703ac57933f5d73067da2d","686d226cabeef709c732f8e1","686e31444cb2b4370a545401","66703ac57933f5d73067da2d","2025-07-09T09:20:58.344Z","","","","","","MotivationQ","","","","","","","","","","","","","","","","","","","","","","","","","","","","","","","","","","","","","","50",""
"","","","","ctl-task-cpt","54","740513","0.0-10.0-0.3","142","1","2025-07-09 09:09:14","7701e855f2ef39aa3fd6c71abdc6918a","94.8.141.152","Mozilla/5.0 (Macintosh; Intel Mac OS X 10_15_7) AppleWebKit/537.36 (KHTML, like Gecko) Chrome/133.0.0.0 Safari/537.36","Macintosh","Chrome","133.0.0.0","OS X","10_15_7","https://app.prolific.com/","en-US,en;q=0.9","66703ac57933f5d73067da2d","686d226cabeef709c732f8e1","686e31444cb2b4370a545401","66703ac57933f5d73067da2d","2025-07-09T09:21:35.759Z","","","","","","","","","","","","","","","","win-only","3","g1:SW,g2:NE","0.7","4","0","704825.1","3091.4","8093.8","34410.7","1","4","4","6","2","-4","-4","9","13","0.06818181818181818","1198","3000","-2985","[""up"",""right""]","{""num_key_presses"":9,""num_perfect"":6,""num_errors"":0,""num_randdir"":3,""num_randdir_good_moves"":1,""num_whilered"":0,""num_whileblue"":0,""num_blue"":0,""num_good_moves"":7}","[707.7142857142857,693.5111607142857,0.1,707.7142857142857,693.5111607142857,104.3,707.7142857142857,693.5111607142857,204.6,707.7142857142857,693.5111607142857,308.9,707.7142857142857,693.5111607142857,409.3,707.7142857142857,693.5111607142857,515.5,943.7142857142857,219.51116071428572,616.6,1261.7142857142858,-128.48883928571428,719.1,1261.7142857142858,-132.48883928571428,821.1,1255.7142857142858,-44.48883928571429,922.2,1265.7142857142858,13.511160714285708,1024.4,1285.7142857142858,49.51116071428571,1129.1,1291.7142857142858,59.51116071428571,1229.5,1291.7142857142858,59.51116071428571,1337.8,1291.7142857142858,59.51116071428571,1439.1,1291.7142857142858,59.51116071428571,1539.2,1291.7142857142858,59.51116071428571,1644.6,1291.7142857142858,59.51116071428571,1744.7,1291.7142857142858,59.51116071428571,1851.7,1291.7142857142858,59.51116071428571,1954.6,1291.7142857142858,59.51116071428571,2059.3,1291.7142857142858,59.51116071428571,2159.7,1291.7142857142858,59.51116071428571,2266.4,1291.7142857142858,59.51116071428571,2366.9,1291.7142857142858,59.51116071428571,2468.8,1291.7142857142858,59.51116071428571,2574.6,1291.7142857142858,59.51116071428571,2674.9,1291.7142857142858,59.51116071428571,2779,1291.7142857142858,59.51116071428571,2880,1291.7142857142858,59.51116071428571,2986.8,1291.7142857142858,59.51116071428571,3089.6,1291.7142857142858,59.51116071428571,3194.6,1291.7142857142858,59.51116071428571,3301.6,1291.7142857142858,59.51116071428571,3401.7,1291.7142857142858,59.51116071428571,3503.9,1291.7142857142858,59.51116071428571,3604.9,1291.7142857142858,59.51116071428571,3708.7,1291.7142857142858,59.51116071428571,3809.7,1291.7142857142858,59.51116071428571,3916.7,1291.7142857142858,59.51116071428571,4017,1291.7142857142858,59.51116071428571,4119,1291.7142857142858,59.51116071428571,4223.4,1291.7142857142858,59.51116071428571,4324.6,1291.7142857142858,59.51116071428571,4424.6,1291.7142857142858,59.51116071428571,4524.6,1291.7142857142858,59.51116071428571,4633.2,1291.7142857142858,59.51116071428571,4737.1,1291.7142857142858,59.51116071428571,4839.8,1291.7142857142858,59.51116071428571,4944.4]","[1398.8,1398.8,1000,0,398.8,""oops"",""up"",""down"",""bad_move"",4668,3269,2943.4,1399,325.6,""smooth"",""up"",""up"",""good_move"",7077.2,2409,2040.8,4668.2,368.2,""smooth"",""up"",""up"",""good_move"",9550.7,2473.4,2180.7,7077.3,292.7,""smooth"",""up"",""up"",""good_move"",12102.7,2552,2236.2,9550.7,315.8,""smooth"",""up"",""up"",""good_move"",14979.8,2877,2582.4,12102.9,294.5,""oops"",""right"",""right"",""good_move"",17548.2,2568.2,2214.6,14980,353.6,""oops"",""right"",""down"",""bad_move"",20317.3,2768.9,2439,17548.4,329.9,""smooth"",""right"",""right"",""good_move"",23818.4,3501.1,3152.4,20317.3,348.7,""smooth"",""up"",""up"",""good_move""]","","",""
"4080","","<div style=""width:500px;"">
  <p>What determined the result of this run?</p>
  </div>","23","html-slider-response","55","744594","0.0-10.0-1.3","142","1","2025-07-09 09:09:14","7701e855f2ef39aa3fd6c71abdc6918a","94.8.141.152","Mozilla/5.0 (Macintosh; Intel Mac OS X 10_15_7) AppleWebKit/537.36 (KHTML, like Gecko) Chrome/133.0.0.0 Safari/537.36","Macintosh","Chrome","133.0.0.0","OS X","10_15_7","https://app.prolific.com/","en-US,en;q=0.9","66703ac57933f5d73067da2d","686d226cabeef709c732f8e1","686e31444cb2b4370a545401","66703ac57933f5d73067da2d","2025-07-09T09:21:39.840Z","","","","","","AttribQ","","","","","","","","","","","","","","","","","","","","","","","","","","","","","","","","","","","","","","50",""
"3194","","<div style=""width:500px;"">
  <p>How much control did you have over the ball?</p>
  </div>","66","html-slider-response","56","747789","0.0-10.0-2.3","142","1","2025-07-09 09:09:14","7701e855f2ef39aa3fd6c71abdc6918a","94.8.141.152","Mozilla/5.0 (Macintosh; Intel Mac OS X 10_15_7) AppleWebKit/537.36 (KHTML, like Gecko) Chrome/133.0.0.0 Safari/537.36","Macintosh","Chrome","133.0.0.0","OS X","10_15_7","https://app.prolific.com/","en-US,en;q=0.9","66703ac57933f5d73067da2d","686d226cabeef709c732f8e1","686e31444cb2b4370a545401","66703ac57933f5d73067da2d","2025-07-09T09:21:43.035Z","","","","","","ControlQ","","","","","","","","","","","","","","","","","","","","","","","","","","","","","","","","","","","","","","50",""
"2638","","<div style=""width:500px;"">
  <p>How would you describe your current emotional state?</p>
  </div>","53","html-slider-response","57","750428","0.0-10.0-3.3","142","1","2025-07-09 09:09:14","7701e855f2ef39aa3fd6c71abdc6918a","94.8.141.152","Mozilla/5.0 (Macintosh; Intel Mac OS X 10_15_7) AppleWebKit/537.36 (KHTML, like Gecko) Chrome/133.0.0.0 Safari/537.36","Macintosh","Chrome","133.0.0.0","OS X","10_15_7","https://app.prolific.com/","en-US,en;q=0.9","66703ac57933f5d73067da2d","686d226cabeef709c732f8e1","686e31444cb2b4370a545401","66703ac57933f5d73067da2d","2025-07-09T09:21:45.674Z","","","","","","StressQ","","","","","","","","","","","","","","","","","","","","","","","","","","","","","","","","","","","","","","50",""
"10426","","<div style=""width:500px;"">
  <p>What best describes how you currently feel?</p>
  </div>","63","html-slider-response","58","760855","0.0-10.0-4.3","142","1","2025-07-09 09:09:14","7701e855f2ef39aa3fd6c71abdc6918a","94.8.141.152","Mozilla/5.0 (Macintosh; Intel Mac OS X 10_15_7) AppleWebKit/537.36 (KHTML, like Gecko) Chrome/133.0.0.0 Safari/537.36","Macintosh","Chrome","133.0.0.0","OS X","10_15_7","https://app.prolific.com/","en-US,en;q=0.9","66703ac57933f5d73067da2d","686d226cabeef709c732f8e1","686e31444cb2b4370a545401","66703ac57933f5d73067da2d","2025-07-09T09:21:56.101Z","","","","","","MotivationQ","","","","","","","","","","","","","","","","","","","","","","","","","","","","","","","","","","","","","","50",""
"","","","","ctl-task-cpt","59","801796","0.0-10.0-0.4","142","1","2025-07-09 09:09:14","7701e855f2ef39aa3fd6c71abdc6918a","94.8.141.152","Mozilla/5.0 (Macintosh; Intel Mac OS X 10_15_7) AppleWebKit/537.36 (KHTML, like Gecko) Chrome/133.0.0.0 Safari/537.36","Macintosh","Chrome","133.0.0.0","OS X","10_15_7","https://app.prolific.com/","en-US,en;q=0.9","66703ac57933f5d73067da2d","686d226cabeef709c732f8e1","686e31444cb2b4370a545401","66703ac57933f5d73067da2d","2025-07-09T09:22:37.042Z","","","","","","","","","","","","","","","","win-only","3","g1:SW,g2:NE","0.6","5","0","762581.4","1055.7","6056.3","37930.6","1","4","8","6","2","-8","-9","0","9","0","684.2","3000","-2990","[""up"",""right""]","{""num_key_presses"":9,""num_perfect"":5,""num_errors"":1,""num_randdir"":3,""num_randdir_good_moves"":1,""num_whilered"":0,""num_whileblue"":1,""num_blue"":2,""num_good_moves"":6}","[709.7142857142857,717.5111607142857,0,707.7142857142857,717.5111607142857,100.3,707.7142857142857,717.5111607142857,205.5,707.7142857142857,717.5111607142857,311.6,1267.7142857142858,327.5111607142857,414.4,1343.7142857142858,187.51116071428572,515.6,1323.7142857142858,169.51116071428572,620,1325.7142857142858,153.51116071428572,720.4,1325.7142857142858,153.51116071428572,825.3,1325.7142857142858,153.51116071428572,925.6,1325.7142857142858,153.51116071428572,1030.3,1325.7142857142858,153.51116071428572,1132.5,1325.7142857142858,153.51116071428572,1235,1325.7142857142858,153.51116071428572,1339.6,1325.7142857142858,153.51116071428572,1439.6,1325.7142857142858,153.51116071428572,1540,1325.7142857142858,153.51116071428572,1644.6,1325.7142857142858,153.51116071428572,1744.8,1325.7142857142858,153.51116071428572,1846.5,1325.7142857142858,153.51116071428572,1946.6,1325.7142857142858,153.51116071428572,2049.9,1325.7142857142858,153.51116071428572,2150.5,1325.7142857142858,153.51116071428572,2254.6,1325.7142857142858,153.51116071428572,2355.5,1325.7142857142858,153.51116071428572,2459.5,1325.7142857142858,153.51116071428572,2560.3,1325.7142857142858,153.51116071428572,2660.6,1325.7142857142858,153.51116071428572,2762.2,1325.7142857142858,153.51116071428572,2864.8,1325.7142857142858,153.51116071428572,2965.4,1325.7142857142858,153.51116071428572,3069.6,1325.7142857142858,153.51116071428572,3170.3,1325.7142857142858,153.51116071428572,3274.5,1325.7142857142858,153.51116071428572,3375.4,1325.7142857142858,153.51116071428572,3480.3,1325.7142857142858,153.51116071428572,3580.4,1325.7142857142858,153.51116071428572,3685.1,1325.7142857142858,153.51116071428572,3789.5,1325.7142857142858,153.51116071428572,3890,1325.7142857142858,153.51116071428572,3999.4,1325.7142857142858,153.51116071428572,4102.7,1325.7142857142858,153.51116071428572,4204.7,1325.7142857142858,153.51116071428572,4305.2,1325.7142857142858,153.51116071428572,4405.3,1325.7142857142858,153.51116071428572,4510.3,1325.7142857142858,153.51116071428572,4613.1,1325.7142857142858,153.51116071428572,4716.3,1325.7142857142858,153.51116071428572,4819.8,1325.7142857142858,153.51116071428572,4920.2]","[1370.1,1370.1,1000,0,370.1,""oops"",""up"",""up"",""good_move"",4277,2906.7,2541.8,1370.3,364.9,""oops"",""up"",""down"",""bad_move"",7219,2941.8,2613.3,4277.2,328.5,""oops"",""up"",""left"",""bad_move"",9967.9,2748.8,2372.9,7219.2,375.9,""smooth"",""up"",""up"",""good_move"",12808.3,2840.2,2491.6,9968.1,348.6,""smooth"",""up"",""up"",""good_move"",16480.4,3672.1,3330.7,12808.3,341.4,""while_blue"",""up"",""down"",""bad_move"",23036.2,6555.5,2755.6,19885.6,395,""smooth"",""up"",""up"",""good_move"",26110.4,3074,2764.8,23036.4,309.2,""smooth"",""up"",""up"",""good_move"",29240,3129.5,2787.4,26110.5,342.1,""smooth"",""right"",""right"",""good_move""]","","",""
"5470","","<div style=""width:500px;"">
  <p>What determined the result of this run?</p>
  </div>","24","html-slider-response","60","807267","0.0-10.0-1.4","142","1","2025-07-09 09:09:14","7701e855f2ef39aa3fd6c71abdc6918a","94.8.141.152","Mozilla/5.0 (Macintosh; Intel Mac OS X 10_15_7) AppleWebKit/537.36 (KHTML, like Gecko) Chrome/133.0.0.0 Safari/537.36","Macintosh","Chrome","133.0.0.0","OS X","10_15_7","https://app.prolific.com/","en-US,en;q=0.9","66703ac57933f5d73067da2d","686d226cabeef709c732f8e1","686e31444cb2b4370a545401","66703ac57933f5d73067da2d","2025-07-09T09:22:42.513Z","","","","","","AttribQ","","","","","","","","","","","","","","","","","","","","","","","","","","","","","","","","","","","","","","50",""
"3112","","<div style=""width:500px;"">
  <p>How much control did you have over the ball?</p>
  </div>","22","html-slider-response","61","810380","0.0-10.0-2.4","142","1","2025-07-09 09:09:14","7701e855f2ef39aa3fd6c71abdc6918a","94.8.141.152","Mozilla/5.0 (Macintosh; Intel Mac OS X 10_15_7) AppleWebKit/537.36 (KHTML, like Gecko) Chrome/133.0.0.0 Safari/537.36","Macintosh","Chrome","133.0.0.0","OS X","10_15_7","https://app.prolific.com/","en-US,en;q=0.9","66703ac57933f5d73067da2d","686d226cabeef709c732f8e1","686e31444cb2b4370a545401","66703ac57933f5d73067da2d","2025-07-09T09:22:45.626Z","","","","","","ControlQ","","","","","","","","","","","","","","","","","","","","","","","","","","","","","","","","","","","","","","50",""
"3299","","<div style=""width:500px;"">
  <p>How would you describe your current emotional state?</p>
  </div>","57","html-slider-response","62","813680","0.0-10.0-3.4","142","1","2025-07-09 09:09:14","7701e855f2ef39aa3fd6c71abdc6918a","94.8.141.152","Mozilla/5.0 (Macintosh; Intel Mac OS X 10_15_7) AppleWebKit/537.36 (KHTML, like Gecko) Chrome/133.0.0.0 Safari/537.36","Macintosh","Chrome","133.0.0.0","OS X","10_15_7","https://app.prolific.com/","en-US,en;q=0.9","66703ac57933f5d73067da2d","686d226cabeef709c732f8e1","686e31444cb2b4370a545401","66703ac57933f5d73067da2d","2025-07-09T09:22:48.926Z","","","","","","StressQ","","","","","","","","","","","","","","","","","","","","","","","","","","","","","","","","","","","","","","50",""
"2606","","<div style=""width:500px;"">
  <p>What best describes how you currently feel?</p>
  </div>","75","html-slider-response","63","816286","0.0-10.0-4.4","142","1","2025-07-09 09:09:14","7701e855f2ef39aa3fd6c71abdc6918a","94.8.141.152","Mozilla/5.0 (Macintosh; Intel Mac OS X 10_15_7) AppleWebKit/537.36 (KHTML, like Gecko) Chrome/133.0.0.0 Safari/537.36","Macintosh","Chrome","133.0.0.0","OS X","10_15_7","https://app.prolific.com/","en-US,en;q=0.9","66703ac57933f5d73067da2d","686d226cabeef709c732f8e1","686e31444cb2b4370a545401","66703ac57933f5d73067da2d","2025-07-09T09:22:51.532Z","","","","","","MotivationQ","","","","","","","","","","","","","","","","","","","","","","","","","","","","","","","","","","","","","","50",""
"","","","","ctl-task-cpt","64","868112","0.0-10.0-0.5","142","1","2025-07-09 09:09:14","7701e855f2ef39aa3fd6c71abdc6918a","94.8.141.152","Mozilla/5.0 (Macintosh; Intel Mac OS X 10_15_7) AppleWebKit/537.36 (KHTML, like Gecko) Chrome/133.0.0.0 Safari/537.36","Macintosh","Chrome","133.0.0.0","OS X","10_15_7","https://app.prolific.com/","en-US,en;q=0.9","66703ac57933f5d73067da2d","686d226cabeef709c732f8e1","686e31444cb2b4370a545401","66703ac57933f5d73067da2d","2025-07-09T09:23:43.358Z","","","","","","","","","","","","","","","","win-only","0","g1:NW,g2:SE","0.5","6","0","818013.1","1599.6","6604.4","48815.5","1","4","4","6","2","-4","-5","0","0","0","1022.3","3000","-2995","[""down"",""right""]","{""num_key_presses"":8,""num_perfect"":4,""num_errors"":1,""num_randdir"":3,""num_randdir_good_moves"":0,""num_whilered"":0,""num_whileblue"":1,""num_blue"":6,""num_good_moves"":4}","[691.7142857142857,705.5111607142857,0.2,693.7142857142857,705.5111607142857,103.8,693.7142857142857,705.5111607142857,206.3,693.7142857142857,705.5111607142857,310.6,707.7142857142857,693.5111607142857,411,715.7142857142857,685.5111607142857,511.1,735.7142857142857,689.5111607142857,611.3,1415.7142857142858,1475.5111607142858,711.4,1313.7142857142858,1401.5111607142858,815.9,1259.7142857142858,1351.5111607142858,921,1259.7142857142858,1277.5111607142858,1023.6,1259.7142857142858,1277.5111607142858,1126.9,1259.7142857142858,1277.5111607142858,1231.5,1259.7142857142858,1277.5111607142858,1337.5,1259.7142857142858,1277.5111607142858,1440.7,1259.7142857142858,1277.5111607142858,1541.6,1259.7142857142858,1277.5111607142858,1646.1,1259.7142857142858,1277.5111607142858,1750.8,1259.7142857142858,1277.5111607142858,1851.6,1259.7142857142858,1277.5111607142858,1953.8,1259.7142857142858,1277.5111607142858,2060,1259.7142857142858,1277.5111607142858,2160.5,1259.7142857142858,1277.5111607142858,2261.3,1259.7142857142858,1277.5111607142858,2365.7,1259.7142857142858,1277.5111607142858,2466.4,1259.7142857142858,1277.5111607142858,2571.1,1259.7142857142858,1277.5111607142858,2675.8,1259.7142857142858,1277.5111607142858,2781.6,1259.7142857142858,1277.5111607142858,2886.5,1259.7142857142858,1277.5111607142858,2988.3,1259.7142857142858,1277.5111607142858,3090.9,1259.7142857142858,1277.5111607142858,3190.9,1259.7142857142858,1277.5111607142858,3295.8,1259.7142857142858,1277.5111607142858,3396.5,1259.7142857142858,1277.5111607142858,3501.5,1259.7142857142858,1277.5111607142858,3602.3,1259.7142857142858,1277.5111607142858,3704.1,1259.7142857142858,1277.5111607142858,3807.8,1259.7142857142858,1277.5111607142858,3910.8,1259.7142857142858,1277.5111607142858,4016.1,1259.7142857142858,1277.5111607142858,4121,1259.7142857142858,1277.5111607142858,4224.3,1259.7142857142858,1277.5111607142858,4325.1,1259.7142857142858,1277.5111607142858,4426.3,1259.7142857142858,1277.5111607142858,4530.7,1259.7142857142858,1277.5111607142858,4631.7,1259.7142857142858,1277.5111607142858,4738,1259.7142857142858,1277.5111607142858,4838.8,1259.7142857142858,1277.5111607142858,4941.1]","[4545.3,4545.3,2182.6,2006.1,356.6,""smooth"",""down"",""down"",""good_move"",7666.1,3120.6,2745.8,4545.5,374.8,""oops"",""down"",""left"",""bad_move"",14702.2,7036,2518.2,11826.9,357.1,""oops"",""down"",""up"",""bad_move"",24656.4,9953.9,2622.4,21711.1,322.9,""smooth"",""down"",""down"",""good_move"",27417.6,2761,2385.3,24656.6,375.7,""oops"",""down"",""up"",""bad_move"",30017.8,2600,2022.5,27417.8,577.5,""smooth"",""down"",""down"",""good_move"",33011.4,2993.5,2638.8,30017.9,354.7,""smooth"",""down"",""down"",""good_move"",39160.9,6149.5,3027.5,35821.7,311.8,""while_blue"",""down"",""left"",""bad_move""]","","",""
"2924","","<div style=""width:500px;"">
  <p>What determined the result of this run?</p>
  </div>","29","html-slider-response","65","871036","0.0-10.0-1.5","142","1","2025-07-09 09:09:14","7701e855f2ef39aa3fd6c71abdc6918a","94.8.141.152","Mozilla/5.0 (Macintosh; Intel Mac OS X 10_15_7) AppleWebKit/537.36 (KHTML, like Gecko) Chrome/133.0.0.0 Safari/537.36","Macintosh","Chrome","133.0.0.0","OS X","10_15_7","https://app.prolific.com/","en-US,en;q=0.9","66703ac57933f5d73067da2d","686d226cabeef709c732f8e1","686e31444cb2b4370a545401","66703ac57933f5d73067da2d","2025-07-09T09:23:46.282Z","","","","","","AttribQ","","","","","","","","","","","","","","","","","","","","","","","","","","","","","","","","","","","","","","50",""
"2928","","<div style=""width:500px;"">
  <p>How much control did you have over the ball?</p>
  </div>","21","html-slider-response","66","873964","0.0-10.0-2.5","142","1","2025-07-09 09:09:14","7701e855f2ef39aa3fd6c71abdc6918a","94.8.141.152","Mozilla/5.0 (Macintosh; Intel Mac OS X 10_15_7) AppleWebKit/537.36 (KHTML, like Gecko) Chrome/133.0.0.0 Safari/537.36","Macintosh","Chrome","133.0.0.0","OS X","10_15_7","https://app.prolific.com/","en-US,en;q=0.9","66703ac57933f5d73067da2d","686d226cabeef709c732f8e1","686e31444cb2b4370a545401","66703ac57933f5d73067da2d","2025-07-09T09:23:49.210Z","","","","","","ControlQ","","","","","","","","","","","","","","","","","","","","","","","","","","","","","","","","","","","","","","50",""
"3973","","<div style=""width:500px;"">
  <p>How would you describe your current emotional state?</p>
  </div>","39","html-slider-response","67","877938","0.0-10.0-3.5","142","1","2025-07-09 09:09:14","7701e855f2ef39aa3fd6c71abdc6918a","94.8.141.152","Mozilla/5.0 (Macintosh; Intel Mac OS X 10_15_7) AppleWebKit/537.36 (KHTML, like Gecko) Chrome/133.0.0.0 Safari/537.36","Macintosh","Chrome","133.0.0.0","OS X","10_15_7","https://app.prolific.com/","en-US,en;q=0.9","66703ac57933f5d73067da2d","686d226cabeef709c732f8e1","686e31444cb2b4370a545401","66703ac57933f5d73067da2d","2025-07-09T09:23:53.184Z","","","","","","StressQ","","","","","","","","","","","","","","","","","","","","","","","","","","","","","","","","","","","","","","50",""
"2099","","<div style=""width:500px;"">
  <p>What best describes how you currently feel?</p>
  </div>","82","html-slider-response","68","880038","0.0-10.0-4.5","142","1","2025-07-09 09:09:14","7701e855f2ef39aa3fd6c71abdc6918a","94.8.141.152","Mozilla/5.0 (Macintosh; Intel Mac OS X 10_15_7) AppleWebKit/537.36 (KHTML, like Gecko) Chrome/133.0.0.0 Safari/537.36","Macintosh","Chrome","133.0.0.0","OS X","10_15_7","https://app.prolific.com/","en-US,en;q=0.9","66703ac57933f5d73067da2d","686d226cabeef709c732f8e1","686e31444cb2b4370a545401","66703ac57933f5d73067da2d","2025-07-09T09:23:55.284Z","","","","","","MotivationQ","","","","","","","","","","","","","","","","","","","","","","","","","","","","","","","","","","","","","","50",""
"","","","","ctl-task-cpt","69","928818","0.0-10.0-0.6","142","1","2025-07-09 09:09:14","7701e855f2ef39aa3fd6c71abdc6918a","94.8.141.152","Mozilla/5.0 (Macintosh; Intel Mac OS X 10_15_7) AppleWebKit/537.36 (KHTML, like Gecko) Chrome/133.0.0.0 Safari/537.36","Macintosh","Chrome","133.0.0.0","OS X","10_15_7","https://app.prolific.com/","en-US,en;q=0.9","66703ac57933f5d73067da2d","686d226cabeef709c732f8e1","686e31444cb2b4370a545401","66703ac57933f5d73067da2d","2025-07-09T09:24:44.064Z","","","","","","","","","","","","","","","","win-only","0","g1:NW,g2:SE","0.4","7","0","881764.2","863.4","5865.6","45770.6","1","4","4","6","2","-4","-4","0","0","0","816.9","3000","-2990","[""down"",""right""]","{""num_key_presses"":7,""num_perfect"":3,""num_errors"":0,""num_randdir"":4,""num_randdir_good_moves"":1,""num_whilered"":0,""num_whileblue"":0,""num_blue"":5,""num_good_moves"":4}","[713.7142857142857,697.5111607142857,0.1,713.7142857142857,697.5111607142857,102.5,713.7142857142857,697.5111607142857,207.7,713.7142857142857,695.5111607142857,311.3,737.7142857142857,601.5111607142857,412.3,1049.7142857142858,1005.5111607142857,517,1453.7142857142858,1411.5111607142858,617,1281.7142857142858,1299.5111607142858,722.2,1255.7142857142858,1267.5111607142858,827.5,1255.7142857142858,1267.5111607142858,932.7,1255.7142857142858,1267.5111607142858,1032.9,1255.7142857142858,1267.5111607142858,1137.4,1255.7142857142858,1267.5111607142858,1242.7,1255.7142857142858,1267.5111607142858,1347,1255.7142857142858,1267.5111607142858,1447,1255.7142857142858,1267.5111607142858,1547,1255.7142857142858,1267.5111607142858,1647.4,1255.7142857142858,1267.5111607142858,1752.3,1255.7142857142858,1267.5111607142858,1852.5,1255.7142857142858,1267.5111607142858,1962.4,1255.7142857142858,1267.5111607142858,2067.4,1255.7142857142858,1267.5111607142858,2172.8,1255.7142857142858,1267.5111607142858,2276.8,1255.7142857142858,1267.5111607142858,2381.9,1255.7142857142858,1267.5111607142858,2482.6,1255.7142857142858,1267.5111607142858,2587.2,1255.7142857142858,1267.5111607142858,2692.1,1255.7142857142858,1267.5111607142858,2792.4,1255.7142857142858,1267.5111607142858,2897,1255.7142857142858,1267.5111607142858,2997.1,1255.7142857142858,1267.5111607142858,3097.3,1255.7142857142858,1267.5111607142858,3202,1255.7142857142858,1267.5111607142858,3302.1,1255.7142857142858,1267.5111607142858,3406.9,1255.7142857142858,1267.5111607142858,3507.5,1255.7142857142858,1267.5111607142858,3611.4,1255.7142857142858,1267.5111607142858,3711.5,1255.7142857142858,1267.5111607142858,3812.8,1255.7142857142858,1267.5111607142858,3919.4,1255.7142857142858,1267.5111607142858,4024.5,1255.7142857142858,1267.5111607142858,4127.3,1255.7142857142858,1267.5111607142858,4227.6,1255.7142857142858,1267.5111607142858,4331.8,1255.7142857142858,1267.5111607142858,4432.2,1255.7142857142858,1267.5111607142858,4532.2,1255.7142857142858,1267.5111607142858,4632.5,1255.7142857142858,1267.5111607142858,4737.2,1255.7142857142858,1267.5111607142858,4837.2,1255.7142857142858,1267.5111607142858,4938.3]","[5587.5,5587.5,3109,2005.4,473.1,""smooth"",""down"",""down"",""good_move"",8234.7,2647.1,2260.2,5587.6,386.9,""oops"",""down"",""left"",""bad_move"",18101.4,9866.5,1719.4,15974.5,407.5,""oops"",""down"",""right"",""good_move"",20773,2671.5,2276.1,18101.6,395.3,""oops"",""down"",""left"",""bad_move"",27782.7,7009.6,2720.2,24675.3,387.2,""smooth"",""down"",""down"",""good_move"",30424.7,2641.8,2266.3,27782.9,375.5,""smooth"",""down"",""down"",""good_move"",37218.6,6793.8,2851.1,33973.6,393.9,""oops"",""right"",""left"",""bad_move""]","","",""
"2326","","<div style=""width:500px;"">
  <p>What determined the result of this run?</p>
  </div>","8","html-slider-response","70","931145","0.0-10.0-1.6","142","1","2025-07-09 09:09:14","7701e855f2ef39aa3fd6c71abdc6918a","94.8.141.152","Mozilla/5.0 (Macintosh; Intel Mac OS X 10_15_7) AppleWebKit/537.36 (KHTML, like Gecko) Chrome/133.0.0.0 Safari/537.36","Macintosh","Chrome","133.0.0.0","OS X","10_15_7","https://app.prolific.com/","en-US,en;q=0.9","66703ac57933f5d73067da2d","686d226cabeef709c732f8e1","686e31444cb2b4370a545401","66703ac57933f5d73067da2d","2025-07-09T09:24:46.391Z","","","","","","AttribQ","","","","","","","","","","","","","","","","","","","","","","","","","","","","","","","","","","","","","","50",""
"3346","","<div style=""width:500px;"">
  <p>How much control did you have over the ball?</p>
  </div>","31","html-slider-response","71","934492","0.0-10.0-2.6","142","1","2025-07-09 09:09:14","7701e855f2ef39aa3fd6c71abdc6918a","94.8.141.152","Mozilla/5.0 (Macintosh; Intel Mac OS X 10_15_7) AppleWebKit/537.36 (KHTML, like Gecko) Chrome/133.0.0.0 Safari/537.36","Macintosh","Chrome","133.0.0.0","OS X","10_15_7","https://app.prolific.com/","en-US,en;q=0.9","66703ac57933f5d73067da2d","686d226cabeef709c732f8e1","686e31444cb2b4370a545401","66703ac57933f5d73067da2d","2025-07-09T09:24:49.738Z","","","","","","ControlQ","","","","","","","","","","","","","","","","","","","","","","","","","","","","","","","","","","","","","","50",""
"5811","","<div style=""width:500px;"">
  <p>How would you describe your current emotional state?</p>
  </div>","38","html-slider-response","72","940303","0.0-10.0-3.6","142","1","2025-07-09 09:09:14","7701e855f2ef39aa3fd6c71abdc6918a","94.8.141.152","Mozilla/5.0 (Macintosh; Intel Mac OS X 10_15_7) AppleWebKit/537.36 (KHTML, like Gecko) Chrome/133.0.0.0 Safari/537.36","Macintosh","Chrome","133.0.0.0","OS X","10_15_7","https://app.prolific.com/","en-US,en;q=0.9","66703ac57933f5d73067da2d","686d226cabeef709c732f8e1","686e31444cb2b4370a545401","66703ac57933f5d73067da2d","2025-07-09T09:24:55.549Z","","","","","","StressQ","","","","","","","","","","","","","","","","","","","","","","","","","","","","","","","","","","","","","","50",""
"2032","","<div style=""width:500px;"">
  <p>What best describes how you currently feel?</p>
  </div>","83","html-slider-response","73","942336","0.0-10.0-4.6","142","1","2025-07-09 09:09:14","7701e855f2ef39aa3fd6c71abdc6918a","94.8.141.152","Mozilla/5.0 (Macintosh; Intel Mac OS X 10_15_7) AppleWebKit/537.36 (KHTML, like Gecko) Chrome/133.0.0.0 Safari/537.36","Macintosh","Chrome","133.0.0.0","OS X","10_15_7","https://app.prolific.com/","en-US,en;q=0.9","66703ac57933f5d73067da2d","686d226cabeef709c732f8e1","686e31444cb2b4370a545401","66703ac57933f5d73067da2d","2025-07-09T09:24:57.582Z","","","","","","MotivationQ","","","","","","","","","","","","","","","","","","","","","","","","","","","","","","","","","","","","","","50",""
"","","","","ctl-task-cpt","74","989952","0.0-10.0-0.7","142","1","2025-07-09 09:09:14","7701e855f2ef39aa3fd6c71abdc6918a","94.8.141.152","Mozilla/5.0 (Macintosh; Intel Mac OS X 10_15_7) AppleWebKit/537.36 (KHTML, like Gecko) Chrome/133.0.0.0 Safari/537.36","Macintosh","Chrome","133.0.0.0","OS X","10_15_7","https://app.prolific.com/","en-US,en;q=0.9","66703ac57933f5d73067da2d","686d226cabeef709c732f8e1","686e31444cb2b4370a545401","66703ac57933f5d73067da2d","2025-07-09T09:25:45.198Z","","","","","","","","","","","","","","","","win-only","2","g1:SE,g2:NW","0.3","8","0","944062.6","764.6","5765.5","44606.6","1","4","8","6","2","8","8","8","0","0.06060606060606061","891.6","3000","200","[""left"",""up""]","{""num_key_presses"":8,""num_perfect"":2,""num_errors"":0,""num_randdir"":6,""num_randdir_good_moves"":5,""num_whilered"":0,""num_whileblue"":0,""num_blue"":5,""num_good_moves"":7}","[717.7142857142857,717.5111607142857,0.1,717.7142857142857,715.5111607142857,101.1,717.7142857142857,715.5111607142857,206.3,717.7142857142857,715.5111607142857,314.3,721.7142857142857,715.5111607142857,416.4,871.7142857142857,911.5111607142857,521,165.71428571428572,177.51116071428572,621,63.71428571428571,39.51116071428571,721.2,145.71428571428572,107.51116071428571,821.4,149.71428571428572,111.51116071428571,924.7,149.71428571428572,111.51116071428571,1026.3,149.71428571428572,111.51116071428571,1131.5,149.71428571428572,111.51116071428571,1231.5,149.71428571428572,111.51116071428571,1331.5,149.71428571428572,111.51116071428571,1436.2,149.71428571428572,111.51116071428571,1538.7,149.71428571428572,111.51116071428571,1640.5,149.71428571428572,111.51116071428571,1740.6,149.71428571428572,111.51116071428571,1840.8,149.71428571428572,111.51116071428571,1941.5,149.71428571428572,111.51116071428571,2043.3,149.71428571428572,111.51116071428571,2146,149.71428571428572,111.51116071428571,2246,149.71428571428572,111.51116071428571,2346.4,149.71428571428572,111.51116071428571,2450.8,149.71428571428572,111.51116071428571,2551.3,149.71428571428572,111.51116071428571,2651.5,149.71428571428572,111.51116071428571,2756.1,149.71428571428572,111.51116071428571,2860.5,149.71428571428572,111.51116071428571,2961.9,149.71428571428572,111.51116071428571,3065.8,149.71428571428572,111.51116071428571,3174.7,149.71428571428572,111.51116071428571,3275.5,149.71428571428572,111.51116071428571,3376.1,149.71428571428572,111.51116071428571,3476.1,149.71428571428572,111.51116071428571,3581,149.71428571428572,111.51116071428571,3687.4,149.71428571428572,111.51116071428571,3794.8,149.71428571428572,111.51116071428571,3897.6,149.71428571428572,111.51116071428571,4000.9,149.71428571428572,111.51116071428571,4100.9,149.71428571428572,111.51116071428571,4200.9,149.71428571428572,111.51116071428571,4301.1,149.71428571428572,111.51116071428571,4401.4,149.71428571428572,111.51116071428571,4508.4,149.71428571428572,111.51116071428571,4610.7,149.71428571428572,111.51116071428571,4711.6,149.71428571428572,111.51116071428571,4815.7,149.71428571428572,111.51116071428571,4916]","[1402.9,1402.9,1000,0,402.9,""oops"",""up"",""up"",""good_move"",4095,2691.8,2234.9,1403.2,456.9,""oops"",""up"",""left"",""good_move"",7155.3,3060.1,2711,4095.2,349.1,""oops"",""up"",""right"",""bad_move"",9645.6,2490.1,2149.1,7155.5,341,""smooth"",""up"",""up"",""good_move"",12718.9,3073.1,2736.9,9645.8,336.2,""oops"",""up"",""left"",""good_move"",26011.2,13292.1,1570.7,24046.2,394.3,""oops"",""up"",""left"",""good_move"",35555.3,9543.9,2162.8,33065.1,327.4,""smooth"",""up"",""up"",""good_move"",38755.8,3200.2,2874,35555.6,326.2,""oops"",""left"",""left"",""good_move""]","","",""
"2712","","<div style=""width:500px;"">
  <p>What determined the result of this run?</p>
  </div>","71","html-slider-response","75","992665","0.0-10.0-1.7","142","1","2025-07-09 09:09:14","7701e855f2ef39aa3fd6c71abdc6918a","94.8.141.152","Mozilla/5.0 (Macintosh; Intel Mac OS X 10_15_7) AppleWebKit/537.36 (KHTML, like Gecko) Chrome/133.0.0.0 Safari/537.36","Macintosh","Chrome","133.0.0.0","OS X","10_15_7","https://app.prolific.com/","en-US,en;q=0.9","66703ac57933f5d73067da2d","686d226cabeef709c732f8e1","686e31444cb2b4370a545401","66703ac57933f5d73067da2d","2025-07-09T09:25:47.911Z","","","","","","AttribQ","","","","","","","","","","","","","","","","","","","","","","","","","","","","","","","","","","","","","","50",""
"5038","","<div style=""width:500px;"">
  <p>How much control did you have over the ball?</p>
  </div>","60","html-slider-response","76","997703","0.0-10.0-2.7","142","1","2025-07-09 09:09:14","7701e855f2ef39aa3fd6c71abdc6918a","94.8.141.152","Mozilla/5.0 (Macintosh; Intel Mac OS X 10_15_7) AppleWebKit/537.36 (KHTML, like Gecko) Chrome/133.0.0.0 Safari/537.36","Macintosh","Chrome","133.0.0.0","OS X","10_15_7","https://app.prolific.com/","en-US,en;q=0.9","66703ac57933f5d73067da2d","686d226cabeef709c732f8e1","686e31444cb2b4370a545401","66703ac57933f5d73067da2d","2025-07-09T09:25:52.949Z","","","","","","ControlQ","","","","","","","","","","","","","","","","","","","","","","","","","","","","","","","","","","","","","","50",""
"3086","","<div style=""width:500px;"">
  <p>How would you describe your current emotional state?</p>
  </div>","46","html-slider-response","77","1000789","0.0-10.0-3.7","142","1","2025-07-09 09:09:14","7701e855f2ef39aa3fd6c71abdc6918a","94.8.141.152","Mozilla/5.0 (Macintosh; Intel Mac OS X 10_15_7) AppleWebKit/537.36 (KHTML, like Gecko) Chrome/133.0.0.0 Safari/537.36","Macintosh","Chrome","133.0.0.0","OS X","10_15_7","https://app.prolific.com/","en-US,en;q=0.9","66703ac57933f5d73067da2d","686d226cabeef709c732f8e1","686e31444cb2b4370a545401","66703ac57933f5d73067da2d","2025-07-09T09:25:56.035Z","","","","","","StressQ","","","","","","","","","","","","","","","","","","","","","","","","","","","","","","","","","","","","","","50",""
"2746","","<div style=""width:500px;"">
  <p>What best describes how you currently feel?</p>
  </div>","85","html-slider-response","78","1003536","0.0-10.0-4.7","142","1","2025-07-09 09:09:14","7701e855f2ef39aa3fd6c71abdc6918a","94.8.141.152","Mozilla/5.0 (Macintosh; Intel Mac OS X 10_15_7) AppleWebKit/537.36 (KHTML, like Gecko) Chrome/133.0.0.0 Safari/537.36","Macintosh","Chrome","133.0.0.0","OS X","10_15_7","https://app.prolific.com/","en-US,en;q=0.9","66703ac57933f5d73067da2d","686d226cabeef709c732f8e1","686e31444cb2b4370a545401","66703ac57933f5d73067da2d","2025-07-09T09:25:58.782Z","","","","","","MotivationQ","","","","","","","","","","","","","","","","","","","","","","","","","","","","","","","","","","","","","","50",""
"","","","","ctl-task-cpt","79","1047416","0.0-10.0-0.8","142","1","2025-07-09 09:09:14","7701e855f2ef39aa3fd6c71abdc6918a","94.8.141.152","Mozilla/5.0 (Macintosh; Intel Mac OS X 10_15_7) AppleWebKit/537.36 (KHTML, like Gecko) Chrome/133.0.0.0 Safari/537.36","Macintosh","Chrome","133.0.0.0","OS X","10_15_7","https://app.prolific.com/","en-US,en;q=0.9","66703ac57933f5d73067da2d","686d226cabeef709c732f8e1","686e31444cb2b4370a545401","66703ac57933f5d73067da2d","2025-07-09T09:26:42.662Z","","","","","","","","","","","","","","","","win-only","3","g1:SW,g2:NE","0.2","9","0","1005262","1057.8","6061.1","40915.6","1","4","4","6","2","-4","-4","4","8","0.030303030303030304","741.4","3000","-2985","[""up"",""right""]","{""num_key_presses"":8,""num_perfect"":1,""num_errors"":0,""num_randdir"":7,""num_randdir_good_moves"":4,""num_whilered"":0,""num_whileblue"":0,""num_blue"":3,""num_good_moves"":5}","[713.7142857142857,697.5111607142857,0.1,713.7142857142857,697.5111607142857,101,713.7142857142857,697.5111607142857,202.9,713.7142857142857,697.5111607142857,302.9,713.7142857142857,697.5111607142857,403.2,1109.7142857142858,385.5111607142857,508.1,1395.7142857142858,75.51116071428571,608.6,1375.7142857142858,59.51116071428571,716.1,1375.7142857142858,59.51116071428571,818.1,1375.7142857142858,59.51116071428571,918.6,1375.7142857142858,59.51116071428571,1023.1,1375.7142857142858,59.51116071428571,1127.8,1375.7142857142858,59.51116071428571,1227.9,1375.7142857142858,59.51116071428571,1330.9,1375.7142857142858,59.51116071428571,1436.1,1375.7142857142858,59.51116071428571,1537.9,1375.7142857142858,59.51116071428571,1637.9,1375.7142857142858,59.51116071428571,1743.4,1375.7142857142858,59.51116071428571,1848,1375.7142857142858,59.51116071428571,1952.7,1375.7142857142858,59.51116071428571,2053.3,1375.7142857142858,59.51116071428571,2157.9,1375.7142857142858,59.51116071428571,2258.4,1375.7142857142858,59.51116071428571,2363.5,1375.7142857142858,59.51116071428571,2468.4,1375.7142857142858,59.51116071428571,2573.5,1375.7142857142858,59.51116071428571,2677.6,1375.7142857142858,59.51116071428571,2777.8,1375.7142857142858,59.51116071428571,2877.9,1375.7142857142858,59.51116071428571,2981.7,1375.7142857142858,59.51116071428571,3083,1375.7142857142858,59.51116071428571,3187.4,1375.7142857142858,59.51116071428571,3288,1375.7142857142858,59.51116071428571,3388.4,1375.7142857142858,59.51116071428571,3493.4,1375.7142857142858,59.51116071428571,3599.6,1375.7142857142858,59.51116071428571,3702.3,1375.7142857142858,59.51116071428571,3802.4,1375.7142857142858,59.51116071428571,3903,1375.7142857142858,59.51116071428571,4003.1,1375.7142857142858,59.51116071428571,4103.2,1375.7142857142858,59.51116071428571,4207.5,1375.7142857142858,59.51116071428571,4312.4,1375.7142857142858,59.51116071428571,4412.4,1375.7142857142858,59.51116071428571,4512.6,1375.7142857142858,59.51116071428571,4613,1375.7142857142858,59.51116071428571,4717.5,1375.7142857142858,59.51116071428571,4818,1375.7142857142858,59.51116071428571,4918.4]","[1398.1,1398.1,1000,0,398.1,""oops"",""up"",""left"",""bad_move"",4428.4,3030.2,2735.5,1398.2,294.7,""oops"",""up"",""right"",""good_move"",7223.9,2795.1,2439.6,4428.8,355.5,""oops"",""up"",""left"",""bad_move"",13960.4,6736.2,2759.7,10809.3,391.4,""oops"",""up"",""left"",""bad_move"",16991.6,3031,2671.1,13960.6,359.9,""oops"",""up"",""up"",""good_move"",19824.5,2832.7,2448.9,16991.8,383.8,""oops"",""up"",""up"",""good_move"",26428.2,6603.6,3270.6,22805.1,352.5,""smooth"",""up"",""up"",""good_move"",29324.3,2895.8,2522.2,26428.5,373.6,""oops"",""right"",""right"",""good_move""]","","",""
"3059","","<div style=""width:500px;"">
  <p>What determined the result of this run?</p>
  </div>","0","html-slider-response","80","1050475","0.0-10.0-1.8","142","1","2025-07-09 09:09:14","7701e855f2ef39aa3fd6c71abdc6918a","94.8.141.152","Mozilla/5.0 (Macintosh; Intel Mac OS X 10_15_7) AppleWebKit/537.36 (KHTML, like Gecko) Chrome/133.0.0.0 Safari/537.36","Macintosh","Chrome","133.0.0.0","OS X","10_15_7","https://app.prolific.com/","en-US,en;q=0.9","66703ac57933f5d73067da2d","686d226cabeef709c732f8e1","686e31444cb2b4370a545401","66703ac57933f5d73067da2d","2025-07-09T09:26:45.721Z","","","","","","AttribQ","","","","","","","","","","","","","","","","","","","","","","","","","","","","","","","","","","","","","","50",""
"2083","","<div style=""width:500px;"">
  <p>How much control did you have over the ball?</p>
  </div>","9","html-slider-response","81","1052558","0.0-10.0-2.8","142","1","2025-07-09 09:09:14","7701e855f2ef39aa3fd6c71abdc6918a","94.8.141.152","Mozilla/5.0 (Macintosh; Intel Mac OS X 10_15_7) AppleWebKit/537.36 (KHTML, like Gecko) Chrome/133.0.0.0 Safari/537.36","Macintosh","Chrome","133.0.0.0","OS X","10_15_7","https://app.prolific.com/","en-US,en;q=0.9","66703ac57933f5d73067da2d","686d226cabeef709c732f8e1","686e31444cb2b4370a545401","66703ac57933f5d73067da2d","2025-07-09T09:26:47.804Z","","","","","","ControlQ","","","","","","","","","","","","","","","","","","","","","","","","","","","","","","","","","","","","","","50",""
"2123","","<div style=""width:500px;"">
  <p>How would you describe your current emotional state?</p>
  </div>","55","html-slider-response","82","1054681","0.0-10.0-3.8","142","1","2025-07-09 09:09:14","7701e855f2ef39aa3fd6c71abdc6918a","94.8.141.152","Mozilla/5.0 (Macintosh; Intel Mac OS X 10_15_7) AppleWebKit/537.36 (KHTML, like Gecko) Chrome/133.0.0.0 Safari/537.36","Macintosh","Chrome","133.0.0.0","OS X","10_15_7","https://app.prolific.com/","en-US,en;q=0.9","66703ac57933f5d73067da2d","686d226cabeef709c732f8e1","686e31444cb2b4370a545401","66703ac57933f5d73067da2d","2025-07-09T09:26:49.927Z","","","","","","StressQ","","","","","","","","","","","","","","","","","","","","","","","","","","","","","","","","","","","","","","50",""
"2206","","<div style=""width:500px;"">
  <p>What best describes how you currently feel?</p>
  </div>","56","html-slider-response","83","1056888","0.0-10.0-4.8","142","1","2025-07-09 09:09:14","7701e855f2ef39aa3fd6c71abdc6918a","94.8.141.152","Mozilla/5.0 (Macintosh; Intel Mac OS X 10_15_7) AppleWebKit/537.36 (KHTML, like Gecko) Chrome/133.0.0.0 Safari/537.36","Macintosh","Chrome","133.0.0.0","OS X","10_15_7","https://app.prolific.com/","en-US,en;q=0.9","66703ac57933f5d73067da2d","686d226cabeef709c732f8e1","686e31444cb2b4370a545401","66703ac57933f5d73067da2d","2025-07-09T09:26:52.134Z","","","","","","MotivationQ","","","","","","","","","","","","","","","","","","","","","","","","","","","","","","","","","","","","","","50",""
