"rt","response_timestamp","stimulus","response","trial_type","trial_index","time_elapsed","internal_node_id","run_id","condition","recorded_at","source_code_version","ip","user_agent","device","browser","browser_version","platform","platform_version","referer","accept_language","PROLIFIC_PID","STUDY_ID","SESSION_ID","prolific_id","realtime","view_history","question_order","consent","success","question_id","eventType","responses","item_order","radio_event_ids","radio_event_times","key_event_times","mouse_event_times","straightlining","zigzagging","honeypot","which_type","canvas_config","goals_layout","control_level","trial_number","tutorial_trial_number","trial_start_time","phase1_start_time","phase2_start_time","phase3_start_time","goal_1_value","goal_1_distance","goal_2_value","goal_2_distance","goal_selected","outcome","outcome_total","participant_final_score","participant_initial_score","participant_final_score_prop","goal_choice_rt","allocated_time","allocated_time_remaining","goal_direction","counts","mouse_movements","key_presses","correct","slider_start","sub_question"
"9846","1752052071149","<p style='font-size:40px;line-height:1.25'><strong>Welcome to the experiment!</strong></p><p style='font-size:1.1em;line-height:1.25'>Thank you for your interest in our experiment! Before you begin, it is important that we obtain your informed consent to participate in the study.</p><p style='font-size:1.1em;line-height:1.25'>On the next screen will be an <strong>information sheet</strong> for you to read. To participate in the study we need you to read this information sheet and the following consent form carefully. If you agree with all the statements, please click the <strong>I agree</strong> button.</p><p style='font-size:1.1em;line-height:1.25'>Press <strong>Next</strong> to read the information sheet.</p>","0","custom-html-button-response","0","9853","0.0-0.0","85","1","2025-07-09 09:07:38","7701e855f2ef39aa3fd6c71abdc6918a","105.161.114.4","Mozilla/5.0 (Windows NT 10.0; Win64; x64) AppleWebKit/537.36 (KHTML, like Gecko) Chrome/138.0.0.0 Safari/537.36","WebKit","Chrome","138.0.0.0","Windows","10.0","https://app.prolific.com/","en-US,en;q=0.9","65fae23bd06ae76bcc297e8b","686d226cabeef709c732f8e1","686e311451c39ee5d1f42ff5","65fae23bd06ae76bcc297e8b","2025-07-09T09:07:51.152Z","","","","","","","","","","","","","","","","","","","","","","","","","","","","","","","","","","","","","","","","","","","","",""
"18258","","","","instructions","1","28113","0.0-1.0","85","1","2025-07-09 09:07:38","7701e855f2ef39aa3fd6c71abdc6918a","105.161.114.4","Mozilla/5.0 (Windows NT 10.0; Win64; x64) AppleWebKit/537.36 (KHTML, like Gecko) Chrome/138.0.0.0 Safari/537.36","WebKit","Chrome","138.0.0.0","Windows","10.0","https://app.prolific.com/","en-US,en;q=0.9","65fae23bd06ae76bcc297e8b","686d226cabeef709c732f8e1","686e311451c39ee5d1f42ff5","65fae23bd06ae76bcc297e8b","","[{""page_index"":0,""viewing_time"":15198},{""page_index"":1,""viewing_time"":3059}]","","","","","","","","","","","","","","","","","","","","","","","","","","","","","","","","","","","","","","","","","","","",""
"6082","","","{""Q0"":"""",""Q1"":"""",""Q2"":"""",""Q3"":"""",""Q4"":"""",""Q5"":"""",""Q6"":""I agree""}","survey-multi-choice","2","34200","0.0-2.0","85","1","2025-07-09 09:07:38","7701e855f2ef39aa3fd6c71abdc6918a","105.161.114.4","Mozilla/5.0 (Windows NT 10.0; Win64; x64) AppleWebKit/537.36 (KHTML, like Gecko) Chrome/138.0.0.0 Safari/537.36","WebKit","Chrome","138.0.0.0","Windows","10.0","https://app.prolific.com/","en-US,en;q=0.9","65fae23bd06ae76bcc297e8b","686d226cabeef709c732f8e1","686e311451c39ee5d1f42ff5","65fae23bd06ae76bcc297e8b","","","[0,1,2,3,4,5,6]","true","","","","","","","","","","","","","","","","","","","","","","","","","","","","","","","","","","","","","","","","","",""
"20454","","","","fullscreen","3","55659","0.0-4.0","85","1","2025-07-09 09:07:38","7701e855f2ef39aa3fd6c71abdc6918a","105.161.114.4","Mozilla/5.0 (Windows NT 10.0; Win64; x64) AppleWebKit/537.36 (KHTML, like Gecko) Chrome/138.0.0.0 Safari/537.36","WebKit","Chrome","138.0.0.0","Windows","10.0","https://app.prolific.com/","en-US,en;q=0.9","65fae23bd06ae76bcc297e8b","686d226cabeef709c732f8e1","686e311451c39ee5d1f42ff5","65fae23bd06ae76bcc297e8b","","","","","true","","","","","","","","","","","","","","","","","","","","","","","","","","","","","","","","","","","","","","","","",""
"8725","1752052125685"," <p style='font-size:1.1em;line-height:1.25'>Thank you for completing the consent form and closing all other tabs.</p><p style='font-size:1.1em;line-height:1.25'>We will now invite you to fill in some demographic information and questionnaires, before starting the game.<br>This will take about 5 minutes.<br></p><p style='font-size:1.1em;line-height:1.25'>Press the <strong>Next</strong> button to continue.</p>","0","custom-html-button-response","4","64387","0.0-5.0","85","1","2025-07-09 09:07:38","7701e855f2ef39aa3fd6c71abdc6918a","105.161.114.4","Mozilla/5.0 (Windows NT 10.0; Win64; x64) AppleWebKit/537.36 (KHTML, like Gecko) Chrome/138.0.0.0 Safari/537.36","WebKit","Chrome","138.0.0.0","Windows","10.0","https://app.prolific.com/","en-US,en;q=0.9","65fae23bd06ae76bcc297e8b","686d226cabeef709c732f8e1","686e311451c39ee5d1f42ff5","65fae23bd06ae76bcc297e8b","2025-07-09T09:08:45.686Z","","","","","","","","","","","","","","","","","","","","","","","","","","","","","","","","","","","","","","","","","","","","",""
"3292","","","{""age"":""24""}","survey-text","5","67685","0.0-6.0-0.0","85","1","2025-07-09 09:07:38","7701e855f2ef39aa3fd6c71abdc6918a","105.161.114.4","Mozilla/5.0 (Windows NT 10.0; Win64; x64) AppleWebKit/537.36 (KHTML, like Gecko) Chrome/138.0.0.0 Safari/537.36","WebKit","Chrome","138.0.0.0","Windows","10.0","https://app.prolific.com/","en-US,en;q=0.9","65fae23bd06ae76bcc297e8b","686d226cabeef709c732f8e1","686e311451c39ee5d1f42ff5","65fae23bd06ae76bcc297e8b","","","","","","0","demographics","","","","","","","","","","","","","","","","","","","","","","","","","","","","","","","","","","","","","","",""
"11072","","","{""gender_identity"":""female/woman""}","survey-multi-choice","6","78759","0.0-6.0-1.0","85","1","2025-07-09 09:07:38","7701e855f2ef39aa3fd6c71abdc6918a","105.161.114.4","Mozilla/5.0 (Windows NT 10.0; Win64; x64) AppleWebKit/537.36 (KHTML, like Gecko) Chrome/138.0.0.0 Safari/537.36","WebKit","Chrome","138.0.0.0","Windows","10.0","https://app.prolific.com/","en-US,en;q=0.9","65fae23bd06ae76bcc297e8b","686d226cabeef709c732f8e1","686e311451c39ee5d1f42ff5","65fae23bd06ae76bcc297e8b","","","[0]","","","1","demographics","","","","","","","","","","","","","","","","","","","","","","","","","","","","","","","","","","","","","","",""
"4436","","","{""assigned_sex"":""female""}","survey-multi-choice","7","83197","0.0-6.0-2.0","85","1","2025-07-09 09:07:38","7701e855f2ef39aa3fd6c71abdc6918a","105.161.114.4","Mozilla/5.0 (Windows NT 10.0; Win64; x64) AppleWebKit/537.36 (KHTML, like Gecko) Chrome/138.0.0.0 Safari/537.36","WebKit","Chrome","138.0.0.0","Windows","10.0","https://app.prolific.com/","en-US,en;q=0.9","65fae23bd06ae76bcc297e8b","686d226cabeef709c732f8e1","686e311451c39ee5d1f42ff5","65fae23bd06ae76bcc297e8b","","","[0]","","","2","demographics","","","","","","","","","","","","","","","","","","","","","","","","","","","","","","","","","","","","","","",""
"5588","","","{""menstrual_cycle"":""Yes""}","survey-multi-choice","8","88786","0.0-6.0-3.0","85","1","2025-07-09 09:07:38","7701e855f2ef39aa3fd6c71abdc6918a","105.161.114.4","Mozilla/5.0 (Windows NT 10.0; Win64; x64) AppleWebKit/537.36 (KHTML, like Gecko) Chrome/138.0.0.0 Safari/537.36","WebKit","Chrome","138.0.0.0","Windows","10.0","https://app.prolific.com/","en-US,en;q=0.9","65fae23bd06ae76bcc297e8b","686d226cabeef709c732f8e1","686e311451c39ee5d1f42ff5","65fae23bd06ae76bcc297e8b","","","[0]","","","4","demographics","","","","","","","","","","","","","","","","","","","","","","","","","","","","","","","","","","","","","","",""
"5996","","","{""education"":""Bachelor's Degree (e.g., BA)""}","survey-multi-choice","9","94785","0.0-6.0-4.0","85","1","2025-07-09 09:07:38","7701e855f2ef39aa3fd6c71abdc6918a","105.161.114.4","Mozilla/5.0 (Windows NT 10.0; Win64; x64) AppleWebKit/537.36 (KHTML, like Gecko) Chrome/138.0.0.0 Safari/537.36","WebKit","Chrome","138.0.0.0","Windows","10.0","https://app.prolific.com/","en-US,en;q=0.9","65fae23bd06ae76bcc297e8b","686d226cabeef709c732f8e1","686e311451c39ee5d1f42ff5","65fae23bd06ae76bcc297e8b","","","[0]","","","5","demographics","","","","","","","","","","","","","","","","","","","","","","","","","","","","","","","","","","","","","","",""
"9720","","","{""education"":""Higher National Certificate""}","survey-multi-choice","10","104506","0.0-6.0-5.0","85","1","2025-07-09 09:07:38","7701e855f2ef39aa3fd6c71abdc6918a","105.161.114.4","Mozilla/5.0 (Windows NT 10.0; Win64; x64) AppleWebKit/537.36 (KHTML, like Gecko) Chrome/138.0.0.0 Safari/537.36","WebKit","Chrome","138.0.0.0","Windows","10.0","https://app.prolific.com/","en-US,en;q=0.9","65fae23bd06ae76bcc297e8b","686d226cabeef709c732f8e1","686e311451c39ee5d1f42ff5","65fae23bd06ae76bcc297e8b","2025-07-09T09:09:25.805Z","","[0]","","","6","demographics","","","","","","","","","","","","","","","","","","","","","","","","","","","","","","","","","","","","","","",""
"31787","","","{""mental_health_condition"":""no"",""mental_health_treatment"":""no"",""psychiatric_medication"":""0""}","survey-text","11","136297","0.0-7.0-0.0","85","1","2025-07-09 09:07:38","7701e855f2ef39aa3fd6c71abdc6918a","105.161.114.4","Mozilla/5.0 (Windows NT 10.0; Win64; x64) AppleWebKit/537.36 (KHTML, like Gecko) Chrome/138.0.0.0 Safari/537.36","WebKit","Chrome","138.0.0.0","Windows","10.0","https://app.prolific.com/","en-US,en;q=0.9","65fae23bd06ae76bcc297e8b","686d226cabeef709c732f8e1","686e311451c39ee5d1f42ff5","65fae23bd06ae76bcc297e8b","2025-07-09T09:09:57.596Z","","","","","1","mental_health","","","","","","","","","","","","","","","","","","","","","","","","","","","","","","","","","","","","","","",""
"11313","","","{""depression_history"":[""Yes""]}","survey-multi-select","12","147614","0.0-7.0-1.0","85","1","2025-07-09 09:07:38","7701e855f2ef39aa3fd6c71abdc6918a","105.161.114.4","Mozilla/5.0 (Windows NT 10.0; Win64; x64) AppleWebKit/537.36 (KHTML, like Gecko) Chrome/138.0.0.0 Safari/537.36","WebKit","Chrome","138.0.0.0","Windows","10.0","https://app.prolific.com/","en-US,en;q=0.9","65fae23bd06ae76bcc297e8b","686d226cabeef709c732f8e1","686e311451c39ee5d1f42ff5","65fae23bd06ae76bcc297e8b","","","[0]","","","","mental_health","","","","","","","","","","","","","","","","","","","","","","","","","","","","","","","","","","","","","","",""
"13266","","","{""depression_episodes"":""more than 5"",""depression_recent"":""Within the past year""}","survey-multi-choice","13","160882","0.0-7.0-2.0-0.0","85","1","2025-07-09 09:07:38","7701e855f2ef39aa3fd6c71abdc6918a","105.161.114.4","Mozilla/5.0 (Windows NT 10.0; Win64; x64) AppleWebKit/537.36 (KHTML, like Gecko) Chrome/138.0.0.0 Safari/537.36","WebKit","Chrome","138.0.0.0","Windows","10.0","https://app.prolific.com/","en-US,en;q=0.9","65fae23bd06ae76bcc297e8b","686d226cabeef709c732f8e1","686e311451c39ee5d1f42ff5","65fae23bd06ae76bcc297e8b","2025-07-09T09:10:22.181Z","","[0,1]","","","3","mental_health","","","","","","","","","","","","","","","","","","","","","","","","","","","","","","","","","","","","","","",""
"116248.10000002384","","","","survey-template","14","277136","0.0-7.0-3.0","85","1","2025-07-09 09:07:38","7701e855f2ef39aa3fd6c71abdc6918a","105.161.114.4","Mozilla/5.0 (Windows NT 10.0; Win64; x64) AppleWebKit/537.36 (KHTML, like Gecko) Chrome/138.0.0.0 Safari/537.36","WebKit","Chrome","138.0.0.0","Windows","10.0","https://app.prolific.com/","en-US,en;q=0.9","65fae23bd06ae76bcc297e8b","686d226cabeef709c732f8e1","686e311451c39ee5d1f42ff5","65fae23bd06ae76bcc297e8b","2025-07-09T09:12:18.435Z","","","","","","ius","{""Q01"":""2"",""Q02"":""3"",""Q03"":""3"",""Q04"":""3"",""Q05"":""3"",""Q06"":""0"",""Q07"":""2"",""Q08"":""0"",""Q09"":""4"",""Q10"":""1"",""Q11"":""1"",""Q12"":""3"",""Q13"":""2""}","[0,1,2,3,4,5,6,7,8,9,10,11,12]","[""Q01"",""Q02"",""Q03"",""Q04"",""Q05"",""Q06"",""Q07"",""Q08"",""Q09"",""Q11"",""Q10"",""Q12"",""Q13""]","[10252.40000000596,13135.700000017881,15785.800000011921,19812.70000001788,24970.40000000596,33326.60000002384,36850.90000000596,41400.60000002384,82615,91023.80000001192,93897.40000000596,109786,111775.60000002384]","[]","[10252.40000000596,13135.700000017881,15785.800000011921,19812.70000001788,24970.40000000596,33326.60000002384,36850.90000000596,41400.60000002384,82615,86969.60000002384,91023.80000001192,93897.40000000596,107346.10000002384,109786,111775.60000002384,116243.80000001192]","0.38461538461538464","0.25","0","","","","","","","","","","","","","","","","","","","","","","","","","","","","","",""
"9861","1752052348297","<p style='font-size:1.1em;line-height:1.25'>In the following, we will ask you a few questions relating to your experiences over the past month.<br></p><p style='font-size:1.1em;line-height:1.25'>Press the <strong>Next</strong> button to continue.</p>","0","custom-html-button-response","15","286999","0.0-7.0-4.0","85","1","2025-07-09 09:07:38","7701e855f2ef39aa3fd6c71abdc6918a","105.161.114.4","Mozilla/5.0 (Windows NT 10.0; Win64; x64) AppleWebKit/537.36 (KHTML, like Gecko) Chrome/138.0.0.0 Safari/537.36","WebKit","Chrome","138.0.0.0","Windows","10.0","https://app.prolific.com/","en-US,en;q=0.9","65fae23bd06ae76bcc297e8b","686d226cabeef709c732f8e1","686e311451c39ee5d1f42ff5","65fae23bd06ae76bcc297e8b","2025-07-09T09:12:28.298Z","","","","","","","","","","","","","","","","","","","","","","","","","","","","","","","","","","","","","","","","","","","","",""
"93467.20000001788","","","","survey-template","16","380471","0.0-7.0-5.0","85","1","2025-07-09 09:07:38","7701e855f2ef39aa3fd6c71abdc6918a","105.161.114.4","Mozilla/5.0 (Windows NT 10.0; Win64; x64) AppleWebKit/537.36 (KHTML, like Gecko) Chrome/138.0.0.0 Safari/537.36","WebKit","Chrome","138.0.0.0","Windows","10.0","https://app.prolific.com/","en-US,en;q=0.9","65fae23bd06ae76bcc297e8b","686d226cabeef709c732f8e1","686e311451c39ee5d1f42ff5","65fae23bd06ae76bcc297e8b","2025-07-09T09:14:01.771Z","","","","","","pss","{""Q01"":""2"",""Q02"":""2"",""Q03"":""2"",""Q04"":""1"",""Q05"":""2"",""Q06"":""2"",""Q07"":""1"",""Q08"":""1"",""Q09"":""3"",""Q10"":""2""}","[0,1,2,3,4,5,6,7,8,9]","[""Q01"",""Q02"",""Q03"",""Q04"",""Q05"",""Q06"",""Q07"",""Q08"",""Q08"",""Q10"",""Q09""]","[8569.200000017881,16252.300000011921,19787.20000001788,27948.59999999404,44261.70000001788,53459.80000001192,62196.30000001192,74846.80000001192,76318.30000001192,86781.70000001788,91774.90000000596]","[]","[0,8569.200000017881,16252.300000011921,19787.20000001788,27948.59999999404,44261.70000001788,53459.80000001192,59712.5,62196.30000001192,74846.80000001192,76318.30000001192,80696.59999999404,86781.70000001788,88605.90000000596,91774.90000000596,93463.59999999404]","0.6","0.4444444444444444","0","","","","","","","","","","","","","","","","","","","","","","","","","","","","","",""
"3982","1752052445754","<p style='font-size:1.1em;line-height:1.25'>Thank you for your answers! Now we will ask you a few more questions relating to your feelings in the last 24 hours.<br></p><p style='font-size:1.1em;line-height:1.25'>Press the <strong>Next</strong> button to continue.</p>","0","custom-html-button-response","17","384455","0.0-7.0-6.0","85","1","2025-07-09 09:07:38","7701e855f2ef39aa3fd6c71abdc6918a","105.161.114.4","Mozilla/5.0 (Windows NT 10.0; Win64; x64) AppleWebKit/537.36 (KHTML, like Gecko) Chrome/138.0.0.0 Safari/537.36","WebKit","Chrome","138.0.0.0","Windows","10.0","https://app.prolific.com/","en-US,en;q=0.9","65fae23bd06ae76bcc297e8b","686d226cabeef709c732f8e1","686e311451c39ee5d1f42ff5","65fae23bd06ae76bcc297e8b","2025-07-09T09:14:05.755Z","","","","","","","","","","","","","","","","","","","","","","","","","","","","","","","","","","","","","","","","","","","","",""
"86182.59999999404","","","","survey-template","18","470644","0.0-7.0-7.0","85","1","2025-07-09 09:07:38","7701e855f2ef39aa3fd6c71abdc6918a","105.161.114.4","Mozilla/5.0 (Windows NT 10.0; Win64; x64) AppleWebKit/537.36 (KHTML, like Gecko) Chrome/138.0.0.0 Safari/537.36","WebKit","Chrome","138.0.0.0","Windows","10.0","https://app.prolific.com/","en-US,en;q=0.9","65fae23bd06ae76bcc297e8b","686d226cabeef709c732f8e1","686e311451c39ee5d1f42ff5","65fae23bd06ae76bcc297e8b","2025-07-09T09:15:31.943Z","","","","","","drsp","{""Q01"":""0"",""Q02"":""0"",""Q03"":""0"",""Q04"":""0"",""Q05"":""2"",""Q06"":""1"",""Q07"":""1"",""Q08"":""1"",""Q09"":""0"",""Q10"":""0"",""Q11"":""1"",""Q12"":""3"",""Q13"":""3"",""Q14"":""2"",""Q15"":""2"",""Q16"":""1"",""Q17"":""0"",""Q18"":""0"",""Q19"":""0"",""Q20"":""0"",""Q21"":""0""}","[0,1,2,3,4,5,6,7,8,9,10,11,12,13,14,15,16,17,18,19,20]","[""Q01"",""Q02"",""Q03"",""Q04"",""Q05"",""Q06"",""Q07"",""Q07"",""Q08"",""Q09"",""Q11"",""Q10"",""Q10"",""Q08"",""Q08"",""Q12"",""Q13"",""Q14"",""Q15"",""Q16"",""Q17"",""Q18"",""Q19"",""Q20"",""Q21""]","[2957.5,4177,5598,7103.300000011921,9346.59999999404,14063.59999999404,18820.69999998808,21626.09999999404,25681.80000001192,33178.80000001192,37851.19999998808,39731.19999998808,41042.59999999404,45113.80000001192,47096,53164.30000001192,56779.59999999404,59875.09999999404,62896.19999998808,65483.69999998808,70944.69999998808,73769.69999998808,79590.90000000596,81985.69999998808,84678.09999999404]","[]","[0.09999999403953552,2957.5,4177,5598,7103.300000011921,9346.59999999404,14063.59999999404,18820.69999998808,21626.09999999404,25681.80000001192,33178.80000001192,35069,37851.19999998808,39731.19999998808,41042.59999999404,43175.59999999404,45113.80000001192,47096,51118.09999999404,53164.30000001192,56779.59999999404,59875.09999999404,62896.19999998808,65483.69999998808,70944.69999998808,73769.69999998808,79590.90000000596,81985.69999998808,84678.09999999404,86176.90000000596]","0.5238095238095238","0.3","0","","","","","","","","","","","","","","","","","","","","","","","","","","","","","",""
"16376.300000011921","","","","survey-template","19","487022","0.0-7.0-8.0","85","1","2025-07-09 09:07:38","7701e855f2ef39aa3fd6c71abdc6918a","105.161.114.4","Mozilla/5.0 (Windows NT 10.0; Win64; x64) AppleWebKit/537.36 (KHTML, like Gecko) Chrome/138.0.0.0 Safari/537.36","WebKit","Chrome","138.0.0.0","Windows","10.0","https://app.prolific.com/","en-US,en;q=0.9","65fae23bd06ae76bcc297e8b","686d226cabeef709c732f8e1","686e311451c39ee5d1f42ff5","65fae23bd06ae76bcc297e8b","2025-07-09T09:15:48.321Z","","","","","","stress","{""Q01"":""1"",""Q02"":""3"",""Q03"":""1""}","[0,1,2]","[""Q01"",""Q02"",""Q03""]","[9864.200000017881,11869.800000011921,14698.200000017881]","[]","[4226.100000023842,8597.5,9864.200000017881,11869.800000011921,14698.200000017881,16374.600000023842]","0.6666666666666666","1","0","","","","","","","","","","","","","","","","","","","","","","","","","","","","","",""
"137978","","","","instructions","20","625002","0.0-8.0-0.0","85","1","2025-07-09 09:07:38","7701e855f2ef39aa3fd6c71abdc6918a","105.161.114.4","Mozilla/5.0 (Windows NT 10.0; Win64; x64) AppleWebKit/537.36 (KHTML, like Gecko) Chrome/138.0.0.0 Safari/537.36","WebKit","Chrome","138.0.0.0","Windows","10.0","https://app.prolific.com/","en-US,en;q=0.9","65fae23bd06ae76bcc297e8b","686d226cabeef709c732f8e1","686e311451c39ee5d1f42ff5","65fae23bd06ae76bcc297e8b","","[{""page_index"":0,""viewing_time"":32153},{""page_index"":1,""viewing_time"":20244},{""page_index"":2,""viewing_time"":68207},{""page_index"":3,""viewing_time"":17373}]","","","","","","","","","","","","","","","","","","","","","","","","","","","","","","","","","","","","","","","","","","","",""
"","","","","ctl-task-cpt","21","649051","0.0-8.0-1.0","85","1","2025-07-09 09:07:38","7701e855f2ef39aa3fd6c71abdc6918a","105.161.114.4","Mozilla/5.0 (Windows NT 10.0; Win64; x64) AppleWebKit/537.36 (KHTML, like Gecko) Chrome/138.0.0.0 Safari/537.36","WebKit","Chrome","138.0.0.0","Windows","10.0","https://app.prolific.com/","en-US,en;q=0.9","65fae23bd06ae76bcc297e8b","686d226cabeef709c732f8e1","686e311451c39ee5d1f42ff5","65fae23bd06ae76bcc297e8b","","","","","","","","","","","","","","","","","win-only","2","g1:SE,g2:NW","1","0","1","629828.3","2896.1","6898.8","21034.5","2","4","4","6","2","-4","-4","0","0","0","4002.7","4000","-2295","[""left"",""up""]","{""num_key_presses"":0,""num_perfect"":0,""num_errors"":0,""num_randdir"":0,""num_randdir_good_moves"":0,""num_whilered"":0,""num_whileblue"":0,""num_blue"":2,""num_good_moves"":0}","[419.57142857142856,410.1808016640799,0.4,419.57142857142856,410.1808016640799,103.3,419.57142857142856,410.1808016640799,203.9,419.57142857142856,410.1808016640799,309.7,419.57142857142856,410.1808016640799,410.8,419.57142857142856,410.1808016640799,511.3,419.57142857142856,410.1808016640799,620.4,419.57142857142856,410.1808016640799,720.6,419.57142857142856,410.1808016640799,828.6,449.57142857142856,440.1808016640799,938.2,476.57142857142856,468.6808016640799,1040.6,479.57142857142856,476.1808016640799,1147,482.57142857142856,482.1808016640799,1247.9,482.57142857142856,485.1808016640799,1351.5,482.57142857142856,485.1808016640799,1453.4,482.57142857142856,485.1808016640799,1554.8,482.57142857142856,485.1808016640799,1659.5,482.57142857142856,485.1808016640799,1768.9,482.57142857142856,485.1808016640799,1875.6,482.57142857142856,485.1808016640799,1985.2,482.57142857142856,485.1808016640799,2086.3,482.57142857142856,485.1808016640799,2189.1,482.57142857142856,485.1808016640799,2290.7,482.57142857142856,485.1808016640799,2397,482.57142857142856,485.1808016640799,2501.8,482.57142857142856,485.1808016640799,2602.3,482.57142857142856,485.1808016640799,2706.4,482.57142857142856,485.1808016640799,2816.6,482.57142857142856,485.1808016640799,2924.2,482.57142857142856,485.1808016640799,3034,482.57142857142856,485.1808016640799,3134.1,482.57142857142856,485.1808016640799,3237.8,475.07142857142856,476.1808016640799,3339.6,434.57142857142856,456.6808016640799,3447.3,389.57142857142856,443.1808016640799,3548,376.07142857142856,443.1808016640799,3649.2,374.57142857142856,443.1808016640799,3750.4,407.57142857142856,459.6808016640799,3854.8,415.07142857142856,464.1808016640799,3954.9]","[]","","",""
"35187","","","","instructions","22","684239","0.0-8.0-2.0","85","1","2025-07-09 09:07:38","7701e855f2ef39aa3fd6c71abdc6918a","105.161.114.4","Mozilla/5.0 (Windows NT 10.0; Win64; x64) AppleWebKit/537.36 (KHTML, like Gecko) Chrome/138.0.0.0 Safari/537.36","WebKit","Chrome","138.0.0.0","Windows","10.0","https://app.prolific.com/","en-US,en;q=0.9","65fae23bd06ae76bcc297e8b","686d226cabeef709c732f8e1","686e311451c39ee5d1f42ff5","65fae23bd06ae76bcc297e8b","","[{""page_index"":0,""viewing_time"":35186}]","","","","","","","","","","","","","","","","","","","","","","","","","","","","","","","","","","","","","","","","","","","",""
"","","","","ctl-task-cpt","23","726876","0.0-8.0-3.0","85","1","2025-07-09 09:07:38","7701e855f2ef39aa3fd6c71abdc6918a","105.161.114.4","Mozilla/5.0 (Windows NT 10.0; Win64; x64) AppleWebKit/537.36 (KHTML, like Gecko) Chrome/138.0.0.0 Safari/537.36","WebKit","Chrome","138.0.0.0","Windows","10.0","https://app.prolific.com/","en-US,en;q=0.9","65fae23bd06ae76bcc297e8b","686d226cabeef709c732f8e1","686e311451c39ee5d1f42ff5","65fae23bd06ae76bcc297e8b","","","","","","","","","","","","","","","","","win-only","2","g1:SE,g2:NW","0.35","0","3","689063.3","2844.8","6849.1","39630","2","4","8","6","1","-2","-3","0","0","0","4004.2","4000","-2175","[""down"",""right""]","{""num_key_presses"":8,""num_perfect"":4,""num_errors"":1,""num_randdir"":2,""num_randdir_good_moves"":0,""num_whilered"":1,""num_whileblue"":0,""num_blue"":3,""num_good_moves"":3}","[416.57142857142856,416.1808016640799,0.9,416.57142857142856,416.1808016640799,107.5,416.57142857142856,416.1808016640799,215.9,416.57142857142856,416.1808016640799,316.2,416.57142857142856,416.1808016640799,417.4,416.57142857142856,416.1808016640799,522.6,416.57142857142856,416.1808016640799,624.5,416.57142857142856,416.1808016640799,727.3,416.57142857142856,416.1808016640799,839.3,416.57142857142856,416.1808016640799,942.5,416.57142857142856,416.1808016640799,1050.4,416.57142857142856,416.1808016640799,1155.3,416.57142857142856,416.1808016640799,1256.2,416.57142857142856,416.1808016640799,1356.6,416.57142857142856,416.1808016640799,1457,416.57142857142856,416.1808016640799,1564.2,416.57142857142856,416.1808016640799,1664.4,416.57142857142856,416.1808016640799,1772.5,416.57142857142856,416.1808016640799,1879.5,416.57142857142856,416.1808016640799,1982.5,416.57142857142856,416.1808016640799,2087.2,416.57142857142856,416.1808016640799,2188.8,416.57142857142856,416.1808016640799,2289,416.57142857142856,416.1808016640799,2390.9,416.57142857142856,416.1808016640799,2495.5,416.57142857142856,416.1808016640799,2602.7,416.57142857142856,416.1808016640799,2703.8,416.57142857142856,416.1808016640799,2804,416.57142857142856,416.1808016640799,2904.7,416.57142857142856,416.1808016640799,3007,416.57142857142856,416.1808016640799,3107.4,416.57142857142856,416.1808016640799,3213.7,416.57142857142856,416.1808016640799,3316.1,416.57142857142856,416.1808016640799,3422.5,416.57142857142856,416.1808016640799,3522.5,416.57142857142856,416.1808016640799,3636.4,416.57142857142856,416.1808016640799,3737.6,416.57142857142856,416.1808016640799,3843.3,416.57142857142856,416.1808016640799,3952.4]","[1794.6,1794.6,1000,0,794.6,""smooth"",""left"",""left"",""bad_move"",2556.1,760.5,2039.8,1795.8,-1279.4,""error"",""-"",""-"",""no_move"",3441.1,884.5,2039.8,1795.8,-394.5,""while_red"",""-"",""-"",""no_move"",7577.4,5020.8,3063.6,3560.7,953.1,""oops"",""left"",""left"",""bad_move"",10958.8,3380.7,2112.7,7578.1,1268,""smooth"",""right"",""right"",""good_move"",23962.1,13002.4,2188.2,21196.5,577.4,""smooth"",""down"",""down"",""good_move"",27251.6,3288.9,2062,23962.8,1226.9,""oops"",""down"",""up"",""bad_move"",30143,2890.1,2187.3,27253,702.8,""smooth"",""down"",""down"",""good_move""]","","",""
"40412","","","","instructions","24","767289","0.0-8.0-4.0","85","1","2025-07-09 09:07:38","7701e855f2ef39aa3fd6c71abdc6918a","105.161.114.4","Mozilla/5.0 (Windows NT 10.0; Win64; x64) AppleWebKit/537.36 (KHTML, like Gecko) Chrome/138.0.0.0 Safari/537.36","WebKit","Chrome","138.0.0.0","Windows","10.0","https://app.prolific.com/","en-US,en;q=0.9","65fae23bd06ae76bcc297e8b","686d226cabeef709c732f8e1","686e311451c39ee5d1f42ff5","65fae23bd06ae76bcc297e8b","","[{""page_index"":0,""viewing_time"":13143},{""page_index"":1,""viewing_time"":27268}]","","","","","","","","","","","","","","","","","","","","","","","","","","","","","","","","","","","","","","","","","","","",""
"15099","","","{""green_ball"":[""Ball always moves in the direction I press""]}","survey-multi-select","25","782394","0.0-8.0-5.0-0.0","85","1","2025-07-09 09:07:38","7701e855f2ef39aa3fd6c71abdc6918a","105.161.114.4","Mozilla/5.0 (Windows NT 10.0; Win64; x64) AppleWebKit/537.36 (KHTML, like Gecko) Chrome/138.0.0.0 Safari/537.36","WebKit","Chrome","138.0.0.0","Windows","10.0","https://app.prolific.com/","en-US,en;q=0.9","65fae23bd06ae76bcc297e8b","686d226cabeef709c732f8e1","686e311451c39ee5d1f42ff5","65fae23bd06ae76bcc297e8b","","","[0]","","","","quiz","","","","","","","","","","","","","","","","","","","","","","","","","","","","","","","","","","","","","false","",""
"5175","","<p align='center'><b>INCORRECT.</b> Usually the green ball moves in the indicated direction, but sometimes it shakes and moves randomly. </p>","0","html-button-response","26","787573","0.0-8.0-5.0-1.0","85","1","2025-07-09 09:07:38","7701e855f2ef39aa3fd6c71abdc6918a","105.161.114.4","Mozilla/5.0 (Windows NT 10.0; Win64; x64) AppleWebKit/537.36 (KHTML, like Gecko) Chrome/138.0.0.0 Safari/537.36","WebKit","Chrome","138.0.0.0","Windows","10.0","https://app.prolific.com/","en-US,en;q=0.9","65fae23bd06ae76bcc297e8b","686d226cabeef709c732f8e1","686e311451c39ee5d1f42ff5","65fae23bd06ae76bcc297e8b","","","","","","","","","","","","","","","","","","","","","","","","","","","","","","","","","","","","","","","","","","","","","",""
"11631","","","{""green_ball"":[""Ball sometimes shakes and moves in a random direction""]}","survey-multi-select","27","799209","0.0-8.0-5.1-0.1","85","1","2025-07-09 09:07:38","7701e855f2ef39aa3fd6c71abdc6918a","105.161.114.4","Mozilla/5.0 (Windows NT 10.0; Win64; x64) AppleWebKit/537.36 (KHTML, like Gecko) Chrome/138.0.0.0 Safari/537.36","WebKit","Chrome","138.0.0.0","Windows","10.0","https://app.prolific.com/","en-US,en;q=0.9","65fae23bd06ae76bcc297e8b","686d226cabeef709c732f8e1","686e311451c39ee5d1f42ff5","65fae23bd06ae76bcc297e8b","","","[0]","","","","quiz","","","","","","","","","","","","","","","","","","","","","","","","","","","","","","","","","","","","","true","",""
"3534","","<p align='center'><b>CORRECT!</b> Indeed, the green ball may sometimes shake and move in a random direction.</p>","0","html-button-response","28","802745","0.0-8.0-5.1-1.1","85","1","2025-07-09 09:07:38","7701e855f2ef39aa3fd6c71abdc6918a","105.161.114.4","Mozilla/5.0 (Windows NT 10.0; Win64; x64) AppleWebKit/537.36 (KHTML, like Gecko) Chrome/138.0.0.0 Safari/537.36","WebKit","Chrome","138.0.0.0","Windows","10.0","https://app.prolific.com/","en-US,en;q=0.9","65fae23bd06ae76bcc297e8b","686d226cabeef709c732f8e1","686e311451c39ee5d1f42ff5","65fae23bd06ae76bcc297e8b","","","","","","","","","","","","","","","","","","","","","","","","","","","","","","","","","","","","","","","","","","","","","",""
"15678","","","{""yellow_ball"":[""Ball doesn‘t move and I get -1 penalty point""]}","survey-multi-select","29","818427","0.0-8.0-6.0-0.0","85","1","2025-07-09 09:07:38","7701e855f2ef39aa3fd6c71abdc6918a","105.161.114.4","Mozilla/5.0 (Windows NT 10.0; Win64; x64) AppleWebKit/537.36 (KHTML, like Gecko) Chrome/138.0.0.0 Safari/537.36","WebKit","Chrome","138.0.0.0","Windows","10.0","https://app.prolific.com/","en-US,en;q=0.9","65fae23bd06ae76bcc297e8b","686d226cabeef709c732f8e1","686e311451c39ee5d1f42ff5","65fae23bd06ae76bcc297e8b","","","[0]","","","","quiz","","","","","","","","","","","","","","","","","","","","","","","","","","","","","","","","","","","","","true","",""
"2761","","<p align='center'><b>CORRECT!</b> Indeed, the yellow ball never moves and you receive a penalty.</p>","0","html-button-response","30","821192","0.0-8.0-6.0-1.0","85","1","2025-07-09 09:07:38","7701e855f2ef39aa3fd6c71abdc6918a","105.161.114.4","Mozilla/5.0 (Windows NT 10.0; Win64; x64) AppleWebKit/537.36 (KHTML, like Gecko) Chrome/138.0.0.0 Safari/537.36","WebKit","Chrome","138.0.0.0","Windows","10.0","https://app.prolific.com/","en-US,en;q=0.9","65fae23bd06ae76bcc297e8b","686d226cabeef709c732f8e1","686e311451c39ee5d1f42ff5","65fae23bd06ae76bcc297e8b","","","","","","","","","","","","","","","","","","","","","","","","","","","","","","","","","","","","","","","","","","","","","",""
"6762","","","{""blue_ball"":[""Ball always shakes and moves in a random direction""]}","survey-multi-select","31","827958","0.0-8.0-7.0-0.0","85","1","2025-07-09 09:07:38","7701e855f2ef39aa3fd6c71abdc6918a","105.161.114.4","Mozilla/5.0 (Windows NT 10.0; Win64; x64) AppleWebKit/537.36 (KHTML, like Gecko) Chrome/138.0.0.0 Safari/537.36","WebKit","Chrome","138.0.0.0","Windows","10.0","https://app.prolific.com/","en-US,en;q=0.9","65fae23bd06ae76bcc297e8b","686d226cabeef709c732f8e1","686e311451c39ee5d1f42ff5","65fae23bd06ae76bcc297e8b","","","[0]","","","","quiz","","","","","","","","","","","","","","","","","","","","","","","","","","","","","","","","","","","","","true","",""
"3432","","<p align='center'><b>CORRECT!</b> Indeed, the blue ball always shakes and moves in a random direction. Also there is a penalty of -1 point.</p>","0","html-button-response","32","831393","0.0-8.0-7.0-1.0","85","1","2025-07-09 09:07:38","7701e855f2ef39aa3fd6c71abdc6918a","105.161.114.4","Mozilla/5.0 (Windows NT 10.0; Win64; x64) AppleWebKit/537.36 (KHTML, like Gecko) Chrome/138.0.0.0 Safari/537.36","WebKit","Chrome","138.0.0.0","Windows","10.0","https://app.prolific.com/","en-US,en;q=0.9","65fae23bd06ae76bcc297e8b","686d226cabeef709c732f8e1","686e311451c39ee5d1f42ff5","65fae23bd06ae76bcc297e8b","","","","","","","","","","","","","","","","","","","","","","","","","","","","","","","","","","","","","","","","","","","","","",""
"5422","","","{""bonus"":[""When I reach 50% of points""]}","survey-multi-select","33","836819","0.0-8.0-8.0-0.0","85","1","2025-07-09 09:07:38","7701e855f2ef39aa3fd6c71abdc6918a","105.161.114.4","Mozilla/5.0 (Windows NT 10.0; Win64; x64) AppleWebKit/537.36 (KHTML, like Gecko) Chrome/138.0.0.0 Safari/537.36","WebKit","Chrome","138.0.0.0","Windows","10.0","https://app.prolific.com/","en-US,en;q=0.9","65fae23bd06ae76bcc297e8b","686d226cabeef709c732f8e1","686e311451c39ee5d1f42ff5","65fae23bd06ae76bcc297e8b","","","[0]","","","","quiz","","","","","","","","","","","","","","","","","","","","","","","","","","","","","","","","","","","","","true","",""
"2356","","<p align='center'><b>CORRECT!</b> Indeed, you receive 2 pounds extra when you reach 50% of points.</p>","0","html-button-response","34","839177","0.0-8.0-8.0-1.0","85","1","2025-07-09 09:07:38","7701e855f2ef39aa3fd6c71abdc6918a","105.161.114.4","Mozilla/5.0 (Windows NT 10.0; Win64; x64) AppleWebKit/537.36 (KHTML, like Gecko) Chrome/138.0.0.0 Safari/537.36","WebKit","Chrome","138.0.0.0","Windows","10.0","https://app.prolific.com/","en-US,en;q=0.9","65fae23bd06ae76bcc297e8b","686d226cabeef709c732f8e1","686e311451c39ee5d1f42ff5","65fae23bd06ae76bcc297e8b","","","","","","","","","","","","","","","","","","","","","","","","","","","","","","","","","","","","","","","","","","","","","",""
"17702","","","","instructions","35","856881","0.0-8.0-9.0","85","1","2025-07-09 09:07:38","7701e855f2ef39aa3fd6c71abdc6918a","105.161.114.4","Mozilla/5.0 (Windows NT 10.0; Win64; x64) AppleWebKit/537.36 (KHTML, like Gecko) Chrome/138.0.0.0 Safari/537.36","WebKit","Chrome","138.0.0.0","Windows","10.0","https://app.prolific.com/","en-US,en;q=0.9","65fae23bd06ae76bcc297e8b","686d226cabeef709c732f8e1","686e311451c39ee5d1f42ff5","65fae23bd06ae76bcc297e8b","","[{""page_index"":0,""viewing_time"":17701}]","","","","","","","","","","","","","","","","","","","","","","","","","","","","","","","","","","","","","","","","","","","",""
"13726","","<p>Before you start with this game please answer the following three questions yourself. </p>
  <p>Through this game, we measure several aspects of your cognitive performance, such as reaction times, multi-tasking capabilities </p>
  <p>and the ability to assess the situation you are in.</p>
  <p></p>
  <p><b>How good do you usually are in such tasks?</b></p>","92","html-slider-response","36","870611","0.0-9.0-0.0","85","1","2025-07-09 09:07:38","7701e855f2ef39aa3fd6c71abdc6918a","105.161.114.4","Mozilla/5.0 (Windows NT 10.0; Win64; x64) AppleWebKit/537.36 (KHTML, like Gecko) Chrome/138.0.0.0 Safari/537.36","WebKit","Chrome","138.0.0.0","Windows","10.0","https://app.prolific.com/","en-US,en;q=0.9","65fae23bd06ae76bcc297e8b","686d226cabeef709c732f8e1","686e311451c39ee5d1f42ff5","65fae23bd06ae76bcc297e8b","2025-07-09T09:22:11.910Z","","","","","","PreSkillQ","","","","","","","","","","","","","","","","","","","","","","","","","","","","","","","","","","","","","","50",""
"5271","","<div style=""width:500px;"">
  <p>How well do you think you will perform in this task compared to other participants?</p>
  </div>","78","html-slider-response","37","875886","0.0-9.0-1.0","85","1","2025-07-09 09:07:38","7701e855f2ef39aa3fd6c71abdc6918a","105.161.114.4","Mozilla/5.0 (Windows NT 10.0; Win64; x64) AppleWebKit/537.36 (KHTML, like Gecko) Chrome/138.0.0.0 Safari/537.36","WebKit","Chrome","138.0.0.0","Windows","10.0","https://app.prolific.com/","en-US,en;q=0.9","65fae23bd06ae76bcc297e8b","686d226cabeef709c732f8e1","686e311451c39ee5d1f42ff5","65fae23bd06ae76bcc297e8b","2025-07-09T09:22:17.185Z","","","","","","PrePerfQ","","","","","","","","","","","","","","","","","","","","","","","","","","","","","","","","","","","","","","50",""
"3592","","<div style=""width:500px;"">
  <p>What best describes how you currently feel?</p>
  </div>","81","html-slider-response","38","879480","0.0-9.0-2.0","85","1","2025-07-09 09:07:38","7701e855f2ef39aa3fd6c71abdc6918a","105.161.114.4","Mozilla/5.0 (Windows NT 10.0; Win64; x64) AppleWebKit/537.36 (KHTML, like Gecko) Chrome/138.0.0.0 Safari/537.36","WebKit","Chrome","138.0.0.0","Windows","10.0","https://app.prolific.com/","en-US,en;q=0.9","65fae23bd06ae76bcc297e8b","686d226cabeef709c732f8e1","686e311451c39ee5d1f42ff5","65fae23bd06ae76bcc297e8b","2025-07-09T09:22:20.779Z","","","","","","PreMotivationQ","","","","","","","","","","","","","","","","","","","","","","","","","","","","","","","","","","","","","","50",""
"","","","","ctl-task-cpt","39","908675","0.0-10.0-0.0","85","1","2025-07-09 09:07:38","7701e855f2ef39aa3fd6c71abdc6918a","105.161.114.4","Mozilla/5.0 (Windows NT 10.0; Win64; x64) AppleWebKit/537.36 (KHTML, like Gecko) Chrome/138.0.0.0 Safari/537.36","WebKit","Chrome","138.0.0.0","Windows","10.0","https://app.prolific.com/","en-US,en;q=0.9","65fae23bd06ae76bcc297e8b","686d226cabeef709c732f8e1","686e311451c39ee5d1f42ff5","65fae23bd06ae76bcc297e8b","2025-07-09T09:22:49.974Z","","","","","","","","","","","","","","","","win-only","2","g1:SE,g2:NW","1","1","0","884304.6","2374.1","7377.9","26178.2","1","4","8","6","2","-8","-9","0","0","0","5003.7","3000","-2180","[""left"",""up""]","{""num_key_presses"":5,""num_perfect"":4,""num_errors"":1,""num_randdir"":0,""num_randdir_good_moves"":0,""num_whilered"":0,""num_whileblue"":0,""num_blue"":0,""num_good_moves"":4}","[418.07142857142856,425.1808016640799,0.6,418.07142857142856,425.1808016640799,105.4,418.07142857142856,425.1808016640799,206.6,418.07142857142856,425.1808016640799,307.3,418.07142857142856,425.1808016640799,414.6,418.07142857142856,425.1808016640799,521.4,418.07142857142856,425.1808016640799,621.4,418.07142857142856,425.1808016640799,722.9,418.07142857142856,425.1808016640799,829.3,418.07142857142856,425.1808016640799,939.6,418.07142857142856,425.1808016640799,1040.1,418.07142857142856,425.1808016640799,1144.3,418.07142857142856,425.1808016640799,1244.8,418.07142857142856,425.1808016640799,1351,418.07142857142856,425.1808016640799,1451.4,418.07142857142856,425.1808016640799,1558.5,418.07142857142856,425.1808016640799,1665,418.07142857142856,425.1808016640799,1772.3,418.07142857142856,425.1808016640799,1883,418.07142857142856,425.1808016640799,1984.5,418.07142857142856,425.1808016640799,2087.7,418.07142857142856,425.1808016640799,2188.7,418.07142857142856,425.1808016640799,2300.3,418.07142857142856,425.1808016640799,2404.7,418.07142857142856,425.1808016640799,2507.3,418.07142857142856,425.1808016640799,2611.3,418.07142857142856,425.1808016640799,2716.6,418.07142857142856,425.1808016640799,2817.6,418.07142857142856,425.1808016640799,2926,418.07142857142856,425.1808016640799,3030.5,418.07142857142856,425.1808016640799,3132.6,418.07142857142856,425.1808016640799,3241.6,418.07142857142856,425.1808016640799,3347.3,418.07142857142856,425.1808016640799,3454.6,418.07142857142856,425.1808016640799,3555.2,418.07142857142856,425.1808016640799,3658.9,418.07142857142856,425.1808016640799,3759.1,418.07142857142856,425.1808016640799,3859.2,418.07142857142856,425.1808016640799,3960.7,418.07142857142856,425.1808016640799,4061.2,418.07142857142856,425.1808016640799,4161.2,418.07142857142856,425.1808016640799,4267.1,418.07142857142856,425.1808016640799,4367.2,418.07142857142856,425.1808016640799,4469.9,418.07142857142856,425.1808016640799,4570.2,418.07142857142856,425.1808016640799,4671.4,418.07142857142856,425.1808016640799,4777.4,418.07142857142856,425.1808016640799,4884.1,418.07142857142856,425.1808016640799,4985.5]","[2907.7,2907.7,1000,0,1907.7,""smooth"",""left"",""left"",""good_move"",6192.7,3284.3,2376.7,2908.5,907.5,""smooth"",""left"",""left"",""good_move"",9412,3218.5,2666.9,6193.5,551.6,""smooth"",""left"",""left"",""good_move"",11055.5,1642.8,2474.5,9412.7,-831.7,""error"",""-"",""-"",""no_move"",15894.2,4837.9,3415.7,12056.5,422,""smooth"",""up"",""up"",""good_move""]","","",""
"9835","","<div style=""width:500px;"">
  <p>What determined the result of this run?</p>
  </div>","60","html-slider-response","40","918512","0.0-10.0-1.0","85","1","2025-07-09 09:07:38","7701e855f2ef39aa3fd6c71abdc6918a","105.161.114.4","Mozilla/5.0 (Windows NT 10.0; Win64; x64) AppleWebKit/537.36 (KHTML, like Gecko) Chrome/138.0.0.0 Safari/537.36","WebKit","Chrome","138.0.0.0","Windows","10.0","https://app.prolific.com/","en-US,en;q=0.9","65fae23bd06ae76bcc297e8b","686d226cabeef709c732f8e1","686e311451c39ee5d1f42ff5","65fae23bd06ae76bcc297e8b","2025-07-09T09:22:59.811Z","","","","","","AttribQ","","","","","","","","","","","","","","","","","","","","","","","","","","","","","","","","","","","","","","50",""
"4788","","<div style=""width:500px;"">
  <p>How much control did you have over the ball?</p>
  </div>","57","html-slider-response","41","923302","0.0-10.0-2.0","85","1","2025-07-09 09:07:38","7701e855f2ef39aa3fd6c71abdc6918a","105.161.114.4","Mozilla/5.0 (Windows NT 10.0; Win64; x64) AppleWebKit/537.36 (KHTML, like Gecko) Chrome/138.0.0.0 Safari/537.36","WebKit","Chrome","138.0.0.0","Windows","10.0","https://app.prolific.com/","en-US,en;q=0.9","65fae23bd06ae76bcc297e8b","686d226cabeef709c732f8e1","686e311451c39ee5d1f42ff5","65fae23bd06ae76bcc297e8b","2025-07-09T09:23:04.601Z","","","","","","ControlQ","","","","","","","","","","","","","","","","","","","","","","","","","","","","","","","","","","","","","","50",""
"4129","","<div style=""width:500px;"">
  <p>How would you describe your current emotional state?</p>
  </div>","62","html-slider-response","42","927435","0.0-10.0-3.0","85","1","2025-07-09 09:07:38","7701e855f2ef39aa3fd6c71abdc6918a","105.161.114.4","Mozilla/5.0 (Windows NT 10.0; Win64; x64) AppleWebKit/537.36 (KHTML, like Gecko) Chrome/138.0.0.0 Safari/537.36","WebKit","Chrome","138.0.0.0","Windows","10.0","https://app.prolific.com/","en-US,en;q=0.9","65fae23bd06ae76bcc297e8b","686d226cabeef709c732f8e1","686e311451c39ee5d1f42ff5","65fae23bd06ae76bcc297e8b","2025-07-09T09:23:08.734Z","","","","","","StressQ","","","","","","","","","","","","","","","","","","","","","","","","","","","","","","","","","","","","","","50",""
"3652","","<div style=""width:500px;"">
  <p>What best describes how you currently feel?</p>
  </div>","66","html-slider-response","43","931089","0.0-10.0-4.0","85","1","2025-07-09 09:07:38","7701e855f2ef39aa3fd6c71abdc6918a","105.161.114.4","Mozilla/5.0 (Windows NT 10.0; Win64; x64) AppleWebKit/537.36 (KHTML, like Gecko) Chrome/138.0.0.0 Safari/537.36","WebKit","Chrome","138.0.0.0","Windows","10.0","https://app.prolific.com/","en-US,en;q=0.9","65fae23bd06ae76bcc297e8b","686d226cabeef709c732f8e1","686e311451c39ee5d1f42ff5","65fae23bd06ae76bcc297e8b","2025-07-09T09:23:12.389Z","","","","","","MotivationQ","","","","","","","","","","","","","","","","","","","","","","","","","","","","","","","","","","","","","","50",""
"","","","","ctl-task-cpt","44","952691","0.0-10.0-0.1","85","1","2025-07-09 09:07:38","7701e855f2ef39aa3fd6c71abdc6918a","105.161.114.4","Mozilla/5.0 (Windows NT 10.0; Win64; x64) AppleWebKit/537.36 (KHTML, like Gecko) Chrome/138.0.0.0 Safari/537.36","WebKit","Chrome","138.0.0.0","Windows","10.0","https://app.prolific.com/","en-US,en;q=0.9","65fae23bd06ae76bcc297e8b","686d226cabeef709c732f8e1","686e311451c39ee5d1f42ff5","65fae23bd06ae76bcc297e8b","2025-07-09T09:23:33.990Z","","","","","","","","","","","","","","","","win-only","3","g1:SW,g2:NE","0.9","2","0","935917.5","2283","7289.2","18577.5","1","4","4","6","1","1","1","1","0","0.007575757575757576","5006.2","3000","675","[""down"",""left""]","{""num_key_presses"":4,""num_perfect"":4,""num_errors"":0,""num_randdir"":0,""num_randdir_good_moves"":0,""num_whilered"":0,""num_whileblue"":0,""num_blue"":0,""num_good_moves"":4}","[422.57142857142856,419.1808016640799,0.5,422.57142857142856,419.1808016640799,101.5,422.57142857142856,419.1808016640799,203.2,422.57142857142856,419.1808016640799,303.5,422.57142857142856,419.1808016640799,405.9,422.57142857142856,419.1808016640799,509.5,422.57142857142856,419.1808016640799,610.3,422.57142857142856,419.1808016640799,710.5,422.57142857142856,419.1808016640799,813.4,422.57142857142856,419.1808016640799,918.4,422.57142857142856,419.1808016640799,1023.3,422.57142857142856,419.1808016640799,1126.6,422.57142857142856,419.1808016640799,1227.4,422.57142857142856,419.1808016640799,1331.9,422.57142857142856,419.1808016640799,1440.1,422.57142857142856,419.1808016640799,1542.3,422.57142857142856,419.1808016640799,1643.6,422.57142857142856,419.1808016640799,1744.7,422.57142857142856,419.1808016640799,1850.5,422.57142857142856,419.1808016640799,1950.9,422.57142857142856,419.1808016640799,2051.8,422.57142857142856,419.1808016640799,2159.7,422.57142857142856,419.1808016640799,2266.3,422.57142857142856,419.1808016640799,2368.3,422.57142857142856,419.1808016640799,2474.4,422.57142857142856,419.1808016640799,2575.8,422.57142857142856,419.1808016640799,2685.2,422.57142857142856,419.1808016640799,2791.8,422.57142857142856,419.1808016640799,2894.5,422.57142857142856,419.1808016640799,2997.1,422.57142857142856,419.1808016640799,3099.7,422.57142857142856,419.1808016640799,3208.5,422.57142857142856,419.1808016640799,3316.8,422.57142857142856,419.1808016640799,3422,422.57142857142856,419.1808016640799,3522.9,382.07142857142856,402.6808016640799,3624.2,382.07142857142856,402.6808016640799,3724.9,382.07142857142856,402.6808016640799,3828.1,382.07142857142856,402.6808016640799,3935,382.07142857142856,402.6808016640799,4036.8,382.07142857142856,402.6808016640799,4140.1,382.07142857142856,402.6808016640799,4240.1,382.07142857142856,402.6808016640799,4346.7,382.07142857142856,402.6808016640799,4446.9,382.07142857142856,402.6808016640799,4551.8,382.07142857142856,402.6808016640799,4663.2,382.07142857142856,402.6808016640799,4768.3,382.07142857142856,402.6808016640799,4880,382.07142857142856,402.6808016640799,4981.3]","[2498.1,2498.1,1000,0,1498.1,""smooth"",""left"",""left"",""good_move"",5249.4,2750.6,1830.3,2498.9,920.2,""smooth"",""down"",""down"",""good_move"",8349.4,3099.4,2729.3,5250,370.1,""smooth"",""down"",""down"",""good_move"",11158.8,2809.2,2411,8349.6,398.2,""smooth"",""left"",""left"",""good_move""]","","",""
"4029","","<div style=""width:500px;"">
  <p>What determined the result of this run?</p>
  </div>","86","html-slider-response","45","956724","0.0-10.0-1.1","85","1","2025-07-09 09:07:38","7701e855f2ef39aa3fd6c71abdc6918a","105.161.114.4","Mozilla/5.0 (Windows NT 10.0; Win64; x64) AppleWebKit/537.36 (KHTML, like Gecko) Chrome/138.0.0.0 Safari/537.36","WebKit","Chrome","138.0.0.0","Windows","10.0","https://app.prolific.com/","en-US,en;q=0.9","65fae23bd06ae76bcc297e8b","686d226cabeef709c732f8e1","686e311451c39ee5d1f42ff5","65fae23bd06ae76bcc297e8b","2025-07-09T09:23:38.023Z","","","","","","AttribQ","","","","","","","","","","","","","","","","","","","","","","","","","","","","","","","","","","","","","","50",""
"3305","","<div style=""width:500px;"">
  <p>How much control did you have over the ball?</p>
  </div>","79","html-slider-response","46","960031","0.0-10.0-2.1","85","1","2025-07-09 09:07:38","7701e855f2ef39aa3fd6c71abdc6918a","105.161.114.4","Mozilla/5.0 (Windows NT 10.0; Win64; x64) AppleWebKit/537.36 (KHTML, like Gecko) Chrome/138.0.0.0 Safari/537.36","WebKit","Chrome","138.0.0.0","Windows","10.0","https://app.prolific.com/","en-US,en;q=0.9","65fae23bd06ae76bcc297e8b","686d226cabeef709c732f8e1","686e311451c39ee5d1f42ff5","65fae23bd06ae76bcc297e8b","2025-07-09T09:23:41.330Z","","","","","","ControlQ","","","","","","","","","","","","","","","","","","","","","","","","","","","","","","","","","","","","","","50",""
"9932","","<div style=""width:500px;"">
  <p>How would you describe your current emotional state?</p>
  </div>","6","html-slider-response","47","969964","0.0-10.0-3.1","85","1","2025-07-09 09:07:38","7701e855f2ef39aa3fd6c71abdc6918a","105.161.114.4","Mozilla/5.0 (Windows NT 10.0; Win64; x64) AppleWebKit/537.36 (KHTML, like Gecko) Chrome/138.0.0.0 Safari/537.36","WebKit","Chrome","138.0.0.0","Windows","10.0","https://app.prolific.com/","en-US,en;q=0.9","65fae23bd06ae76bcc297e8b","686d226cabeef709c732f8e1","686e311451c39ee5d1f42ff5","65fae23bd06ae76bcc297e8b","2025-07-09T09:23:51.263Z","","","","","","StressQ","","","","","","","","","","","","","","","","","","","","","","","","","","","","","","","","","","","","","","50",""
"9079","","<div style=""width:500px;"">
  <p>What best describes how you currently feel?</p>
  </div>","75","html-slider-response","48","979044","0.0-10.0-4.1","85","1","2025-07-09 09:07:38","7701e855f2ef39aa3fd6c71abdc6918a","105.161.114.4","Mozilla/5.0 (Windows NT 10.0; Win64; x64) AppleWebKit/537.36 (KHTML, like Gecko) Chrome/138.0.0.0 Safari/537.36","WebKit","Chrome","138.0.0.0","Windows","10.0","https://app.prolific.com/","en-US,en;q=0.9","65fae23bd06ae76bcc297e8b","686d226cabeef709c732f8e1","686e311451c39ee5d1f42ff5","65fae23bd06ae76bcc297e8b","2025-07-09T09:24:00.343Z","","","","","","MotivationQ","","","","","","","","","","","","","","","","","","","","","","","","","","","","","","","","","","","","","","50",""
"","","","","ctl-task-cpt","49","1010448","0.0-10.0-0.2","85","1","2025-07-09 09:07:38","7701e855f2ef39aa3fd6c71abdc6918a","105.161.114.4","Mozilla/5.0 (Windows NT 10.0; Win64; x64) AppleWebKit/537.36 (KHTML, like Gecko) Chrome/138.0.0.0 Safari/537.36","WebKit","Chrome","138.0.0.0","Windows","10.0","https://app.prolific.com/","en-US,en;q=0.9","65fae23bd06ae76bcc297e8b","686d226cabeef709c732f8e1","686e311451c39ee5d1f42ff5","65fae23bd06ae76bcc297e8b","2025-07-09T09:24:31.747Z","","","","","","","","","","","","","","","","win-only","2","g1:SE,g2:NW","0.8","3","0","983869.2","1664.7","6669.8","28383.1","1","4","4","6","1","-1","-1","0","1","0","5005.1","3000","-2160","[""down"",""right""]","{""num_key_presses"":6,""num_perfect"":4,""num_errors"":0,""num_randdir"":2,""num_randdir_good_moves"":0,""num_whilered"":0,""num_whileblue"":0,""num_blue"":1,""num_good_moves"":4}","[416.57142857142856,410.1808016640799,0.4,416.57142857142856,410.1808016640799,102,416.57142857142856,410.1808016640799,218.2,416.57142857142856,410.1808016640799,318.4,416.57142857142856,410.1808016640799,421.4,416.57142857142856,410.1808016640799,528.4,416.57142857142856,410.1808016640799,631.7,416.57142857142856,410.1808016640799,737,416.57142857142856,410.1808016640799,844.2,416.57142857142856,410.1808016640799,946.6,416.57142857142856,410.1808016640799,1051.5,416.57142857142856,410.1808016640799,1152.2,416.57142857142856,410.1808016640799,1257.8,416.57142857142856,410.1808016640799,1359,416.57142857142856,410.1808016640799,1461.2,416.57142857142856,410.1808016640799,1563.8,416.57142857142856,410.1808016640799,1666.8,416.57142857142856,410.1808016640799,1776.3,416.57142857142856,410.1808016640799,1885.6,416.57142857142856,410.1808016640799,1987.6,416.57142857142856,410.1808016640799,2092.7,416.57142857142856,410.1808016640799,2197.2,416.57142857142856,410.1808016640799,2297.3,416.57142857142856,410.1808016640799,2398.7,416.57142857142856,410.1808016640799,2500.4,416.57142857142856,410.1808016640799,2605.3,416.57142857142856,410.1808016640799,2713.1,416.57142857142856,410.1808016640799,2813.9,416.57142857142856,410.1808016640799,2918.6,416.57142857142856,410.1808016640799,3024.5,416.57142857142856,410.1808016640799,3126.3,416.57142857142856,410.1808016640799,3227,416.57142857142856,410.1808016640799,3331.1,416.57142857142856,410.1808016640799,3431.8,416.57142857142856,410.1808016640799,3532,416.57142857142856,410.1808016640799,3632.4,416.57142857142856,410.1808016640799,3736.7,416.57142857142856,410.1808016640799,3838.3,416.57142857142856,410.1808016640799,3939.3,416.57142857142856,410.1808016640799,4045.6,416.57142857142856,410.1808016640799,4146.8,416.57142857142856,410.1808016640799,4247.1,416.57142857142856,410.1808016640799,4347.9,416.57142857142856,410.1808016640799,4456.8,416.57142857142856,410.1808016640799,4557.7,416.57142857142856,410.1808016640799,4663.5,416.57142857142856,410.1808016640799,4767.4,416.57142857142856,410.1808016640799,4869.1,416.57142857142856,410.1808016640799,4970.8]","[2155.3,2155.3,1000,0,1155.3,""smooth"",""down"",""down"",""good_move"",8420.6,6264.8,2405.8,5625.9,388.9,""smooth"",""down"",""down"",""good_move"",10890.2,2469.4,1996.4,8420.8,473,""oops"",""right"",""up"",""bad_move"",13742.2,2851.5,2501.8,10890.7,349.7,""oops"",""down"",""up"",""bad_move"",16254.5,2512,1944.7,13742.5,567.3,""smooth"",""down"",""down"",""good_move"",19556.9,3302.1,2465.8,16254.8,836.3,""smooth"",""right"",""right"",""good_move""]","","",""
"3653","","<div style=""width:500px;"">
  <p>What determined the result of this run?</p>
  </div>","67","html-slider-response","50","1014103","0.0-10.0-1.2","85","1","2025-07-09 09:07:38","7701e855f2ef39aa3fd6c71abdc6918a","105.161.114.4","Mozilla/5.0 (Windows NT 10.0; Win64; x64) AppleWebKit/537.36 (KHTML, like Gecko) Chrome/138.0.0.0 Safari/537.36","WebKit","Chrome","138.0.0.0","Windows","10.0","https://app.prolific.com/","en-US,en;q=0.9","65fae23bd06ae76bcc297e8b","686d226cabeef709c732f8e1","686e311451c39ee5d1f42ff5","65fae23bd06ae76bcc297e8b","2025-07-09T09:24:35.403Z","","","","","","AttribQ","","","","","","","","","","","","","","","","","","","","","","","","","","","","","","","","","","","","","","50",""
"3737","","<div style=""width:500px;"">
  <p>How much control did you have over the ball?</p>
  </div>","59","html-slider-response","51","1017844","0.0-10.0-2.2","85","1","2025-07-09 09:07:38","7701e855f2ef39aa3fd6c71abdc6918a","105.161.114.4","Mozilla/5.0 (Windows NT 10.0; Win64; x64) AppleWebKit/537.36 (KHTML, like Gecko) Chrome/138.0.0.0 Safari/537.36","WebKit","Chrome","138.0.0.0","Windows","10.0","https://app.prolific.com/","en-US,en;q=0.9","65fae23bd06ae76bcc297e8b","686d226cabeef709c732f8e1","686e311451c39ee5d1f42ff5","65fae23bd06ae76bcc297e8b","2025-07-09T09:24:39.143Z","","","","","","ControlQ","","","","","","","","","","","","","","","","","","","","","","","","","","","","","","","","","","","","","","50",""
"3644","","<div style=""width:500px;"">
  <p>How would you describe your current emotional state?</p>
  </div>","41","html-slider-response","52","1021489","0.0-10.0-3.2","85","1","2025-07-09 09:07:38","7701e855f2ef39aa3fd6c71abdc6918a","105.161.114.4","Mozilla/5.0 (Windows NT 10.0; Win64; x64) AppleWebKit/537.36 (KHTML, like Gecko) Chrome/138.0.0.0 Safari/537.36","WebKit","Chrome","138.0.0.0","Windows","10.0","https://app.prolific.com/","en-US,en;q=0.9","65fae23bd06ae76bcc297e8b","686d226cabeef709c732f8e1","686e311451c39ee5d1f42ff5","65fae23bd06ae76bcc297e8b","2025-07-09T09:24:42.789Z","","","","","","StressQ","","","","","","","","","","","","","","","","","","","","","","","","","","","","","","","","","","","","","","50",""
"2920","","<div style=""width:500px;"">
  <p>What best describes how you currently feel?</p>
  </div>","67","html-slider-response","53","1024411","0.0-10.0-4.2","85","1","2025-07-09 09:07:38","7701e855f2ef39aa3fd6c71abdc6918a","105.161.114.4","Mozilla/5.0 (Windows NT 10.0; Win64; x64) AppleWebKit/537.36 (KHTML, like Gecko) Chrome/138.0.0.0 Safari/537.36","WebKit","Chrome","138.0.0.0","Windows","10.0","https://app.prolific.com/","en-US,en;q=0.9","65fae23bd06ae76bcc297e8b","686d226cabeef709c732f8e1","686e311451c39ee5d1f42ff5","65fae23bd06ae76bcc297e8b","2025-07-09T09:24:45.710Z","","","","","","MotivationQ","","","","","","","","","","","","","","","","","","","","","","","","","","","","","","","","","","","","","","50",""
"","","","","ctl-task-cpt","54","1049130","0.0-10.0-0.3","85","1","2025-07-09 09:07:38","7701e855f2ef39aa3fd6c71abdc6918a","105.161.114.4","Mozilla/5.0 (Windows NT 10.0; Win64; x64) AppleWebKit/537.36 (KHTML, like Gecko) Chrome/138.0.0.0 Safari/537.36","WebKit","Chrome","138.0.0.0","Windows","10.0","https://app.prolific.com/","en-US,en;q=0.9","65fae23bd06ae76bcc297e8b","686d226cabeef709c732f8e1","686e311451c39ee5d1f42ff5","65fae23bd06ae76bcc297e8b","2025-07-09T09:25:10.429Z","","","","","","","","","","","","","","","","win-only","1","g1:NE,g2:SW","0.7","4","0","1029237.9","1670.5","6671.3","21697.5","1","4","8","6","1","-1","-1","0","0","0","5000.8","3000","-2115","[""up"",""right""]","{""num_key_presses"":4,""num_perfect"":3,""num_errors"":0,""num_randdir"":1,""num_randdir_good_moves"":0,""num_whilered"":0,""num_whileblue"":0,""num_blue"":0,""num_good_moves"":3}","[413.57142857142856,413.1808016640799,0.4,413.57142857142856,413.1808016640799,103,413.57142857142856,413.1808016640799,205.6,413.57142857142856,413.1808016640799,310.7,413.57142857142856,413.1808016640799,412.7,413.57142857142856,413.1808016640799,520.9,413.57142857142856,413.1808016640799,628.5,413.57142857142856,413.1808016640799,732.1,413.57142857142856,413.1808016640799,835.6,413.57142857142856,413.1808016640799,943.4,413.57142857142856,413.1808016640799,1043.7,413.57142857142856,413.1808016640799,1145.1,413.57142857142856,413.1808016640799,1245.3,413.57142857142856,413.1808016640799,1351.9,413.57142857142856,413.1808016640799,1461.9,413.57142857142856,413.1808016640799,1562.8,413.57142857142856,413.1808016640799,1667.7,413.57142857142856,413.1808016640799,1775.2,413.57142857142856,413.1808016640799,1876.1,413.57142857142856,413.1808016640799,1978.2,413.57142857142856,413.1808016640799,2083.8,413.57142857142856,413.1808016640799,2185.1,413.57142857142856,413.1808016640799,2294,413.57142857142856,413.1808016640799,2400.3,413.57142857142856,413.1808016640799,2501.3,413.57142857142856,413.1808016640799,2606.2,413.57142857142856,413.1808016640799,2706.2,413.57142857142856,413.1808016640799,2816.8,413.57142857142856,413.1808016640799,2923,413.57142857142856,413.1808016640799,3034.5,413.57142857142856,413.1808016640799,3135.7,413.57142857142856,413.1808016640799,3241.1,413.57142857142856,413.1808016640799,3341.6,413.57142857142856,413.1808016640799,3441.9,413.57142857142856,413.1808016640799,3547.7,413.57142857142856,413.1808016640799,3657.8,413.57142857142856,413.1808016640799,3758.6,413.57142857142856,413.1808016640799,3858.8,413.57142857142856,413.1808016640799,3961.2,413.57142857142856,413.1808016640799,4066,413.57142857142856,413.1808016640799,4174.7,413.57142857142856,413.1808016640799,4276.3,413.57142857142856,413.1808016640799,4376.7,413.57142857142856,413.1808016640799,4481.8,413.57142857142856,413.1808016640799,4589,413.57142857142856,413.1808016640799,4690.9,413.57142857142856,413.1808016640799,4798.3,413.57142857142856,413.1808016640799,4900.2]","[3393.1,3393.1,1000,0,2393.1,""oops"",""up"",""down"",""bad_move"",7366,3972.4,3059.6,3393.7,912.7,""smooth"",""right"",""right"",""good_move"",10446.1,3079.5,2618.7,7366.6,460.8,""smooth"",""right"",""right"",""good_move"",12691.3,2244.9,1751.1,10446.5,493.8,""smooth"",""up"",""up"",""good_move""]","","",""
"4013","","<div style=""width:500px;"">
  <p>What determined the result of this run?</p>
  </div>","73","html-slider-response","55","1053145","0.0-10.0-1.3","85","1","2025-07-09 09:07:38","7701e855f2ef39aa3fd6c71abdc6918a","105.161.114.4","Mozilla/5.0 (Windows NT 10.0; Win64; x64) AppleWebKit/537.36 (KHTML, like Gecko) Chrome/138.0.0.0 Safari/537.36","WebKit","Chrome","138.0.0.0","Windows","10.0","https://app.prolific.com/","en-US,en;q=0.9","65fae23bd06ae76bcc297e8b","686d226cabeef709c732f8e1","686e311451c39ee5d1f42ff5","65fae23bd06ae76bcc297e8b","2025-07-09T09:25:14.444Z","","","","","","AttribQ","","","","","","","","","","","","","","","","","","","","","","","","","","","","","","","","","","","","","","50",""
"7801","","<div style=""width:500px;"">
  <p>How much control did you have over the ball?</p>
  </div>","56","html-slider-response","56","1060948","0.0-10.0-2.3","85","1","2025-07-09 09:07:38","7701e855f2ef39aa3fd6c71abdc6918a","105.161.114.4","Mozilla/5.0 (Windows NT 10.0; Win64; x64) AppleWebKit/537.36 (KHTML, like Gecko) Chrome/138.0.0.0 Safari/537.36","WebKit","Chrome","138.0.0.0","Windows","10.0","https://app.prolific.com/","en-US,en;q=0.9","65fae23bd06ae76bcc297e8b","686d226cabeef709c732f8e1","686e311451c39ee5d1f42ff5","65fae23bd06ae76bcc297e8b","2025-07-09T09:25:22.247Z","","","","","","ControlQ","","","","","","","","","","","","","","","","","","","","","","","","","","","","","","","","","","","","","","50",""
"7434","","<div style=""width:500px;"">
  <p>How would you describe your current emotional state?</p>
  </div>","44","html-slider-response","57","1068383","0.0-10.0-3.3","85","1","2025-07-09 09:07:38","7701e855f2ef39aa3fd6c71abdc6918a","105.161.114.4","Mozilla/5.0 (Windows NT 10.0; Win64; x64) AppleWebKit/537.36 (KHTML, like Gecko) Chrome/138.0.0.0 Safari/537.36","WebKit","Chrome","138.0.0.0","Windows","10.0","https://app.prolific.com/","en-US,en;q=0.9","65fae23bd06ae76bcc297e8b","686d226cabeef709c732f8e1","686e311451c39ee5d1f42ff5","65fae23bd06ae76bcc297e8b","2025-07-09T09:25:29.683Z","","","","","","StressQ","","","","","","","","","","","","","","","","","","","","","","","","","","","","","","","","","","","","","","50",""
"4077","","<div style=""width:500px;"">
  <p>What best describes how you currently feel?</p>
  </div>","68","html-slider-response","58","1072462","0.0-10.0-4.3","85","1","2025-07-09 09:07:38","7701e855f2ef39aa3fd6c71abdc6918a","105.161.114.4","Mozilla/5.0 (Windows NT 10.0; Win64; x64) AppleWebKit/537.36 (KHTML, like Gecko) Chrome/138.0.0.0 Safari/537.36","WebKit","Chrome","138.0.0.0","Windows","10.0","https://app.prolific.com/","en-US,en;q=0.9","65fae23bd06ae76bcc297e8b","686d226cabeef709c732f8e1","686e311451c39ee5d1f42ff5","65fae23bd06ae76bcc297e8b","2025-07-09T09:25:33.762Z","","","","","","MotivationQ","","","","","","","","","","","","","","","","","","","","","","","","","","","","","","","","","","","","","","50",""
"","","","","ctl-task-cpt","59","1096759","0.0-10.0-0.4","85","1","2025-07-09 09:07:38","7701e855f2ef39aa3fd6c71abdc6918a","105.161.114.4","Mozilla/5.0 (Windows NT 10.0; Win64; x64) AppleWebKit/537.36 (KHTML, like Gecko) Chrome/138.0.0.0 Safari/537.36","WebKit","Chrome","138.0.0.0","Windows","10.0","https://app.prolific.com/","en-US,en;q=0.9","65fae23bd06ae76bcc297e8b","686d226cabeef709c732f8e1","686e311451c39ee5d1f42ff5","65fae23bd06ae76bcc297e8b","2025-07-09T09:25:58.058Z","","","","","","","","","","","","","","","","win-only","3","g1:SW,g2:NE","0.6","5","0","1077286.9","1483.5","6486.1","21261","1","4","8","6","1","1","1","1","0","0.007575757575757576","5002.6","3000","1320","[""down"",""left""]","{""num_key_presses"":4,""num_perfect"":3,""num_errors"":0,""num_randdir"":1,""num_randdir_good_moves"":1,""num_whilered"":0,""num_whileblue"":0,""num_blue"":1,""num_good_moves"":4}","[416.57142857142856,410.1808016640799,0.1,416.57142857142856,410.1808016640799,103.7,416.57142857142856,410.1808016640799,204.7,416.57142857142856,410.1808016640799,315.3,416.57142857142856,410.1808016640799,420.8,416.57142857142856,410.1808016640799,531.2,416.57142857142856,410.1808016640799,637.1,416.57142857142856,410.1808016640799,737.5,416.57142857142856,410.1808016640799,842.7,416.57142857142856,410.1808016640799,944.7,416.57142857142856,410.1808016640799,1046.7,416.57142857142856,410.1808016640799,1148.4,416.57142857142856,410.1808016640799,1260.5,416.57142857142856,410.1808016640799,1361.2,416.57142857142856,410.1808016640799,1467,416.57142857142856,410.1808016640799,1573.1,416.57142857142856,410.1808016640799,1677.9,416.57142857142856,410.1808016640799,1782.7,416.57142857142856,410.1808016640799,1885.5,416.57142857142856,410.1808016640799,1986.4,416.57142857142856,410.1808016640799,2098,416.57142857142856,410.1808016640799,2203.4,416.57142857142856,410.1808016640799,2309.6,416.57142857142856,410.1808016640799,2419.2,416.57142857142856,410.1808016640799,2519.2,416.57142857142856,410.1808016640799,2621.7,416.57142857142856,410.1808016640799,2721.8,416.57142857142856,410.1808016640799,2828.9,416.57142857142856,410.1808016640799,2929.9,416.57142857142856,410.1808016640799,3032,416.57142857142856,410.1808016640799,3134.7,416.57142857142856,410.1808016640799,3234.8,416.57142857142856,410.1808016640799,3336.9,416.57142857142856,410.1808016640799,3444,416.57142857142856,410.1808016640799,3549.2,416.57142857142856,410.1808016640799,3649.8,416.57142857142856,410.1808016640799,3761.8,416.57142857142856,410.1808016640799,3867.7,416.57142857142856,410.1808016640799,3968.7,416.57142857142856,410.1808016640799,4078.9,416.57142857142856,410.1808016640799,4194.4,416.57142857142856,410.1808016640799,4294.9,416.57142857142856,410.1808016640799,4399.7,416.57142857142856,410.1808016640799,4511.4,416.57142857142856,410.1808016640799,4619.2,416.57142857142856,410.1808016640799,4724.5,416.57142857142856,410.1808016640799,4841.4,416.57142857142856,410.1808016640799,4944.2]","[2047.5,2047.5,1000,0,1047.5,""smooth"",""down"",""down"",""good_move"",8453.7,6405.4,2707.5,5331.7,414.5,""smooth"",""left"",""left"",""good_move"",11903.6,3449.2,2753.5,8454.4,695.7,""smooth"",""down"",""down"",""good_move"",14653.9,2749.8,2441.5,11904.1,308.3,""oops"",""left"",""left"",""good_move""]","","",""
"5012","","<div style=""width:500px;"">
  <p>What determined the result of this run?</p>
  </div>","80","html-slider-response","60","1101773","0.0-10.0-1.4","85","1","2025-07-09 09:07:38","7701e855f2ef39aa3fd6c71abdc6918a","105.161.114.4","Mozilla/5.0 (Windows NT 10.0; Win64; x64) AppleWebKit/537.36 (KHTML, like Gecko) Chrome/138.0.0.0 Safari/537.36","WebKit","Chrome","138.0.0.0","Windows","10.0","https://app.prolific.com/","en-US,en;q=0.9","65fae23bd06ae76bcc297e8b","686d226cabeef709c732f8e1","686e311451c39ee5d1f42ff5","65fae23bd06ae76bcc297e8b","2025-07-09T09:26:03.072Z","","","","","","AttribQ","","","","","","","","","","","","","","","","","","","","","","","","","","","","","","","","","","","","","","50",""
"2643","","<div style=""width:500px;"">
  <p>How much control did you have over the ball?</p>
  </div>","66","html-slider-response","61","1104418","0.0-10.0-2.4","85","1","2025-07-09 09:07:38","7701e855f2ef39aa3fd6c71abdc6918a","105.161.114.4","Mozilla/5.0 (Windows NT 10.0; Win64; x64) AppleWebKit/537.36 (KHTML, like Gecko) Chrome/138.0.0.0 Safari/537.36","WebKit","Chrome","138.0.0.0","Windows","10.0","https://app.prolific.com/","en-US,en;q=0.9","65fae23bd06ae76bcc297e8b","686d226cabeef709c732f8e1","686e311451c39ee5d1f42ff5","65fae23bd06ae76bcc297e8b","2025-07-09T09:26:05.717Z","","","","","","ControlQ","","","","","","","","","","","","","","","","","","","","","","","","","","","","","","","","","","","","","","50",""
"5716","","<div style=""width:500px;"">
  <p>How would you describe your current emotional state?</p>
  </div>","9","html-slider-response","62","1110136","0.0-10.0-3.4","85","1","2025-07-09 09:07:38","7701e855f2ef39aa3fd6c71abdc6918a","105.161.114.4","Mozilla/5.0 (Windows NT 10.0; Win64; x64) AppleWebKit/537.36 (KHTML, like Gecko) Chrome/138.0.0.0 Safari/537.36","WebKit","Chrome","138.0.0.0","Windows","10.0","https://app.prolific.com/","en-US,en;q=0.9","65fae23bd06ae76bcc297e8b","686d226cabeef709c732f8e1","686e311451c39ee5d1f42ff5","65fae23bd06ae76bcc297e8b","2025-07-09T09:26:11.435Z","","","","","","StressQ","","","","","","","","","","","","","","","","","","","","","","","","","","","","","","","","","","","","","","50",""
"4374","","<div style=""width:500px;"">
  <p>What best describes how you currently feel?</p>
  </div>","72","html-slider-response","63","1114512","0.0-10.0-4.4","85","1","2025-07-09 09:07:38","7701e855f2ef39aa3fd6c71abdc6918a","105.161.114.4","Mozilla/5.0 (Windows NT 10.0; Win64; x64) AppleWebKit/537.36 (KHTML, like Gecko) Chrome/138.0.0.0 Safari/537.36","WebKit","Chrome","138.0.0.0","Windows","10.0","https://app.prolific.com/","en-US,en;q=0.9","65fae23bd06ae76bcc297e8b","686d226cabeef709c732f8e1","686e311451c39ee5d1f42ff5","65fae23bd06ae76bcc297e8b","2025-07-09T09:26:15.811Z","","","","","","MotivationQ","","","","","","","","","","","","","","","","","","","","","","","","","","","","","","","","","","","","","","50",""
"","","","","ctl-task-cpt","64","1159325","0.0-10.0-0.5","85","1","2025-07-09 09:07:38","7701e855f2ef39aa3fd6c71abdc6918a","105.161.114.4","Mozilla/5.0 (Windows NT 10.0; Win64; x64) AppleWebKit/537.36 (KHTML, like Gecko) Chrome/138.0.0.0 Safari/537.36","WebKit","Chrome","138.0.0.0","Windows","10.0","https://app.prolific.com/","en-US,en;q=0.9","65fae23bd06ae76bcc297e8b","686d226cabeef709c732f8e1","686e311451c39ee5d1f42ff5","65fae23bd06ae76bcc297e8b","2025-07-09T09:27:00.624Z","","","","","","","","","","","","","","","","win-only","1","g1:NE,g2:SW","0.5","6","0","1119336.1","2667.2","7672","41794","1","4","4","6","2","-4","-6","0","1","0","5004.8","3000","-2000","[""down"",""left""]","{""num_key_presses"":10,""num_perfect"":5,""num_errors"":2,""num_randdir"":3,""num_randdir_good_moves"":1,""num_whilered"":0,""num_whileblue"":1,""num_blue"":2,""num_good_moves"":6}","[407.57142857142856,419.1808016640799,0.4,407.57142857142856,419.1808016640799,103.7,407.57142857142856,419.1808016640799,211.4,407.57142857142856,419.1808016640799,315.7,407.57142857142856,419.1808016640799,415.8,407.57142857142856,419.1808016640799,517.4,407.57142857142856,419.1808016640799,618.7,407.57142857142856,419.1808016640799,720,407.57142857142856,419.1808016640799,824.9,407.57142857142856,419.1808016640799,931.6,407.57142857142856,419.1808016640799,1034.3,407.57142857142856,419.1808016640799,1138.9,407.57142857142856,419.1808016640799,1243.7,407.57142857142856,419.1808016640799,1351.5,407.57142857142856,419.1808016640799,1451.9,407.57142857142856,419.1808016640799,1552.1,407.57142857142856,419.1808016640799,1655.1,407.57142857142856,419.1808016640799,1756.2,407.57142857142856,419.1808016640799,1867.8,407.57142857142856,419.1808016640799,1972.4,407.57142857142856,419.1808016640799,2083.3,407.57142857142856,419.1808016640799,2184.3,407.57142857142856,419.1808016640799,2293.6,407.57142857142856,419.1808016640799,2400,407.57142857142856,419.1808016640799,2501.1,407.57142857142856,419.1808016640799,2601.3,407.57142857142856,419.1808016640799,2711,407.57142857142856,419.1808016640799,2817,407.57142857142856,419.1808016640799,2933.8,407.57142857142856,419.1808016640799,3040.9,407.57142857142856,419.1808016640799,3144.8,407.57142857142856,419.1808016640799,3248.2,407.57142857142856,419.1808016640799,3348.8,407.57142857142856,419.1808016640799,3454.5,407.57142857142856,419.1808016640799,3558.9,407.57142857142856,419.1808016640799,3662.5,407.57142857142856,419.1808016640799,3771.4,407.57142857142856,419.1808016640799,3882.4,407.57142857142856,419.1808016640799,3983.5,407.57142857142856,419.1808016640799,4086,407.57142857142856,419.1808016640799,4197.8,407.57142857142856,419.1808016640799,4298.2,407.57142857142856,419.1808016640799,4399.6,407.57142857142856,419.1808016640799,4506.2,407.57142857142856,419.1808016640799,4615.1,407.57142857142856,419.1808016640799,4723.8,407.57142857142856,419.1808016640799,4839.4,407.57142857142856,419.1808016640799,4942.3]","[62.1,62.2,1000,0,-937.8,""error"",""-"",""-"",""no_move"",4331.8,4269.3,2617.2,1064.6,650,""smooth"",""down"",""down"",""good_move"",7337.6,3005,2478.2,4332.6,526.8,""oops"",""left"",""left"",""good_move"",10987.3,3649,3145.5,7338.3,503.5,""smooth"",""down"",""down"",""good_move"",13701.2,2713.5,2274.7,10987.7,438.8,""smooth"",""down"",""down"",""good_move"",15832.8,2131.3,1857,13701.5,274.3,""while_blue"",""left"",""right"",""bad_move"",18947.6,3114.3,2542.9,15833.3,571.4,""smooth"",""left"",""left"",""good_move"",25918.5,6970.2,2733,22786.6,398.9,""smooth"",""left"",""left"",""good_move"",28216.3,2297.5,1853.5,25918.8,444,""oops"",""left"",""up"",""bad_move"",30774.5,2557.4,2151.4,28217.1,406,""oops"",""left"",""right"",""bad_move""]","","",""
"3900","","<div style=""width:500px;"">
  <p>What determined the result of this run?</p>
  </div>","33","html-slider-response","65","1163227","0.0-10.0-1.5","85","1","2025-07-09 09:07:38","7701e855f2ef39aa3fd6c71abdc6918a","105.161.114.4","Mozilla/5.0 (Windows NT 10.0; Win64; x64) AppleWebKit/537.36 (KHTML, like Gecko) Chrome/138.0.0.0 Safari/537.36","WebKit","Chrome","138.0.0.0","Windows","10.0","https://app.prolific.com/","en-US,en;q=0.9","65fae23bd06ae76bcc297e8b","686d226cabeef709c732f8e1","686e311451c39ee5d1f42ff5","65fae23bd06ae76bcc297e8b","2025-07-09T09:27:04.526Z","","","","","","AttribQ","","","","","","","","","","","","","","","","","","","","","","","","","","","","","","","","","","","","","","50",""
"2922","","<div style=""width:500px;"">
  <p>How much control did you have over the ball?</p>
  </div>","31","html-slider-response","66","1166151","0.0-10.0-2.5","85","1","2025-07-09 09:07:38","7701e855f2ef39aa3fd6c71abdc6918a","105.161.114.4","Mozilla/5.0 (Windows NT 10.0; Win64; x64) AppleWebKit/537.36 (KHTML, like Gecko) Chrome/138.0.0.0 Safari/537.36","WebKit","Chrome","138.0.0.0","Windows","10.0","https://app.prolific.com/","en-US,en;q=0.9","65fae23bd06ae76bcc297e8b","686d226cabeef709c732f8e1","686e311451c39ee5d1f42ff5","65fae23bd06ae76bcc297e8b","2025-07-09T09:27:07.450Z","","","","","","ControlQ","","","","","","","","","","","","","","","","","","","","","","","","","","","","","","","","","","","","","","50",""
"3640","","<div style=""width:500px;"">
  <p>How would you describe your current emotional state?</p>
  </div>","49","html-slider-response","67","1169792","0.0-10.0-3.5","85","1","2025-07-09 09:07:38","7701e855f2ef39aa3fd6c71abdc6918a","105.161.114.4","Mozilla/5.0 (Windows NT 10.0; Win64; x64) AppleWebKit/537.36 (KHTML, like Gecko) Chrome/138.0.0.0 Safari/537.36","WebKit","Chrome","138.0.0.0","Windows","10.0","https://app.prolific.com/","en-US,en;q=0.9","65fae23bd06ae76bcc297e8b","686d226cabeef709c732f8e1","686e311451c39ee5d1f42ff5","65fae23bd06ae76bcc297e8b","2025-07-09T09:27:11.091Z","","","","","","StressQ","","","","","","","","","","","","","","","","","","","","","","","","","","","","","","","","","","","","","","50",""
"4986","","<div style=""width:500px;"">
  <p>What best describes how you currently feel?</p>
  </div>","58","html-slider-response","68","1174780","0.0-10.0-4.5","85","1","2025-07-09 09:07:38","7701e855f2ef39aa3fd6c71abdc6918a","105.161.114.4","Mozilla/5.0 (Windows NT 10.0; Win64; x64) AppleWebKit/537.36 (KHTML, like Gecko) Chrome/138.0.0.0 Safari/537.36","WebKit","Chrome","138.0.0.0","Windows","10.0","https://app.prolific.com/","en-US,en;q=0.9","65fae23bd06ae76bcc297e8b","686d226cabeef709c732f8e1","686e311451c39ee5d1f42ff5","65fae23bd06ae76bcc297e8b","2025-07-09T09:27:16.079Z","","","","","","MotivationQ","","","","","","","","","","","","","","","","","","","","","","","","","","","","","","","","","","","","","","50",""
"","","","","ctl-task-cpt","69","1195812","0.0-10.0-0.6","85","1","2025-07-09 09:07:38","7701e855f2ef39aa3fd6c71abdc6918a","105.161.114.4","Mozilla/5.0 (Windows NT 10.0; Win64; x64) AppleWebKit/537.36 (KHTML, like Gecko) Chrome/138.0.0.0 Safari/537.36","WebKit","Chrome","138.0.0.0","Windows","10.0","https://app.prolific.com/","en-US,en;q=0.9","65fae23bd06ae76bcc297e8b","686d226cabeef709c732f8e1","686e311451c39ee5d1f42ff5","65fae23bd06ae76bcc297e8b","2025-07-09T09:27:37.111Z","","","","","","","","","","","","","","","","win-only","2","g1:SE,g2:NW","0.4","7","0","1179604.4","1586.9","6590.5","18001.4","1","4","8","6","1","1","1","1","0","0.007575757575757576","5003.6","3000","1535","[""down"",""right""]","{""num_key_presses"":4,""num_perfect"":2,""num_errors"":0,""num_randdir"":2,""num_randdir_good_moves"":2,""num_whilered"":0,""num_whileblue"":0,""num_blue"":0,""num_good_moves"":4}","[422.57142857142856,407.1808016640799,0.4,422.57142857142856,407.1808016640799,101,422.57142857142856,407.1808016640799,205.1,422.57142857142856,407.1808016640799,319.8,422.57142857142856,407.1808016640799,421,422.57142857142856,407.1808016640799,524.6,422.57142857142856,407.1808016640799,625.8,422.57142857142856,407.1808016640799,726.5,422.57142857142856,407.1808016640799,832.2,422.57142857142856,407.1808016640799,937,422.57142857142856,407.1808016640799,1050.8,422.57142857142856,407.1808016640799,1167.9,422.57142857142856,407.1808016640799,1268.4,422.57142857142856,407.1808016640799,1373,422.57142857142856,407.1808016640799,1477.1,422.57142857142856,407.1808016640799,1581.3,422.57142857142856,407.1808016640799,1682.1,422.57142857142856,407.1808016640799,1783.7,422.57142857142856,407.1808016640799,1884.8,422.57142857142856,407.1808016640799,2003.9,422.57142857142856,407.1808016640799,2119.5,422.57142857142856,407.1808016640799,2219.7,422.57142857142856,407.1808016640799,2320.4,422.57142857142856,407.1808016640799,2436.3,422.57142857142856,407.1808016640799,2553.7,422.57142857142856,407.1808016640799,2655.6,422.57142857142856,407.1808016640799,2757.5,422.57142857142856,407.1808016640799,2859.8,422.57142857142856,407.1808016640799,2968.7,422.57142857142856,407.1808016640799,3070,422.57142857142856,407.1808016640799,3181.5,422.57142857142856,407.1808016640799,3288.7,422.57142857142856,407.1808016640799,3400.6,422.57142857142856,407.1808016640799,3516.6,422.57142857142856,407.1808016640799,3634.3,422.57142857142856,407.1808016640799,3734.6,422.57142857142856,407.1808016640799,3849.4,422.57142857142856,407.1808016640799,3954.5,422.57142857142856,407.1808016640799,4064.2,422.57142857142856,407.1808016640799,4165.1,422.57142857142856,407.1808016640799,4282.8,422.57142857142856,407.1808016640799,4398.7,422.57142857142856,407.1808016640799,4514.2,422.57142857142856,407.1808016640799,4630.6,422.57142857142856,407.1808016640799,4731.6,422.57142857142856,407.1808016640799,4841,422.57142857142856,407.1808016640799,4951.5]","[1589.3,1589.3,1000,0.1,589.2,""oops"",""down"",""down"",""good_move"",5188.4,3598.6,2607.4,1589.8,991.2,""oops"",""right"",""right"",""good_move"",8581.9,3392.9,3009.5,5189,383.4,""smooth"",""down"",""down"",""good_move"",11279,2696.8,2371.4,8582.2,325.4,""smooth"",""right"",""right"",""good_move""]","","",""
"6843","","<div style=""width:500px;"">
  <p>What determined the result of this run?</p>
  </div>","80","html-slider-response","70","1202657","0.0-10.0-1.6","85","1","2025-07-09 09:07:38","7701e855f2ef39aa3fd6c71abdc6918a","105.161.114.4","Mozilla/5.0 (Windows NT 10.0; Win64; x64) AppleWebKit/537.36 (KHTML, like Gecko) Chrome/138.0.0.0 Safari/537.36","WebKit","Chrome","138.0.0.0","Windows","10.0","https://app.prolific.com/","en-US,en;q=0.9","65fae23bd06ae76bcc297e8b","686d226cabeef709c732f8e1","686e311451c39ee5d1f42ff5","65fae23bd06ae76bcc297e8b","2025-07-09T09:27:43.956Z","","","","","","AttribQ","","","","","","","","","","","","","","","","","","","","","","","","","","","","","","","","","","","","","","50",""
"5573","","<div style=""width:500px;"">
  <p>How much control did you have over the ball?</p>
  </div>","79","html-slider-response","71","1208232","0.0-10.0-2.6","85","1","2025-07-09 09:07:38","7701e855f2ef39aa3fd6c71abdc6918a","105.161.114.4","Mozilla/5.0 (Windows NT 10.0; Win64; x64) AppleWebKit/537.36 (KHTML, like Gecko) Chrome/138.0.0.0 Safari/537.36","WebKit","Chrome","138.0.0.0","Windows","10.0","https://app.prolific.com/","en-US,en;q=0.9","65fae23bd06ae76bcc297e8b","686d226cabeef709c732f8e1","686e311451c39ee5d1f42ff5","65fae23bd06ae76bcc297e8b","2025-07-09T09:27:49.531Z","","","","","","ControlQ","","","","","","","","","","","","","","","","","","","","","","","","","","","","","","","","","","","","","","50",""
"3778","","<div style=""width:500px;"">
  <p>How would you describe your current emotional state?</p>
  </div>","75","html-slider-response","72","1212011","0.0-10.0-3.6","85","1","2025-07-09 09:07:38","7701e855f2ef39aa3fd6c71abdc6918a","105.161.114.4","Mozilla/5.0 (Windows NT 10.0; Win64; x64) AppleWebKit/537.36 (KHTML, like Gecko) Chrome/138.0.0.0 Safari/537.36","WebKit","Chrome","138.0.0.0","Windows","10.0","https://app.prolific.com/","en-US,en;q=0.9","65fae23bd06ae76bcc297e8b","686d226cabeef709c732f8e1","686e311451c39ee5d1f42ff5","65fae23bd06ae76bcc297e8b","2025-07-09T09:27:53.310Z","","","","","","StressQ","","","","","","","","","","","","","","","","","","","","","","","","","","","","","","","","","","","","","","50",""
"2943","","<div style=""width:500px;"">
  <p>What best describes how you currently feel?</p>
  </div>","54","html-slider-response","73","1214956","0.0-10.0-4.6","85","1","2025-07-09 09:07:38","7701e855f2ef39aa3fd6c71abdc6918a","105.161.114.4","Mozilla/5.0 (Windows NT 10.0; Win64; x64) AppleWebKit/537.36 (KHTML, like Gecko) Chrome/138.0.0.0 Safari/537.36","WebKit","Chrome","138.0.0.0","Windows","10.0","https://app.prolific.com/","en-US,en;q=0.9","65fae23bd06ae76bcc297e8b","686d226cabeef709c732f8e1","686e311451c39ee5d1f42ff5","65fae23bd06ae76bcc297e8b","2025-07-09T09:27:56.255Z","","","","","","MotivationQ","","","","","","","","","","","","","","","","","","","","","","","","","","","","","","","","","","","","","","50",""
"","","","","ctl-task-cpt","74","1266286","0.0-10.0-0.7","85","1","2025-07-09 09:07:38","7701e855f2ef39aa3fd6c71abdc6918a","105.161.114.4","Mozilla/5.0 (Windows NT 10.0; Win64; x64) AppleWebKit/537.36 (KHTML, like Gecko) Chrome/138.0.0.0 Safari/537.36","WebKit","Chrome","138.0.0.0","Windows","10.0","https://app.prolific.com/","en-US,en;q=0.9","65fae23bd06ae76bcc297e8b","686d226cabeef709c732f8e1","686e311451c39ee5d1f42ff5","65fae23bd06ae76bcc297e8b","2025-07-09T09:28:47.585Z","","","","","","","","","","","","","","","","win-only","1","g1:NE,g2:SW","0.3","8","0","1219780.8","1605.3","6615.3","48300.8","1","4","4","6","1","-1","-1","0","1","0","5010","3000","-2095","[""up"",""right""]","{""num_key_presses"":9,""num_perfect"":3,""num_errors"":0,""num_randdir"":6,""num_randdir_good_moves"":2,""num_whilered"":0,""num_whileblue"":0,""num_blue"":3,""num_good_moves"":5}","[409.07142857142856,410.1808016640799,0.4,409.07142857142856,410.1808016640799,104,409.07142857142856,410.1808016640799,216.9,409.07142857142856,410.1808016640799,333.9,409.07142857142856,410.1808016640799,436,409.07142857142856,410.1808016640799,547.1,409.07142857142856,410.1808016640799,650,409.07142857142856,410.1808016640799,757.6,409.07142857142856,410.1808016640799,863.3,409.07142857142856,410.1808016640799,966,409.07142857142856,410.1808016640799,1067,409.07142857142856,410.1808016640799,1171.5,409.07142857142856,410.1808016640799,1275.7,409.07142857142856,410.1808016640799,1382.9,409.07142857142856,410.1808016640799,1486.4,409.07142857142856,410.1808016640799,1597.9,409.07142857142856,410.1808016640799,1700.2,409.07142857142856,410.1808016640799,1802.3,409.07142857142856,410.1808016640799,1906.2,409.07142857142856,410.1808016640799,2012.7,409.07142857142856,410.1808016640799,2116.3,409.07142857142856,410.1808016640799,2217.9,409.07142857142856,410.1808016640799,2327,409.07142857142856,410.1808016640799,2432.2,409.07142857142856,410.1808016640799,2543,409.07142857142856,410.1808016640799,2645.3,409.07142857142856,410.1808016640799,2749.5,409.07142857142856,410.1808016640799,2853.3,409.07142857142856,410.1808016640799,2958.5,409.07142857142856,410.1808016640799,3060.5,409.07142857142856,410.1808016640799,3161.8,409.07142857142856,410.1808016640799,3265.1,409.07142857142856,410.1808016640799,3368.6,409.07142857142856,410.1808016640799,3473.3,409.07142857142856,410.1808016640799,3576.4,409.07142857142856,410.1808016640799,3676.8,409.07142857142856,410.1808016640799,3782,409.07142857142856,410.1808016640799,3885.1,409.07142857142856,410.1808016640799,3986.1,409.07142857142856,410.1808016640799,4094.1,409.07142857142856,410.1808016640799,4195.3,409.07142857142856,410.1808016640799,4299,409.07142857142856,410.1808016640799,4403.6,409.07142857142856,410.1808016640799,4506.3,409.07142857142856,410.1808016640799,4610.1,409.07142857142856,410.1808016640799,4724,409.07142857142856,410.1808016640799,4827.2,409.07142857142856,410.1808016640799,4932.1]","[1967.1,1967.1,1000,0,967.1,""oops"",""up"",""up"",""good_move"",12180.5,10213,3045,8747.8,387.7,""smooth"",""right"",""right"",""good_move"",15923.7,3742.8,3277.7,12181,465,""smooth"",""up"",""up"",""good_move"",18783.3,2858.9,2517.1,15924.5,341.7,""oops"",""right"",""down"",""bad_move"",21843.9,3059.8,2679,18784.1,380.8,""oops"",""up"",""left"",""bad_move"",25204,3359.7,3004.3,21844.3,355.4,""smooth"",""right"",""right"",""good_move"",28853.7,3649.1,3303.6,25204.6,345.5,""oops"",""right"",""left"",""bad_move"",31844.8,2990.6,2529.9,28854.2,460.8,""oops"",""up"",""up"",""good_move"",34720.3,2875,2384.8,31845.3,490.2,""oops"",""right"",""left"",""bad_move""]","","",""
"4884","","<div style=""width:500px;"">
  <p>What determined the result of this run?</p>
  </div>","75","html-slider-response","75","1271172","0.0-10.0-1.7","85","1","2025-07-09 09:07:38","7701e855f2ef39aa3fd6c71abdc6918a","105.161.114.4","Mozilla/5.0 (Windows NT 10.0; Win64; x64) AppleWebKit/537.36 (KHTML, like Gecko) Chrome/138.0.0.0 Safari/537.36","WebKit","Chrome","138.0.0.0","Windows","10.0","https://app.prolific.com/","en-US,en;q=0.9","65fae23bd06ae76bcc297e8b","686d226cabeef709c732f8e1","686e311451c39ee5d1f42ff5","65fae23bd06ae76bcc297e8b","2025-07-09T09:28:52.471Z","","","","","","AttribQ","","","","","","","","","","","","","","","","","","","","","","","","","","","","","","","","","","","","","","50",""
"7629","","<div style=""width:500px;"">
  <p>How much control did you have over the ball?</p>
  </div>","30","html-slider-response","76","1278803","0.0-10.0-2.7","85","1","2025-07-09 09:07:38","7701e855f2ef39aa3fd6c71abdc6918a","105.161.114.4","Mozilla/5.0 (Windows NT 10.0; Win64; x64) AppleWebKit/537.36 (KHTML, like Gecko) Chrome/138.0.0.0 Safari/537.36","WebKit","Chrome","138.0.0.0","Windows","10.0","https://app.prolific.com/","en-US,en;q=0.9","65fae23bd06ae76bcc297e8b","686d226cabeef709c732f8e1","686e311451c39ee5d1f42ff5","65fae23bd06ae76bcc297e8b","2025-07-09T09:29:00.102Z","","","","","","ControlQ","","","","","","","","","","","","","","","","","","","","","","","","","","","","","","","","","","","","","","50",""
"4132","","<div style=""width:500px;"">
  <p>How would you describe your current emotional state?</p>
  </div>","20","html-slider-response","77","1282936","0.0-10.0-3.7","85","1","2025-07-09 09:07:38","7701e855f2ef39aa3fd6c71abdc6918a","105.161.114.4","Mozilla/5.0 (Windows NT 10.0; Win64; x64) AppleWebKit/537.36 (KHTML, like Gecko) Chrome/138.0.0.0 Safari/537.36","WebKit","Chrome","138.0.0.0","Windows","10.0","https://app.prolific.com/","en-US,en;q=0.9","65fae23bd06ae76bcc297e8b","686d226cabeef709c732f8e1","686e311451c39ee5d1f42ff5","65fae23bd06ae76bcc297e8b","2025-07-09T09:29:04.236Z","","","","","","StressQ","","","","","","","","","","","","","","","","","","","","","","","","","","","","","","","","","","","","","","50",""
"3348","","<div style=""width:500px;"">
  <p>What best describes how you currently feel?</p>
  </div>","75","html-slider-response","78","1286286","0.0-10.0-4.7","85","1","2025-07-09 09:07:38","7701e855f2ef39aa3fd6c71abdc6918a","105.161.114.4","Mozilla/5.0 (Windows NT 10.0; Win64; x64) AppleWebKit/537.36 (KHTML, like Gecko) Chrome/138.0.0.0 Safari/537.36","WebKit","Chrome","138.0.0.0","Windows","10.0","https://app.prolific.com/","en-US,en;q=0.9","65fae23bd06ae76bcc297e8b","686d226cabeef709c732f8e1","686e311451c39ee5d1f42ff5","65fae23bd06ae76bcc297e8b","2025-07-09T09:29:07.585Z","","","","","","MotivationQ","","","","","","","","","","","","","","","","","","","","","","","","","","","","","","","","","","","","","","50",""
"","","","","ctl-task-cpt","79","1326138","0.0-10.0-0.8","85","1","2025-07-09 09:07:38","7701e855f2ef39aa3fd6c71abdc6918a","105.161.114.4","Mozilla/5.0 (Windows NT 10.0; Win64; x64) AppleWebKit/537.36 (KHTML, like Gecko) Chrome/138.0.0.0 Safari/537.36","WebKit","Chrome","138.0.0.0","Windows","10.0","https://app.prolific.com/","en-US,en;q=0.9","65fae23bd06ae76bcc297e8b","686d226cabeef709c732f8e1","686e311451c39ee5d1f42ff5","65fae23bd06ae76bcc297e8b","2025-07-09T09:29:47.437Z","","","","","","","","","","","","","","","","win-only","0","g1:NW,g2:SE","0.2","9","0","1291111.3","3985.9","8990.9","36832.5","1","4","8","6","2","-8","-9","0","0","0","5005","3000","-2015","[""down"",""right""]","{""num_key_presses"":6,""num_perfect"":1,""num_errors"":1,""num_randdir"":4,""num_randdir_good_moves"":1,""num_whilered"":0,""num_whileblue"":0,""num_blue"":2,""num_good_moves"":2}","[409.07142857142856,419.1808016640799,0.4,409.07142857142856,419.1808016640799,103.7,409.07142857142856,419.1808016640799,205.2,409.07142857142856,419.1808016640799,306.3,409.07142857142856,419.1808016640799,411.9,409.07142857142856,419.1808016640799,513.6,409.07142857142856,419.1808016640799,617.5,409.07142857142856,419.1808016640799,720.2,409.07142857142856,419.1808016640799,821.5,409.07142857142856,419.1808016640799,922.4,409.07142857142856,419.1808016640799,1023,409.07142857142856,419.1808016640799,1124.8,409.07142857142856,419.1808016640799,1227.4,409.07142857142856,419.1808016640799,1328.3,409.07142857142856,419.1808016640799,1437.2,409.07142857142856,419.1808016640799,1541.6,409.07142857142856,419.1808016640799,1643.6,409.07142857142856,419.1808016640799,1752,409.07142857142856,419.1808016640799,1852.1,409.07142857142856,419.1808016640799,1953.5,409.07142857142856,419.1808016640799,2057.7,409.07142857142856,419.1808016640799,2168.2,409.07142857142856,419.1808016640799,2270.1,409.07142857142856,419.1808016640799,2382,409.07142857142856,419.1808016640799,2485.8,409.07142857142856,419.1808016640799,2586.3,409.07142857142856,419.1808016640799,2690.1,409.07142857142856,419.1808016640799,2793.6,409.07142857142856,419.1808016640799,2895.6,409.07142857142856,419.1808016640799,3003,409.07142857142856,419.1808016640799,3105.8,409.07142857142856,419.1808016640799,3217.3,409.07142857142856,419.1808016640799,3324,409.07142857142856,419.1808016640799,3431.2,409.07142857142856,419.1808016640799,3532.6,409.07142857142856,419.1808016640799,3633.1,409.07142857142856,419.1808016640799,3737.9,409.07142857142856,419.1808016640799,3846.9,409.07142857142856,419.1808016640799,3950.7,409.07142857142856,419.1808016640799,4051.4,409.07142857142856,419.1808016640799,4162.6,409.07142857142856,419.1808016640799,4266.4,409.07142857142856,419.1808016640799,4370.4,409.07142857142856,419.1808016640799,4472.7,409.07142857142856,419.1808016640799,4573.3,409.07142857142856,419.1808016640799,4681.6,409.07142857142856,419.1808016640799,4783.7,409.07142857142856,419.1808016640799,4896.6]","[105,105,1000,0,-895,""error"",""-"",""-"",""no_move"",7701.8,7596.4,2400.3,4693.1,608.4,""oops"",""down"",""left"",""bad_move"",11866.3,4164,2259.7,7702.3,1904.4,""oops"",""down"",""left"",""bad_move"",14992.1,3125.5,2304.7,11866.7,820.7,""oops"",""down"",""down"",""good_move"",17643.4,2650.7,2225,14992.7,425.7,""smooth"",""right"",""right"",""good_move"",25281.1,7637.3,3455.3,21340.9,484.9,""oops"",""right"",""up"",""bad_move""]","","",""
"3297","","<div style=""width:500px;"">
  <p>What determined the result of this run?</p>
  </div>","82","html-slider-response","80","1329438","0.0-10.0-1.8","85","1","2025-07-09 09:07:38","7701e855f2ef39aa3fd6c71abdc6918a","105.161.114.4","Mozilla/5.0 (Windows NT 10.0; Win64; x64) AppleWebKit/537.36 (KHTML, like Gecko) Chrome/138.0.0.0 Safari/537.36","WebKit","Chrome","138.0.0.0","Windows","10.0","https://app.prolific.com/","en-US,en;q=0.9","65fae23bd06ae76bcc297e8b","686d226cabeef709c732f8e1","686e311451c39ee5d1f42ff5","65fae23bd06ae76bcc297e8b","2025-07-09T09:29:50.737Z","","","","","","AttribQ","","","","","","","","","","","","","","","","","","","","","","","","","","","","","","","","","","","","","","50",""
"4690","","<div style=""width:500px;"">
  <p>How much control did you have over the ball?</p>
  </div>","53","html-slider-response","81","1334129","0.0-10.0-2.8","85","1","2025-07-09 09:07:38","7701e855f2ef39aa3fd6c71abdc6918a","105.161.114.4","Mozilla/5.0 (Windows NT 10.0; Win64; x64) AppleWebKit/537.36 (KHTML, like Gecko) Chrome/138.0.0.0 Safari/537.36","WebKit","Chrome","138.0.0.0","Windows","10.0","https://app.prolific.com/","en-US,en;q=0.9","65fae23bd06ae76bcc297e8b","686d226cabeef709c732f8e1","686e311451c39ee5d1f42ff5","65fae23bd06ae76bcc297e8b","2025-07-09T09:29:55.428Z","","","","","","ControlQ","","","","","","","","","","","","","","","","","","","","","","","","","","","","","","","","","","","","","","50",""
"4070","","<div style=""width:500px;"">
  <p>How would you describe your current emotional state?</p>
  </div>","15","html-slider-response","82","1338201","0.0-10.0-3.8","85","1","2025-07-09 09:07:38","7701e855f2ef39aa3fd6c71abdc6918a","105.161.114.4","Mozilla/5.0 (Windows NT 10.0; Win64; x64) AppleWebKit/537.36 (KHTML, like Gecko) Chrome/138.0.0.0 Safari/537.36","WebKit","Chrome","138.0.0.0","Windows","10.0","https://app.prolific.com/","en-US,en;q=0.9","65fae23bd06ae76bcc297e8b","686d226cabeef709c732f8e1","686e311451c39ee5d1f42ff5","65fae23bd06ae76bcc297e8b","2025-07-09T09:29:59.500Z","","","","","","StressQ","","","","","","","","","","","","","","","","","","","","","","","","","","","","","","","","","","","","","","50",""
"3533","","<div style=""width:500px;"">
  <p>What best describes how you currently feel?</p>
  </div>","67","html-slider-response","83","1341736","0.0-10.0-4.8","85","1","2025-07-09 09:07:38","7701e855f2ef39aa3fd6c71abdc6918a","105.161.114.4","Mozilla/5.0 (Windows NT 10.0; Win64; x64) AppleWebKit/537.36 (KHTML, like Gecko) Chrome/138.0.0.0 Safari/537.36","WebKit","Chrome","138.0.0.0","Windows","10.0","https://app.prolific.com/","en-US,en;q=0.9","65fae23bd06ae76bcc297e8b","686d226cabeef709c732f8e1","686e311451c39ee5d1f42ff5","65fae23bd06ae76bcc297e8b","2025-07-09T09:30:03.035Z","","","","","","MotivationQ","","","","","","","","","","","","","","","","","","","","","","","","","","","","","","","","","","","","","","50",""
"","","","","ctl-task-cpt","84","1409314","0.0-10.0-0.9","85","1","2025-07-09 09:07:38","7701e855f2ef39aa3fd6c71abdc6918a","105.161.114.4","Mozilla/5.0 (Windows NT 10.0; Win64; x64) AppleWebKit/537.36 (KHTML, like Gecko) Chrome/138.0.0.0 Safari/537.36","WebKit","Chrome","138.0.0.0","Windows","10.0","https://app.prolific.com/","en-US,en;q=0.9","65fae23bd06ae76bcc297e8b","686d226cabeef709c732f8e1","686e311451c39ee5d1f42ff5","65fae23bd06ae76bcc297e8b","2025-07-09T09:31:10.613Z","","","","","","","","","","","","","","","","win-only","2","g1:SE,g2:NW","0.4","10","0","1346560.7","9450","14453.7","64536.5","1","4","4","6","2","-4","-5","0","0","0","5003.7","3000","-660","[""left"",""up""]","{""num_key_presses"":14,""num_perfect"":6,""num_errors"":1,""num_randdir"":7,""num_randdir_good_moves"":3,""num_whilered"":0,""num_whileblue"":1,""num_blue"":1,""num_good_moves"":9}","[407.57142857142856,419.1808016640799,0.3,407.57142857142856,419.1808016640799,113.1,407.57142857142856,419.1808016640799,216.7,407.57142857142856,419.1808016640799,324.6,407.57142857142856,419.1808016640799,439.8,407.57142857142856,419.1808016640799,540.4,407.57142857142856,419.1808016640799,640.5,407.57142857142856,419.1808016640799,741.6,407.57142857142856,419.1808016640799,858.2,407.57142857142856,419.1808016640799,962.2,407.57142857142856,419.1808016640799,1065.8,407.57142857142856,419.1808016640799,1178.4,407.57142857142856,419.1808016640799,1291.9,407.57142857142856,419.1808016640799,1392.7,407.57142857142856,419.1808016640799,1494.2,407.57142857142856,419.1808016640799,1614.5,407.57142857142856,419.1808016640799,1716.7,407.57142857142856,419.1808016640799,1820.6,407.57142857142856,419.1808016640799,1929.6,407.57142857142856,419.1808016640799,2040.4,407.57142857142856,419.1808016640799,2155.4,407.57142857142856,419.1808016640799,2261.6,407.57142857142856,419.1808016640799,2363,407.57142857142856,419.1808016640799,2466.4,407.57142857142856,419.1808016640799,2567.1,407.57142857142856,419.1808016640799,2671.8,407.57142857142856,419.1808016640799,2772.6,407.57142857142856,419.1808016640799,2875.8,407.57142857142856,419.1808016640799,2988.2,407.57142857142856,419.1808016640799,3091.2,407.57142857142856,419.1808016640799,3196.9,407.57142857142856,419.1808016640799,3310.6,407.57142857142856,419.1808016640799,3411.5,407.57142857142856,419.1808016640799,3520.3,407.57142857142856,419.1808016640799,3635.5,407.57142857142856,419.1808016640799,3739.7,407.57142857142856,419.1808016640799,3841.3,407.57142857142856,419.1808016640799,3942.8,407.57142857142856,419.1808016640799,4057.1,407.57142857142856,419.1808016640799,4157.7,407.57142857142856,419.1808016640799,4274.6,407.57142857142856,419.1808016640799,4378.2,407.57142857142856,419.1808016640799,4479,407.57142857142856,419.1808016640799,4581,407.57142857142856,419.1808016640799,4682.6,407.57142857142856,419.1808016640799,4782.7,407.57142857142856,419.1808016640799,4886.8,407.57142857142856,419.1808016640799,4993.1]","[2228.9,2228.9,1000,0,1228.9,""smooth"",""right"",""right"",""bad_move"",5378.5,3149,2696.2,2229.5,452.8,""oops"",""left"",""down"",""bad_move"",8218.9,2839.8,2210.9,5379.1,628.9,""oops"",""left"",""up"",""good_move"",11960.5,3741,3089.9,8219.5,651.1,""oops"",""left"",""right"",""bad_move"",15124.7,3164,2661.4,11960.9,502.5,""oops"",""right"",""up"",""good_move"",17388.5,2263.4,1882.6,15125.1,380.8,""smooth"",""up"",""up"",""good_move"",20809.6,3420.3,2974.9,17389.3,445.4,""smooth"",""left"",""left"",""good_move"",23961,3151,2569.8,20810,581.2,""oops"",""left"",""down"",""bad_move"",26602,2640.6,2096.1,23961.4,544.5,""oops"",""up"",""left"",""good_move"",30739.1,4136.7,1707.6,26602.4,2429.1,""smooth"",""left"",""left"",""good_move"",34771.1,4031.5,2490.9,30739.6,1540.6,""smooth"",""left"",""left"",""good_move"",38886.6,4115.2,3184.4,34771.5,930.8,""smooth"",""left"",""left"",""good_move"",42851.1,3964.2,3678.1,38886.9,286.1,""while_blue"",""up"",""up"",""good_move"",47153.2,4301.7,3165.2,42851.5,1136.5,""oops"",""up"",""right"",""bad_move""]","","",""
"5761","","<div style=""width:500px;"">
  <p>What determined the result of this run?</p>
  </div>","80","html-slider-response","85","1415078","0.0-10.0-1.9","85","1","2025-07-09 09:07:38","7701e855f2ef39aa3fd6c71abdc6918a","105.161.114.4","Mozilla/5.0 (Windows NT 10.0; Win64; x64) AppleWebKit/537.36 (KHTML, like Gecko) Chrome/138.0.0.0 Safari/537.36","WebKit","Chrome","138.0.0.0","Windows","10.0","https://app.prolific.com/","en-US,en;q=0.9","65fae23bd06ae76bcc297e8b","686d226cabeef709c732f8e1","686e311451c39ee5d1f42ff5","65fae23bd06ae76bcc297e8b","2025-07-09T09:31:16.377Z","","","","","","AttribQ","","","","","","","","","","","","","","","","","","","","","","","","","","","","","","","","","","","","","","50",""
"3192","","<div style=""width:500px;"">
  <p>How much control did you have over the ball?</p>
  </div>","19","html-slider-response","86","1418276","0.0-10.0-2.9","85","1","2025-07-09 09:07:38","7701e855f2ef39aa3fd6c71abdc6918a","105.161.114.4","Mozilla/5.0 (Windows NT 10.0; Win64; x64) AppleWebKit/537.36 (KHTML, like Gecko) Chrome/138.0.0.0 Safari/537.36","WebKit","Chrome","138.0.0.0","Windows","10.0","https://app.prolific.com/","en-US,en;q=0.9","65fae23bd06ae76bcc297e8b","686d226cabeef709c732f8e1","686e311451c39ee5d1f42ff5","65fae23bd06ae76bcc297e8b","2025-07-09T09:31:19.576Z","","","","","","ControlQ","","","","","","","","","","","","","","","","","","","","","","","","","","","","","","","","","","","","","","50",""
"7618","","<div style=""width:500px;"">
  <p>How would you describe your current emotional state?</p>
