"rt","response_timestamp","stimulus","response","trial_type","trial_index","time_elapsed","internal_node_id","run_id","condition","recorded_at","source_code_version","ip","user_agent","device","browser","browser_version","platform","platform_version","referer","accept_language","PROLIFIC_PID","STUDY_ID","SESSION_ID","prolific_id","realtime","view_history","question_order","consent","success","question_id","eventType","responses","item_order","radio_event_ids","radio_event_times","key_event_times","mouse_event_times","straightlining","zigzagging","honeypot","which_type","canvas_config","goals_layout","control_level","trial_number","tutorial_trial_number","trial_start_time","phase1_start_time","phase2_start_time","phase3_start_time","goal_1_value","goal_1_distance","goal_2_value","goal_2_distance","goal_selected","outcome","outcome_total","participant_final_score","participant_initial_score","participant_final_score_prop","goal_choice_rt","allocated_time","allocated_time_remaining","goal_direction","counts","mouse_movements","key_presses","correct","slider_start","sub_question"
"4266","1752052036005","<p style='font-size:40px;line-height:1.25'><strong>Welcome to the experiment!</strong></p><p style='font-size:1.1em;line-height:1.25'>Thank you for your interest in our experiment! Before you begin, it is important that we obtain your informed consent to participate in the study.</p><p style='font-size:1.1em;line-height:1.25'>On the next screen will be an <strong>information sheet</strong> for you to read. To participate in the study we need you to read this information sheet and the following consent form carefully. If you agree with all the statements, please click the <strong>I agree</strong> button.</p><p style='font-size:1.1em;line-height:1.25'>Press <strong>Next</strong> to read the information sheet.</p>","0","custom-html-button-response","0","4273","0.0-0.0","43","1","2025-07-09 09:07:11","7701e855f2ef39aa3fd6c71abdc6918a","2.97.67.193","Mozilla/5.0 (X11; CrOS x86_64 14541.0.0) AppleWebKit/537.36 (KHTML, like Gecko) Chrome/137.0.0.0 Safari/537.36","WebKit","Chrome","137.0.0.0","ChromeOS","14541.0.0","https://app.prolific.com/","en-GB,en-US;q=0.9,en;q=0.8","65a3f461bfa22dde98c10436","686d226cabeef709c732f8e1","686e3134ce7976f2a8042823","65a3f461bfa22dde98c10436","2025-07-09T09:07:16.009Z","","","","","","","","","","","","","","","","","","","","","","","","","","","","","","","","","","","","","","","","","","","","",""
"66350","","","","instructions","1","70630","0.0-1.0","43","1","2025-07-09 09:07:11","7701e855f2ef39aa3fd6c71abdc6918a","2.97.67.193","Mozilla/5.0 (X11; CrOS x86_64 14541.0.0) AppleWebKit/537.36 (KHTML, like Gecko) Chrome/137.0.0.0 Safari/537.36","WebKit","Chrome","137.0.0.0","ChromeOS","14541.0.0","https://app.prolific.com/","en-GB,en-US;q=0.9,en;q=0.8","65a3f461bfa22dde98c10436","686d226cabeef709c732f8e1","686e3134ce7976f2a8042823","65a3f461bfa22dde98c10436","","[{""page_index"":0,""viewing_time"":60278},{""page_index"":1,""viewing_time"":6071}]","","","","","","","","","","","","","","","","","","","","","","","","","","","","","","","","","","","","","","","","","","","",""
"7169","","","{""Q0"":"""",""Q1"":"""",""Q2"":"""",""Q3"":"""",""Q4"":"""",""Q5"":"""",""Q6"":""I agree""}","survey-multi-choice","2","77809","0.0-2.0","43","1","2025-07-09 09:07:11","7701e855f2ef39aa3fd6c71abdc6918a","2.97.67.193","Mozilla/5.0 (X11; CrOS x86_64 14541.0.0) AppleWebKit/537.36 (KHTML, like Gecko) Chrome/137.0.0.0 Safari/537.36","WebKit","Chrome","137.0.0.0","ChromeOS","14541.0.0","https://app.prolific.com/","en-GB,en-US;q=0.9,en;q=0.8","65a3f461bfa22dde98c10436","686d226cabeef709c732f8e1","686e3134ce7976f2a8042823","65a3f461bfa22dde98c10436","","","[0,1,2,3,4,5,6]","true","","","","","","","","","","","","","","","","","","","","","","","","","","","","","","","","","","","","","","","","","",""
"16304","","","","fullscreen","3","95119","0.0-4.0","43","1","2025-07-09 09:07:11","7701e855f2ef39aa3fd6c71abdc6918a","2.97.67.193","Mozilla/5.0 (X11; CrOS x86_64 14541.0.0) AppleWebKit/537.36 (KHTML, like Gecko) Chrome/137.0.0.0 Safari/537.36","WebKit","Chrome","137.0.0.0","ChromeOS","14541.0.0","https://app.prolific.com/","en-GB,en-US;q=0.9,en;q=0.8","65a3f461bfa22dde98c10436","686d226cabeef709c732f8e1","686e3134ce7976f2a8042823","65a3f461bfa22dde98c10436","","","","","true","","","","","","","","","","","","","","","","","","","","","","","","","","","","","","","","","","","","","","","","",""
"5050","1752052131908"," <p style='font-size:1.1em;line-height:1.25'>Thank you for completing the consent form and closing all other tabs.</p><p style='font-size:1.1em;line-height:1.25'>We will now invite you to fill in some demographic information and questionnaires, before starting the game.<br>This will take about 5 minutes.<br></p><p style='font-size:1.1em;line-height:1.25'>Press the <strong>Next</strong> button to continue.</p>","0","custom-html-button-response","4","100174","0.0-5.0","43","1","2025-07-09 09:07:11","7701e855f2ef39aa3fd6c71abdc6918a","2.97.67.193","Mozilla/5.0 (X11; CrOS x86_64 14541.0.0) AppleWebKit/537.36 (KHTML, like Gecko) Chrome/137.0.0.0 Safari/537.36","WebKit","Chrome","137.0.0.0","ChromeOS","14541.0.0","https://app.prolific.com/","en-GB,en-US;q=0.9,en;q=0.8","65a3f461bfa22dde98c10436","686d226cabeef709c732f8e1","686e3134ce7976f2a8042823","65a3f461bfa22dde98c10436","2025-07-09T09:08:51.909Z","","","","","","","","","","","","","","","","","","","","","","","","","","","","","","","","","","","","","","","","","","","","",""
"2297","","","{""age"":""37""}","survey-text","5","102480","0.0-6.0-0.0","43","1","2025-07-09 09:07:11","7701e855f2ef39aa3fd6c71abdc6918a","2.97.67.193","Mozilla/5.0 (X11; CrOS x86_64 14541.0.0) AppleWebKit/537.36 (KHTML, like Gecko) Chrome/137.0.0.0 Safari/537.36","WebKit","Chrome","137.0.0.0","ChromeOS","14541.0.0","https://app.prolific.com/","en-GB,en-US;q=0.9,en;q=0.8","65a3f461bfa22dde98c10436","686d226cabeef709c732f8e1","686e3134ce7976f2a8042823","65a3f461bfa22dde98c10436","","","","","","0","demographics","","","","","","","","","","","","","","","","","","","","","","","","","","","","","","","","","","","","","","",""
"1699","","","{""gender_identity"":""female/woman""}","survey-multi-choice","6","104184","0.0-6.0-1.0","43","1","2025-07-09 09:07:11","7701e855f2ef39aa3fd6c71abdc6918a","2.97.67.193","Mozilla/5.0 (X11; CrOS x86_64 14541.0.0) AppleWebKit/537.36 (KHTML, like Gecko) Chrome/137.0.0.0 Safari/537.36","WebKit","Chrome","137.0.0.0","ChromeOS","14541.0.0","https://app.prolific.com/","en-GB,en-US;q=0.9,en;q=0.8","65a3f461bfa22dde98c10436","686d226cabeef709c732f8e1","686e3134ce7976f2a8042823","65a3f461bfa22dde98c10436","","","[0]","","","1","demographics","","","","","","","","","","","","","","","","","","","","","","","","","","","","","","","","","","","","","","",""
"2268","","","{""assigned_sex"":""female""}","survey-multi-choice","7","106455","0.0-6.0-2.0","43","1","2025-07-09 09:07:11","7701e855f2ef39aa3fd6c71abdc6918a","2.97.67.193","Mozilla/5.0 (X11; CrOS x86_64 14541.0.0) AppleWebKit/537.36 (KHTML, like Gecko) Chrome/137.0.0.0 Safari/537.36","WebKit","Chrome","137.0.0.0","ChromeOS","14541.0.0","https://app.prolific.com/","en-GB,en-US;q=0.9,en;q=0.8","65a3f461bfa22dde98c10436","686d226cabeef709c732f8e1","686e3134ce7976f2a8042823","65a3f461bfa22dde98c10436","","","[0]","","","2","demographics","","","","","","","","","","","","","","","","","","","","","","","","","","","","","","","","","","","","","","",""
"2973","","","{""menstrual_cycle"":""Yes""}","survey-multi-choice","8","109432","0.0-6.0-3.0","43","1","2025-07-09 09:07:11","7701e855f2ef39aa3fd6c71abdc6918a","2.97.67.193","Mozilla/5.0 (X11; CrOS x86_64 14541.0.0) AppleWebKit/537.36 (KHTML, like Gecko) Chrome/137.0.0.0 Safari/537.36","WebKit","Chrome","137.0.0.0","ChromeOS","14541.0.0","https://app.prolific.com/","en-GB,en-US;q=0.9,en;q=0.8","65a3f461bfa22dde98c10436","686d226cabeef709c732f8e1","686e3134ce7976f2a8042823","65a3f461bfa22dde98c10436","","","[0]","","","4","demographics","","","","","","","","","","","","","","","","","","","","","","","","","","","","","","","","","","","","","","",""
"4868","","","{""education"":""A-level/National Diploma/Highers""}","survey-multi-choice","9","114304","0.0-6.0-4.0","43","1","2025-07-09 09:07:11","7701e855f2ef39aa3fd6c71abdc6918a","2.97.67.193","Mozilla/5.0 (X11; CrOS x86_64 14541.0.0) AppleWebKit/537.36 (KHTML, like Gecko) Chrome/137.0.0.0 Safari/537.36","WebKit","Chrome","137.0.0.0","ChromeOS","14541.0.0","https://app.prolific.com/","en-GB,en-US;q=0.9,en;q=0.8","65a3f461bfa22dde98c10436","686d226cabeef709c732f8e1","686e3134ce7976f2a8042823","65a3f461bfa22dde98c10436","","","[0]","","","5","demographics","","","","","","","","","","","","","","","","","","","","","","","","","","","","","","","","","","","","","","",""
"3260","","","{""education"":""GCSE/Standard Grades""}","survey-multi-choice","10","117569","0.0-6.0-5.0","43","1","2025-07-09 09:07:11","7701e855f2ef39aa3fd6c71abdc6918a","2.97.67.193","Mozilla/5.0 (X11; CrOS x86_64 14541.0.0) AppleWebKit/537.36 (KHTML, like Gecko) Chrome/137.0.0.0 Safari/537.36","WebKit","Chrome","137.0.0.0","ChromeOS","14541.0.0","https://app.prolific.com/","en-GB,en-US;q=0.9,en;q=0.8","65a3f461bfa22dde98c10436","686d226cabeef709c732f8e1","686e3134ce7976f2a8042823","65a3f461bfa22dde98c10436","2025-07-09T09:09:09.304Z","","[0]","","","6","demographics","","","","","","","","","","","","","","","","","","","","","","","","","","","","","","","","","","","","","","",""
"4534","","","{""mental_health_condition"":"""",""mental_health_treatment"":"""",""psychiatric_medication"":""""}","survey-text","11","122111","0.0-7.0-0.0","43","1","2025-07-09 09:07:11","7701e855f2ef39aa3fd6c71abdc6918a","2.97.67.193","Mozilla/5.0 (X11; CrOS x86_64 14541.0.0) AppleWebKit/537.36 (KHTML, like Gecko) Chrome/137.0.0.0 Safari/537.36","WebKit","Chrome","137.0.0.0","ChromeOS","14541.0.0","https://app.prolific.com/","en-GB,en-US;q=0.9,en;q=0.8","65a3f461bfa22dde98c10436","686d226cabeef709c732f8e1","686e3134ce7976f2a8042823","65a3f461bfa22dde98c10436","2025-07-09T09:09:13.847Z","","","","","1","mental_health","","","","","","","","","","","","","","","","","","","","","","","","","","","","","","","","","","","","","","",""
"5681","","","{""depression_history"":[""No""]}","survey-multi-select","12","127798","0.0-7.0-1.0","43","1","2025-07-09 09:07:11","7701e855f2ef39aa3fd6c71abdc6918a","2.97.67.193","Mozilla/5.0 (X11; CrOS x86_64 14541.0.0) AppleWebKit/537.36 (KHTML, like Gecko) Chrome/137.0.0.0 Safari/537.36","WebKit","Chrome","137.0.0.0","ChromeOS","14541.0.0","https://app.prolific.com/","en-GB,en-US;q=0.9,en;q=0.8","65a3f461bfa22dde98c10436","686d226cabeef709c732f8e1","686e3134ce7976f2a8042823","65a3f461bfa22dde98c10436","","","[0]","","","","mental_health","","","","","","","","","","","","","","","","","","","","","","","","","","","","","","","","","","","","","","",""
"35301.90000000037","","","","survey-template","13","163109","0.0-7.0-3.0","43","1","2025-07-09 09:07:11","7701e855f2ef39aa3fd6c71abdc6918a","2.97.67.193","Mozilla/5.0 (X11; CrOS x86_64 14541.0.0) AppleWebKit/537.36 (KHTML, like Gecko) Chrome/137.0.0.0 Safari/537.36","WebKit","Chrome","137.0.0.0","ChromeOS","14541.0.0","https://app.prolific.com/","en-GB,en-US;q=0.9,en;q=0.8","65a3f461bfa22dde98c10436","686d226cabeef709c732f8e1","686e3134ce7976f2a8042823","65a3f461bfa22dde98c10436","2025-07-09T09:09:54.844Z","","","","","","ius","{""Q01"":""0"",""Q02"":""2"",""Q03"":""0"",""Q04"":""3"",""Q05"":""0"",""Q06"":""0"",""Q07"":""0"",""Q08"":""0"",""Q09"":""3"",""Q10"":""1"",""Q11"":""0"",""Q12"":""2"",""Q13"":""0""}","[0,1,2,3,4,5,6,7,8,9,10,11,12]","[""Q01"",""Q02"",""Q03"",""Q04"",""Q05"",""Q06"",""Q07"",""Q08"",""Q09"",""Q10"",""Q11"",""Q12"",""Q13""]","[5132.600000000559,7532.5,9788.200000000186,12652.400000000373,14884.5,18908.10000000056,22124.299999999814,23972.299999999814,26556.10000000056,28308.200000000186,30212.10000000056,32652,34411.799999999814]","[]","[5132.600000000559,7532.5,9788.200000000186,12652.400000000373,14884.5,17484.5,18908.10000000056,22124.299999999814,23972.299999999814,26556.10000000056,28308.200000000186,30212.10000000056,32123.799999999814,32652,34411.799999999814,35292.60000000056]","0.6153846153846154","0.08333333333333333","0","","","","","","","","","","","","","","","","","","","","","","","","","","","","","",""
"3332","1752052198180","<p style='font-size:1.1em;line-height:1.25'>In the following, we will ask you a few questions relating to your experiences over the past month.<br></p><p style='font-size:1.1em;line-height:1.25'>Press the <strong>Next</strong> button to continue.</p>","0","custom-html-button-response","14","166446","0.0-7.0-4.0","43","1","2025-07-09 09:07:11","7701e855f2ef39aa3fd6c71abdc6918a","2.97.67.193","Mozilla/5.0 (X11; CrOS x86_64 14541.0.0) AppleWebKit/537.36 (KHTML, like Gecko) Chrome/137.0.0.0 Safari/537.36","WebKit","Chrome","137.0.0.0","ChromeOS","14541.0.0","https://app.prolific.com/","en-GB,en-US;q=0.9,en;q=0.8","65a3f461bfa22dde98c10436","686d226cabeef709c732f8e1","686e3134ce7976f2a8042823","65a3f461bfa22dde98c10436","2025-07-09T09:09:58.181Z","","","","","","","","","","","","","","","","","","","","","","","","","","","","","","","","","","","","","","","","","","","","",""
"26809.10000000056","","","","survey-template","15","193264","0.0-7.0-5.0","43","1","2025-07-09 09:07:11","7701e855f2ef39aa3fd6c71abdc6918a","2.97.67.193","Mozilla/5.0 (X11; CrOS x86_64 14541.0.0) AppleWebKit/537.36 (KHTML, like Gecko) Chrome/137.0.0.0 Safari/537.36","WebKit","Chrome","137.0.0.0","ChromeOS","14541.0.0","https://app.prolific.com/","en-GB,en-US;q=0.9,en;q=0.8","65a3f461bfa22dde98c10436","686d226cabeef709c732f8e1","686e3134ce7976f2a8042823","65a3f461bfa22dde98c10436","2025-07-09T09:10:25.000Z","","","","","","pss","{""Q01"":""0"",""Q02"":""0"",""Q03"":""1"",""Q04"":""1"",""Q05"":""1"",""Q06"":""0"",""Q07"":""1"",""Q08"":""1"",""Q09"":""0"",""Q10"":""0""}","[0,1,2,3,4,5,6,7,8,9]","[""Q01"",""Q02"",""Q03"",""Q04"",""Q05"",""Q06"",""Q07"",""Q08"",""Q09"",""Q10""]","[5162.4000000003725,7514.4000000003725,9522.299999999814,12930.200000000186,15594.200000000186,17938.200000000186,19898.10000000056,22186.299999999814,24178.10000000056,25913.700000000186]","[]","[0.10000000055879354,5162.4000000003725,7514.4000000003725,9522.299999999814,12930.200000000186,15594.200000000186,17938.200000000186,19898.10000000056,22186.299999999814,24178.10000000056,25913.700000000186,26801.900000000373]","0.5","0.1111111111111111","0","","","","","","","","","","","","","","","","","","","","","","","","","","","","","",""
"2833","1752052227836","<p style='font-size:1.1em;line-height:1.25'>Thank you for your answers! Now we will ask you a few more questions relating to your feelings in the last 24 hours.<br></p><p style='font-size:1.1em;line-height:1.25'>Press the <strong>Next</strong> button to continue.</p>","0","custom-html-button-response","16","196102","0.0-7.0-6.0","43","1","2025-07-09 09:07:11","7701e855f2ef39aa3fd6c71abdc6918a","2.97.67.193","Mozilla/5.0 (X11; CrOS x86_64 14541.0.0) AppleWebKit/537.36 (KHTML, like Gecko) Chrome/137.0.0.0 Safari/537.36","WebKit","Chrome","137.0.0.0","ChromeOS","14541.0.0","https://app.prolific.com/","en-GB,en-US;q=0.9,en;q=0.8","65a3f461bfa22dde98c10436","686d226cabeef709c732f8e1","686e3134ce7976f2a8042823","65a3f461bfa22dde98c10436","2025-07-09T09:10:27.838Z","","","","","","","","","","","","","","","","","","","","","","","","","","","","","","","","","","","","","","","","","","","","",""
"36119.200000000186","","","","survey-template","17","232238","0.0-7.0-7.0","43","1","2025-07-09 09:07:11","7701e855f2ef39aa3fd6c71abdc6918a","2.97.67.193","Mozilla/5.0 (X11; CrOS x86_64 14541.0.0) AppleWebKit/537.36 (KHTML, like Gecko) Chrome/137.0.0.0 Safari/537.36","WebKit","Chrome","137.0.0.0","ChromeOS","14541.0.0","https://app.prolific.com/","en-GB,en-US;q=0.9,en;q=0.8","65a3f461bfa22dde98c10436","686d226cabeef709c732f8e1","686e3134ce7976f2a8042823","65a3f461bfa22dde98c10436","2025-07-09T09:11:03.973Z","","","","","","drsp","{""Q01"":""0"",""Q02"":""0"",""Q03"":""0"",""Q04"":""0"",""Q05"":""0"",""Q06"":""0"",""Q07"":""0"",""Q08"":""0"",""Q09"":""0"",""Q10"":""0"",""Q11"":""2"",""Q12"":""0"",""Q13"":""0"",""Q14"":""0"",""Q15"":""2"",""Q16"":""0"",""Q17"":""0"",""Q18"":""0"",""Q19"":""0"",""Q20"":""0"",""Q21"":""0""}","[0,1,2,3,4,5,6,7,8,9,10,11,12,13,14,15,16,17,18,19,20]","[""Q01"",""Q02"",""Q03"",""Q04"",""Q05"",""Q06"",""Q07"",""Q08"",""Q09"",""Q11"",""Q11"",""Q13"",""Q12"",""Q14"",""Q15"",""Q16"",""Q17"",""Q18"",""Q19"",""Q20"",""Q21"",""Q10""]","[2374.100000000559,3182.2999999998137,4109.600000000559,5255.5,6573.799999999814,7797.799999999814,8725.600000000559,9885.700000000186,10493.799999999814,12741.600000000559,14029.5,16374.700000000186,16845.700000000186,19613.700000000186,21077.400000000373,22653.60000000056,23597,25028.900000000373,27661.700000000186,29052.900000000373,30548.400000000373,34246.5]","[]","[0.10000000055879354,1710.2999999998137,2374.100000000559,3182.2999999998137,4109.600000000559,5255.5,6573.799999999814,7797.799999999814,8725.600000000559,9885.700000000186,10493.799999999814,12022.299999999814,12741.600000000559,14029.5,15477.799999999814,16374.700000000186,16845.700000000186,19613.700000000186,21077.400000000373,22653.60000000056,23597,25028.900000000373,27661.700000000186,29052.900000000373,30548.400000000373,31534.10000000056,34246.5,36102.10000000056]","0.9047619047619048","0","0","","","","","","","","","","","","","","","","","","","","","","","","","","","","","",""
"14885","","","","survey-template","18","247131","0.0-7.0-8.0","43","1","2025-07-09 09:07:11","7701e855f2ef39aa3fd6c71abdc6918a","2.97.67.193","Mozilla/5.0 (X11; CrOS x86_64 14541.0.0) AppleWebKit/537.36 (KHTML, like Gecko) Chrome/137.0.0.0 Safari/537.36","WebKit","Chrome","137.0.0.0","ChromeOS","14541.0.0","https://app.prolific.com/","en-GB,en-US;q=0.9,en;q=0.8","65a3f461bfa22dde98c10436","686d226cabeef709c732f8e1","686e3134ce7976f2a8042823","65a3f461bfa22dde98c10436","2025-07-09T09:11:18.867Z","","","","","","stress","{""Q01"":""0"",""Q02"":""1"",""Q03"":""0""}","[0,1,2]","[""Q01"",""Q02"",""Q03""]","[7865.5999999996275,11425.399999999441,13393.5]","[]","[7865.5999999996275,11425.399999999441,13393.5,14881.700000000186]","0.6666666666666666","0","0","","","","","","","","","","","","","","","","","","","","","","","","","","","","","",""
"36183","","","","instructions","19","283318","0.0-8.0-0.0","43","1","2025-07-09 09:07:11","7701e855f2ef39aa3fd6c71abdc6918a","2.97.67.193","Mozilla/5.0 (X11; CrOS x86_64 14541.0.0) AppleWebKit/537.36 (KHTML, like Gecko) Chrome/137.0.0.0 Safari/537.36","WebKit","Chrome","137.0.0.0","ChromeOS","14541.0.0","https://app.prolific.com/","en-GB,en-US;q=0.9,en;q=0.8","65a3f461bfa22dde98c10436","686d226cabeef709c732f8e1","686e3134ce7976f2a8042823","65a3f461bfa22dde98c10436","","[{""page_index"":0,""viewing_time"":9277},{""page_index"":1,""viewing_time"":10089},{""page_index"":2,""viewing_time"":9696},{""page_index"":3,""viewing_time"":7120}]","","","","","","","","","","","","","","","","","","","","","","","","","","","","","","","","","","","","","","","","","","","",""
"","","","","ctl-task-cpt","20","308821","0.0-8.0-1.0","43","1","2025-07-09 09:07:11","7701e855f2ef39aa3fd6c71abdc6918a","2.97.67.193","Mozilla/5.0 (X11; CrOS x86_64 14541.0.0) AppleWebKit/537.36 (KHTML, like Gecko) Chrome/137.0.0.0 Safari/537.36","WebKit","Chrome","137.0.0.0","ChromeOS","14541.0.0","https://app.prolific.com/","en-GB,en-US;q=0.9,en;q=0.8","65a3f461bfa22dde98c10436","686d226cabeef709c732f8e1","686e3134ce7976f2a8042823","65a3f461bfa22dde98c10436","","","","","","","","","","","","","","","","","win-only","2","g1:SE,g2:NW","1","0","1","284617.1","1774.3","5776.2","22488.2","2","4","4","6","2","4","3","3","0","0.022727272727272728","2007.9","4000","1990","[""left"",""up""]","{""num_key_presses"":6,""num_perfect"":5,""num_errors"":1,""num_randdir"":0,""num_randdir_good_moves"":0,""num_whilered"":0,""num_whileblue"":1,""num_blue"":1,""num_good_moves"":6}","[303.22232142857143,301.12857142857143,0.3,302.22232142857143,300.12857142857143,101.8,302.22232142857143,300.12857142857143,201.7,302.22232142857143,300.12857142857143,301.8,302.22232142857143,300.12857142857143,406.6,302.22232142857143,300.12857142857143,506.6,302.22232142857143,300.12857142857143,611.4,302.22232142857143,300.12857142857143,711.5,319.22232142857143,301.12857142857143,822.2,310.22232142857143,208.12857142857143,927.4,203.22232142857143,99.12857142857143,1031.4,133.22232142857143,61.128571428571426,1131.7,99.22232142857143,55.128571428571426,1232,48.222321428571426,58.128571428571426,1332.3,48.222321428571426,58.128571428571426,1437.7,48.222321428571426,58.128571428571426,1542.2,48.222321428571426,58.128571428571426,1643.4,48.222321428571426,58.128571428571426,1748.2,48.222321428571426,56.128571428571426,1851.5,67.22232142857143,45.128571428571426,1951.8,69.22232142857143,44.128571428571426,2057,69.22232142857143,44.128571428571426,2161.8,69.22232142857143,44.128571428571426,2267,69.22232142857143,44.128571428571426,2371.6,69.22232142857143,44.128571428571426,2471.6,71.22232142857143,46.128571428571426,2575.7,214.22232142857143,47.128571428571426,2677.4,222.22232142857143,90.12857142857143,2782.3,221.22232142857143,90.12857142857143,2887.1,221.22232142857143,90.12857142857143,2987.4,221.22232142857143,90.12857142857143,3091.4,221.22232142857143,90.12857142857143,3191.7,221.22232142857143,90.12857142857143,3291.7,220.22232142857143,91.12857142857143,3396.8,220.22232142857143,91.12857142857143,3501.7,220.22232142857143,91.12857142857143,3606.7,220.22232142857143,91.12857142857143,3711.8,220.22232142857143,91.12857142857143,3816.5,220.22232142857143,91.12857142857143,3916.9]","[1505.2,1505.2,1000,0,505.2,""smooth"",""up"",""up"",""good_move"",4437.4,2930.4,2579.4,1507.1,350.9,""smooth"",""left"",""left"",""good_move"",7685.1,3246.9,2827.1,4438.3,419.7,""smooth"",""left"",""left"",""good_move"",10611.9,2926.5,2514.1,7685.4,412.4,""while_blue"",""left"",""left"",""good_move"",13461.3,2848.9,2435.9,10612.5,413,""smooth"",""up"",""up"",""good_move"",16622.8,3161.1,2760.5,13461.7,400.7,""smooth"",""up"",""up"",""good_move""]","","",""
"10104","","","","instructions","21","318926","0.0-8.0-2.0","43","1","2025-07-09 09:07:11","7701e855f2ef39aa3fd6c71abdc6918a","2.97.67.193","Mozilla/5.0 (X11; CrOS x86_64 14541.0.0) AppleWebKit/537.36 (KHTML, like Gecko) Chrome/137.0.0.0 Safari/537.36","WebKit","Chrome","137.0.0.0","ChromeOS","14541.0.0","https://app.prolific.com/","en-GB,en-US;q=0.9,en;q=0.8","65a3f461bfa22dde98c10436","686d226cabeef709c732f8e1","686e3134ce7976f2a8042823","65a3f461bfa22dde98c10436","","[{""page_index"":0,""viewing_time"":10103}]","","","","","","","","","","","","","","","","","","","","","","","","","","","","","","","","","","","","","","","","","","","",""
"","","","","ctl-task-cpt","22","361688","0.0-8.0-3.0","43","1","2025-07-09 09:07:11","7701e855f2ef39aa3fd6c71abdc6918a","2.97.67.193","Mozilla/5.0 (X11; CrOS x86_64 14541.0.0) AppleWebKit/537.36 (KHTML, like Gecko) Chrome/137.0.0.0 Safari/537.36","WebKit","Chrome","137.0.0.0","ChromeOS","14541.0.0","https://app.prolific.com/","en-GB,en-US;q=0.9,en;q=0.8","65a3f461bfa22dde98c10436","686d226cabeef709c732f8e1","686e3134ce7976f2a8042823","65a3f461bfa22dde98c10436","","","","","","","","","","","","","","","","","win-only","2","g1:SE,g2:NW","0.35","0","3","320220.8","1362.3","5364.5","39751","2","4","8","6","1","2","2","2","0","0.015151515151515152","1119.9","4000","575","[""down"",""right""]","{""num_key_presses"":8,""num_perfect"":4,""num_errors"":0,""num_randdir"":4,""num_randdir_good_moves"":3,""num_whilered"":0,""num_whileblue"":0,""num_blue"":3,""num_good_moves"":6}","[301.22232142857143,300.12857142857143,0.4,301.22232142857143,300.12857142857143,103.9,301.22232142857143,300.12857142857143,208.6,301.22232142857143,300.12857142857143,313.2,301.22232142857143,300.12857142857143,413.4,321.22232142857143,335.12857142857143,513.6,390.22232142857143,412.12857142857143,614.2,502.22232142857143,574.1285714285714,722,510.22232142857143,581.1285714285714,822.1,523.2223214285714,585.1285714285714,924.2,548.2223214285714,559.1285714285714,1029.2,549.2223214285714,552.1285714285714,1129.4,550.2223214285714,552.1285714285714,1230,550.2223214285714,552.1285714285714,1335.6,550.2223214285714,552.1285714285714,1438.6,550.2223214285714,550.1285714285714,1538.7,548.2223214285714,544.1285714285714,1638.7,547.2223214285714,545.1285714285714,1738.7,547.2223214285714,545.1285714285714,1838.7,547.2223214285714,545.1285714285714,1938.9,547.2223214285714,545.1285714285714,2038.9,547.2223214285714,545.1285714285714,2143.8,547.2223214285714,545.1285714285714,2244.1,547.2223214285714,545.1285714285714,2348.7,547.2223214285714,545.1285714285714,2448.7,547.2223214285714,545.1285714285714,2550.8,547.2223214285714,545.1285714285714,2653.9,547.2223214285714,545.1285714285714,2758.7,547.2223214285714,545.1285714285714,2858.8,547.2223214285714,545.1285714285714,2964.1,547.2223214285714,545.1285714285714,3064.9,547.2223214285714,545.1285714285714,3168.6,547.2223214285714,545.1285714285714,3268.7,547.2223214285714,545.1285714285714,3373.7,547.2223214285714,545.1285714285714,3473.7,547.2223214285714,545.1285714285714,3578.6,547.2223214285714,545.1285714285714,3683.8,547.2223214285714,545.1285714285714,3788.9,547.2223214285714,545.1285714285714,3893.7,547.2223214285714,545.1285714285714,3994.1]","[8416.7,8416.6,2748.2,5131.2,537.3,""smooth"",""right"",""right"",""good_move"",11231.3,2814,2345.8,8417.4,468.2,""oops"",""right"",""right"",""good_move"",15114.3,3880.5,3481.5,11233.8,399,""oops"",""down"",""up"",""bad_move"",17969.7,2853.9,2359.8,15115.8,494.1,""smooth"",""up"",""up"",""bad_move"",20852.2,2882,2531.6,17970.2,350.4,""smooth"",""down"",""down"",""good_move"",28308.2,7455.4,3044.5,24837.2,426.5,""oops"",""down"",""down"",""good_move"",31668.9,3359.8,2881.2,28309.1,478.6,""smooth"",""down"",""down"",""good_move"",34296.2,2626.4,2307.2,31669.9,319.1,""oops"",""down"",""down"",""good_move""]","","",""
"27397","","","","instructions","23","389086","0.0-8.0-4.0","43","1","2025-07-09 09:07:11","7701e855f2ef39aa3fd6c71abdc6918a","2.97.67.193","Mozilla/5.0 (X11; CrOS x86_64 14541.0.0) AppleWebKit/537.36 (KHTML, like Gecko) Chrome/137.0.0.0 Safari/537.36","WebKit","Chrome","137.0.0.0","ChromeOS","14541.0.0","https://app.prolific.com/","en-GB,en-US;q=0.9,en;q=0.8","65a3f461bfa22dde98c10436","686d226cabeef709c732f8e1","686e3134ce7976f2a8042823","65a3f461bfa22dde98c10436","","[{""page_index"":0,""viewing_time"":7612},{""page_index"":1,""viewing_time"":19784}]","","","","","","","","","","","","","","","","","","","","","","","","","","","","","","","","","","","","","","","","","","","",""
"7683","","","{""green_ball"":[""Ball sometimes shakes and moves in a random direction""]}","survey-multi-select","24","396777","0.0-8.0-5.0-0.0","43","1","2025-07-09 09:07:11","7701e855f2ef39aa3fd6c71abdc6918a","2.97.67.193","Mozilla/5.0 (X11; CrOS x86_64 14541.0.0) AppleWebKit/537.36 (KHTML, like Gecko) Chrome/137.0.0.0 Safari/537.36","WebKit","Chrome","137.0.0.0","ChromeOS","14541.0.0","https://app.prolific.com/","en-GB,en-US;q=0.9,en;q=0.8","65a3f461bfa22dde98c10436","686d226cabeef709c732f8e1","686e3134ce7976f2a8042823","65a3f461bfa22dde98c10436","","","[0]","","","","quiz","","","","","","","","","","","","","","","","","","","","","","","","","","","","","","","","","","","","","true","",""
"2000","","<p align='center'><b>CORRECT!</b> Indeed, the green ball may sometimes shake and move in a random direction.</p>","0","html-button-response","25","398782","0.0-8.0-5.0-1.0","43","1","2025-07-09 09:07:11","7701e855f2ef39aa3fd6c71abdc6918a","2.97.67.193","Mozilla/5.0 (X11; CrOS x86_64 14541.0.0) AppleWebKit/537.36 (KHTML, like Gecko) Chrome/137.0.0.0 Safari/537.36","WebKit","Chrome","137.0.0.0","ChromeOS","14541.0.0","https://app.prolific.com/","en-GB,en-US;q=0.9,en;q=0.8","65a3f461bfa22dde98c10436","686d226cabeef709c732f8e1","686e3134ce7976f2a8042823","65a3f461bfa22dde98c10436","","","","","","","","","","","","","","","","","","","","","","","","","","","","","","","","","","","","","","","","","","","","","",""
"3593","","","{""yellow_ball"":[""Ball doesn‘t move and I get -1 penalty point""]}","survey-multi-select","26","402382","0.0-8.0-6.0-0.0","43","1","2025-07-09 09:07:11","7701e855f2ef39aa3fd6c71abdc6918a","2.97.67.193","Mozilla/5.0 (X11; CrOS x86_64 14541.0.0) AppleWebKit/537.36 (KHTML, like Gecko) Chrome/137.0.0.0 Safari/537.36","WebKit","Chrome","137.0.0.0","ChromeOS","14541.0.0","https://app.prolific.com/","en-GB,en-US;q=0.9,en;q=0.8","65a3f461bfa22dde98c10436","686d226cabeef709c732f8e1","686e3134ce7976f2a8042823","65a3f461bfa22dde98c10436","","","[0]","","","","quiz","","","","","","","","","","","","","","","","","","","","","","","","","","","","","","","","","","","","","true","",""
"997","","<p align='center'><b>CORRECT!</b> Indeed, the yellow ball never moves and you receive a penalty.</p>","0","html-button-response","27","403382","0.0-8.0-6.0-1.0","43","1","2025-07-09 09:07:11","7701e855f2ef39aa3fd6c71abdc6918a","2.97.67.193","Mozilla/5.0 (X11; CrOS x86_64 14541.0.0) AppleWebKit/537.36 (KHTML, like Gecko) Chrome/137.0.0.0 Safari/537.36","WebKit","Chrome","137.0.0.0","ChromeOS","14541.0.0","https://app.prolific.com/","en-GB,en-US;q=0.9,en;q=0.8","65a3f461bfa22dde98c10436","686d226cabeef709c732f8e1","686e3134ce7976f2a8042823","65a3f461bfa22dde98c10436","","","","","","","","","","","","","","","","","","","","","","","","","","","","","","","","","","","","","","","","","","","","","",""
"3499","","","{""blue_ball"":[""Ball doesn‘t move and I get -1 penalty point""]}","survey-multi-select","28","406888","0.0-8.0-7.0-0.0","43","1","2025-07-09 09:07:11","7701e855f2ef39aa3fd6c71abdc6918a","2.97.67.193","Mozilla/5.0 (X11; CrOS x86_64 14541.0.0) AppleWebKit/537.36 (KHTML, like Gecko) Chrome/137.0.0.0 Safari/537.36","WebKit","Chrome","137.0.0.0","ChromeOS","14541.0.0","https://app.prolific.com/","en-GB,en-US;q=0.9,en;q=0.8","65a3f461bfa22dde98c10436","686d226cabeef709c732f8e1","686e3134ce7976f2a8042823","65a3f461bfa22dde98c10436","","","[0]","","","","quiz","","","","","","","","","","","","","","","","","","","","","","","","","","","","","","","","","","","","","false","",""
"1417","","<p align='center'><b>INCORRECT.</b> The blue ball always shakes and moves randomly.</p>","0","html-button-response","29","408310","0.0-8.0-7.0-1.0","43","1","2025-07-09 09:07:11","7701e855f2ef39aa3fd6c71abdc6918a","2.97.67.193","Mozilla/5.0 (X11; CrOS x86_64 14541.0.0) AppleWebKit/537.36 (KHTML, like Gecko) Chrome/137.0.0.0 Safari/537.36","WebKit","Chrome","137.0.0.0","ChromeOS","14541.0.0","https://app.prolific.com/","en-GB,en-US;q=0.9,en;q=0.8","65a3f461bfa22dde98c10436","686d226cabeef709c732f8e1","686e3134ce7976f2a8042823","65a3f461bfa22dde98c10436","","","","","","","","","","","","","","","","","","","","","","","","","","","","","","","","","","","","","","","","","","","","","",""
"4123","","","{""blue_ball"":[""Ball doesn‘t move and I get -1 penalty point""]}","survey-multi-select","30","412438","0.0-8.0-7.1-0.1","43","1","2025-07-09 09:07:11","7701e855f2ef39aa3fd6c71abdc6918a","2.97.67.193","Mozilla/5.0 (X11; CrOS x86_64 14541.0.0) AppleWebKit/537.36 (KHTML, like Gecko) Chrome/137.0.0.0 Safari/537.36","WebKit","Chrome","137.0.0.0","ChromeOS","14541.0.0","https://app.prolific.com/","en-GB,en-US;q=0.9,en;q=0.8","65a3f461bfa22dde98c10436","686d226cabeef709c732f8e1","686e3134ce7976f2a8042823","65a3f461bfa22dde98c10436","","","[0]","","","","quiz","","","","","","","","","","","","","","","","","","","","","","","","","","","","","","","","","","","","","false","",""
"1220","","<p align='center'><b>INCORRECT.</b> The blue ball always shakes and moves randomly.</p>","0","html-button-response","31","413662","0.0-8.0-7.1-1.1","43","1","2025-07-09 09:07:11","7701e855f2ef39aa3fd6c71abdc6918a","2.97.67.193","Mozilla/5.0 (X11; CrOS x86_64 14541.0.0) AppleWebKit/537.36 (KHTML, like Gecko) Chrome/137.0.0.0 Safari/537.36","WebKit","Chrome","137.0.0.0","ChromeOS","14541.0.0","https://app.prolific.com/","en-GB,en-US;q=0.9,en;q=0.8","65a3f461bfa22dde98c10436","686d226cabeef709c732f8e1","686e3134ce7976f2a8042823","65a3f461bfa22dde98c10436","","","","","","","","","","","","","","","","","","","","","","","","","","","","","","","","","","","","","","","","","","","","","",""
"3826","","","{""blue_ball"":[""Ball always shakes and moves in a random direction""]}","survey-multi-select","32","417494","0.0-8.0-7.2-0.2","43","1","2025-07-09 09:07:11","7701e855f2ef39aa3fd6c71abdc6918a","2.97.67.193","Mozilla/5.0 (X11; CrOS x86_64 14541.0.0) AppleWebKit/537.36 (KHTML, like Gecko) Chrome/137.0.0.0 Safari/537.36","WebKit","Chrome","137.0.0.0","ChromeOS","14541.0.0","https://app.prolific.com/","en-GB,en-US;q=0.9,en;q=0.8","65a3f461bfa22dde98c10436","686d226cabeef709c732f8e1","686e3134ce7976f2a8042823","65a3f461bfa22dde98c10436","","","[0]","","","","quiz","","","","","","","","","","","","","","","","","","","","","","","","","","","","","","","","","","","","","true","",""
"1661","","<p align='center'><b>CORRECT!</b> Indeed, the blue ball always shakes and moves in a random direction. Also there is a penalty of -1 point.</p>","0","html-button-response","33","419157","0.0-8.0-7.2-1.2","43","1","2025-07-09 09:07:11","7701e855f2ef39aa3fd6c71abdc6918a","2.97.67.193","Mozilla/5.0 (X11; CrOS x86_64 14541.0.0) AppleWebKit/537.36 (KHTML, like Gecko) Chrome/137.0.0.0 Safari/537.36","WebKit","Chrome","137.0.0.0","ChromeOS","14541.0.0","https://app.prolific.com/","en-GB,en-US;q=0.9,en;q=0.8","65a3f461bfa22dde98c10436","686d226cabeef709c732f8e1","686e3134ce7976f2a8042823","65a3f461bfa22dde98c10436","","","","","","","","","","","","","","","","","","","","","","","","","","","","","","","","","","","","","","","","","","","","","",""
"4123","","","{""bonus"":[""When I reach 50% of points""]}","survey-multi-select","34","423285","0.0-8.0-8.0-0.0","43","1","2025-07-09 09:07:11","7701e855f2ef39aa3fd6c71abdc6918a","2.97.67.193","Mozilla/5.0 (X11; CrOS x86_64 14541.0.0) AppleWebKit/537.36 (KHTML, like Gecko) Chrome/137.0.0.0 Safari/537.36","WebKit","Chrome","137.0.0.0","ChromeOS","14541.0.0","https://app.prolific.com/","en-GB,en-US;q=0.9,en;q=0.8","65a3f461bfa22dde98c10436","686d226cabeef709c732f8e1","686e3134ce7976f2a8042823","65a3f461bfa22dde98c10436","","","[0]","","","","quiz","","","","","","","","","","","","","","","","","","","","","","","","","","","","","","","","","","","","","true","",""
"1053","","<p align='center'><b>CORRECT!</b> Indeed, you receive 2 pounds extra when you reach 50% of points.</p>","0","html-button-response","35","424341","0.0-8.0-8.0-1.0","43","1","2025-07-09 09:07:11","7701e855f2ef39aa3fd6c71abdc6918a","2.97.67.193","Mozilla/5.0 (X11; CrOS x86_64 14541.0.0) AppleWebKit/537.36 (KHTML, like Gecko) Chrome/137.0.0.0 Safari/537.36","WebKit","Chrome","137.0.0.0","ChromeOS","14541.0.0","https://app.prolific.com/","en-GB,en-US;q=0.9,en;q=0.8","65a3f461bfa22dde98c10436","686d226cabeef709c732f8e1","686e3134ce7976f2a8042823","65a3f461bfa22dde98c10436","","","","","","","","","","","","","","","","","","","","","","","","","","","","","","","","","","","","","","","","","","","","","",""
"1718","","","","instructions","36","426061","0.0-8.0-9.0","43","1","2025-07-09 09:07:11","7701e855f2ef39aa3fd6c71abdc6918a","2.97.67.193","Mozilla/5.0 (X11; CrOS x86_64 14541.0.0) AppleWebKit/537.36 (KHTML, like Gecko) Chrome/137.0.0.0 Safari/537.36","WebKit","Chrome","137.0.0.0","ChromeOS","14541.0.0","https://app.prolific.com/","en-GB,en-US;q=0.9,en;q=0.8","65a3f461bfa22dde98c10436","686d226cabeef709c732f8e1","686e3134ce7976f2a8042823","65a3f461bfa22dde98c10436","","[{""page_index"":0,""viewing_time"":1717}]","","","","","","","","","","","","","","","","","","","","","","","","","","","","","","","","","","","","","","","","","","","",""
"8476","","<p>Before you start with this game please answer the following three questions yourself. </p>
  <p>Through this game, we measure several aspects of your cognitive performance, such as reaction times, multi-tasking capabilities </p>
  <p>and the ability to assess the situation you are in.</p>
  <p></p>
  <p><b>How good do you usually are in such tasks?</b></p>","88","html-slider-response","37","434542","0.0-9.0-0.0","43","1","2025-07-09 09:07:11","7701e855f2ef39aa3fd6c71abdc6918a","2.97.67.193","Mozilla/5.0 (X11; CrOS x86_64 14541.0.0) AppleWebKit/537.36 (KHTML, like Gecko) Chrome/137.0.0.0 Safari/537.36","WebKit","Chrome","137.0.0.0","ChromeOS","14541.0.0","https://app.prolific.com/","en-GB,en-US;q=0.9,en;q=0.8","65a3f461bfa22dde98c10436","686d226cabeef709c732f8e1","686e3134ce7976f2a8042823","65a3f461bfa22dde98c10436","2025-07-09T09:14:26.277Z","","","","","","PreSkillQ","","","","","","","","","","","","","","","","","","","","","","","","","","","","","","","","","","","","","","50",""
"3701","","<div style=""width:500px;"">
  <p>How well do you think you will perform in this task compared to other participants?</p>
  </div>","64","html-slider-response","38","438245","0.0-9.0-1.0","43","1","2025-07-09 09:07:11","7701e855f2ef39aa3fd6c71abdc6918a","2.97.67.193","Mozilla/5.0 (X11; CrOS x86_64 14541.0.0) AppleWebKit/537.36 (KHTML, like Gecko) Chrome/137.0.0.0 Safari/537.36","WebKit","Chrome","137.0.0.0","ChromeOS","14541.0.0","https://app.prolific.com/","en-GB,en-US;q=0.9,en;q=0.8","65a3f461bfa22dde98c10436","686d226cabeef709c732f8e1","686e3134ce7976f2a8042823","65a3f461bfa22dde98c10436","2025-07-09T09:14:29.980Z","","","","","","PrePerfQ","","","","","","","","","","","","","","","","","","","","","","","","","","","","","","","","","","","","","","50",""
"2733","","<div style=""width:500px;"">
  <p>What best describes how you currently feel?</p>
  </div>","88","html-slider-response","39","440981","0.0-9.0-2.0","43","1","2025-07-09 09:07:11","7701e855f2ef39aa3fd6c71abdc6918a","2.97.67.193","Mozilla/5.0 (X11; CrOS x86_64 14541.0.0) AppleWebKit/537.36 (KHTML, like Gecko) Chrome/137.0.0.0 Safari/537.36","WebKit","Chrome","137.0.0.0","ChromeOS","14541.0.0","https://app.prolific.com/","en-GB,en-US;q=0.9,en;q=0.8","65a3f461bfa22dde98c10436","686d226cabeef709c732f8e1","686e3134ce7976f2a8042823","65a3f461bfa22dde98c10436","2025-07-09T09:14:32.716Z","","","","","","PreMotivationQ","","","","","","","","","","","","","","","","","","","","","","","","","","","","","","","","","","","","","","50",""
"","","","","ctl-task-cpt","40","467923","0.0-10.0-0.0","43","1","2025-07-09 09:07:11","7701e855f2ef39aa3fd6c71abdc6918a","2.97.67.193","Mozilla/5.0 (X11; CrOS x86_64 14541.0.0) AppleWebKit/537.36 (KHTML, like Gecko) Chrome/137.0.0.0 Safari/537.36","WebKit","Chrome","137.0.0.0","ChromeOS","14541.0.0","https://app.prolific.com/","en-GB,en-US;q=0.9,en;q=0.8","65a3f461bfa22dde98c10436","686d226cabeef709c732f8e1","686e3134ce7976f2a8042823","65a3f461bfa22dde98c10436","2025-07-09T09:14:59.659Z","","","","","","","","","","","","","","","","win-only","3","g1:SW,g2:NE","1","1","0","442278","2602.9","7607.2","23925.6","1","4","8","6","2","8","8","8","0","0.06060606060606061","1270.8","3000","325","[""up"",""right""]","{""num_key_presses"":6,""num_perfect"":6,""num_errors"":0,""num_randdir"":0,""num_randdir_good_moves"":0,""num_whilered"":0,""num_whileblue"":0,""num_blue"":0,""num_good_moves"":6}","[299.22232142857143,299.12857142857143,0.7,298.22232142857143,299.12857142857143,104.3,298.22232142857143,299.12857142857143,207.9,298.22232142857143,299.12857142857143,313.3,297.22232142857143,299.12857142857143,417.9,297.22232142857143,300.12857142857143,523,291.22232142857143,306.12857142857143,623,260.22232142857143,354.12857142857143,727.6,276.22232142857143,353.12857142857143,829.2,445.22232142857143,198.12857142857143,932.5,507.22232142857143,125.12857142857143,1038.7,534.2223214285714,83.12857142857143,1142.9,534.2223214285714,82.12857142857143,1243.2,535.2223214285714,82.12857142857143,1347.5,535.2223214285714,82.12857142857143,1448.4,534.2223214285714,80.12857142857143,1549,534.2223214285714,80.12857142857143,1652.8,534.2223214285714,86.12857142857143,1753.9,523.2223214285714,126.12857142857143,1857.6,523.2223214285714,126.12857142857143,1958.2,523.2223214285714,126.12857142857143,2065,523.2223214285714,126.12857142857143,2168.1,523.2223214285714,126.12857142857143,2273.2,523.2223214285714,126.12857142857143,2381.3,523.2223214285714,126.12857142857143,2483.4,523.2223214285714,126.12857142857143,2588.2,523.2223214285714,126.12857142857143,2693.6,523.2223214285714,126.12857142857143,2799.4,523.2223214285714,126.12857142857143,2899.4,523.2223214285714,126.12857142857143,3003.3,523.2223214285714,126.12857142857143,3107.8,523.2223214285714,126.12857142857143,3215.5,523.2223214285714,126.12857142857143,3317.6,523.2223214285714,126.12857142857143,3417.7,523.2223214285714,126.12857142857143,3522.9,523.2223214285714,126.12857142857143,3623.2,523.2223214285714,126.12857142857143,3723.4,523.2223214285714,126.12857142857143,3828.8,523.2223214285714,126.12857142857143,3929.7,523.2223214285714,126.12857142857143,4031.3,523.2223214285714,126.12857142857143,4132.7,523.2223214285714,126.12857142857143,4232.6,523.2223214285714,126.12857142857143,4332.6,523.2223214285714,126.12857142857143,4433,523.2223214285714,126.12857142857143,4538,523.2223214285714,126.12857142857143,4644,523.2223214285714,126.12857142857143,4749.6,523.2223214285714,126.12857142857143,4853.5,523.2223214285714,126.12857142857143,4959.8]","[1413.2,1413.2,1000,0.1,413.1,""smooth"",""up"",""up"",""good_move"",3740.5,2323.7,1829.1,1416.8,494.6,""smooth"",""up"",""up"",""good_move"",6948,3205.6,2798.2,3742.5,407.4,""smooth"",""right"",""right"",""good_move"",10363.7,3414.9,2965.8,6948.8,449.1,""smooth"",""right"",""right"",""good_move"",12649.8,2285,1854.4,10364.8,430.6,""smooth"",""up"",""up"",""good_move"",16218.5,3568.2,3026.8,12650.4,541.3,""smooth"",""right"",""right"",""good_move""]","","",""
"4903","","<div style=""width:500px;"">
  <p>What determined the result of this run?</p>
  </div>","64","html-slider-response","41","472829","0.0-10.0-1.0","43","1","2025-07-09 09:07:11","7701e855f2ef39aa3fd6c71abdc6918a","2.97.67.193","Mozilla/5.0 (X11; CrOS x86_64 14541.0.0) AppleWebKit/537.36 (KHTML, like Gecko) Chrome/137.0.0.0 Safari/537.36","WebKit","Chrome","137.0.0.0","ChromeOS","14541.0.0","https://app.prolific.com/","en-GB,en-US;q=0.9,en;q=0.8","65a3f461bfa22dde98c10436","686d226cabeef709c732f8e1","686e3134ce7976f2a8042823","65a3f461bfa22dde98c10436","2025-07-09T09:15:04.564Z","","","","","","AttribQ","","","","","","","","","","","","","","","","","","","","","","","","","","","","","","","","","","","","","","50",""
"2485","","<div style=""width:500px;"">
  <p>How much control did you have over the ball?</p>
  </div>","96","html-slider-response","42","475317","0.0-10.0-2.0","43","1","2025-07-09 09:07:11","7701e855f2ef39aa3fd6c71abdc6918a","2.97.67.193","Mozilla/5.0 (X11; CrOS x86_64 14541.0.0) AppleWebKit/537.36 (KHTML, like Gecko) Chrome/137.0.0.0 Safari/537.36","WebKit","Chrome","137.0.0.0","ChromeOS","14541.0.0","https://app.prolific.com/","en-GB,en-US;q=0.9,en;q=0.8","65a3f461bfa22dde98c10436","686d226cabeef709c732f8e1","686e3134ce7976f2a8042823","65a3f461bfa22dde98c10436","2025-07-09T09:15:07.052Z","","","","","","ControlQ","","","","","","","","","","","","","","","","","","","","","","","","","","","","","","","","","","","","","","50",""
"3014","","<div style=""width:500px;"">
  <p>How would you describe your current emotional state?</p>
  </div>","2","html-slider-response","43","478333","0.0-10.0-3.0","43","1","2025-07-09 09:07:11","7701e855f2ef39aa3fd6c71abdc6918a","2.97.67.193","Mozilla/5.0 (X11; CrOS x86_64 14541.0.0) AppleWebKit/537.36 (KHTML, like Gecko) Chrome/137.0.0.0 Safari/537.36","WebKit","Chrome","137.0.0.0","ChromeOS","14541.0.0","https://app.prolific.com/","en-GB,en-US;q=0.9,en;q=0.8","65a3f461bfa22dde98c10436","686d226cabeef709c732f8e1","686e3134ce7976f2a8042823","65a3f461bfa22dde98c10436","2025-07-09T09:15:10.068Z","","","","","","StressQ","","","","","","","","","","","","","","","","","","","","","","","","","","","","","","","","","","","","","","50",""
"2830","","<div style=""width:500px;"">
  <p>What best describes how you currently feel?</p>
  </div>","97","html-slider-response","44","481165","0.0-10.0-4.0","43","1","2025-07-09 09:07:11","7701e855f2ef39aa3fd6c71abdc6918a","2.97.67.193","Mozilla/5.0 (X11; CrOS x86_64 14541.0.0) AppleWebKit/537.36 (KHTML, like Gecko) Chrome/137.0.0.0 Safari/537.36","WebKit","Chrome","137.0.0.0","ChromeOS","14541.0.0","https://app.prolific.com/","en-GB,en-US;q=0.9,en;q=0.8","65a3f461bfa22dde98c10436","686d226cabeef709c732f8e1","686e3134ce7976f2a8042823","65a3f461bfa22dde98c10436","2025-07-09T09:15:12.901Z","","","","","","MotivationQ","","","","","","","","","","","","","","","","","","","","","","","","","","","","","","","","","","","","","","50",""
"","","","","ctl-task-cpt","45","505065","0.0-10.0-0.1","43","1","2025-07-09 09:07:11","7701e855f2ef39aa3fd6c71abdc6918a","2.97.67.193","Mozilla/5.0 (X11; CrOS x86_64 14541.0.0) AppleWebKit/537.36 (KHTML, like Gecko) Chrome/137.0.0.0 Safari/537.36","WebKit","Chrome","137.0.0.0","ChromeOS","14541.0.0","https://app.prolific.com/","en-GB,en-US;q=0.9,en;q=0.8","65a3f461bfa22dde98c10436","686d226cabeef709c732f8e1","686e3134ce7976f2a8042823","65a3f461bfa22dde98c10436","2025-07-09T09:15:36.800Z","","","","","","","","","","","","","","","","win-only","3","g1:SW,g2:NE","0.9","2","0","482461.2","1346.3","6347.5","20888.4","1","4","4","6","1","1","1","9","8","0.06818181818181818","2120.5","3000","1525","[""down"",""left""]","{""num_key_presses"":4,""num_perfect"":4,""num_errors"":0,""num_randdir"":0,""num_randdir_good_moves"":0,""num_whilered"":0,""num_whileblue"":0,""num_blue"":1,""num_good_moves"":4}","[301.22232142857143,299.12857142857143,1.3,301.22232142857143,299.12857142857143,103.3,301.22232142857143,299.12857142857143,203.4,301.22232142857143,299.12857142857143,304.8,301.22232142857143,299.12857142857143,412.4,301.22232142857143,299.12857142857143,518.7,301.22232142857143,295.12857142857143,619.2,314.22232142857143,360.12857142857143,720.6,314.22232142857143,361.12857142857143,825.5,314.22232142857143,361.12857142857143,930.3,367.22232142857143,251.12857142857143,1032.4,408.22232142857143,151.12857142857143,1137,444.22232142857143,112.12857142857143,1239.8,458.22232142857143,102.12857142857143,1340.3,501.22232142857143,86.12857142857143,1444.8,501.22232142857143,86.12857142857143,1545.6,501.22232142857143,83.12857142857143,1651.2,19.222321428571426,520.1285714285714,1754.8,-0.7776785714285737,548.1285714285714,1855,-3.7776785714285737,565.1285714285714,1955,34.222321428571426,547.1285714285714,2060.4,35.222321428571426,546.1285714285714,2160.7,35.222321428571426,546.1285714285714,2260.8,36.222321428571426,545.1285714285714,2368.6,38.222321428571426,545.1285714285714,2471.2,42.222321428571426,551.1285714285714,2575,42.222321428571426,551.1285714285714,2682,42.222321428571426,551.1285714285714,2783.8,42.222321428571426,551.1285714285714,2884.7,42.222321428571426,551.1285714285714,2985.2,42.222321428571426,551.1285714285714,3090.3,42.222321428571426,551.1285714285714,3190.5,42.222321428571426,551.1285714285714,3291.5,42.222321428571426,551.1285714285714,3396.5,42.222321428571426,551.1285714285714,3499.7,42.222321428571426,551.1285714285714,3600.5,42.222321428571426,551.1285714285714,3704.4,42.222321428571426,551.1285714285714,3805.4,42.222321428571426,551.1285714285714,3910.1,42.222321428571426,551.1285714285714,4014.4,42.222321428571426,551.1285714285714,4115.1,42.222321428571426,551.1285714285714,4219.7,42.222321428571426,551.1285714285714,4320.1,42.222321428571426,551.1285714285714,4425.1,42.222321428571426,551.1285714285714,4525.2,42.222321428571426,551.1285714285714,4625.3,42.222321428571426,551.1285714285714,4731,42.222321428571426,551.1285714285714,4835.2,42.222321428571426,551.1285714285714,4939.3]","[4881.7,4881.7,2515.1,2004.6,362,""smooth"",""down"",""down"",""good_move"",8569.8,3687.4,3218,4882.4,469.4,""smooth"",""left"",""left"",""good_move"",11963.5,3392.5,2989.9,8571,402.6,""smooth"",""down"",""down"",""good_move"",14449.1,2484.9,2133.8,11964.2,351.1,""smooth"",""left"",""left"",""good_move""]","","",""
"4130","","<div style=""width:500px;"">
  <p>What determined the result of this run?</p>
  </div>","87","html-slider-response","46","509197","0.0-10.0-1.1","43","1","2025-07-09 09:07:11","7701e855f2ef39aa3fd6c71abdc6918a","2.97.67.193","Mozilla/5.0 (X11; CrOS x86_64 14541.0.0) AppleWebKit/537.36 (KHTML, like Gecko) Chrome/137.0.0.0 Safari/537.36","WebKit","Chrome","137.0.0.0","ChromeOS","14541.0.0","https://app.prolific.com/","en-GB,en-US;q=0.9,en;q=0.8","65a3f461bfa22dde98c10436","686d226cabeef709c732f8e1","686e3134ce7976f2a8042823","65a3f461bfa22dde98c10436","2025-07-09T09:15:40.932Z","","","","","","AttribQ","","","","","","","","","","","","","","","","","","","","","","","","","","","","","","","","","","","","","","50",""
"2191","","<div style=""width:500px;"">
  <p>How much control did you have over the ball?</p>
  </div>","94","html-slider-response","47","511391","0.0-10.0-2.1","43","1","2025-07-09 09:07:11","7701e855f2ef39aa3fd6c71abdc6918a","2.97.67.193","Mozilla/5.0 (X11; CrOS x86_64 14541.0.0) AppleWebKit/537.36 (KHTML, like Gecko) Chrome/137.0.0.0 Safari/537.36","WebKit","Chrome","137.0.0.0","ChromeOS","14541.0.0","https://app.prolific.com/","en-GB,en-US;q=0.9,en;q=0.8","65a3f461bfa22dde98c10436","686d226cabeef709c732f8e1","686e3134ce7976f2a8042823","65a3f461bfa22dde98c10436","2025-07-09T09:15:43.126Z","","","","","","ControlQ","","","","","","","","","","","","","","","","","","","","","","","","","","","","","","","","","","","","","","50",""
"3291","","<div style=""width:500px;"">
  <p>How would you describe your current emotional state?</p>
  </div>","2","html-slider-response","48","514686","0.0-10.0-3.1","43","1","2025-07-09 09:07:11","7701e855f2ef39aa3fd6c71abdc6918a","2.97.67.193","Mozilla/5.0 (X11; CrOS x86_64 14541.0.0) AppleWebKit/537.36 (KHTML, like Gecko) Chrome/137.0.0.0 Safari/537.36","WebKit","Chrome","137.0.0.0","ChromeOS","14541.0.0","https://app.prolific.com/","en-GB,en-US;q=0.9,en;q=0.8","65a3f461bfa22dde98c10436","686d226cabeef709c732f8e1","686e3134ce7976f2a8042823","65a3f461bfa22dde98c10436","2025-07-09T09:15:46.421Z","","","","","","StressQ","","","","","","","","","","","","","","","","","","","","","","","","","","","","","","","","","","","","","","50",""
"2812","","<div style=""width:500px;"">
  <p>What best describes how you currently feel?</p>
  </div>","97","html-slider-response","49","517501","0.0-10.0-4.1","43","1","2025-07-09 09:07:11","7701e855f2ef39aa3fd6c71abdc6918a","2.97.67.193","Mozilla/5.0 (X11; CrOS x86_64 14541.0.0) AppleWebKit/537.36 (KHTML, like Gecko) Chrome/137.0.0.0 Safari/537.36","WebKit","Chrome","137.0.0.0","ChromeOS","14541.0.0","https://app.prolific.com/","en-GB,en-US;q=0.9,en;q=0.8","65a3f461bfa22dde98c10436","686d226cabeef709c732f8e1","686e3134ce7976f2a8042823","65a3f461bfa22dde98c10436","2025-07-09T09:15:49.236Z","","","","","","MotivationQ","","","","","","","","","","","","","","","","","","","","","","","","","","","","","","","","","","","","","","50",""
"","","","","ctl-task-cpt","50","553519","0.0-10.0-0.2","43","1","2025-07-09 09:07:11","7701e855f2ef39aa3fd6c71abdc6918a","2.97.67.193","Mozilla/5.0 (X11; CrOS x86_64 14541.0.0) AppleWebKit/537.36 (KHTML, like Gecko) Chrome/137.0.0.0 Safari/537.36","WebKit","Chrome","137.0.0.0","ChromeOS","14541.0.0","https://app.prolific.com/","en-GB,en-US;q=0.9,en;q=0.8","65a3f461bfa22dde98c10436","686d226cabeef709c732f8e1","686e3134ce7976f2a8042823","65a3f461bfa22dde98c10436","2025-07-09T09:16:25.254Z","","","","","","","","","","","","","","","","win-only","3","g1:SW,g2:NE","0.8","3","0","518795.1","1124.4","6127","33005.7","1","4","8","6","2","8","8","17","9","0.12878787878787878","1007.9","3000","445","[""up"",""right""]","{""num_key_presses"":6,""num_perfect"":5,""num_errors"":0,""num_randdir"":1,""num_randdir_good_moves"":1,""num_whilered"":0,""num_whileblue"":0,""num_blue"":3,""num_good_moves"":6}","[291.22232142857143,302.12857142857143,0.4,291.22232142857143,302.12857142857143,101,291.22232142857143,302.12857142857143,201.8,291.22232142857143,302.12857142857143,306,291.22232142857143,302.12857142857143,406.1,305.22232142857143,282.12857142857143,513.7,574.2223214285714,-16.871428571428574,618.6,604.2223214285714,-31.871428571428574,720.1,586.2223214285714,22.128571428571426,824.5,547.2223214285714,60.128571428571426,924.6,547.2223214285714,60.128571428571426,1026.7,547.2223214285714,60.128571428571426,1131.4,547.2223214285714,60.128571428571426,1237.5,547.2223214285714,60.128571428571426,1341.6,547.2223214285714,60.128571428571426,1442.9,548.2223214285714,69.12857142857143,1546.7,548.2223214285714,72.12857142857143,1651.2,548.2223214285714,72.12857142857143,1757.9,548.2223214285714,72.12857142857143,1861,548.2223214285714,72.12857142857143,1961.2,548.2223214285714,72.12857142857143,2061.5,548.2223214285714,72.12857142857143,2166,548.2223214285714,72.12857142857143,2266.4,548.2223214285714,72.12857142857143,2371.3,548.2223214285714,72.12857142857143,2471.3,548.2223214285714,72.12857142857143,2576.7,548.2223214285714,72.12857142857143,2683.5,548.2223214285714,72.12857142857143,2784.6,548.2223214285714,72.12857142857143,2886.1,548.2223214285714,72.12857142857143,2988.6,548.2223214285714,72.12857142857143,3091.4,548.2223214285714,72.12857142857143,3191.4,548.2223214285714,72.12857142857143,3292.2,548.2223214285714,72.12857142857143,3397.6,548.2223214285714,72.12857142857143,3497.9,548.2223214285714,72.12857142857143,3602.5,548.2223214285714,72.12857142857143,3706.1,548.2223214285714,72.12857142857143,3806.3,548.2223214285714,72.12857142857143,3906.4,548.2223214285714,72.12857142857143,4006.5,548.2223214285714,72.12857142857143,4106.9,548.2223214285714,72.12857142857143,4217.9,548.2223214285714,72.12857142857143,4321.4,548.2223214285714,72.12857142857143,4421.4,548.2223214285714,72.12857142857143,4526,548.2223214285714,72.12857142857143,4628.5,548.2223214285714,72.12857142857143,4732.4,548.2223214285714,72.12857142857143,4836.2,548.2223214285714,72.12857142857143,4941.5]","[1515,1515,1000,0,515,""smooth"",""up"",""up"",""good_move"",4253.2,2737.6,2339.5,1515.6,398.1,""smooth"",""up"",""up"",""good_move"",7039.1,2785.3,2416.7,4253.8,368.6,""smooth"",""right"",""right"",""good_move"",13027.5,5987.7,2305.1,10408.3,314.1,""oops"",""right"",""up"",""good_move"",23340.8,10312.9,2335.2,20663.6,342,""smooth"",""right"",""right"",""good_move"",26787.5,3445.1,2603,23342.5,842,""smooth"",""right"",""right"",""good_move""]","","",""
"2669","","<div style=""width:500px;"">
  <p>What determined the result of this run?</p>
  </div>","93","html-slider-response","51","556191","0.0-10.0-1.2","43","1","2025-07-09 09:07:11","7701e855f2ef39aa3fd6c71abdc6918a","2.97.67.193","Mozilla/5.0 (X11; CrOS x86_64 14541.0.0) AppleWebKit/537.36 (KHTML, like Gecko) Chrome/137.0.0.0 Safari/537.36","WebKit","Chrome","137.0.0.0","ChromeOS","14541.0.0","https://app.prolific.com/","en-GB,en-US;q=0.9,en;q=0.8","65a3f461bfa22dde98c10436","686d226cabeef709c732f8e1","686e3134ce7976f2a8042823","65a3f461bfa22dde98c10436","2025-07-09T09:16:27.926Z","","","","","","AttribQ","","","","","","","","","","","","","","","","","","","","","","","","","","","","","","","","","","","","","","50",""
"2502","","<div style=""width:500px;"">
  <p>How much control did you have over the ball?</p>
  </div>","91","html-slider-response","52","558695","0.0-10.0-2.2","43","1","2025-07-09 09:07:11","7701e855f2ef39aa3fd6c71abdc6918a","2.97.67.193","Mozilla/5.0 (X11; CrOS x86_64 14541.0.0) AppleWebKit/537.36 (KHTML, like Gecko) Chrome/137.0.0.0 Safari/537.36","WebKit","Chrome","137.0.0.0","ChromeOS","14541.0.0","https://app.prolific.com/","en-GB,en-US;q=0.9,en;q=0.8","65a3f461bfa22dde98c10436","686d226cabeef709c732f8e1","686e3134ce7976f2a8042823","65a3f461bfa22dde98c10436","2025-07-09T09:16:30.430Z","","","","","","ControlQ","","","","","","","","","","","","","","","","","","","","","","","","","","","","","","","","","","","","","","50",""
"2251","","<div style=""width:500px;"">
  <p>How would you describe your current emotional state?</p>
  </div>","0","html-slider-response","53","560949","0.0-10.0-3.2","43","1","2025-07-09 09:07:11","7701e855f2ef39aa3fd6c71abdc6918a","2.97.67.193","Mozilla/5.0 (X11; CrOS x86_64 14541.0.0) AppleWebKit/537.36 (KHTML, like Gecko) Chrome/137.0.0.0 Safari/537.36","WebKit","Chrome","137.0.0.0","ChromeOS","14541.0.0","https://app.prolific.com/","en-GB,en-US;q=0.9,en;q=0.8","65a3f461bfa22dde98c10436","686d226cabeef709c732f8e1","686e3134ce7976f2a8042823","65a3f461bfa22dde98c10436","2025-07-09T09:16:32.684Z","","","","","","StressQ","","","","","","","","","","","","","","","","","","","","","","","","","","","","","","","","","","","","","","50",""
"2485","","<div style=""width:500px;"">
  <p>What best describes how you currently feel?</p>
  </div>","97","html-slider-response","54","563437","0.0-10.0-4.2","43","1","2025-07-09 09:07:11","7701e855f2ef39aa3fd6c71abdc6918a","2.97.67.193","Mozilla/5.0 (X11; CrOS x86_64 14541.0.0) AppleWebKit/537.36 (KHTML, like Gecko) Chrome/137.0.0.0 Safari/537.36","WebKit","Chrome","137.0.0.0","ChromeOS","14541.0.0","https://app.prolific.com/","en-GB,en-US;q=0.9,en;q=0.8","65a3f461bfa22dde98c10436","686d226cabeef709c732f8e1","686e3134ce7976f2a8042823","65a3f461bfa22dde98c10436","2025-07-09T09:16:35.172Z","","","","","","MotivationQ","","","","","","","","","","","","","","","","","","","","","","","","","","","","","","","","","","","","","","50",""
"","","","","ctl-task-cpt","55","605100","0.0-10.0-0.3","43","1","2025-07-09 09:07:11","7701e855f2ef39aa3fd6c71abdc6918a","2.97.67.193","Mozilla/5.0 (X11; CrOS x86_64 14541.0.0) AppleWebKit/537.36 (KHTML, like Gecko) Chrome/137.0.0.0 Safari/537.36","WebKit","Chrome","137.0.0.0","ChromeOS","14541.0.0","https://app.prolific.com/","en-GB,en-US;q=0.9,en;q=0.8","65a3f461bfa22dde98c10436","686d226cabeef709c732f8e1","686e3134ce7976f2a8042823","65a3f461bfa22dde98c10436","2025-07-09T09:17:16.835Z","","","","","","","","","","","","","","","","win-only","1","g1:NE,g2:SW","0.7","4","0","564731.3","3381","8390.6","38644.1","1","4","4","6","2","-4","-4","13","17","0.09848484848484848","1864.5","3000","-2590","[""down"",""left""]","{""num_key_presses"":8,""num_perfect"":5,""num_errors"":0,""num_randdir"":3,""num_randdir_good_moves"":1,""num_whilered"":0,""num_whileblue"":0,""num_blue"":1,""num_good_moves"":6}","[295.22232142857143,299.12857142857143,3.3,295.22232142857143,299.12857142857143,100.5,295.22232142857143,299.12857142857143,201.2,295.22232142857143,299.12857142857143,302.3,295.22232142857143,299.12857142857143,403.3,295.22232142857143,299.12857142857143,504.6,295.22232142857143,299.12857142857143,605.6,274.22232142857143,350.12857142857143,706,303.22232142857143,326.12857142857143,806.6,475.22232142857143,166.12857142857143,909.8,532.2223214285714,101.12857142857143,1014.9,555.2223214285714,60.128571428571426,1115.5,555.2223214285714,60.128571428571426,1217.7,450.22232142857143,197.12857142857143,1324.4,248.22232142857143,452.12857142857143,1424.5,121.22232142857143,522.1285714285714,1527.7,100.22232142857143,527.1285714285714,1633.1,70.22232142857143,529.1285714285714,1738.3,46.222321428571426,536.1285714285714,1839.9,46.222321428571426,536.1285714285714,1945.1,46.222321428571426,536.1285714285714,2050.8,54.222321428571426,531.1285714285714,2152.3,69.22232142857143,546.1285714285714,2253.4,69.22232142857143,546.1285714285714,2355.5,69.22232142857143,546.1285714285714,2459.7,69.22232142857143,546.1285714285714,2566.1,69.22232142857143,547.1285714285714,2670.4,69.22232142857143,547.1285714285714,2775.7,69.22232142857143,547.1285714285714,2881.3,69.22232142857143,547.1285714285714,2985.3,69.22232142857143,547.1285714285714,3086.8,69.22232142857143,547.1285714285714,3189.7,69.22232142857143,547.1285714285714,3290.3,69.22232142857143,547.1285714285714,3399.7,69.22232142857143,547.1285714285714,3500,69.22232142857143,547.1285714285714,3600.3,69.22232142857143,547.1285714285714,3700.4,69.22232142857143,547.1285714285714,3804.4,69.22232142857143,547.1285714285714,3910.7,69.22232142857143,547.1285714285714,4014.6,69.22232142857143,547.1285714285714,4115.8,69.22232142857143,547.1285714285714,4219.6,69.22232142857143,547.1285714285714,4319.7,69.22232142857143,547.1285714285714,4430.1,69.22232142857143,547.1285714285714,4532.7,69.22232142857143,547.1285714285714,4635.4,69.22232142857143,547.1285714285714,4741.3,69.22232142857143,547.1285714285714,4846.9,69.22232142857143,547.1285714285714,4950.2]","[1514.9,1514.9,1000,0,514.9,""smooth"",""down"",""down"",""good_move"",4766.9,3251.3,2749.2,1515.7,502,""oops"",""left"",""right"",""bad_move"",8246.1,3478.7,2862.1,4767.5,616.6,""smooth"",""down"",""down"",""good_move"",11242.2,2995.5,2588.7,8246.7,406.9,""smooth"",""left"",""left"",""good_move"",14427.2,3182.5,2826.2,11244.7,356.3,""oops"",""left"",""left"",""good_move"",17467.1,3037.9,2576.5,14429.2,461.4,""smooth"",""down"",""down"",""good_move"",24015.4,6546.9,3063.8,20619.9,331.7,""smooth"",""left"",""left"",""good_move"",27209.3,3191.6,2746.7,24017.7,444.9,""oops"",""left"",""up"",""bad_move""]","","",""
"3214","","<div style=""width:500px;"">
  <p>What determined the result of this run?</p>
  </div>","5","html-slider-response","56","608317","0.0-10.0-1.3","43","1","2025-07-09 09:07:11","7701e855f2ef39aa3fd6c71abdc6918a","2.97.67.193","Mozilla/5.0 (X11; CrOS x86_64 14541.0.0) AppleWebKit/537.36 (KHTML, like Gecko) Chrome/137.0.0.0 Safari/537.36","WebKit","Chrome","137.0.0.0","ChromeOS","14541.0.0","https://app.prolific.com/","en-GB,en-US;q=0.9,en;q=0.8","65a3f461bfa22dde98c10436","686d226cabeef709c732f8e1","686e3134ce7976f2a8042823","65a3f461bfa22dde98c10436","2025-07-09T09:17:20.052Z","","","","","","AttribQ","","","","","","","","","","","","","","","","","","","","","","","","","","","","","","","","","","","","","","50",""
"2325","","<div style=""width:500px;"">
  <p>How much control did you have over the ball?</p>
  </div>","14","html-slider-response","57","610644","0.0-10.0-2.3","43","1","2025-07-09 09:07:11","7701e855f2ef39aa3fd6c71abdc6918a","2.97.67.193","Mozilla/5.0 (X11; CrOS x86_64 14541.0.0) AppleWebKit/537.36 (KHTML, like Gecko) Chrome/137.0.0.0 Safari/537.36","WebKit","Chrome","137.0.0.0","ChromeOS","14541.0.0","https://app.prolific.com/","en-GB,en-US;q=0.9,en;q=0.8","65a3f461bfa22dde98c10436","686d226cabeef709c732f8e1","686e3134ce7976f2a8042823","65a3f461bfa22dde98c10436","2025-07-09T09:17:22.380Z","","","","","","ControlQ","","","","","","","","","","","","","","","","","","","","","","","","","","","","","","","","","","","","","","50",""
"2815","","<div style=""width:500px;"">
  <p>How would you describe your current emotional state?</p>
  </div>","1","html-slider-response","58","613461","0.0-10.0-3.3","43","1","2025-07-09 09:07:11","7701e855f2ef39aa3fd6c71abdc6918a","2.97.67.193","Mozilla/5.0 (X11; CrOS x86_64 14541.0.0) AppleWebKit/537.36 (KHTML, like Gecko) Chrome/137.0.0.0 Safari/537.36","WebKit","Chrome","137.0.0.0","ChromeOS","14541.0.0","https://app.prolific.com/","en-GB,en-US;q=0.9,en;q=0.8","65a3f461bfa22dde98c10436","686d226cabeef709c732f8e1","686e3134ce7976f2a8042823","65a3f461bfa22dde98c10436","2025-07-09T09:17:25.197Z","","","","","","StressQ","","","","","","","","","","","","","","","","","","","","","","","","","","","","","","","","","","","","","","50",""
"6822","","<div style=""width:500px;"">
  <p>What best describes how you currently feel?</p>
  </div>","99","html-slider-response","59","620285","0.0-10.0-4.3","43","1","2025-07-09 09:07:11","7701e855f2ef39aa3fd6c71abdc6918a","2.97.67.193","Mozilla/5.0 (X11; CrOS x86_64 14541.0.0) AppleWebKit/537.36 (KHTML, like Gecko) Chrome/137.0.0.0 Safari/537.36","WebKit","Chrome","137.0.0.0","ChromeOS","14541.0.0","https://app.prolific.com/","en-GB,en-US;q=0.9,en;q=0.8","65a3f461bfa22dde98c10436","686d226cabeef709c732f8e1","686e3134ce7976f2a8042823","65a3f461bfa22dde98c10436","2025-07-09T09:17:32.020Z","","","","","","MotivationQ","","","","","","","","","","","","","","","","","","","","","","","","","","","","","","","","","","","","","","50",""
"","","","","ctl-task-cpt","60","662761","0.0-10.0-0.4","43","1","2025-07-09 09:07:11","7701e855f2ef39aa3fd6c71abdc6918a","2.97.67.193","Mozilla/5.0 (X11; CrOS x86_64 14541.0.0) AppleWebKit/537.36 (KHTML, like Gecko) Chrome/137.0.0.0 Safari/537.36","WebKit","Chrome","137.0.0.0","ChromeOS","14541.0.0","https://app.prolific.com/","en-GB,en-US;q=0.9,en;q=0.8","65a3f461bfa22dde98c10436","686d226cabeef709c732f8e1","686e3134ce7976f2a8042823","65a3f461bfa22dde98c10436","2025-07-09T09:18:14.497Z","","","","","","","","","","","","","","","","win-only","0","g1:NW,g2:SE","0.6","5","0","621579.5","1060.2","6061.5","39461.3","1","4","8","6","2","-8","-9","4","13","0.030303030303030304","1256.6","3000","-2395","[""down"",""right""]","{""num_key_presses"":9,""num_perfect"":4,""num_errors"":1,""num_randdir"":4,""num_randdir_good_moves"":2,""num_whilered"":0,""num_whileblue"":0,""num_blue"":2,""num_good_moves"":6}","[301.22232142857143,298.12857142857143,1.1,301.22232142857143,298.12857142857143,102.5,301.22232142857143,298.12857142857143,203.5,301.22232142857143,298.12857142857143,305.2,301.22232142857143,298.12857142857143,409.2,301.22232142857143,298.12857142857143,510.2,300.22232142857143,299.12857142857143,613.5,300.22232142857143,299.12857142857143,721.5,325.22232142857143,339.12857142857143,822.9,450.22232142857143,501.12857142857143,927.4,460.22232142857143,508.12857142857143,1040.9,504.22232142857143,519.1285714285714,1141.7,538.2223214285714,527.1285714285714,1245.9,539.2223214285714,527.1285714285714,1355.7,539.2223214285714,527.1285714285714,1457.3,539.2223214285714,527.1285714285714,1584,544.2223214285714,509.12857142857143,1687.8,542.2223214285714,513.1285714285714,1789.7,542.2223214285714,513.1285714285714,1891,542.2223214285714,513.1285714285714,1993.9,542.2223214285714,513.1285714285714,2096.4,542.2223214285714,513.1285714285714,2199,542.2223214285714,513.1285714285714,2300.9,542.2223214285714,513.1285714285714,2404.7,542.2223214285714,513.1285714285714,2506.8,542.2223214285714,513.1285714285714,2616.4,542.2223214285714,513.1285714285714,2721.5,542.2223214285714,513.1285714285714,2825.4,542.2223214285714,513.1285714285714,2925.8,542.2223214285714,513.1285714285714,3029.8,542.2223214285714,513.1285714285714,3136.3,542.2223214285714,513.1285714285714,3240.2,542.2223214285714,513.1285714285714,3342.5,542.2223214285714,513.1285714285714,3449.4,542.2223214285714,513.1285714285714,3552.4,542.2223214285714,513.1285714285714,3655.3,542.2223214285714,513.1285714285714,3761.9,542.2223214285714,513.1285714285714,3867.1,542.2223214285714,513.1285714285714,3967.3,542.2223214285714,513.1285714285714,4068.5,542.2223214285714,513.1285714285714,4173.1,542.2223214285714,513.1285714285714,4275.8,542.2223214285714,513.1285714285714,4383.2,542.2223214285714,513.1285714285714,4485.7,542.2223214285714,513.1285714285714,4587.8,542.2223214285714,513.1285714285714,4690.6,542.2223214285714,513.1285714285714,4790.6,542.2223214285714,513.1285714285714,4897.1]","[1501.3,1501.3,1000,0,501.3,""oops"",""right"",""right"",""good_move"",4412.4,2908,2381.7,1504.4,526.3,""smooth"",""right"",""right"",""good_move"",6950.9,2538.1,2106.2,4412.8,431.9,""oops"",""down"",""left"",""bad_move"",9883.2,2927.7,2514.4,6955.6,413.2,""smooth"",""down"",""down"",""good_move"",14091.8,4207.8,2596,13743.1,-2247.3,""error"",""-"",""-"",""no_move"",17577.3,3484.8,2057.2,15100.5,419.6,""oops"",""right"",""up"",""bad_move"",23773.5,6195.6,2339.5,20963.6,470.4,""oops"",""right"",""down"",""good_move"",26978.1,3200.7,2673.4,23777.4,527.3,""smooth"",""down"",""down"",""good_move"",30039.2,3060.7,2676.7,26978.5,384,""smooth"",""right"",""right"",""good_move""]","","",""
"3377","","<div style=""width:500px;"">
  <p>What determined the result of this run?</p>
  </div>","8","html-slider-response","61","666140","0.0-10.0-1.4","43","1","2025-07-09 09:07:11","7701e855f2ef39aa3fd6c71abdc6918a","2.97.67.193","Mozilla/5.0 (X11; CrOS x86_64 14541.0.0) AppleWebKit/537.36 (KHTML, like Gecko) Chrome/137.0.0.0 Safari/537.36","WebKit","Chrome","137.0.0.0","ChromeOS","14541.0.0","https://app.prolific.com/","en-GB,en-US;q=0.9,en;q=0.8","65a3f461bfa22dde98c10436","686d226cabeef709c732f8e1","686e3134ce7976f2a8042823","65a3f461bfa22dde98c10436","2025-07-09T09:18:17.875Z","","","","","","AttribQ","","","","","","","","","","","","","","","","","","","","","","","","","","","","","","","","","","","","","","50",""
"2199","","<div style=""width:500px;"">
  <p>How much control did you have over the ball?</p>
  </div>","5","html-slider-response","62","668341","0.0-10.0-2.4","43","1","2025-07-09 09:07:11","7701e855f2ef39aa3fd6c71abdc6918a","2.97.67.193","Mozilla/5.0 (X11; CrOS x86_64 14541.0.0) AppleWebKit/537.36 (KHTML, like Gecko) Chrome/137.0.0.0 Safari/537.36","WebKit","Chrome","137.0.0.0","ChromeOS","14541.0.0","https://app.prolific.com/","en-GB,en-US;q=0.9,en;q=0.8","65a3f461bfa22dde98c10436","686d226cabeef709c732f8e1","686e3134ce7976f2a8042823","65a3f461bfa22dde98c10436","2025-07-09T09:18:20.076Z","","","","","","ControlQ","","","","","","","","","","","","","","","","","","","","","","","","","","","","","","","","","","","","","","50",""
"2885","","<div style=""width:500px;"">
  <p>How would you describe your current emotional state?</p>
  </div>","0","html-slider-response","63","671229","0.0-10.0-3.4","43","1","2025-07-09 09:07:11","7701e855f2ef39aa3fd6c71abdc6918a","2.97.67.193","Mozilla/5.0 (X11; CrOS x86_64 14541.0.0) AppleWebKit/537.36 (KHTML, like Gecko) Chrome/137.0.0.0 Safari/537.36","WebKit","Chrome","137.0.0.0","ChromeOS","14541.0.0","https://app.prolific.com/","en-GB,en-US;q=0.9,en;q=0.8","65a3f461bfa22dde98c10436","686d226cabeef709c732f8e1","686e3134ce7976f2a8042823","65a3f461bfa22dde98c10436","2025-07-09T09:18:22.965Z","","","","","","StressQ","","","","","","","","","","","","","","","","","","","","","","","","","","","","","","","","","","","","","","50",""
"3173","","<div style=""width:500px;"">
  <p>What best describes how you currently feel?</p>
  </div>","99","html-slider-response","64","674405","0.0-10.0-4.4","43","1","2025-07-09 09:07:11","7701e855f2ef39aa3fd6c71abdc6918a","2.97.67.193","Mozilla/5.0 (X11; CrOS x86_64 14541.0.0) AppleWebKit/537.36 (KHTML, like Gecko) Chrome/137.0.0.0 Safari/537.36","WebKit","Chrome","137.0.0.0","ChromeOS","14541.0.0","https://app.prolific.com/","en-GB,en-US;q=0.9,en;q=0.8","65a3f461bfa22dde98c10436","686d226cabeef709c732f8e1","686e3134ce7976f2a8042823","65a3f461bfa22dde98c10436","2025-07-09T09:18:26.140Z","","","","","","MotivationQ","","","","","","","","","","","","","","","","","","","","","","","","","","","","","","","","","","","","","","50",""
"","","","","ctl-task-cpt","65","711863","0.0-10.0-0.5","43","1","2025-07-09 09:07:11","7701e855f2ef39aa3fd6c71abdc6918a","2.97.67.193","Mozilla/5.0 (X11; CrOS x86_64 14541.0.0) AppleWebKit/537.36 (KHTML, like Gecko) Chrome/137.0.0.0 Safari/537.36","WebKit","Chrome","137.0.0.0","ChromeOS","14541.0.0","https://app.prolific.com/","en-GB,en-US;q=0.9,en;q=0.8","65a3f461bfa22dde98c10436","686d226cabeef709c732f8e1","686e3134ce7976f2a8042823","65a3f461bfa22dde98c10436","2025-07-09T09:19:03.598Z","","","","","","","","","","","","","","","","win-only","2","g1:SE,g2:NW","0.5","6","0","675700","1011.4","6017.2","34445.8","1","4","4","6","1","1","1","5","4","0.03787878787878788","1120.1","3000","695","[""down"",""right""]","{""num_key_presses"":8,""num_perfect"":5,""num_errors"":0,""num_randdir"":3,""num_randdir_good_moves"":1,""num_whilered"":0,""num_whileblue"":0,""num_blue"":2,""num_good_moves"":6}","[296.22232142857143,295.12857142857143,0.3,296.22232142857143,295.12857142857143,104.6,296.22232142857143,295.12857142857143,207.2,296.22232142857143,295.12857142857143,309.1,296.22232142857143,295.12857142857143,414.1,296.22232142857143,295.12857142857143,518,296.22232142857143,295.12857142857143,618.9,352.22232142857143,391.12857142857143,719.5,442.22232142857143,472.12857142857143,819.5,488.22232142857143,504.12857142857143,919.8,530.2223214285714,528.1285714285714,1019.9,542.2223214285714,533.1285714285714,1130.3,543.2223214285714,533.1285714285714,1234.4,543.2223214285714,533.1285714285714,1338,543.2223214285714,533.1285714285714,1440.9,544.2223214285714,533.1285714285714,1546.2,546.2223214285714,532.1285714285714,1649.2,562.2223214285714,608.1285714285714,1752.3,561.2223214285714,609.1285714285714,1864.3,561.2223214285714,609.1285714285714,1968.2,561.2223214285714,609.1285714285714,2075.3,561.2223214285714,609.1285714285714,2176.8,561.2223214285714,609.1285714285714,2278.7,561.2223214285714,609.1285714285714,2385.8,561.2223214285714,609.1285714285714,2496.2,561.2223214285714,609.1285714285714,2597.9,561.2223214285714,609.1285714285714,2699.8,561.2223214285714,609.1285714285714,2809.5,561.2223214285714,609.1285714285714,2914.5,561.2223214285714,609.1285714285714,3015.4,561.2223214285714,609.1285714285714,3125,561.2223214285714,609.1285714285714,3229.9,561.2223214285714,609.1285714285714,3331.2,561.2223214285714,609.1285714285714,3440.4,561.2223214285714,609.1285714285714,3542.1,561.2223214285714,609.1285714285714,3646.4,561.2223214285714,609.1285714285714,3746.5,561.2223214285714,609.1285714285714,3849.4,561.2223214285714,609.1285714285714,3951,561.2223214285714,609.1285714285714,4053.4,561.2223214285714,609.1285714285714,4159.1,561.2223214285714,609.1285714285714,4260.7,561.2223214285714,609.1285714285714,4364.9,561.2223214285714,609.1285714285714,4471.6,561.2223214285714,609.1285714285714,4572.8,561.2223214285714,609.1285714285714,4673.7,561.2223214285714,609.1285714285714,4778.8,561.2223214285714,609.1285714285714,4881.1,561.2223214285714,609.1285714285714,4981.2]","[1538.4,1538.4,1000,0,538.4,""smooth"",""down"",""down"",""good_move"",4485.6,2944.3,2630.8,1541.3,313.5,""smooth"",""right"",""right"",""good_move"",6911.9,2424.8,2092.4,4487.1,332.4,""oops"",""right"",""left"",""bad_move"",9776.4,2863.3,2498,6913.2,365.2,""smooth"",""down"",""down"",""good_move"",12664.1,2887.3,2557.3,9776.8,330,""oops"",""right"",""left"",""bad_move"",22160.7,9493.8,2400.6,19384.1,376,""oops"",""right"",""right"",""good_move"",24963.6,2801,2289.6,22162.7,511.3,""smooth"",""right"",""right"",""good_move"",28299,3335.2,2874,24963.8,461.2,""smooth"",""right"",""right"",""good_move""]","","",""
"1642","","<div style=""width:500px;"">
  <p>What determined the result of this run?</p>
  </div>","27","html-slider-response","66","713509","0.0-10.0-1.5","43","1","2025-07-09 09:07:11","7701e855f2ef39aa3fd6c71abdc6918a","2.97.67.193","Mozilla/5.0 (X11; CrOS x86_64 14541.0.0) AppleWebKit/537.36 (KHTML, like Gecko) Chrome/137.0.0.0 Safari/537.36","WebKit","Chrome","137.0.0.0","ChromeOS","14541.0.0","https://app.prolific.com/","en-GB,en-US;q=0.9,en;q=0.8","65a3f461bfa22dde98c10436","686d226cabeef709c732f8e1","686e3134ce7976f2a8042823","65a3f461bfa22dde98c10436","2025-07-09T09:19:05.244Z","","","","","","AttribQ","","","","","","","","","","","","","","","","","","","","","","","","","","","","","","","","","","","","","","50",""
"2142","","<div style=""width:500px;"">
  <p>How much control did you have over the ball?</p>
  </div>","76","html-slider-response","67","715653","0.0-10.0-2.5","43","1","2025-07-09 09:07:11","7701e855f2ef39aa3fd6c71abdc6918a","2.97.67.193","Mozilla/5.0 (X11; CrOS x86_64 14541.0.0) AppleWebKit/537.36 (KHTML, like Gecko) Chrome/137.0.0.0 Safari/537.36","WebKit","Chrome","137.0.0.0","ChromeOS","14541.0.0","https://app.prolific.com/","en-GB,en-US;q=0.9,en;q=0.8","65a3f461bfa22dde98c10436","686d226cabeef709c732f8e1","686e3134ce7976f2a8042823","65a3f461bfa22dde98c10436","2025-07-09T09:19:07.388Z","","","","","","ControlQ","","","","","","","","","","","","","","","","","","","","","","","","","","","","","","","","","","","","","","50",""
"2581","","<div style=""width:500px;"">
  <p>How would you describe your current emotional state?</p>
  </div>","0","html-slider-response","68","718237","0.0-10.0-3.5","43","1","2025-07-09 09:07:11","7701e855f2ef39aa3fd6c71abdc6918a","2.97.67.193","Mozilla/5.0 (X11; CrOS x86_64 14541.0.0) AppleWebKit/537.36 (KHTML, like Gecko) Chrome/137.0.0.0 Safari/537.36","WebKit","Chrome","137.0.0.0","ChromeOS","14541.0.0","https://app.prolific.com/","en-GB,en-US;q=0.9,en;q=0.8","65a3f461bfa22dde98c10436","686d226cabeef709c732f8e1","686e3134ce7976f2a8042823","65a3f461bfa22dde98c10436","2025-07-09T09:19:09.972Z","","","","","","StressQ","","","","","","","","","","","","","","","","","","","","","","","","","","","","","","","","","","","","","","50",""
"3093","","<div style=""width:500px;"">
  <p>What best describes how you currently feel?</p>
  </div>","98","html-slider-response","69","721332","0.0-10.0-4.5","43","1","2025-07-09 09:07:11","7701e855f2ef39aa3fd6c71abdc6918a","2.97.67.193","Mozilla/5.0 (X11; CrOS x86_64 14541.0.0) AppleWebKit/537.36 (KHTML, like Gecko) Chrome/137.0.0.0 Safari/537.36","WebKit","Chrome","137.0.0.0","ChromeOS","14541.0.0","https://app.prolific.com/","en-GB,en-US;q=0.9,en;q=0.8","65a3f461bfa22dde98c10436","686d226cabeef709c732f8e1","686e3134ce7976f2a8042823","65a3f461bfa22dde98c10436","2025-07-09T09:19:13.067Z","","","","","","MotivationQ","","","","","","","","","","","","","","","","","","","","","","","","","","","","","","","","","","","","","","50",""
"","","","","ctl-task-cpt","70","775301","0.0-10.0-0.6","43","1","2025-07-09 09:07:11","7701e855f2ef39aa3fd6c71abdc6918a","2.97.67.193","Mozilla/5.0 (X11; CrOS x86_64 14541.0.0) AppleWebKit/537.36 (KHTML, like Gecko) Chrome/137.0.0.0 Safari/537.36","WebKit","Chrome","137.0.0.0","ChromeOS","14541.0.0","https://app.prolific.com/","en-GB,en-US;q=0.9,en;q=0.8","65a3f461bfa22dde98c10436","686d226cabeef709c732f8e1","686e3134ce7976f2a8042823","65a3f461bfa22dde98c10436","2025-07-09T09:20:07.036Z","","","","","","","","","","","","","","","","win-only","0","g1:NW,g2:SE","0.4","7","0","722626.4","3053.5","8055.7","50952.2","1","4","8","6","1","-1","-1","4","5","0.030303030303030304","1375.8","3000","-1845","[""left"",""up""]","{""num_key_presses"":11,""num_perfect"":4,""num_errors"":0,""num_randdir"":7,""num_randdir_good_moves"":1,""num_whilered"":0,""num_whileblue"":0,""num_blue"":3,""num_good_moves"":5}","[298.22232142857143,296.12857142857143,0.6,298.22232142857143,296.12857142857143,104.3,298.22232142857143,296.12857142857143,207.1,298.22232142857143,296.12857142857143,312.5,298.22232142857143,296.12857142857143,419.2,298.22232142857143,296.12857142857143,522.5,298.22232142857143,296.12857142857143,630.8,298.22232142857143,296.12857142857143,737,298.22232142857143,296.12857142857143,847,243.22232142857143,214.12857142857143,955.2,126.22232142857143,87.12857142857143,1064.1,106.22232142857143,68.12857142857143,1167.3,54.222321428571426,49.128571428571426,1270.4,51.222321428571426,45.128571428571426,1372.1,51.222321428571426,45.128571428571426,1478.3,51.222321428571426,45.128571428571426,1578.6,51.222321428571426,45.128571428571426,1679,51.222321428571426,45.128571428571426,1780.5,94.22232142857143,57.128571428571426,1897.9,239.22232142857143,92.12857142857143,2001.3,249.22232142857143,95.12857142857143,2102.8,247.22232142857143,101.12857142857143,2209.7,247.22232142857143,101.12857142857143,2311,247.22232142857143,101.12857142857143,2412.8,247.22232142857143,101.12857142857143,2517.8,247.22232142857143,101.12857142857143,2618.1,247.22232142857143,101.12857142857143,2723.7,247.22232142857143,101.12857142857143,2827.9,247.22232142857143,101.12857142857143,2931,247.22232142857143,101.12857142857143,3037.9,247.22232142857143,101.12857142857143,3143.3,247.22232142857143,101.12857142857143,3246.2,247.22232142857143,101.12857142857143,3350.2,247.22232142857143,101.12857142857143,3450.4,247.22232142857143,101.12857142857143,3557.4,247.22232142857143,101.12857142857143,3661.5,247.22232142857143,101.12857142857143,3764.7,247.22232142857143,101.12857142857143,3869.9,247.22232142857143,101.12857142857143,3973.8,247.22232142857143,101.12857142857143,4076.2,247.22232142857143,101.12857142857143,4181.6,247.22232142857143,101.12857142857143,4289.2,247.22232142857143,101.12857142857143,4395.2,247.22232142857143,101.12857142857143,4497.1,247.22232142857143,101.12857142857143,4601.6,247.22232142857143,101.12857142857143,4707.7,247.22232142857143,101.12857142857143,4816.6,247.22232142857143,101.12857142857143,4920.7]","[1608,1608,1000,0,608,""smooth"",""up"",""up"",""good_move"",3964.7,2356,1945.3,1608.8,410.6,""oops"",""up"",""down"",""bad_move"",7072.3,3105,2784.2,3967.3,320.9,""oops"",""left"",""right"",""bad_move"",10136.4,3063.1,2770.8,7073.3,292.3,""oops"",""up"",""down"",""bad_move"",16039.5,5902.2,2040.3,13646,353.2,""oops"",""up"",""right"",""bad_move"",23105.4,7065.2,2756.8,19992.1,356.6,""smooth"",""up"",""up"",""good_move"",25928.4,2820.2,2210.2,23108.2,610,""smooth"",""up"",""up"",""good_move"",28419.3,2489.6,2115.4,25929.7,374.3,""smooth"",""up"",""up"",""good_move"",31255.2,2834.6,2446.8,28420.6,387.8,""oops"",""left"",""right"",""bad_move"",38263.7,7007.5,2892.2,34747.9,623.6,""oops"",""left"",""left"",""good_move"",41045,2780.5,2394.5,38264.6,385.9,""oops"",""left"",""down"",""bad_move""]","","",""
"1566","","<div style=""width:500px;"">
  <p>What determined the result of this run?</p>
  </div>","3","html-slider-response","71","776870","0.0-10.0-1.6","43","1","2025-07-09 09:07:11","7701e855f2ef39aa3fd6c71abdc6918a","2.97.67.193","Mozilla/5.0 (X11; CrOS x86_64 14541.0.0) AppleWebKit/537.36 (KHTML, like Gecko) Chrome/137.0.0.0 Safari/537.36","WebKit","Chrome","137.0.0.0","ChromeOS","14541.0.0","https://app.prolific.com/","en-GB,en-US;q=0.9,en;q=0.8","65a3f461bfa22dde98c10436","686d226cabeef709c732f8e1","686e3134ce7976f2a8042823","65a3f461bfa22dde98c10436","2025-07-09T09:20:08.605Z","","","","","","AttribQ","","","","","","","","","","","","","","","","","","","","","","","","","","","","","","","","","","","","","","50",""
"2669","","<div style=""width:500px;"">
  <p>How much control did you have over the ball?</p>
  </div>","8","html-slider-response","72","779542","0.0-10.0-2.6","43","1","2025-07-09 09:07:11","7701e855f2ef39aa3fd6c71abdc6918a","2.97.67.193","Mozilla/5.0 (X11; CrOS x86_64 14541.0.0) AppleWebKit/537.36 (KHTML, like Gecko) Chrome/137.0.0.0 Safari/537.36","WebKit","Chrome","137.0.0.0","ChromeOS","14541.0.0","https://app.prolific.com/","en-GB,en-US;q=0.9,en;q=0.8","65a3f461bfa22dde98c10436","686d226cabeef709c732f8e1","686e3134ce7976f2a8042823","65a3f461bfa22dde98c10436","2025-07-09T09:20:11.278Z","","","","","","ControlQ","","","","","","","","","","","","","","","","","","","","","","","","","","","","","","","","","","","","","","50",""
"2667","","<div style=""width:500px;"">
  <p>How would you describe your current emotional state?</p>
  </div>","2","html-slider-response","73","782213","0.0-10.0-3.6","43","1","2025-07-09 09:07:11","7701e855f2ef39aa3fd6c71abdc6918a","2.97.67.193","Mozilla/5.0 (X11; CrOS x86_64 14541.0.0) AppleWebKit/537.36 (KHTML, like Gecko) Chrome/137.0.0.0 Safari/537.36","WebKit","Chrome","137.0.0.0","ChromeOS","14541.0.0","https://app.prolific.com/","en-GB,en-US;q=0.9,en;q=0.8","65a3f461bfa22dde98c10436","686d226cabeef709c732f8e1","686e3134ce7976f2a8042823","65a3f461bfa22dde98c10436","2025-07-09T09:20:13.948Z","","","","","","StressQ","","","","","","","","","","","","","","","","","","","","","","","","","","","","","","","","","","","","","","50",""
"2838","","<div style=""width:500px;"">
  <p>What best describes how you currently feel?</p>
  </div>","97","html-slider-response","74","785054","0.0-10.0-4.6","43","1","2025-07-09 09:07:11","7701e855f2ef39aa3fd6c71abdc6918a","2.97.67.193","Mozilla/5.0 (X11; CrOS x86_64 14541.0.0) AppleWebKit/537.36 (KHTML, like Gecko) Chrome/137.0.0.0 Safari/537.36","WebKit","Chrome","137.0.0.0","ChromeOS","14541.0.0","https://app.prolific.com/","en-GB,en-US;q=0.9,en;q=0.8","65a3f461bfa22dde98c10436","686d226cabeef709c732f8e1","686e3134ce7976f2a8042823","65a3f461bfa22dde98c10436","2025-07-09T09:20:16.789Z","","","","","","MotivationQ","","","","","","","","","","","","","","","","","","","","","","","","","","","","","","","","","","","","","","50",""
"","","","","ctl-task-cpt","75","826725","0.0-10.0-0.7","43","1","2025-07-09 09:07:11","7701e855f2ef39aa3fd6c71abdc6918a","2.97.67.193","Mozilla/5.0 (X11; CrOS x86_64 14541.0.0) AppleWebKit/537.36 (KHTML, like Gecko) Chrome/137.0.0.0 Safari/537.36","WebKit","Chrome","137.0.0.0","ChromeOS","14541.0.0","https://app.prolific.com/","en-GB,en-US;q=0.9,en;q=0.8","65a3f461bfa22dde98c10436","686d226cabeef709c732f8e1","686e3134ce7976f2a8042823","65a3f461bfa22dde98c10436","2025-07-09T09:20:58.460Z","","","","","","","","","","","","","","","","win-only","1","g1:NE,g2:SW","0.3","8","0","786349.1","11475.3","16475.8","38650.7","1","4","4","6","2","4","4","8","4","0.06060606060606061","1047.6","3000","900","[""down"",""left""]","{""num_key_presses"":6,""num_perfect"":2,""num_errors"":0,""num_randdir"":4,""num_randdir_good_moves"":4,""num_whilered"":0,""num_whileblue"":0,""num_blue"":1,""num_good_moves"":6}","[301.22232142857143,303.12857142857143,1.9,301.22232142857143,303.12857142857143,103.9,301.22232142857143,303.12857142857143,208.3,301.22232142857143,303.12857142857143,312.3,300.22232142857143,302.12857142857143,414.5,300.22232142857143,302.12857142857143,520.9,162.22232142857143,413.12857142857143,632.7,135.22232142857143,479.12857142857143,733.1,88.22232142857143,533.1285714285714,840.2,55.222321428571426,563.1285714285714,946.7,53.222321428571426,563.1285714285714,1051.1,53.222321428571426,563.1285714285714,1156.9,53.222321428571426,563.1285714285714,1261,54.222321428571426,558.1285714285714,1362,56.222321428571426,562.1285714285714,1465.2,56.222321428571426,562.1285714285714,1572.7,56.222321428571426,562.1285714285714,1674.3,56.222321428571426,562.1285714285714,1780.7,56.222321428571426,562.1285714285714,1887.3,56.222321428571426,562.1285714285714,1989.7,56.222321428571426,562.1285714285714,2095.8,56.222321428571426,562.1285714285714,2200.6,56.222321428571426,562.1285714285714,2305.4,56.222321428571426,562.1285714285714,2411.1,56.222321428571426,562.1285714285714,2515.2,56.222321428571426,562.1285714285714,2618,56.222321428571426,562.1285714285714,2725.1,56.222321428571426,562.1285714285714,2834,56.222321428571426,562.1285714285714,2949,56.222321428571426,562.1285714285714,3052.4,56.222321428571426,562.1285714285714,3164.9,55.222321428571426,564.1285714285714,3265.6,55.222321428571426,564.1285714285714,3367.6,55.222321428571426,564.1285714285714,3479.8,55.222321428571426,564.1285714285714,3581.5,55.222321428571426,564.1285714285714,3688.5,55.222321428571426,564.1285714285714,3796.7,55.222321428571426,564.1285714285714,3900.6,55.222321428571426,564.1285714285714,4011.8,55.222321428571426,564.1285714285714,4115.7,55.222321428571426,564.1285714285714,4226,55.222321428571426,564.1285714285714,4331.9,55.222321428571426,564.1285714285714,4435.4,55.222321428571426,564.1285714285714,4538.7,55.222321428571426,564.1285714285714,4643.4,55.222321428571426,564.1285714285714,4746.6,55.222321428571426,564.1285714285714,4852.3,55.222321428571426,564.1285714285714,4957.8]","[1377.6,1377.7,1000,0,377.7,""smooth"",""down"",""down"",""good_move"",4506.9,3128.2,2205.6,1378.7,922.6,""smooth"",""left"",""left"",""good_move"",7121.1,2610.1,2196.6,4511,413.5,""oops"",""down"",""left"",""good_move"",14285,7163.5,2773,11148.9,363.1,""oops"",""down"",""down"",""good_move"",18224.2,3933.6,3392.8,14290.6,540.8,""oops"",""down"",""down"",""good_move"",22048.1,3823.1,3060.2,18225,762.9,""oops"",""left"",""left"",""good_move""]","","",""
"2478","","<div style=""width:500px;"">
  <p>What determined the result of this run?</p>
  </div>","42","html-slider-response","76","829206","0.0-10.0-1.7","43","1","2025-07-09 09:07:11","7701e855f2ef39aa3fd6c71abdc6918a","2.97.67.193","Mozilla/5.0 (X11; CrOS x86_64 14541.0.0) AppleWebKit/537.36 (KHTML, like Gecko) Chrome/137.0.0.0 Safari/537.36","WebKit","Chrome","137.0.0.0","ChromeOS","14541.0.0","https://app.prolific.com/","en-GB,en-US;q=0.9,en;q=0.8","65a3f461bfa22dde98c10436","686d226cabeef709c732f8e1","686e3134ce7976f2a8042823","65a3f461bfa22dde98c10436","2025-07-09T09:21:00.941Z","","","","","","AttribQ","","","","","","","","","","","","","","","","","","","","","","","","","","","","","","","","","","","","","","50",""
"2955","","<div style=""width:500px;"">
  <p>How much control did you have over the ball?</p>
  </div>","54","html-slider-response","77","832165","0.0-10.0-2.7","43","1","2025-07-09 09:07:11","7701e855f2ef39aa3fd6c71abdc6918a","2.97.67.193","Mozilla/5.0 (X11; CrOS x86_64 14541.0.0) AppleWebKit/537.36 (KHTML, like Gecko) Chrome/137.0.0.0 Safari/537.36","WebKit","Chrome","137.0.0.0","ChromeOS","14541.0.0","https://app.prolific.com/","en-GB,en-US;q=0.9,en;q=0.8","65a3f461bfa22dde98c10436","686d226cabeef709c732f8e1","686e3134ce7976f2a8042823","65a3f461bfa22dde98c10436","2025-07-09T09:21:03.900Z","","","","","","ControlQ","","","","","","","","","","","","","","","","","","","","","","","","","","","","","","","","","","","","","","50",""
"2709","","<div style=""width:500px;"">
  <p>How would you describe your current emotional state?</p>
  </div>","1","html-slider-response","78","834876","0.0-10.0-3.7","43","1","2025-07-09 09:07:11","7701e855f2ef39aa3fd6c71abdc6918a","2.97.67.193","Mozilla/5.0 (X11; CrOS x86_64 14541.0.0) AppleWebKit/537.36 (KHTML, like Gecko) Chrome/137.0.0.0 Safari/537.36","WebKit","Chrome","137.0.0.0","ChromeOS","14541.0.0","https://app.prolific.com/","en-GB,en-US;q=0.9,en;q=0.8","65a3f461bfa22dde98c10436","686d226cabeef709c732f8e1","686e3134ce7976f2a8042823","65a3f461bfa22dde98c10436","2025-07-09T09:21:06.611Z","","","","","","StressQ","","","","","","","","","","","","","","","","","","","","","","","","","","","","","","","","","","","","","","50",""
"2924","","<div style=""width:500px;"">
  <p>What best describes how you currently feel?</p>
  </div>","99","html-slider-response","79","837805","0.0-10.0-4.7","43","1","2025-07-09 09:07:11","7701e855f2ef39aa3fd6c71abdc6918a","2.97.67.193","Mozilla/5.0 (X11; CrOS x86_64 14541.0.0) AppleWebKit/537.36 (KHTML, like Gecko) Chrome/137.0.0.0 Safari/537.36","WebKit","Chrome","137.0.0.0","ChromeOS","14541.0.0","https://app.prolific.com/","en-GB,en-US;q=0.9,en;q=0.8","65a3f461bfa22dde98c10436","686d226cabeef709c732f8e1","686e3134ce7976f2a8042823","65a3f461bfa22dde98c10436","2025-07-09T09:21:09.540Z","","","","","","MotivationQ","","","","","","","","","","","","","","","","","","","","","","","","","","","","","","","","","","","","","","50",""
"","","","","ctl-task-cpt","80","877026","0.0-10.0-0.8","43","1","2025-07-09 09:07:11","7701e855f2ef39aa3fd6c71abdc6918a","2.97.67.193","Mozilla/5.0 (X11; CrOS x86_64 14541.0.0) AppleWebKit/537.36 (KHTML, like Gecko) Chrome/137.0.0.0 Safari/537.36","WebKit","Chrome","137.0.0.0","ChromeOS","14541.0.0","https://app.prolific.com/","en-GB,en-US;q=0.9,en;q=0.8","65a3f461bfa22dde98c10436","686d226cabeef709c732f8e1","686e3134ce7976f2a8042823","65a3f461bfa22dde98c10436","2025-07-09T09:21:48.761Z","","","","","","","","","","","","","","","","win-only","2","g1:SE,g2:NW","0.2","9","0","839103.2","8344.7","13348.7","36199.7","1","4","8","6","1","1","1","9","8","0.06818181818181818","1063.4","3000","1835","[""down"",""right""]","{""num_key_presses"":6,""num_perfect"":2,""num_errors"":0,""num_randdir"":4,""num_randdir_good_moves"":3,""num_whilered"":0,""num_whileblue"":0,""num_blue"":2,""num_good_moves"":5}","[296.22232142857143,300.12857142857143,0.5,296.22232142857143,300.12857142857143,108.4,296.22232142857143,300.12857142857143,211,297.22232142857143,300.12857142857143,320.7,297.22232142857143,300.12857142857143,426.9,297.22232142857143,300.12857142857143,537.1,337.22232142857143,344.12857142857143,641.7,520.2223214285714,495.12857142857143,749.5,553.2223214285714,541.1285714285714,859.8,556.2223214285714,556.1285714285714,965.8,556.2223214285714,556.1285714285714,1079.4,556.2223214285714,556.1285714285714,1193.7,556.2223214285714,556.1285714285714,1295.1,556.2223214285714,556.1285714285714,1407.8,556.2223214285714,556.1285714285714,1516.1,541.2223214285714,547.1285714285714,1623.5,538.2223214285714,550.1285714285714,1726.5,538.2223214285714,550.1285714285714,1833,538.2223214285714,550.1285714285714,1933.4,538.2223214285714,550.1285714285714,2034.5,538.2223214285714,550.1285714285714,2150.3,538.2223214285714,550.1285714285714,2252.2,538.2223214285714,550.1285714285714,2362.9,538.2223214285714,550.1285714285714,2464.3,538.2223214285714,550.1285714285714,2567.1,538.2223214285714,550.1285714285714,2678.2,538.2223214285714,550.1285714285714,2786.3,538.2223214285714,550.1285714285714,2890.8,538.2223214285714,550.1285714285714,3009.8,538.2223214285714,550.1285714285714,3120.1,538.2223214285714,550.1285714285714,3228.1,538.2223214285714,550.1285714285714,3331.7,538.2223214285714,550.1285714285714,3437.7,538.2223214285714,550.1285714285714,3537.9,538.2223214285714,550.1285714285714,3649.2,538.2223214285714,550.1285714285714,3756.3,538.2223214285714,550.1285714285714,3860.1,538.2223214285714,550.1285714285714,3962.9,538.2223214285714,550.1285714285714,4063,538.2223214285714,550.1285714285714,4170.1,538.2223214285714,550.1285714285714,4281.8,538.2223214285714,550.1285714285714,4389.1,538.2223214285714,550.1285714285714,4489.8,538.2223214285714,550.1285714285714,4591,538.2223214285714,550.1285714285714,4693.9,538.2223214285714,550.1285714285714,4796.2,538.2223214285714,550.1285714285714,4901.7]","[1453.8,1453.8,1000,0,453.8,""smooth"",""down"",""down"",""good_move"",7372,5916.4,2371.2,4551.5,449.3,""oops"",""right"",""up"",""bad_move"",10340.3,2967.5,2355.3,7372.8,612.2,""smooth"",""down"",""down"",""good_move"",13037.7,2697.1,2311,10340.6,386.1,""oops"",""down"",""right"",""good_move"",16941,3902.8,3479.7,13038.3,423.1,""oops"",""down"",""right"",""good_move"",22715.1,5773.2,2146,20216,353.1,""oops"",""down"",""down"",""good_move""]","","",""
"2712","","<div style=""width:500px;"">
  <p>What determined the result of this run?</p>
  </div>","18","html-slider-response","81","879740","0.0-10.0-1.8","43","1","2025-07-09 09:07:11","7701e855f2ef39aa3fd6c71abdc6918a","2.97.67.193","Mozilla/5.0 (X11; CrOS x86_64 14541.0.0) AppleWebKit/537.36 (KHTML, like Gecko) Chrome/137.0.0.0 Safari/537.36","WebKit","Chrome","137.0.0.0","ChromeOS","14541.0.0","https://app.prolific.com/","en-GB,en-US;q=0.9,en;q=0.8","65a3f461bfa22dde98c10436","686d226cabeef709c732f8e1","686e3134ce7976f2a8042823","65a3f461bfa22dde98c10436","2025-07-09T09:21:51.476Z","","","","","","AttribQ","","","","","","","","","","","","","","","","","","","","","","","","","","","","","","","","","","","","","","50",""
"2723","","<div style=""width:500px;"">
  <p>How much control did you have over the ball?</p>
  </div>","44","html-slider-response","82","882466","0.0-10.0-2.8","43","1","2025-07-09 09:07:11","7701e855f2ef39aa3fd6c71abdc6918a","2.97.67.193","Mozilla/5.0 (X11; CrOS x86_64 14541.0.0) AppleWebKit/537.36 (KHTML, like Gecko) Chrome/137.0.0.0 Safari/537.36","WebKit","Chrome","137.0.0.0","ChromeOS","14541.0.0","https://app.prolific.com/","en-GB,en-US;q=0.9,en;q=0.8","65a3f461bfa22dde98c10436","686d226cabeef709c732f8e1","686e3134ce7976f2a8042823","65a3f461bfa22dde98c10436","2025-07-09T09:21:54.201Z","","","","","","ControlQ","","","","","","","","","","","","","","","","","","","","","","","","","","","","","","","","","","","","","","50",""
"2184","","<div style=""width:500px;"">
  <p>How would you describe your current emotional state?</p>
  </div>","2","html-slider-response","83","884654","0.0-10.0-3.8","43","1","2025-07-09 09:07:11","7701e855f2ef39aa3fd6c71abdc6918a","2.97.67.193","Mozilla/5.0 (X11; CrOS x86_64 14541.0.0) AppleWebKit/537.36 (KHTML, like Gecko) Chrome/137.0.0.0 Safari/537.36","WebKit","Chrome","137.0.0.0","ChromeOS","14541.0.0","https://app.prolific.com/","en-GB,en-US;q=0.9,en;q=0.8","65a3f461bfa22dde98c10436","686d226cabeef709c732f8e1","686e3134ce7976f2a8042823","65a3f461bfa22dde98c10436","2025-07-09T09:21:56.389Z","","","","","","StressQ","","","","","","","","","","","","","","","","","","","","","","","","","","","","","","","","","","","","","","50",""
"2236","","<div style=""width:500px;"">
  <p>What best describes how you currently feel?</p>
  </div>","98","html-slider-response","84","886893","0.0-10.0-4.8","43","1","2025-07-09 09:07:11","7701e855f2ef39aa3fd6c71abdc6918a","2.97.67.193","Mozilla/5.0 (X11; CrOS x86_64 14541.0.0) AppleWebKit/537.36 (KHTML, like Gecko) Chrome/137.0.0.0 Safari/537.36","WebKit","Chrome","137.0.0.0","ChromeOS","14541.0.0","https://app.prolific.com/","en-GB,en-US;q=0.9,en;q=0.8","65a3f461bfa22dde98c10436","686d226cabeef709c732f8e1","686e3134ce7976f2a8042823","65a3f461bfa22dde98c10436","2025-07-09T09:21:58.628Z","","","","","","MotivationQ","","","","","","","","","","","","","","","","","","","","","","","","","","","","","","","","","","","","","","50",""
