"rt","response_timestamp","stimulus","response","trial_type","trial_index","time_elapsed","internal_node_id","run_id","condition","recorded_at","source_code_version","ip","user_agent","device","browser","browser_version","platform","platform_version","referer","accept_language","PROLIFIC_PID","STUDY_ID","SESSION_ID","prolific_id","realtime","view_history","question_order","consent","success","question_id","eventType","responses","item_order","radio_event_ids","radio_event_times","key_event_times","mouse_event_times","straightlining","zigzagging","honeypot","which_type","canvas_config","goals_layout","control_level","trial_number","tutorial_trial_number","trial_start_time","phase1_start_time","phase2_start_time","phase3_start_time","goal_1_value","goal_1_distance","goal_2_value","goal_2_distance","goal_selected","outcome","outcome_total","participant_final_score","participant_initial_score","participant_final_score_prop","goal_choice_rt","allocated_time","allocated_time_remaining","goal_direction","counts","mouse_movements","key_presses","correct","slider_start"
"2197","1752052711153","<p style='font-size:40px;line-height:1.25'><strong>Welcome to the experiment!</strong></p><p style='font-size:1.1em;line-height:1.25'>Thank you for your interest in our experiment! Before you begin, it is important that we obtain your informed consent to participate in the study.</p><p style='font-size:1.1em;line-height:1.25'>On the next screen will be an <strong>information sheet</strong> for you to read. To participate in the study we need you to read this information sheet and the following consent form carefully. If you agree with all the statements, please click the <strong>I agree</strong> button.</p><p style='font-size:1.1em;line-height:1.25'>Press <strong>Next</strong> to read the information sheet.</p>","0","custom-html-button-response","0","2201","0.0-0.0","203","1","2025-07-09 09:18:24","7701e855f2ef39aa3fd6c71abdc6918a","175.176.13.53","Mozilla/5.0 (Windows NT 10.0; Win64; x64) AppleWebKit/537.36 (KHTML, like Gecko) Chrome/138.0.0.0 Safari/537.36","WebKit","Chrome","138.0.0.0","Windows","10.0","https://app.prolific.com/","en-US,en;q=0.9","65f0831414fd6e9e51e08708","686d226cabeef709c732f8e1","686e31202692ec583bad8944","65f0831414fd6e9e51e08708","2025-07-09T09:18:31.155Z","","","","","","","","","","","","","","","","","","","","","","","","","","","","","","","","","","","","","","","","","","","",""
"13375","","","","instructions","1","15578","0.0-1.0","203","1","2025-07-09 09:18:24","7701e855f2ef39aa3fd6c71abdc6918a","175.176.13.53","Mozilla/5.0 (Windows NT 10.0; Win64; x64) AppleWebKit/537.36 (KHTML, like Gecko) Chrome/138.0.0.0 Safari/537.36","WebKit","Chrome","138.0.0.0","Windows","10.0","https://app.prolific.com/","en-US,en;q=0.9","65f0831414fd6e9e51e08708","686d226cabeef709c732f8e1","686e31202692ec583bad8944","65f0831414fd6e9e51e08708","","[{""page_index"":0,""viewing_time"":9366},{""page_index"":1,""viewing_time"":4008}]","","","","","","","","","","","","","","","","","","","","","","","","","","","","","","","","","","","","","","","","","","",""
"15227","","","{""Q0"":"""",""Q1"":"""",""Q2"":"""",""Q3"":"""",""Q4"":"""",""Q5"":"""",""Q6"":""I agree""}","survey-multi-choice","2","30810","0.0-2.0","203","1","2025-07-09 09:18:24","7701e855f2ef39aa3fd6c71abdc6918a","175.176.13.53","Mozilla/5.0 (Windows NT 10.0; Win64; x64) AppleWebKit/537.36 (KHTML, like Gecko) Chrome/138.0.0.0 Safari/537.36","WebKit","Chrome","138.0.0.0","Windows","10.0","https://app.prolific.com/","en-US,en;q=0.9","65f0831414fd6e9e51e08708","686d226cabeef709c732f8e1","686e31202692ec583bad8944","65f0831414fd6e9e51e08708","","","[0,1,2,3,4,5,6]","true","","","","","","","","","","","","","","","","","","","","","","","","","","","","","","","","","","","","","","","","",""
"11565","","","","fullscreen","3","43379","0.0-4.0","203","1","2025-07-09 09:18:24","7701e855f2ef39aa3fd6c71abdc6918a","175.176.13.53","Mozilla/5.0 (Windows NT 10.0; Win64; x64) AppleWebKit/537.36 (KHTML, like Gecko) Chrome/138.0.0.0 Safari/537.36","WebKit","Chrome","138.0.0.0","Windows","10.0","https://app.prolific.com/","en-US,en;q=0.9","65f0831414fd6e9e51e08708","686d226cabeef709c732f8e1","686e31202692ec583bad8944","65f0831414fd6e9e51e08708","","","","","true","","","","","","","","","","","","","","","","","","","","","","","","","","","","","","","","","","","","","","","",""
"3253","1752052755587"," <p style='font-size:1.1em;line-height:1.25'>Thank you for completing the consent form and closing all other tabs.</p><p style='font-size:1.1em;line-height:1.25'>We will now invite you to fill in some demographic information and questionnaires, before starting the game.<br>This will take about 5 minutes.<br></p><p style='font-size:1.1em;line-height:1.25'>Press the <strong>Next</strong> button to continue.</p>","0","custom-html-button-response","4","46634","0.0-5.0","203","1","2025-07-09 09:18:24","7701e855f2ef39aa3fd6c71abdc6918a","175.176.13.53","Mozilla/5.0 (Windows NT 10.0; Win64; x64) AppleWebKit/537.36 (KHTML, like Gecko) Chrome/138.0.0.0 Safari/537.36","WebKit","Chrome","138.0.0.0","Windows","10.0","https://app.prolific.com/","en-US,en;q=0.9","65f0831414fd6e9e51e08708","686d226cabeef709c732f8e1","686e31202692ec583bad8944","65f0831414fd6e9e51e08708","2025-07-09T09:19:15.588Z","","","","","","","","","","","","","","","","","","","","","","","","","","","","","","","","","","","","","","","","","","","",""
"5283","","","{""age"":""32""}","survey-text","5","51922","0.0-6.0-0.0","203","1","2025-07-09 09:18:24","7701e855f2ef39aa3fd6c71abdc6918a","175.176.13.53","Mozilla/5.0 (Windows NT 10.0; Win64; x64) AppleWebKit/537.36 (KHTML, like Gecko) Chrome/138.0.0.0 Safari/537.36","WebKit","Chrome","138.0.0.0","Windows","10.0","https://app.prolific.com/","en-US,en;q=0.9","65f0831414fd6e9e51e08708","686d226cabeef709c732f8e1","686e31202692ec583bad8944","65f0831414fd6e9e51e08708","","","","","","0","demographics","","","","","","","","","","","","","","","","","","","","","","","","","","","","","","","","","","","","","",""
"2790","","","{""gender_identity"":""female/woman""}","survey-multi-choice","6","54715","0.0-6.0-1.0","203","1","2025-07-09 09:18:24","7701e855f2ef39aa3fd6c71abdc6918a","175.176.13.53","Mozilla/5.0 (Windows NT 10.0; Win64; x64) AppleWebKit/537.36 (KHTML, like Gecko) Chrome/138.0.0.0 Safari/537.36","WebKit","Chrome","138.0.0.0","Windows","10.0","https://app.prolific.com/","en-US,en;q=0.9","65f0831414fd6e9e51e08708","686d226cabeef709c732f8e1","686e31202692ec583bad8944","65f0831414fd6e9e51e08708","","","[0]","","","1","demographics","","","","","","","","","","","","","","","","","","","","","","","","","","","","","","","","","","","","","",""
"2542","","","{""assigned_sex"":""female""}","survey-multi-choice","7","57258","0.0-6.0-2.0","203","1","2025-07-09 09:18:24","7701e855f2ef39aa3fd6c71abdc6918a","175.176.13.53","Mozilla/5.0 (Windows NT 10.0; Win64; x64) AppleWebKit/537.36 (KHTML, like Gecko) Chrome/138.0.0.0 Safari/537.36","WebKit","Chrome","138.0.0.0","Windows","10.0","https://app.prolific.com/","en-US,en;q=0.9","65f0831414fd6e9e51e08708","686d226cabeef709c732f8e1","686e31202692ec583bad8944","65f0831414fd6e9e51e08708","","","[0]","","","2","demographics","","","","","","","","","","","","","","","","","","","","","","","","","","","","","","","","","","","","","",""
"3230","","","{""menstrual_cycle"":""Yes""}","survey-multi-choice","8","60490","0.0-6.0-3.0","203","1","2025-07-09 09:18:24","7701e855f2ef39aa3fd6c71abdc6918a","175.176.13.53","Mozilla/5.0 (Windows NT 10.0; Win64; x64) AppleWebKit/537.36 (KHTML, like Gecko) Chrome/138.0.0.0 Safari/537.36","WebKit","Chrome","138.0.0.0","Windows","10.0","https://app.prolific.com/","en-US,en;q=0.9","65f0831414fd6e9e51e08708","686d226cabeef709c732f8e1","686e31202692ec583bad8944","65f0831414fd6e9e51e08708","","","[0]","","","4","demographics","","","","","","","","","","","","","","","","","","","","","","","","","","","","","","","","","","","","","",""
"5536","","","{""education"":""Bachelor's Degree (e.g., BA)""}","survey-multi-choice","9","66028","0.0-6.0-4.0","203","1","2025-07-09 09:18:24","7701e855f2ef39aa3fd6c71abdc6918a","175.176.13.53","Mozilla/5.0 (Windows NT 10.0; Win64; x64) AppleWebKit/537.36 (KHTML, like Gecko) Chrome/138.0.0.0 Safari/537.36","WebKit","Chrome","138.0.0.0","Windows","10.0","https://app.prolific.com/","en-US,en;q=0.9","65f0831414fd6e9e51e08708","686d226cabeef709c732f8e1","686e31202692ec583bad8944","65f0831414fd6e9e51e08708","","","[0]","","","5","demographics","","","","","","","","","","","","","","","","","","","","","","","","","","","","","","","","","","","","","",""
"9139","","","{""education"":""A-level/National Diploma/Highers""}","survey-multi-choice","10","75168","0.0-6.0-5.0","203","1","2025-07-09 09:18:24","7701e855f2ef39aa3fd6c71abdc6918a","175.176.13.53","Mozilla/5.0 (Windows NT 10.0; Win64; x64) AppleWebKit/537.36 (KHTML, like Gecko) Chrome/138.0.0.0 Safari/537.36","WebKit","Chrome","138.0.0.0","Windows","10.0","https://app.prolific.com/","en-US,en;q=0.9","65f0831414fd6e9e51e08708","686d226cabeef709c732f8e1","686e31202692ec583bad8944","65f0831414fd6e9e51e08708","2025-07-09T09:19:44.122Z","","[0]","","","6","demographics","","","","","","","","","","","","","","","","","","","","","","","","","","","","","","","","","","","","","",""
"21557","","","{""mental_health_condition"":""no"",""mental_health_treatment"":""n/a"",""psychiatric_medication"":""n/a""}","survey-text","11","96730","0.0-7.0-0.0","203","1","2025-07-09 09:18:24","7701e855f2ef39aa3fd6c71abdc6918a","175.176.13.53","Mozilla/5.0 (Windows NT 10.0; Win64; x64) AppleWebKit/537.36 (KHTML, like Gecko) Chrome/138.0.0.0 Safari/537.36","WebKit","Chrome","138.0.0.0","Windows","10.0","https://app.prolific.com/","en-US,en;q=0.9","65f0831414fd6e9e51e08708","686d226cabeef709c732f8e1","686e31202692ec583bad8944","65f0831414fd6e9e51e08708","2025-07-09T09:20:05.683Z","","","","","1","mental_health","","","","","","","","","","","","","","","","","","","","","","","","","","","","","","","","","","","","","",""
"7796","","","{""depression_history"":[""Yes""]}","survey-multi-select","12","104530","0.0-7.0-1.0","203","1","2025-07-09 09:18:24","7701e855f2ef39aa3fd6c71abdc6918a","175.176.13.53","Mozilla/5.0 (Windows NT 10.0; Win64; x64) AppleWebKit/537.36 (KHTML, like Gecko) Chrome/138.0.0.0 Safari/537.36","WebKit","Chrome","138.0.0.0","Windows","10.0","https://app.prolific.com/","en-US,en;q=0.9","65f0831414fd6e9e51e08708","686d226cabeef709c732f8e1","686e31202692ec583bad8944","65f0831414fd6e9e51e08708","","","[0]","","","","mental_health","","","","","","","","","","","","","","","","","","","","","","","","","","","","","","","","","","","","","",""
"6413","","","{""depression_episodes"":""1-2"",""depression_recent"":""More than 1 year ago""}","survey-multi-choice","13","110945","0.0-7.0-2.0-0.0","203","1","2025-07-09 09:18:24","7701e855f2ef39aa3fd6c71abdc6918a","175.176.13.53","Mozilla/5.0 (Windows NT 10.0; Win64; x64) AppleWebKit/537.36 (KHTML, like Gecko) Chrome/138.0.0.0 Safari/537.36","WebKit","Chrome","138.0.0.0","Windows","10.0","https://app.prolific.com/","en-US,en;q=0.9","65f0831414fd6e9e51e08708","686d226cabeef709c732f8e1","686e31202692ec583bad8944","65f0831414fd6e9e51e08708","2025-07-09T09:20:19.898Z","","[0,1]","","","3","mental_health","","","","","","","","","","","","","","","","","","","","","","","","","","","","","","","","","","","","","",""
"84627","","","","survey-template","14","195579","0.0-7.0-3.0","203","1","2025-07-09 09:18:24","7701e855f2ef39aa3fd6c71abdc6918a","175.176.13.53","Mozilla/5.0 (Windows NT 10.0; Win64; x64) AppleWebKit/537.36 (KHTML, like Gecko) Chrome/138.0.0.0 Safari/537.36","WebKit","Chrome","138.0.0.0","Windows","10.0","https://app.prolific.com/","en-US,en;q=0.9","65f0831414fd6e9e51e08708","686d226cabeef709c732f8e1","686e31202692ec583bad8944","65f0831414fd6e9e51e08708","2025-07-09T09:21:44.532Z","","","","","","ius","{""Q01"":""1"",""Q02"":""0"",""Q03"":""0"",""Q04"":""0"",""Q05"":""0"",""Q06"":""0"",""Q07"":""1"",""Q08"":""0"",""Q09"":""2"",""Q10"":""0"",""Q11"":""0"",""Q12"":""1"",""Q13"":""0""}","[0,1,2,3,4,5,6,7,8,9,10,11,12]","[""Q01"",""Q02"",""Q03"",""Q04"",""Q08"",""Q07"",""Q09"",""Q09"",""Q10"",""Q11"",""Q12"",""Q12"",""Q13"",""Q06"",""Q05"",""Q05"",""Q05"",""Q05"",""Q05"",""Q05"",""Q05"",""Q05"",""Q05"",""Q05""]","[4891.699999809265,8126.899999856949,10200.099999904633,11252.899999856949,15460.099999904633,17171.39999985695,18463.299999952316,21211.599999904633,24338.799999952316,26903.5,28909.39999985695,31045.199999809265,31992.5,39701.09999990463,59263.299999952316,59926.89999985695,60127.09999990463,60508.59999990463,60749,60956,63454.89999985695,63787.799999952316,63988,64219.39999985695]","[59263.299999952316,59926.89999985695,60127.09999990463,60508.59999990463,60749,60956,63454.89999985695,63787.799999952316,63988,64219.39999985695]","[4891.699999809265,5827.599999904633,7451.5,8126.899999856949,9251.699999809265,10200.099999904633,11252.899999856949,15460.099999904633,17171.39999985695,18463.299999952316,21211.599999904633,24338.799999952316,26903.5,28035.699999809265,28909.39999985695,31045.199999809265,31992.5,33226.299999952316,36451.39999985695,39701.09999990463,41499.09999990463,50779.799999952316,66411.19999980927,84624.29999995232]","0.6923076923076923","0.4166666666666667","0","","","","","","","","","","","","","","","","","","","","","","","","","","","","",""
"1891","1752052906425","<p style='font-size:1.1em;line-height:1.25'>In the following, we will ask you a few questions relating to your experiences over the past month.<br></p><p style='font-size:1.1em;line-height:1.25'>Press the <strong>Next</strong> button to continue.</p>","0","custom-html-button-response","15","197472","0.0-7.0-4.0","203","1","2025-07-09 09:18:24","7701e855f2ef39aa3fd6c71abdc6918a","175.176.13.53","Mozilla/5.0 (Windows NT 10.0; Win64; x64) AppleWebKit/537.36 (KHTML, like Gecko) Chrome/138.0.0.0 Safari/537.36","WebKit","Chrome","138.0.0.0","Windows","10.0","https://app.prolific.com/","en-US,en;q=0.9","65f0831414fd6e9e51e08708","686d226cabeef709c732f8e1","686e31202692ec583bad8944","65f0831414fd6e9e51e08708","2025-07-09T09:21:46.425Z","","","","","","","","","","","","","","","","","","","","","","","","","","","","","","","","","","","","","","","","","","","",""
"41405.5","","","","survey-template","16","238883","0.0-7.0-5.0","203","1","2025-07-09 09:18:24","7701e855f2ef39aa3fd6c71abdc6918a","175.176.13.53","Mozilla/5.0 (Windows NT 10.0; Win64; x64) AppleWebKit/537.36 (KHTML, like Gecko) Chrome/138.0.0.0 Safari/537.36","WebKit","Chrome","138.0.0.0","Windows","10.0","https://app.prolific.com/","en-US,en;q=0.9","65f0831414fd6e9e51e08708","686d226cabeef709c732f8e1","686e31202692ec583bad8944","65f0831414fd6e9e51e08708","2025-07-09T09:22:27.836Z","","","","","","pss","{""Q01"":""2"",""Q02"":""2"",""Q03"":""2"",""Q04"":""2"",""Q05"":""1"",""Q06"":""1"",""Q07"":""2"",""Q08"":""2"",""Q09"":""2"",""Q10"":""1""}","[0,1,2,3,4,5,6,7,8,9]","[""Q01"",""Q01"",""Q02"",""Q03"",""Q04"",""Q05"",""Q06"",""Q07"",""Q08"",""Q09"",""Q10""]","[4848.799999952316,5940.900000095367,10159.200000047684,12813.299999952316,14861,19828.400000095367,23729.299999952316,30124.5,31424.400000095367,34636.700000047684,39746.59999990463]","[]","[0,4188.700000047684,4848.799999952316,5940.900000095367,10159.200000047684,12813.299999952316,14861,18484.5,19828.400000095367,23729.299999952316,30124.5,31424.400000095367,33636.799999952316,34636.700000047684,39746.59999990463,41403.299999952316]","0.7","0.3333333333333333","0","","","","","","","","","","","","","","","","","","","","","","","","","","","","",""
"1351","1752052949189","<p style='font-size:1.1em;line-height:1.25'>Thank you for your answers! Now we will ask you a few more questions relating to your feelings in the last 24 hours.<br></p><p style='font-size:1.1em;line-height:1.25'>Press the <strong>Next</strong> button to continue.</p>","0","custom-html-button-response","17","240236","0.0-7.0-6.0","203","1","2025-07-09 09:18:24","7701e855f2ef39aa3fd6c71abdc6918a","175.176.13.53","Mozilla/5.0 (Windows NT 10.0; Win64; x64) AppleWebKit/537.36 (KHTML, like Gecko) Chrome/138.0.0.0 Safari/537.36","WebKit","Chrome","138.0.0.0","Windows","10.0","https://app.prolific.com/","en-US,en;q=0.9","65f0831414fd6e9e51e08708","686d226cabeef709c732f8e1","686e31202692ec583bad8944","65f0831414fd6e9e51e08708","2025-07-09T09:22:29.189Z","","","","","","","","","","","","","","","","","","","","","","","","","","","","","","","","","","","","","","","","","","","",""
"57584.5","","","","survey-template","18","297829","0.0-7.0-7.0","203","1","2025-07-09 09:18:24","7701e855f2ef39aa3fd6c71abdc6918a","175.176.13.53","Mozilla/5.0 (Windows NT 10.0; Win64; x64) AppleWebKit/537.36 (KHTML, like Gecko) Chrome/138.0.0.0 Safari/537.36","WebKit","Chrome","138.0.0.0","Windows","10.0","https://app.prolific.com/","en-US,en;q=0.9","65f0831414fd6e9e51e08708","686d226cabeef709c732f8e1","686e31202692ec583bad8944","65f0831414fd6e9e51e08708","2025-07-09T09:23:26.782Z","","","","","","drsp","{""Q01"":""1"",""Q02"":""1"",""Q03"":""0"",""Q04"":""1"",""Q05"":""2"",""Q06"":""1"",""Q07"":""1"",""Q08"":""0"",""Q09"":""1"",""Q10"":""1"",""Q11"":""1"",""Q12"":""2"",""Q13"":""2"",""Q14"":""2"",""Q15"":""2"",""Q16"":""1"",""Q17"":""0"",""Q18"":""1"",""Q19"":""1"",""Q20"":""1"",""Q21"":""1""}","[0,1,2,3,4,5,6,7,8,9,10,11,12,13,14,15,16,17,18,19,20]","[""Q01"",""Q01"",""Q02"",""Q03"",""Q04"",""Q05"",""Q05"",""Q06"",""Q07"",""Q08"",""Q09"",""Q09"",""Q10"",""Q11"",""Q12"",""Q13"",""Q14"",""Q15"",""Q16"",""Q16"",""Q17"",""Q18"",""Q19"",""Q20"",""Q21""]","[2144.5,3976.2999999523163,4720.299999952316,6688.299999952316,7434.599999904633,8697.399999856949,11927,13127.099999904633,15190.599999904633,19944.299999952316,21032.299999952316,23288.599999904633,24280.199999809265,29374.099999904633,32129,33912.5,37112.199999809265,40616.39999985695,44554.799999952316,44931.199999809265,49473.699999809265,52176,54067.09999990463,55479.89999985695,56238.5]","[]","[0,2144.5,3976.2999999523163,4720.299999952316,6688.299999952316,7434.599999904633,8697.399999856949,10152.399999856949,11927,13127.099999904633,14456.5,15190.599999904633,19944.299999952316,21032.299999952316,23288.599999904633,24280.199999809265,26145.89999985695,27792.199999809265,29374.099999904633,30648.39999985695,32129,33912.5,37112.199999809265,40616.39999985695,42336.299999952316,43336,44554.799999952316,44931.199999809265,49473.699999809265,52176,54067.09999990463,55479.89999985695,56238.5,57579.89999985695]","0.6190476190476191","0.5","0","","","","","","","","","","","","","","","","","","","","","","","","","","","","",""
"12778.5","","","","survey-template","19","310610","0.0-7.0-8.0","203","1","2025-07-09 09:18:24","7701e855f2ef39aa3fd6c71abdc6918a","175.176.13.53","Mozilla/5.0 (Windows NT 10.0; Win64; x64) AppleWebKit/537.36 (KHTML, like Gecko) Chrome/138.0.0.0 Safari/537.36","WebKit","Chrome","138.0.0.0","Windows","10.0","https://app.prolific.com/","en-US,en;q=0.9","65f0831414fd6e9e51e08708","686d226cabeef709c732f8e1","686e31202692ec583bad8944","65f0831414fd6e9e51e08708","2025-07-09T09:23:39.563Z","","","","","","stress","{""Q01"":""1"",""Q02"":""4"",""Q03"":""1""}","[0,1,2]","[""Q01"",""Q03"",""Q02""]","[2825.399999856949,5545.399999856949,11746.899999856949]","[]","[2825.399999856949,3913.699999809265,4769.5,5545.399999856949,7209.5,11746.899999856949,12777.599999904633]","1","0","0","","","","","","","","","","","","","","","","","","","","","","","","","","","","",""
"25301","","","","instructions","20","335912","0.0-8.0-0.0","203","1","2025-07-09 09:18:24","7701e855f2ef39aa3fd6c71abdc6918a","175.176.13.53","Mozilla/5.0 (Windows NT 10.0; Win64; x64) AppleWebKit/537.36 (KHTML, like Gecko) Chrome/138.0.0.0 Safari/537.36","WebKit","Chrome","138.0.0.0","Windows","10.0","https://app.prolific.com/","en-US,en;q=0.9","65f0831414fd6e9e51e08708","686d226cabeef709c732f8e1","686e31202692ec583bad8944","65f0831414fd6e9e51e08708","","[{""page_index"":0,""viewing_time"":13874},{""page_index"":1,""viewing_time"":4611},{""page_index"":2,""viewing_time"":2724},{""page_index"":3,""viewing_time"":4092}]","","","","","","","","","","","","","","","","","","","","","","","","","","","","","","","","","","","","","","","","","","",""
"","","","","ctl-task-cpt","21","375259","0.0-8.0-1.0","203","1","2025-07-09 09:18:24","7701e855f2ef39aa3fd6c71abdc6918a","175.176.13.53","Mozilla/5.0 (Windows NT 10.0; Win64; x64) AppleWebKit/537.36 (KHTML, like Gecko) Chrome/138.0.0.0 Safari/537.36","WebKit","Chrome","138.0.0.0","Windows","10.0","https://app.prolific.com/","en-US,en;q=0.9","65f0831414fd6e9e51e08708","686d226cabeef709c732f8e1","686e31202692ec583bad8944","65f0831414fd6e9e51e08708","","","","","","","","","","","","","","","","","win-only","1","g1:NE,g2:SW","1","0","1","341445.2","1613.4","5620.2","36335.8","2","4","4","6","2","-4","-10","0","0","0","2458.3","4000","-1950","[""down"",""left""]","{""num_key_presses"":28,""num_perfect"":4,""num_errors"":6,""num_randdir"":0,""num_randdir_good_moves"":0,""num_whilered"":18,""num_whileblue"":0,""num_blue"":1,""num_good_moves"":4}","[303.22232142857143,298.12857142857143,0.2,303.22232142857143,298.12857142857143,104.7,303.22232142857143,298.12857142857143,206.5,299.22232142857143,312.12857142857143,319,307.22232142857143,336.12857142857143,422.7,335.22232142857143,323.12857142857143,527.3,379.22232142857143,290.12857142857143,636.9,384.22232142857143,286.12857142857143,737.1,384.22232142857143,286.12857142857143,837.4,385.22232142857143,279.12857142857143,938.6,375.22232142857143,258.12857142857143,1039.2,361.22232142857143,250.12857142857143,1139.4,361.22232142857143,250.12857142857143,1247.3,361.22232142857143,250.12857142857143,1347.5,361.22232142857143,250.12857142857143,1447.5,361.22232142857143,250.12857142857143,1547.5,361.22232142857143,250.12857142857143,1648,361.22232142857143,250.12857142857143,1748.2,221.22232142857143,389.12857142857143,1855.5,144.22232142857143,457.12857142857143,1960.6,103.22232142857143,494.12857142857143,2072.6,90.22232142857143,502.12857142857143,2175,61.222321428571426,524.1285714285714,2276.5,36.222321428571426,543.1285714285714,2379.1,36.222321428571426,543.1285714285714,2481.3,36.222321428571426,543.1285714285714,2588,36.222321428571426,543.1285714285714,2688.9,40.222321428571426,545.1285714285714,2790.7,43.222321428571426,545.1285714285714,2897.7,46.222321428571426,545.1285714285714,2998.4,51.222321428571426,545.1285714285714,3105.4,51.222321428571426,545.1285714285714,3206.1,53.222321428571426,545.1285714285714,3306.5,53.222321428571426,545.1285714285714,3406.7,53.222321428571426,545.1285714285714,3517.9,53.222321428571426,545.1285714285714,3626.3,53.222321428571426,545.1285714285714,3727.8,54.222321428571426,545.1285714285714,3838.3,54.222321428571426,545.1285714285714,3938.8]","[689.3,689.2,1000,0.1,-310.8,""error"",""-"",""-"",""no_move"",856.6,166.7,1000,0.1,-143.5,""while_red"",""-"",""-"",""no_move"",1008.4,318.6,1000,0.1,8.4,""while_red"",""-"",""-"",""no_move"",1144.5,454.6,1000,0.1,144.4,""while_red"",""-"",""-"",""no_move"",1283.2,593.4,1000,0.1,283.3,""while_red"",""-"",""-"",""no_move"",1417.5,727.6,1000,0.1,417.4,""while_red"",""-"",""-"",""no_move"",7767.8,7077.9,2872.8,1691,3204,""smooth"",""down"",""down"",""good_move"",7953.1,184,2486.2,7769.1,-2302.1,""error"",""-"",""-"",""no_move"",8139.7,185.4,2486.2,7769.1,-2115.6,""while_red"",""-"",""-"",""no_move"",8305,350.8,2486.2,7769.1,-1950.2,""while_red"",""-"",""-"",""no_move"",8480.5,526.2,2486.2,7769.1,-1774.8,""while_red"",""-"",""-"",""no_move"",8638.4,684.1,2486.2,7769.1,-1616.9,""while_red"",""-"",""-"",""no_move"",8776.6,822.4,2486.2,7769.1,-1478.6,""while_red"",""-"",""-"",""no_move"",8921.1,966.9,2486.2,7769.1,-1334.1,""while_red"",""-"",""-"",""no_move"",9048.6,1094.4,1895.4,8967.7,-1814.4,""error"",""-"",""-"",""no_move"",9219.6,169.7,1895.4,8967.7,-1643.5,""while_red"",""-"",""-"",""no_move"",9544.5,494.6,1895.4,8967.7,-1318.6,""while_red"",""-"",""-"",""no_move"",10480.9,1431,2837,10051.4,-2407.4,""error"",""-"",""-"",""no_move"",10760.5,278.1,2837,10051.4,-2127.9,""while_red"",""-"",""-"",""no_move"",10921,438.6,2837,10051.4,-1967.4,""while_red"",""-"",""-"",""no_move"",11089,606.6,2837,10051.4,-1799.4,""while_red"",""-"",""-"",""no_move"",11319,836.7,2837,10051.4,-1569.3,""while_red"",""-"",""-"",""no_move"",11496.4,1014,3242.9,11485.9,-3232.4,""error"",""-"",""-"",""no_move"",11673.2,176.2,3242.9,11485.9,-3055.6,""while_red"",""-"",""-"",""no_move"",19873.5,8376.6,3242.6,15536.5,1094.5,""smooth"",""left"",""left"",""good_move"",20289.7,413.9,2600.4,19875.8,-2186.5,""error"",""-"",""-"",""no_move"",25080.4,4789.2,2798.3,21300.6,981.5,""smooth"",""left"",""left"",""good_move"",28696.5,3615.3,2645.6,25081.2,969.7,""smooth"",""left"",""left"",""good_move""]","",""
"4108","","","","instructions","22","379369","0.0-8.0-2.0","203","1","2025-07-09 09:18:24","7701e855f2ef39aa3fd6c71abdc6918a","175.176.13.53","Mozilla/5.0 (Windows NT 10.0; Win64; x64) AppleWebKit/537.36 (KHTML, like Gecko) Chrome/138.0.0.0 Safari/537.36","WebKit","Chrome","138.0.0.0","Windows","10.0","https://app.prolific.com/","en-US,en;q=0.9","65f0831414fd6e9e51e08708","686d226cabeef709c732f8e1","686e31202692ec583bad8944","65f0831414fd6e9e51e08708","","[{""page_index"":0,""viewing_time"":4108}]","","","","","","","","","","","","","","","","","","","","","","","","","","","","","","","","","","","","","","","","","","",""
"","","","","ctl-task-cpt","23","409575","0.0-8.0-3.0","203","1","2025-07-09 09:18:24","7701e855f2ef39aa3fd6c71abdc6918a","175.176.13.53","Mozilla/5.0 (Windows NT 10.0; Win64; x64) AppleWebKit/537.36 (KHTML, like Gecko) Chrome/138.0.0.0 Safari/537.36","WebKit","Chrome","138.0.0.0","Windows","10.0","https://app.prolific.com/","en-US,en;q=0.9","65f0831414fd6e9e51e08708","686d226cabeef709c732f8e1","686e31202692ec583bad8944","65f0831414fd6e9e51e08708","","","","","","","","","","","","","","","","","win-only","1","g1:NE,g2:SW","0.35","0","3","384899.3","1704.4","5711.1","27192.9","2","4","8","6","2","8","8","8","0","0.06060606060606061","4006.7","4000","440","[""down"",""left""]","{""num_key_presses"":6,""num_perfect"":3,""num_errors"":0,""num_randdir"":3,""num_randdir_good_moves"":3,""num_whilered"":0,""num_whileblue"":0,""num_blue"":1,""num_good_moves"":6}","[296.22232142857143,299.12857142857143,0.5,296.22232142857143,299.12857142857143,104,296.22232142857143,299.12857142857143,217.3,298.22232142857143,302.12857142857143,317.8,342.22232142857143,330.12857142857143,430.9,346.22232142857143,331.12857142857143,538.9,346.22232142857143,331.12857142857143,647.5,357.22232142857143,323.12857142857143,749.9,368.22232142857143,302.12857142857143,854,369.22232142857143,299.12857142857143,958.9,369.22232142857143,299.12857142857143,1067.8,369.22232142857143,299.12857142857143,1172.1,354.22232142857143,266.12857142857143,1280.2,350.22232142857143,262.12857142857143,1387.9,350.22232142857143,262.12857142857143,1488.6,350.22232142857143,262.12857142857143,1597.1,350.22232142857143,262.12857142857143,1697.7,350.22232142857143,262.12857142857143,1797.8,350.22232142857143,262.12857142857143,1904.3,350.22232142857143,262.12857142857143,2012.7,350.22232142857143,262.12857142857143,2116.9,350.22232142857143,262.12857142857143,2217.4,350.22232142857143,262.12857142857143,2317.8,350.22232142857143,262.12857142857143,2425.8,350.22232142857143,262.12857142857143,2528,350.22232142857143,262.12857142857143,2638.5,350.22232142857143,262.12857142857143,2738.8,350.22232142857143,262.12857142857143,2847.7,350.22232142857143,262.12857142857143,2947.8,350.22232142857143,262.12857142857143,3055.5,350.22232142857143,262.12857142857143,3157,350.22232142857143,262.12857142857143,3266.9,350.22232142857143,262.12857142857143,3367.5,350.22232142857143,262.12857142857143,3467.8,350.22232142857143,262.12857142857143,3576.1,350.22232142857143,262.12857142857143,3677,350.22232142857143,262.12857142857143,3777.8,350.22232142857143,262.12857142857143,3878.1,350.22232142857143,262.12857142857143,3989.1]","[2593.3,2593.2,1000,0.1,1593.2,""oops"",""left"",""down"",""good_move"",6456.9,3862.9,2688.9,2594,1174,""oops"",""left"",""left"",""good_move"",9376.1,2918.4,2388.8,6457.8,529.7,""smooth"",""left"",""left"",""good_move"",12127.2,2750.3,1926.5,9376.9,823.8,""smooth"",""down"",""down"",""good_move"",18508.4,6380.6,2640.7,15269,598.7,""oops"",""down"",""left"",""good_move"",21360.4,2851.3,2181.9,18509.1,669.4,""smooth"",""down"",""down"",""good_move""]","",""
"9697","","","","instructions","24","419273","0.0-8.0-4.0","203","1","2025-07-09 09:18:24","7701e855f2ef39aa3fd6c71abdc6918a","175.176.13.53","Mozilla/5.0 (Windows NT 10.0; Win64; x64) AppleWebKit/537.36 (KHTML, like Gecko) Chrome/138.0.0.0 Safari/537.36","WebKit","Chrome","138.0.0.0","Windows","10.0","https://app.prolific.com/","en-US,en;q=0.9","65f0831414fd6e9e51e08708","686d226cabeef709c732f8e1","686e31202692ec583bad8944","65f0831414fd6e9e51e08708","","[{""page_index"":0,""viewing_time"":1277},{""page_index"":1,""viewing_time"":8419}]","","","","","","","","","","","","","","","","","","","","","","","","","","","","","","","","","","","","","","","","","","",""
"19445","","","{""green_ball"":[""Ball always moves in the direction I press""]}","survey-multi-select","25","438721","0.0-8.0-5.0-0.0","203","1","2025-07-09 09:18:24","7701e855f2ef39aa3fd6c71abdc6918a","175.176.13.53","Mozilla/5.0 (Windows NT 10.0; Win64; x64) AppleWebKit/537.36 (KHTML, like Gecko) Chrome/138.0.0.0 Safari/537.36","WebKit","Chrome","138.0.0.0","Windows","10.0","https://app.prolific.com/","en-US,en;q=0.9","65f0831414fd6e9e51e08708","686d226cabeef709c732f8e1","686e31202692ec583bad8944","65f0831414fd6e9e51e08708","","","[0]","","","","quiz","","","","","","","","","","","","","","","","","","","","","","","","","","","","","","","","","","","","","false",""
"5605","","<p align='center'><b>INCORRECT.</b> Usually the green ball moves in the indicated direction, but sometimes it shakes and moves randomly. </p>","0","html-button-response","26","444329","0.0-8.0-5.0-1.0","203","1","2025-07-09 09:18:24","7701e855f2ef39aa3fd6c71abdc6918a","175.176.13.53","Mozilla/5.0 (Windows NT 10.0; Win64; x64) AppleWebKit/537.36 (KHTML, like Gecko) Chrome/138.0.0.0 Safari/537.36","WebKit","Chrome","138.0.0.0","Windows","10.0","https://app.prolific.com/","en-US,en;q=0.9","65f0831414fd6e9e51e08708","686d226cabeef709c732f8e1","686e31202692ec583bad8944","65f0831414fd6e9e51e08708","","","","","","","","","","","","","","","","","","","","","","","","","","","","","","","","","","","","","","","","","","","","",""
"10176","","","{""green_ball"":[""Ball sometimes shakes and moves in a random direction""]}","survey-multi-select","27","454508","0.0-8.0-5.1-0.1","203","1","2025-07-09 09:18:24","7701e855f2ef39aa3fd6c71abdc6918a","175.176.13.53","Mozilla/5.0 (Windows NT 10.0; Win64; x64) AppleWebKit/537.36 (KHTML, like Gecko) Chrome/138.0.0.0 Safari/537.36","WebKit","Chrome","138.0.0.0","Windows","10.0","https://app.prolific.com/","en-US,en;q=0.9","65f0831414fd6e9e51e08708","686d226cabeef709c732f8e1","686e31202692ec583bad8944","65f0831414fd6e9e51e08708","","","[0]","","","","quiz","","","","","","","","","","","","","","","","","","","","","","","","","","","","","","","","","","","","","true",""
"1544","","<p align='center'><b>CORRECT!</b> Indeed, the green ball may sometimes shake and move in a random direction.</p>","0","html-button-response","28","456055","0.0-8.0-5.1-1.1","203","1","2025-07-09 09:18:24","7701e855f2ef39aa3fd6c71abdc6918a","175.176.13.53","Mozilla/5.0 (Windows NT 10.0; Win64; x64) AppleWebKit/537.36 (KHTML, like Gecko) Chrome/138.0.0.0 Safari/537.36","WebKit","Chrome","138.0.0.0","Windows","10.0","https://app.prolific.com/","en-US,en;q=0.9","65f0831414fd6e9e51e08708","686d226cabeef709c732f8e1","686e31202692ec583bad8944","65f0831414fd6e9e51e08708","","","","","","","","","","","","","","","","","","","","","","","","","","","","","","","","","","","","","","","","","","","","",""
"6680","","","{""yellow_ball"":[""Ball doesn‘t move and I get -1 penalty point""]}","survey-multi-select","29","462737","0.0-8.0-6.0-0.0","203","1","2025-07-09 09:18:24","7701e855f2ef39aa3fd6c71abdc6918a","175.176.13.53","Mozilla/5.0 (Windows NT 10.0; Win64; x64) AppleWebKit/537.36 (KHTML, like Gecko) Chrome/138.0.0.0 Safari/537.36","WebKit","Chrome","138.0.0.0","Windows","10.0","https://app.prolific.com/","en-US,en;q=0.9","65f0831414fd6e9e51e08708","686d226cabeef709c732f8e1","686e31202692ec583bad8944","65f0831414fd6e9e51e08708","","","[0]","","","","quiz","","","","","","","","","","","","","","","","","","","","","","","","","","","","","","","","","","","","","true",""
"1493","","<p align='center'><b>CORRECT!</b> Indeed, the yellow ball never moves and you receive a penalty.</p>","0","html-button-response","30","464231","0.0-8.0-6.0-1.0","203","1","2025-07-09 09:18:24","7701e855f2ef39aa3fd6c71abdc6918a","175.176.13.53","Mozilla/5.0 (Windows NT 10.0; Win64; x64) AppleWebKit/537.36 (KHTML, like Gecko) Chrome/138.0.0.0 Safari/537.36","WebKit","Chrome","138.0.0.0","Windows","10.0","https://app.prolific.com/","en-US,en;q=0.9","65f0831414fd6e9e51e08708","686d226cabeef709c732f8e1","686e31202692ec583bad8944","65f0831414fd6e9e51e08708","","","","","","","","","","","","","","","","","","","","","","","","","","","","","","","","","","","","","","","","","","","","",""
"3359","","","{""blue_ball"":[""Ball doesn‘t move and I get -1 penalty point""]}","survey-multi-select","31","467593","0.0-8.0-7.0-0.0","203","1","2025-07-09 09:18:24","7701e855f2ef39aa3fd6c71abdc6918a","175.176.13.53","Mozilla/5.0 (Windows NT 10.0; Win64; x64) AppleWebKit/537.36 (KHTML, like Gecko) Chrome/138.0.0.0 Safari/537.36","WebKit","Chrome","138.0.0.0","Windows","10.0","https://app.prolific.com/","en-US,en;q=0.9","65f0831414fd6e9e51e08708","686d226cabeef709c732f8e1","686e31202692ec583bad8944","65f0831414fd6e9e51e08708","","","[0]","","","","quiz","","","","","","","","","","","","","","","","","","","","","","","","","","","","","","","","","","","","","false",""
"3769","","<p align='center'><b>INCORRECT.</b> The blue ball always shakes and moves randomly.</p>","0","html-button-response","32","471364","0.0-8.0-7.0-1.0","203","1","2025-07-09 09:18:24","7701e855f2ef39aa3fd6c71abdc6918a","175.176.13.53","Mozilla/5.0 (Windows NT 10.0; Win64; x64) AppleWebKit/537.36 (KHTML, like Gecko) Chrome/138.0.0.0 Safari/537.36","WebKit","Chrome","138.0.0.0","Windows","10.0","https://app.prolific.com/","en-US,en;q=0.9","65f0831414fd6e9e51e08708","686d226cabeef709c732f8e1","686e31202692ec583bad8944","65f0831414fd6e9e51e08708","","","","","","","","","","","","","","","","","","","","","","","","","","","","","","","","","","","","","","","","","","","","",""
"3450","","","{""blue_ball"":[""Ball sometimes shakes and moves in a random direction""]}","survey-multi-select","33","474817","0.0-8.0-7.1-0.1","203","1","2025-07-09 09:18:24","7701e855f2ef39aa3fd6c71abdc6918a","175.176.13.53","Mozilla/5.0 (Windows NT 10.0; Win64; x64) AppleWebKit/537.36 (KHTML, like Gecko) Chrome/138.0.0.0 Safari/537.36","WebKit","Chrome","138.0.0.0","Windows","10.0","https://app.prolific.com/","en-US,en;q=0.9","65f0831414fd6e9e51e08708","686d226cabeef709c732f8e1","686e31202692ec583bad8944","65f0831414fd6e9e51e08708","","","[0]","","","","quiz","","","","","","","","","","","","","","","","","","","","","","","","","","","","","","","","","","","","","false",""
"2950","","<p align='center'><b>INCORRECT.</b> The blue ball always shakes and moves randomly.</p>","0","html-button-response","34","477768","0.0-8.0-7.1-1.1","203","1","2025-07-09 09:18:24","7701e855f2ef39aa3fd6c71abdc6918a","175.176.13.53","Mozilla/5.0 (Windows NT 10.0; Win64; x64) AppleWebKit/537.36 (KHTML, like Gecko) Chrome/138.0.0.0 Safari/537.36","WebKit","Chrome","138.0.0.0","Windows","10.0","https://app.prolific.com/","en-US,en;q=0.9","65f0831414fd6e9e51e08708","686d226cabeef709c732f8e1","686e31202692ec583bad8944","65f0831414fd6e9e51e08708","","","","","","","","","","","","","","","","","","","","","","","","","","","","","","","","","","","","","","","","","","","","",""
"3916","","","{""blue_ball"":[""Ball always shakes and moves in a random direction""]}","survey-multi-select","35","481687","0.0-8.0-7.2-0.2","203","1","2025-07-09 09:18:24","7701e855f2ef39aa3fd6c71abdc6918a","175.176.13.53","Mozilla/5.0 (Windows NT 10.0; Win64; x64) AppleWebKit/537.36 (KHTML, like Gecko) Chrome/138.0.0.0 Safari/537.36","WebKit","Chrome","138.0.0.0","Windows","10.0","https://app.prolific.com/","en-US,en;q=0.9","65f0831414fd6e9e51e08708","686d226cabeef709c732f8e1","686e31202692ec583bad8944","65f0831414fd6e9e51e08708","","","[0]","","","","quiz","","","","","","","","","","","","","","","","","","","","","","","","","","","","","","","","","","","","","true",""
"1152","","<p align='center'><b>CORRECT!</b> Indeed, the blue ball always shakes and moves in a random direction. Also there is a penalty of -1 point.</p>","0","html-button-response","36","482842","0.0-8.0-7.2-1.2","203","1","2025-07-09 09:18:24","7701e855f2ef39aa3fd6c71abdc6918a","175.176.13.53","Mozilla/5.0 (Windows NT 10.0; Win64; x64) AppleWebKit/537.36 (KHTML, like Gecko) Chrome/138.0.0.0 Safari/537.36","WebKit","Chrome","138.0.0.0","Windows","10.0","https://app.prolific.com/","en-US,en;q=0.9","65f0831414fd6e9e51e08708","686d226cabeef709c732f8e1","686e31202692ec583bad8944","65f0831414fd6e9e51e08708","","","","","","","","","","","","","","","","","","","","","","","","","","","","","","","","","","","","","","","","","","","","",""
"11297","","","{""bonus"":[""When I reach all possible points"",""When I reach 80% of points"",""When I don‘t get penalty points""]}","survey-multi-select","37","494142","0.0-8.0-8.0-0.0","203","1","2025-07-09 09:18:24","7701e855f2ef39aa3fd6c71abdc6918a","175.176.13.53","Mozilla/5.0 (Windows NT 10.0; Win64; x64) AppleWebKit/537.36 (KHTML, like Gecko) Chrome/138.0.0.0 Safari/537.36","WebKit","Chrome","138.0.0.0","Windows","10.0","https://app.prolific.com/","en-US,en;q=0.9","65f0831414fd6e9e51e08708","686d226cabeef709c732f8e1","686e31202692ec583bad8944","65f0831414fd6e9e51e08708","","","[0]","","","","quiz","","","","","","","","","","","","","","","","","","","","","","","","","","","","","","","","","","","","","false",""
"2316","","<p align='center'><b>INCORRECT.</b> You receive 2 pounds extra when you reach 50% of points </p>","0","html-button-response","38","496462","0.0-8.0-8.0-1.0","203","1","2025-07-09 09:18:24","7701e855f2ef39aa3fd6c71abdc6918a","175.176.13.53","Mozilla/5.0 (Windows NT 10.0; Win64; x64) AppleWebKit/537.36 (KHTML, like Gecko) Chrome/138.0.0.0 Safari/537.36","WebKit","Chrome","138.0.0.0","Windows","10.0","https://app.prolific.com/","en-US,en;q=0.9","65f0831414fd6e9e51e08708","686d226cabeef709c732f8e1","686e31202692ec583bad8944","65f0831414fd6e9e51e08708","","","","","","","","","","","","","","","","","","","","","","","","","","","","","","","","","","","","","","","","","","","","",""
"6886","","","{""bonus"":[""When I reach all possible points""]}","survey-multi-select","39","503351","0.0-8.0-8.1-0.1","203","1","2025-07-09 09:18:24","7701e855f2ef39aa3fd6c71abdc6918a","175.176.13.53","Mozilla/5.0 (Windows NT 10.0; Win64; x64) AppleWebKit/537.36 (KHTML, like Gecko) Chrome/138.0.0.0 Safari/537.36","WebKit","Chrome","138.0.0.0","Windows","10.0","https://app.prolific.com/","en-US,en;q=0.9","65f0831414fd6e9e51e08708","686d226cabeef709c732f8e1","686e31202692ec583bad8944","65f0831414fd6e9e51e08708","","","[0]","","","","quiz","","","","","","","","","","","","","","","","","","","","","","","","","","","","","","","","","","","","","false",""
"1633","","<p align='center'><b>INCORRECT.</b> You receive 2 pounds extra when you reach 50% of points </p>","0","html-button-response","40","504985","0.0-8.0-8.1-1.1","203","1","2025-07-09 09:18:24","7701e855f2ef39aa3fd6c71abdc6918a","175.176.13.53","Mozilla/5.0 (Windows NT 10.0; Win64; x64) AppleWebKit/537.36 (KHTML, like Gecko) Chrome/138.0.0.0 Safari/537.36","WebKit","Chrome","138.0.0.0","Windows","10.0","https://app.prolific.com/","en-US,en;q=0.9","65f0831414fd6e9e51e08708","686d226cabeef709c732f8e1","686e31202692ec583bad8944","65f0831414fd6e9e51e08708","","","","","","","","","","","","","","","","","","","","","","","","","","","","","","","","","","","","","","","","","","","","",""
"2326","","","{""bonus"":[""When I reach 50% of points""]}","survey-multi-select","41","507315","0.0-8.0-8.2-0.2","203","1","2025-07-09 09:18:24","7701e855f2ef39aa3fd6c71abdc6918a","175.176.13.53","Mozilla/5.0 (Windows NT 10.0; Win64; x64) AppleWebKit/537.36 (KHTML, like Gecko) Chrome/138.0.0.0 Safari/537.36","WebKit","Chrome","138.0.0.0","Windows","10.0","https://app.prolific.com/","en-US,en;q=0.9","65f0831414fd6e9e51e08708","686d226cabeef709c732f8e1","686e31202692ec583bad8944","65f0831414fd6e9e51e08708","","","[0]","","","","quiz","","","","","","","","","","","","","","","","","","","","","","","","","","","","","","","","","","","","","true",""
"1715","","<p align='center'><b>CORRECT!</b> Indeed, you receive 2 pounds extra when you reach 50% of points.</p>","0","html-button-response","42","509032","0.0-8.0-8.2-1.2","203","1","2025-07-09 09:18:24","7701e855f2ef39aa3fd6c71abdc6918a","175.176.13.53","Mozilla/5.0 (Windows NT 10.0; Win64; x64) AppleWebKit/537.36 (KHTML, like Gecko) Chrome/138.0.0.0 Safari/537.36","WebKit","Chrome","138.0.0.0","Windows","10.0","https://app.prolific.com/","en-US,en;q=0.9","65f0831414fd6e9e51e08708","686d226cabeef709c732f8e1","686e31202692ec583bad8944","65f0831414fd6e9e51e08708","","","","","","","","","","","","","","","","","","","","","","","","","","","","","","","","","","","","","","","","","","","","",""
"1424","","","","instructions","43","510457","0.0-8.0-9.0","203","1","2025-07-09 09:18:24","7701e855f2ef39aa3fd6c71abdc6918a","175.176.13.53","Mozilla/5.0 (Windows NT 10.0; Win64; x64) AppleWebKit/537.36 (KHTML, like Gecko) Chrome/138.0.0.0 Safari/537.36","WebKit","Chrome","138.0.0.0","Windows","10.0","https://app.prolific.com/","en-US,en;q=0.9","65f0831414fd6e9e51e08708","686d226cabeef709c732f8e1","686e31202692ec583bad8944","65f0831414fd6e9e51e08708","","[{""page_index"":0,""viewing_time"":1424}]","","","","","","","","","","","","","","","","","","","","","","","","","","","","","","","","","","","","","","","","","","",""
"8730","","<p>Before you start with this game please answer the following three questions yourself. </p>
  <p>Through this game, we measure several aspects of your cognitive performance, such as reaction times, multi-tasking capabilities </p>
  <p>and the ability to assess the situation you are in.</p>
  <p></p>
  <p><b>How good do you usually are in such tasks?</b></p>","100","html-slider-response","44","519190","0.0-9.0-0.0","203","1","2025-07-09 09:18:24","7701e855f2ef39aa3fd6c71abdc6918a","175.176.13.53","Mozilla/5.0 (Windows NT 10.0; Win64; x64) AppleWebKit/537.36 (KHTML, like Gecko) Chrome/138.0.0.0 Safari/537.36","WebKit","Chrome","138.0.0.0","Windows","10.0","https://app.prolific.com/","en-US,en;q=0.9","65f0831414fd6e9e51e08708","686d226cabeef709c732f8e1","686e31202692ec583bad8944","65f0831414fd6e9e51e08708","2025-07-09T09:27:08.143Z","","","","","","PreSkillQ","","","","","","","","","","","","","","","","","","","","","","","","","","","","","","","","","","","","","","50"
"7952","","<div style=""width:500px;"">
  <p>How well do you think you will perform in this task compared to other participants?</p>
  </div>","91","html-slider-response","45","527144","0.0-9.0-1.0","203","1","2025-07-09 09:18:24","7701e855f2ef39aa3fd6c71abdc6918a","175.176.13.53","Mozilla/5.0 (Windows NT 10.0; Win64; x64) AppleWebKit/537.36 (KHTML, like Gecko) Chrome/138.0.0.0 Safari/537.36","WebKit","Chrome","138.0.0.0","Windows","10.0","https://app.prolific.com/","en-US,en;q=0.9","65f0831414fd6e9e51e08708","686d226cabeef709c732f8e1","686e31202692ec583bad8944","65f0831414fd6e9e51e08708","2025-07-09T09:27:16.098Z","","","","","","PrePerfQ","","","","","","","","","","","","","","","","","","","","","","","","","","","","","","","","","","","","","","50"
"4509","","<div style=""width:500px;"">
  <p>What best describes how you currently feel?</p>
  </div>","100","html-slider-response","46","531656","0.0-9.0-2.0","203","1","2025-07-09 09:18:24","7701e855f2ef39aa3fd6c71abdc6918a","175.176.13.53","Mozilla/5.0 (Windows NT 10.0; Win64; x64) AppleWebKit/537.36 (KHTML, like Gecko) Chrome/138.0.0.0 Safari/537.36","WebKit","Chrome","138.0.0.0","Windows","10.0","https://app.prolific.com/","en-US,en;q=0.9","65f0831414fd6e9e51e08708","686d226cabeef709c732f8e1","686e31202692ec583bad8944","65f0831414fd6e9e51e08708","2025-07-09T09:27:20.609Z","","","","","","PreMotivationQ","","","","","","","","","","","","","","","","","","","","","","","","","","","","","","","","","","","","","","50"
"","","","","ctl-task-cpt","47","554617","0.0-10.0-0.0","203","1","2025-07-09 09:18:24","7701e855f2ef39aa3fd6c71abdc6918a","175.176.13.53","Mozilla/5.0 (Windows NT 10.0; Win64; x64) AppleWebKit/537.36 (KHTML, like Gecko) Chrome/138.0.0.0 Safari/537.36","WebKit","Chrome","138.0.0.0","Windows","10.0","https://app.prolific.com/","en-US,en;q=0.9","65f0831414fd6e9e51e08708","686d226cabeef709c732f8e1","686e31202692ec583bad8944","65f0831414fd6e9e51e08708","2025-07-09T09:27:43.570Z","","","","","","","","","","","","","","","","win-only","1","g1:NE,g2:SW","1","1","0","537190","1521.1","6525.5","19936.6","1","4","4","6","1","1","1","1","0","0.007575757575757576","5004.4","3000","880","[""up"",""right""]","{""num_key_presses"":4,""num_perfect"":4,""num_errors"":0,""num_randdir"":0,""num_randdir_good_moves"":0,""num_whilered"":0,""num_whileblue"":0,""num_blue"":0,""num_good_moves"":4}","[298.22232142857143,300.12857142857143,1,298.22232142857143,300.12857142857143,109.4,298.22232142857143,300.12857142857143,210.3,298.22232142857143,300.12857142857143,317.7,308.22232142857143,292.12857142857143,423.7,344.22232142857143,271.12857142857143,526.1,344.22232142857143,271.12857142857143,627.8,344.22232142857143,271.12857142857143,734.4,344.22232142857143,271.12857142857143,843.3,344.22232142857143,271.12857142857143,944.4,344.22232142857143,271.12857142857143,1048.4,344.22232142857143,271.12857142857143,1153.4,350.22232142857143,269.12857142857143,1260,350.22232142857143,269.12857142857143,1360.4,350.22232142857143,269.12857142857143,1475.3,350.22232142857143,269.12857142857143,1579.9,350.22232142857143,269.12857142857143,1685.2,350.22232142857143,269.12857142857143,1793.6,350.22232142857143,269.12857142857143,1894.2,350.22232142857143,269.12857142857143,1996,350.22232142857143,269.12857142857143,2097.4,350.22232142857143,269.12857142857143,2198.2,350.22232142857143,269.12857142857143,2311.7,350.22232142857143,269.12857142857143,2425.7,350.22232142857143,269.12857142857143,2525.9,350.22232142857143,269.12857142857143,2631.1,350.22232142857143,269.12857142857143,2743.8,350.22232142857143,269.12857142857143,2844.6,350.22232142857143,269.12857142857143,2946.5,350.22232142857143,269.12857142857143,3059,350.22232142857143,269.12857142857143,3159.1,350.22232142857143,269.12857142857143,3266.1,350.22232142857143,269.12857142857143,3375.9,350.22232142857143,269.12857142857143,3476,350.22232142857143,269.12857142857143,3589.7,350.22232142857143,269.12857142857143,3701.5,350.22232142857143,269.12857142857143,3804.7,350.22232142857143,269.12857142857143,3914.9,350.22232142857143,269.12857142857143,4017.2,350.22232142857143,269.12857142857143,4129,350.22232142857143,269.12857142857143,4239.2,350.22232142857143,269.12857142857143,4340,350.22232142857143,269.12857142857143,4444.5,350.22232142857143,269.12857142857143,4544.7,350.22232142857143,269.12857142857143,4646,350.22232142857143,269.12857142857143,4753.5,350.22232142857143,269.12857142857143,4854.3,350.22232142857143,269.12857142857143,4961.4]","[2511.2,2511.2,1000,0,1511.2,""smooth"",""up"",""up"",""good_move"",5917.4,3404.3,2585.9,2513.2,818.4,""smooth"",""up"",""up"",""good_move"",9766.5,3848.3,3045.7,5918.2,802.6,""smooth"",""right"",""right"",""good_move"",13263.8,3495.2,2928.7,9768.7,566.4,""smooth"",""right"",""right"",""good_move""]","",""
"45580","","<div style=""width:500px;"">
  <p>What determined the result of this run?</p>
  </div>","100","html-slider-response","48","600200","0.0-10.0-1.0","203","1","2025-07-09 09:18:24","7701e855f2ef39aa3fd6c71abdc6918a","175.176.13.53","Mozilla/5.0 (Windows NT 10.0; Win64; x64) AppleWebKit/537.36 (KHTML, like Gecko) Chrome/138.0.0.0 Safari/537.36","WebKit","Chrome","138.0.0.0","Windows","10.0","https://app.prolific.com/","en-US,en;q=0.9","65f0831414fd6e9e51e08708","686d226cabeef709c732f8e1","686e31202692ec583bad8944","65f0831414fd6e9e51e08708","2025-07-09T09:28:29.153Z","","","","","","AttribQ","","","","","","","","","","","","","","","","","","","","","","","","","","","","","","","","","","","","","","50"
"4310","","<div style=""width:500px;"">
  <p>How much control did you have over the ball?</p>
  </div>","100","html-slider-response","49","604513","0.0-10.0-2.0","203","1","2025-07-09 09:18:24","7701e855f2ef39aa3fd6c71abdc6918a","175.176.13.53","Mozilla/5.0 (Windows NT 10.0; Win64; x64) AppleWebKit/537.36 (KHTML, like Gecko) Chrome/138.0.0.0 Safari/537.36","WebKit","Chrome","138.0.0.0","Windows","10.0","https://app.prolific.com/","en-US,en;q=0.9","65f0831414fd6e9e51e08708","686d226cabeef709c732f8e1","686e31202692ec583bad8944","65f0831414fd6e9e51e08708","2025-07-09T09:28:33.466Z","","","","","","ControlQ","","","","","","","","","","","","","","","","","","","","","","","","","","","","","","","","","","","","","","50"
"4765","","<div style=""width:500px;"">
  <p>How would you describe your current emotional state?</p>
  </div>","9","html-slider-response","50","609280","0.0-10.0-3.0","203","1","2025-07-09 09:18:24","7701e855f2ef39aa3fd6c71abdc6918a","175.176.13.53","Mozilla/5.0 (Windows NT 10.0; Win64; x64) AppleWebKit/537.36 (KHTML, like Gecko) Chrome/138.0.0.0 Safari/537.36","WebKit","Chrome","138.0.0.0","Windows","10.0","https://app.prolific.com/","en-US,en;q=0.9","65f0831414fd6e9e51e08708","686d226cabeef709c732f8e1","686e31202692ec583bad8944","65f0831414fd6e9e51e08708","2025-07-09T09:28:38.233Z","","","","","","StressQ","","","","","","","","","","","","","","","","","","","","","","","","","","","","","","","","","","","","","","50"
"6149","","<div style=""width:500px;"">
  <p>What best describes how you currently feel?</p>
  </div>","98","html-slider-response","51","615431","0.0-10.0-4.0","203","1","2025-07-09 09:18:24","7701e855f2ef39aa3fd6c71abdc6918a","175.176.13.53","Mozilla/5.0 (Windows NT 10.0; Win64; x64) AppleWebKit/537.36 (KHTML, like Gecko) Chrome/138.0.0.0 Safari/537.36","WebKit","Chrome","138.0.0.0","Windows","10.0","https://app.prolific.com/","en-US,en;q=0.9","65f0831414fd6e9e51e08708","686d226cabeef709c732f8e1","686e31202692ec583bad8944","65f0831414fd6e9e51e08708","2025-07-09T09:28:44.384Z","","","","","","MotivationQ","","","","","","","","","","","","","","","","","","","","","","","","","","","","","","","","","","","","","","50"
"","","","","ctl-task-cpt","52","637099","0.0-10.0-0.1","203","1","2025-07-09 09:18:24","7701e855f2ef39aa3fd6c71abdc6918a","175.176.13.53","Mozilla/5.0 (Windows NT 10.0; Win64; x64) AppleWebKit/537.36 (KHTML, like Gecko) Chrome/138.0.0.0 Safari/537.36","WebKit","Chrome","138.0.0.0","Windows","10.0","https://app.prolific.com/","en-US,en;q=0.9","65f0831414fd6e9e51e08708","686d226cabeef709c732f8e1","686e31202692ec583bad8944","65f0831414fd6e9e51e08708","2025-07-09T09:29:06.052Z","","","","","","","","","","","","","","","","win-only","2","g1:SE,g2:NW","0.9","2","0","620963.3","1614.1","6616.7","18646.3","1","4","8","6","2","-8","-8","0","1","0","5002.6","3000","-2480","[""left"",""up""]","{""num_key_presses"":3,""num_perfect"":3,""num_errors"":0,""num_randdir"":0,""num_randdir_good_moves"":0,""num_whilered"":0,""num_whileblue"":0,""num_blue"":0,""num_good_moves"":3}","[303.22232142857143,299.12857142857143,0.3,303.22232142857143,299.12857142857143,102.1,303.22232142857143,299.12857142857143,203.8,303.22232142857143,299.12857142857143,311.1,303.22232142857143,299.12857142857143,412.2,319.22232142857143,318.12857142857143,512.3,325.22232142857143,322.12857142857143,621.4,318.22232142857143,324.12857142857143,722.9,321.22232142857143,327.12857142857143,825.5,321.22232142857143,327.12857142857143,926.9,321.22232142857143,327.12857142857143,1035,321.22232142857143,327.12857142857143,1138.9,321.22232142857143,327.12857142857143,1242,321.22232142857143,327.12857142857143,1346.4,321.22232142857143,327.12857142857143,1453.1,321.22232142857143,327.12857142857143,1553.5,321.22232142857143,327.12857142857143,1656.8,321.22232142857143,327.12857142857143,1756.8,321.22232142857143,327.12857142857143,1859.7,321.22232142857143,327.12857142857143,1961.8,321.22232142857143,327.12857142857143,2062,321.22232142857143,327.12857142857143,2162,321.22232142857143,327.12857142857143,2266.9,321.22232142857143,327.12857142857143,2367.1,321.22232142857143,327.12857142857143,2467.2,321.22232142857143,327.12857142857143,2571.8,321.22232142857143,327.12857142857143,2673.1,321.22232142857143,327.12857142857143,2776.8,321.22232142857143,327.12857142857143,2876.9,321.22232142857143,327.12857142857143,2977.3,321.22232142857143,327.12857142857143,3077.5,321.22232142857143,327.12857142857143,3182.3,321.22232142857143,327.12857142857143,3292.8,321.22232142857143,327.12857142857143,3396.6,321.22232142857143,327.12857142857143,3501.3,321.22232142857143,327.12857142857143,3602.6,321.22232142857143,327.12857142857143,3706.9,321.22232142857143,327.12857142857143,3807.3,321.22232142857143,327.12857142857143,3907.6,321.22232142857143,327.12857142857143,4011.9,321.22232142857143,327.12857142857143,4112,321.22232142857143,327.12857142857143,4212.2,321.22232142857143,327.12857142857143,4323.3,321.22232142857143,327.12857142857143,4423.9,321.22232142857143,327.12857142857143,4526.9,321.22232142857143,327.12857142857143,4631.6,321.22232142857143,327.12857142857143,4731.6,321.22232142857143,327.12857142857143,4832.1,321.22232142857143,327.12857142857143,4937.7]","[2972.2,2972.2,1000,0,1972.2,""smooth"",""up"",""up"",""good_move"",6188.6,3216,2222.2,2972.6,993.8,""smooth"",""left"",""left"",""good_move"",9472.1,3282.5,2764.2,6189.6,518.3,""smooth"",""up"",""up"",""good_move""]","",""
"6896","","<div style=""width:500px;"">
  <p>What determined the result of this run?</p>
  </div>","70","html-slider-response","53","643997","0.0-10.0-1.1","203","1","2025-07-09 09:18:24","7701e855f2ef39aa3fd6c71abdc6918a","175.176.13.53","Mozilla/5.0 (Windows NT 10.0; Win64; x64) AppleWebKit/537.36 (KHTML, like Gecko) Chrome/138.0.0.0 Safari/537.36","WebKit","Chrome","138.0.0.0","Windows","10.0","https://app.prolific.com/","en-US,en;q=0.9","65f0831414fd6e9e51e08708","686d226cabeef709c732f8e1","686e31202692ec583bad8944","65f0831414fd6e9e51e08708","2025-07-09T09:29:12.950Z","","","","","","AttribQ","","","","","","","","","","","","","","","","","","","","","","","","","","","","","","","","","","","","","","50"
"5689","","<div style=""width:500px;"">
  <p>How much control did you have over the ball?</p>
  </div>","14","html-slider-response","54","649688","0.0-10.0-2.1","203","1","2025-07-09 09:18:24","7701e855f2ef39aa3fd6c71abdc6918a","175.176.13.53","Mozilla/5.0 (Windows NT 10.0; Win64; x64) AppleWebKit/537.36 (KHTML, like Gecko) Chrome/138.0.0.0 Safari/537.36","WebKit","Chrome","138.0.0.0","Windows","10.0","https://app.prolific.com/","en-US,en;q=0.9","65f0831414fd6e9e51e08708","686d226cabeef709c732f8e1","686e31202692ec583bad8944","65f0831414fd6e9e51e08708","2025-07-09T09:29:18.641Z","","","","","","ControlQ","","","","","","","","","","","","","","","","","","","","","","","","","","","","","","","","","","","","","","50"
"6687","","<div style=""width:500px;"">
  <p>How would you describe your current emotional state?</p>
  </div>","33","html-slider-response","55","656376","0.0-10.0-3.1","203","1","2025-07-09 09:18:24","7701e855f2ef39aa3fd6c71abdc6918a","175.176.13.53","Mozilla/5.0 (Windows NT 10.0; Win64; x64) AppleWebKit/537.36 (KHTML, like Gecko) Chrome/138.0.0.0 Safari/537.36","WebKit","Chrome","138.0.0.0","Windows","10.0","https://app.prolific.com/","en-US,en;q=0.9","65f0831414fd6e9e51e08708","686d226cabeef709c732f8e1","686e31202692ec583bad8944","65f0831414fd6e9e51e08708","2025-07-09T09:29:25.329Z","","","","","","StressQ","","","","","","","","","","","","","","","","","","","","","","","","","","","","","","","","","","","","","","50"
"4390","","<div style=""width:500px;"">
  <p>What best describes how you currently feel?</p>
  </div>","92","html-slider-response","56","660767","0.0-10.0-4.1","203","1","2025-07-09 09:18:24","7701e855f2ef39aa3fd6c71abdc6918a","175.176.13.53","Mozilla/5.0 (Windows NT 10.0; Win64; x64) AppleWebKit/537.36 (KHTML, like Gecko) Chrome/138.0.0.0 Safari/537.36","WebKit","Chrome","138.0.0.0","Windows","10.0","https://app.prolific.com/","en-US,en;q=0.9","65f0831414fd6e9e51e08708","686d226cabeef709c732f8e1","686e31202692ec583bad8944","65f0831414fd6e9e51e08708","2025-07-09T09:29:29.720Z","","","","","","MotivationQ","","","","","","","","","","","","","","","","","","","","","","","","","","","","","","","","","","","","","","50"
"","","","","ctl-task-cpt","57","683757","0.0-10.0-0.2","203","1","2025-07-09 09:18:24","7701e855f2ef39aa3fd6c71abdc6918a","175.176.13.53","Mozilla/5.0 (Windows NT 10.0; Win64; x64) AppleWebKit/537.36 (KHTML, like Gecko) Chrome/138.0.0.0 Safari/537.36","WebKit","Chrome","138.0.0.0","Windows","10.0","https://app.prolific.com/","en-US,en;q=0.9","65f0831414fd6e9e51e08708","686d226cabeef709c732f8e1","686e31202692ec583bad8944","65f0831414fd6e9e51e08708","2025-07-09T09:29:52.710Z","","","","","","","","","","","","","","","","win-only","0","g1:NW,g2:SE","0.8","3","0","666299.1","1375","6384.1","19970.7","1","4","8","6","1","1","1","1","0","0.007575757575757576","1617.4","3000","1000","[""left"",""up""]","{""num_key_presses"":4,""num_perfect"":4,""num_errors"":0,""num_randdir"":0,""num_randdir_good_moves"":0,""num_whilered"":0,""num_whileblue"":0,""num_blue"":1,""num_good_moves"":4}","[300.22232142857143,299.12857142857143,0.3,300.22232142857143,299.12857142857143,105.2,300.22232142857143,299.12857142857143,207.5,289.22232142857143,330.12857142857143,310.5,303.22232142857143,474.12857142857143,410.7,435.22232142857143,531.1285714285714,511.4,446.22232142857143,391.12857142857143,621.4,247.22232142857143,274.12857142857143,724,228.22232142857143,232.12857142857143,825.7,181.22232142857143,168.12857142857143,926.3,104.22232142857143,39.128571428571426,1026.7,30.222321428571426,-50.871428571428574,1128.1,8.222321428571426,-31.871428571428574,1231.9,-1.7776785714285737,46.128571428571426,1344.8,11.222321428571426,64.12857142857143,1445.5,27.222321428571426,68.12857142857143,1545.6,32.222321428571426,69.12857142857143,1646.2,32.222321428571426,69.12857142857143,1751.3,149.22232142857143,178.12857142857143,1857.3,197.22232142857143,241.12857142857143,1957.9,218.22232142857143,262.12857142857143,2058.1,244.22232142857143,263.12857142857143,2160.9,246.22232142857143,258.12857142857143,2262.5,246.22232142857143,258.12857142857143,2373.3,246.22232142857143,258.12857142857143,2475.9,246.22232142857143,260.12857142857143,2577.1,245.22232142857143,262.12857142857143,2680.8,245.22232142857143,263.12857142857143,2786.4,245.22232142857143,263.12857142857143,2892.9,245.22232142857143,263.12857142857143,2996.4,245.22232142857143,263.12857142857143,3100.9,245.22232142857143,263.12857142857143,3207.5,245.22232142857143,263.12857142857143,3310.5,245.22232142857143,263.12857142857143,3411.1,245.22232142857143,263.12857142857143,3523.6,245.22232142857143,263.12857142857143,3626.2,245.22232142857143,263.12857142857143,3730.7,245.22232142857143,263.12857142857143,3836.6,245.22232142857143,263.12857142857143,3939.9,245.22232142857143,263.12857142857143,4040.6,245.22232142857143,263.12857142857143,4141.4,245.22232142857143,263.12857142857143,4242.6,245.22232142857143,263.12857142857143,4342.9,245.22232142857143,263.12857142857143,4443,245.22232142857143,263.12857142857143,4544.5,245.22232142857143,263.12857142857143,4645.9,245.22232142857143,263.12857142857143,4752,245.22232142857143,263.12857142857143,4856.5,245.22232142857143,263.12857142857143,4960.8]","[1565.9,1565.9,1000,0,565.9,""smooth"",""up"",""up"",""good_move"",8168.3,6602,2385.2,5051.2,731.9,""smooth"",""up"",""up"",""good_move"",10717.9,2549.3,1827.5,8168.6,721.8,""smooth"",""left"",""left"",""good_move"",13477.9,2759.2,2201,10718.8,558.2,""smooth"",""left"",""left"",""good_move""]","",""
"3680","","<div style=""width:500px;"">
  <p>What determined the result of this run?</p>
  </div>","99","html-slider-response","58","687439","0.0-10.0-1.2","203","1","2025-07-09 09:18:24","7701e855f2ef39aa3fd6c71abdc6918a","175.176.13.53","Mozilla/5.0 (Windows NT 10.0; Win64; x64) AppleWebKit/537.36 (KHTML, like Gecko) Chrome/138.0.0.0 Safari/537.36","WebKit","Chrome","138.0.0.0","Windows","10.0","https://app.prolific.com/","en-US,en;q=0.9","65f0831414fd6e9e51e08708","686d226cabeef709c732f8e1","686e31202692ec583bad8944","65f0831414fd6e9e51e08708","2025-07-09T09:29:56.392Z","","","","","","AttribQ","","","","","","","","","","","","","","","","","","","","","","","","","","","","","","","","","","","","","","50"
"3415","","<div style=""width:500px;"">
  <p>How much control did you have over the ball?</p>
  </div>","98","html-slider-response","59","690855","0.0-10.0-2.2","203","1","2025-07-09 09:18:24","7701e855f2ef39aa3fd6c71abdc6918a","175.176.13.53","Mozilla/5.0 (Windows NT 10.0; Win64; x64) AppleWebKit/537.36 (KHTML, like Gecko) Chrome/138.0.0.0 Safari/537.36","WebKit","Chrome","138.0.0.0","Windows","10.0","https://app.prolific.com/","en-US,en;q=0.9","65f0831414fd6e9e51e08708","686d226cabeef709c732f8e1","686e31202692ec583bad8944","65f0831414fd6e9e51e08708","2025-07-09T09:29:59.808Z","","","","","","ControlQ","","","","","","","","","","","","","","","","","","","","","","","","","","","","","","","","","","","","","","50"
"3344","","<div style=""width:500px;"">
  <p>How would you describe your current emotional state?</p>
  </div>","4","html-slider-response","60","694201","0.0-10.0-3.2","203","1","2025-07-09 09:18:24","7701e855f2ef39aa3fd6c71abdc6918a","175.176.13.53","Mozilla/5.0 (Windows NT 10.0; Win64; x64) AppleWebKit/537.36 (KHTML, like Gecko) Chrome/138.0.0.0 Safari/537.36","WebKit","Chrome","138.0.0.0","Windows","10.0","https://app.prolific.com/","en-US,en;q=0.9","65f0831414fd6e9e51e08708","686d226cabeef709c732f8e1","686e31202692ec583bad8944","65f0831414fd6e9e51e08708","2025-07-09T09:30:03.154Z","","","","","","StressQ","","","","","","","","","","","","","","","","","","","","","","","","","","","","","","","","","","","","","","50"
"2869","","<div style=""width:500px;"">
  <p>What best describes how you currently feel?</p>
  </div>","100","html-slider-response","61","697072","0.0-10.0-4.2","203","1","2025-07-09 09:18:24","7701e855f2ef39aa3fd6c71abdc6918a","175.176.13.53","Mozilla/5.0 (Windows NT 10.0; Win64; x64) AppleWebKit/537.36 (KHTML, like Gecko) Chrome/138.0.0.0 Safari/537.36","WebKit","Chrome","138.0.0.0","Windows","10.0","https://app.prolific.com/","en-US,en;q=0.9","65f0831414fd6e9e51e08708","686d226cabeef709c732f8e1","686e31202692ec583bad8944","65f0831414fd6e9e51e08708","2025-07-09T09:30:06.025Z","","","","","","MotivationQ","","","","","","","","","","","","","","","","","","","","","","","","","","","","","","","","","","","","","","50"
"","","","","ctl-task-cpt","62","718437","0.0-10.0-0.3","203","1","2025-07-09 09:18:24","7701e855f2ef39aa3fd6c71abdc6918a","175.176.13.53","Mozilla/5.0 (Windows NT 10.0; Win64; x64) AppleWebKit/537.36 (KHTML, like Gecko) Chrome/138.0.0.0 Safari/537.36","WebKit","Chrome","138.0.0.0","Windows","10.0","https://app.prolific.com/","en-US,en;q=0.9","65f0831414fd6e9e51e08708","686d226cabeef709c732f8e1","686e31202692ec583bad8944","65f0831414fd6e9e51e08708","2025-07-09T09:30:27.390Z","","","","","","","","","","","","","","","","win-only","3","g1:SW,g2:NE","0.7","4","0","702604.6","1170.4","6174","18343.6","1","4","4","6","1","1","1","2","1","0.015151515151515152","1322.9","3000","670","[""down"",""left""]","{""num_key_presses"":4,""num_perfect"":4,""num_errors"":0,""num_randdir"":0,""num_randdir_good_moves"":0,""num_whilered"":0,""num_whileblue"":0,""num_blue"":0,""num_good_moves"":4}","[295.22232142857143,297.12857142857143,0.3,295.22232142857143,297.12857142857143,102.4,295.22232142857143,297.12857142857143,205.9,304.22232142857143,313.12857142857143,306.1,335.22232142857143,358.12857142857143,411.2,304.22232142857143,362.12857142857143,517.4,262.22232142857143,361.12857142857143,621,171.22232142857143,419.12857142857143,722,102.22232142857143,499.12857142857143,822.5,98.22232142857143,506.12857142857143,936.5,75.22232142857143,501.12857142857143,1050.7,69.22232142857143,520.1285714285714,1151.4,67.22232142857143,524.1285714285714,1253.1,67.22232142857143,524.1285714285714,1359.8,67.22232142857143,524.1285714285714,1462.9,67.22232142857143,524.1285714285714,1570.2,147.22232142857143,510.12857142857143,1672.6,200.22232142857143,471.12857142857143,1772.8,241.22232142857143,394.12857142857143,1878.5,246.22232142857143,363.12857142857143,1981.7,249.22232142857143,358.12857142857143,2082.4,249.22232142857143,358.12857142857143,2188.9,249.22232142857143,358.12857142857143,2291.5,249.22232142857143,358.12857142857143,2391.5,252.22232142857143,383.12857142857143,2491.8,253.22232142857143,389.12857142857143,2599.3,241.22232142857143,366.12857142857143,2701.4,241.22232142857143,366.12857142857143,2806,230.22232142857143,394.12857142857143,2906.3,220.22232142857143,482.12857142857143,3025.6,226.22232142857143,537.1285714285714,3133.5,226.22232142857143,537.1285714285714,3236.6,226.22232142857143,537.1285714285714,3341.1,226.22232142857143,537.1285714285714,3449.9,226.22232142857143,537.1285714285714,3553.4,226.22232142857143,537.1285714285714,3656,226.22232142857143,537.1285714285714,3756.9,226.22232142857143,537.1285714285714,3862,226.22232142857143,537.1285714285714,3971.9,226.22232142857143,537.1285714285714,4083.5,226.22232142857143,537.1285714285714,4184,226.22232142857143,537.1285714285714,4284.9,226.22232142857143,537.1285714285714,4385.7,226.22232142857143,537.1285714285714,4486.8,226.22232142857143,537.1285714285714,4587.7,226.22232142857143,537.1285714285714,4687.9,226.22232142857143,537.1285714285714,4792.3,226.22232142857143,537.1285714285714,4904.9]","[1598.2,1598.2,1000,0,598.2,""smooth"",""down"",""down"",""good_move"",5509.9,3911.1,2565,1598.8,1346.1,""smooth"",""left"",""left"",""good_move"",8494,2983.4,2358.1,5510.6,625.3,""smooth"",""left"",""left"",""good_move"",12047.6,3553,3074.3,8494.6,478.7,""smooth"",""down"",""down"",""good_move""]","",""
"4385","","<div style=""width:500px;"">
  <p>What determined the result of this run?</p>
  </div>","99","html-slider-response","63","722825","0.0-10.0-1.3","203","1","2025-07-09 09:18:24","7701e855f2ef39aa3fd6c71abdc6918a","175.176.13.53","Mozilla/5.0 (Windows NT 10.0; Win64; x64) AppleWebKit/537.36 (KHTML, like Gecko) Chrome/138.0.0.0 Safari/537.36","WebKit","Chrome","138.0.0.0","Windows","10.0","https://app.prolific.com/","en-US,en;q=0.9","65f0831414fd6e9e51e08708","686d226cabeef709c732f8e1","686e31202692ec583bad8944","65f0831414fd6e9e51e08708","2025-07-09T09:30:31.778Z","","","","","","AttribQ","","","","","","","","","","","","","","","","","","","","","","","","","","","","","","","","","","","","","","50"
"2917","","<div style=""width:500px;"">
  <p>How much control did you have over the ball?</p>
  </div>","100","html-slider-response","64","725744","0.0-10.0-2.3","203","1","2025-07-09 09:18:24","7701e855f2ef39aa3fd6c71abdc6918a","175.176.13.53","Mozilla/5.0 (Windows NT 10.0; Win64; x64) AppleWebKit/537.36 (KHTML, like Gecko) Chrome/138.0.0.0 Safari/537.36","WebKit","Chrome","138.0.0.0","Windows","10.0","https://app.prolific.com/","en-US,en;q=0.9","65f0831414fd6e9e51e08708","686d226cabeef709c732f8e1","686e31202692ec583bad8944","65f0831414fd6e9e51e08708","2025-07-09T09:30:34.698Z","","","","","","ControlQ","","","","","","","","","","","","","","","","","","","","","","","","","","","","","","","","","","","","","","50"
"3694","","<div style=""width:500px;"">
  <p>How would you describe your current emotional state?</p>
  </div>","2","html-slider-response","65","729441","0.0-10.0-3.3","203","1","2025-07-09 09:18:24","7701e855f2ef39aa3fd6c71abdc6918a","175.176.13.53","Mozilla/5.0 (Windows NT 10.0; Win64; x64) AppleWebKit/537.36 (KHTML, like Gecko) Chrome/138.0.0.0 Safari/537.36","WebKit","Chrome","138.0.0.0","Windows","10.0","https://app.prolific.com/","en-US,en;q=0.9","65f0831414fd6e9e51e08708","686d226cabeef709c732f8e1","686e31202692ec583bad8944","65f0831414fd6e9e51e08708","2025-07-09T09:30:38.394Z","","","","","","StressQ","","","","","","","","","","","","","","","","","","","","","","","","","","","","","","","","","","","","","","50"
"2806","","<div style=""width:500px;"">
  <p>What best describes how you currently feel?</p>
  </div>","100","html-slider-response","66","732250","0.0-10.0-4.3","203","1","2025-07-09 09:18:24","7701e855f2ef39aa3fd6c71abdc6918a","175.176.13.53","Mozilla/5.0 (Windows NT 10.0; Win64; x64) AppleWebKit/537.36 (KHTML, like Gecko) Chrome/138.0.0.0 Safari/537.36","WebKit","Chrome","138.0.0.0","Windows","10.0","https://app.prolific.com/","en-US,en;q=0.9","65f0831414fd6e9e51e08708","686d226cabeef709c732f8e1","686e31202692ec583bad8944","65f0831414fd6e9e51e08708","2025-07-09T09:30:41.203Z","","","","","","MotivationQ","","","","","","","","","","","","","","","","","","","","","","","","","","","","","","","","","","","","","","50"
"","","","","ctl-task-cpt","67","764649","0.0-10.0-0.4","203","1","2025-07-09 09:18:24","7701e855f2ef39aa3fd6c71abdc6918a","175.176.13.53","Mozilla/5.0 (Windows NT 10.0; Win64; x64) AppleWebKit/537.36 (KHTML, like Gecko) Chrome/138.0.0.0 Safari/537.36","WebKit","Chrome","138.0.0.0","Windows","10.0","https://app.prolific.com/","en-US,en;q=0.9","65f0831414fd6e9e51e08708","686d226cabeef709c732f8e1","686e31202692ec583bad8944","65f0831414fd6e9e51e08708","2025-07-09T09:31:13.603Z","","","","","","","","","","","","","","","","win-only","2","g1:SE,g2:NW","0.6","5","0","737783.6","1205","6206.5","29381","1","4","8","6","1","1","1","3","2","0.022727272727272728","1029.7","3000","315","[""down"",""right""]","{""num_key_presses"":6,""num_perfect"":3,""num_errors"":0,""num_randdir"":3,""num_randdir_good_moves"":2,""num_whilered"":0,""num_whileblue"":0,""num_blue"":2,""num_good_moves"":5}","[299.22232142857143,302.12857142857143,0.4,299.22232142857143,302.12857142857143,107.5,299.22232142857143,302.12857142857143,212.6,296.22232142857143,320.12857142857143,319.9,319.22232142857143,407.12857142857143,430.5,404.22232142857143,482.12857142857143,531.5,451.22232142857143,516.1285714285714,632.7,478.22232142857143,533.1285714285714,736.3,560.2223214285714,564.1285714285714,837.2,563.2223214285714,564.1285714285714,941.6,563.2223214285714,564.1285714285714,1043.2,563.2223214285714,564.1285714285714,1149.3,431.22232142857143,529.1285714285714,1251.5,268.22232142857143,424.12857142857143,1356.1,286.22232142857143,390.12857142857143,1457.3,305.22232142857143,379.12857142857143,1561.2,308.22232142857143,379.12857142857143,1663,308.22232142857143,379.12857142857143,1768.2,308.22232142857143,379.12857142857143,1878.6,308.22232142857143,379.12857142857143,1982.9,308.22232142857143,379.12857142857143,2086.8,308.22232142857143,379.12857142857143,2190.7,308.22232142857143,379.12857142857143,2290.9,308.22232142857143,379.12857142857143,2390.9,308.22232142857143,379.12857142857143,2492,308.22232142857143,379.12857142857143,2596.9,308.22232142857143,379.12857142857143,2696.9,308.22232142857143,379.12857142857143,2798,308.22232142857143,379.12857142857143,2902.2,308.22232142857143,379.12857142857143,3008,308.22232142857143,379.12857142857143,3116.2,308.22232142857143,379.12857142857143,3217.4,308.22232142857143,379.12857142857143,3328.3,308.22232142857143,379.12857142857143,3432.1,308.22232142857143,379.12857142857143,3536.4,308.22232142857143,379.12857142857143,3636.5,308.22232142857143,379.12857142857143,3740.9,308.22232142857143,379.12857142857143,3841.2,308.22232142857143,379.12857142857143,3941.3,308.22232142857143,379.12857142857143,4048,308.22232142857143,379.12857142857143,4150.4,308.22232142857143,379.12857142857143,4251.6,308.22232142857143,379.12857142857143,4365.1,308.22232142857143,379.12857142857143,4466.9,308.22232142857143,379.12857142857143,4571.6,308.22232142857143,379.12857142857143,4683.3,308.22232142857143,379.12857142857143,4785.5,308.22232142857143,379.12857142857143,4892.9,308.22232142857143,379.12857142857143,4998.9]","[1723.6,1723.6,1000,0,723.6,""oops"",""down"",""down"",""good_move"",4450.4,2726.3,1973.8,1724.2,752.5,""oops"",""right"",""up"",""bad_move"",6954.4,2503.3,1842.8,4451.2,660.6,""smooth"",""down"",""down"",""good_move"",10601.7,3645.8,3092.3,6956,553.4,""smooth"",""right"",""right"",""good_move"",13178.1,2575.9,2121.6,10602.2,454.3,""oops"",""right"",""down"",""good_move"",23057.7,9879.1,1965.4,20575.5,516.8,""smooth"",""right"",""right"",""good_move""]","",""
"4733","","<div style=""width:500px;"">
  <p>What determined the result of this run?</p>
  </div>","100","html-slider-response","68","769384","0.0-10.0-1.4","203","1","2025-07-09 09:18:24","7701e855f2ef39aa3fd6c71abdc6918a","175.176.13.53","Mozilla/5.0 (Windows NT 10.0; Win64; x64) AppleWebKit/537.36 (KHTML, like Gecko) Chrome/138.0.0.0 Safari/537.36","WebKit","Chrome","138.0.0.0","Windows","10.0","https://app.prolific.com/","en-US,en;q=0.9","65f0831414fd6e9e51e08708","686d226cabeef709c732f8e1","686e31202692ec583bad8944","65f0831414fd6e9e51e08708","2025-07-09T09:31:18.337Z","","","","","","AttribQ","","","","","","","","","","","","","","","","","","","","","","","","","","","","","","","","","","","","","","50"
"3438","","<div style=""width:500px;"">
  <p>How much control did you have over the ball?</p>
  </div>","99","html-slider-response","69","772824","0.0-10.0-2.4","203","1","2025-07-09 09:18:24","7701e855f2ef39aa3fd6c71abdc6918a","175.176.13.53","Mozilla/5.0 (Windows NT 10.0; Win64; x64) AppleWebKit/537.36 (KHTML, like Gecko) Chrome/138.0.0.0 Safari/537.36","WebKit","Chrome","138.0.0.0","Windows","10.0","https://app.prolific.com/","en-US,en;q=0.9","65f0831414fd6e9e51e08708","686d226cabeef709c732f8e1","686e31202692ec583bad8944","65f0831414fd6e9e51e08708","2025-07-09T09:31:21.778Z","","","","","","ControlQ","","","","","","","","","","","","","","","","","","","","","","","","","","","","","","","","","","","","","","50"
"1758","","<div style=""width:500px;"">
  <p>How would you describe your current emotional state?</p>
  </div>","0","html-slider-response","70","774585","0.0-10.0-3.4","203","1","2025-07-09 09:18:24","7701e855f2ef39aa3fd6c71abdc6918a","175.176.13.53","Mozilla/5.0 (Windows NT 10.0; Win64; x64) AppleWebKit/537.36 (KHTML, like Gecko) Chrome/138.0.0.0 Safari/537.36","WebKit","Chrome","138.0.0.0","Windows","10.0","https://app.prolific.com/","en-US,en;q=0.9","65f0831414fd6e9e51e08708","686d226cabeef709c732f8e1","686e31202692ec583bad8944","65f0831414fd6e9e51e08708","2025-07-09T09:31:23.538Z","","","","","","StressQ","","","","","","","","","","","","","","","","","","","","","","","","","","","","","","","","","","","","","","50"
"3212","","<div style=""width:500px;"">
  <p>What best describes how you currently feel?</p>
  </div>","100","html-slider-response","71","777800","0.0-10.0-4.4","203","1","2025-07-09 09:18:24","7701e855f2ef39aa3fd6c71abdc6918a","175.176.13.53","Mozilla/5.0 (Windows NT 10.0; Win64; x64) AppleWebKit/537.36 (KHTML, like Gecko) Chrome/138.0.0.0 Safari/537.36","WebKit","Chrome","138.0.0.0","Windows","10.0","https://app.prolific.com/","en-US,en;q=0.9","65f0831414fd6e9e51e08708","686d226cabeef709c732f8e1","686e31202692ec583bad8944","65f0831414fd6e9e51e08708","2025-07-09T09:31:26.753Z","","","","","","MotivationQ","","","","","","","","","","","","","","","","","","","","","","","","","","","","","","","","","","","","","","50"
"","","","","ctl-task-cpt","72","811751","0.0-10.0-0.5","203","1","2025-07-09 09:18:24","7701e855f2ef39aa3fd6c71abdc6918a","175.176.13.53","Mozilla/5.0 (Windows NT 10.0; Win64; x64) AppleWebKit/537.36 (KHTML, like Gecko) Chrome/138.0.0.0 Safari/537.36","WebKit","Chrome","138.0.0.0","Windows","10.0","https://app.prolific.com/","en-US,en;q=0.9","65f0831414fd6e9e51e08708","686d226cabeef709c732f8e1","686e31202692ec583bad8944","65f0831414fd6e9e51e08708","2025-07-09T09:32:00.704Z","","","","","","","","","","","","","","","","win-only","2","g1:SE,g2:NW","0.5","6","0","783333.8","1214.7","6225","30927.3","1","4","4","6","1","-1","-1","2","3","0.015151515151515152","1029.4","3000","-2120","[""down"",""right""]","{""num_key_presses"":7,""num_perfect"":3,""num_errors"":0,""num_randdir"":4,""num_randdir_good_moves"":2,""num_whilered"":0,""num_whileblue"":0,""num_blue"":0,""num_good_moves"":5}","[300.22232142857143,294.12857142857143,0.3,301.22232142857143,291.12857142857143,102,301.22232142857143,291.12857142857143,207.6,304.22232142857143,298.12857142857143,313.2,338.22232142857143,342.12857142857143,415.1,438.22232142857143,468.12857142857143,516.8,505.22232142857143,521.1285714285714,628,516.2223214285714,530.1285714285714,728.9,517.2223214285714,532.1285714285714,831.4,523.2223214285714,534.1285714285714,936,530.2223214285714,536.1285714285714,1046.9,530.2223214285714,536.1285714285714,1150.7,441.22232142857143,551.1285714285714,1254.7,369.22232142857143,540.1285714285714,1358.4,336.22232142857143,530.1285714285714,1474.4,339.22232142857143,526.1285714285714,1579.1,340.22232142857143,525.1285714285714,1687.5,340.22232142857143,525.1285714285714,1789,340.22232142857143,525.1285714285714,1893.7,340.22232142857143,525.1285714285714,2003.2,340.22232142857143,525.1285714285714,2108.6,340.22232142857143,525.1285714285714,2225,340.22232142857143,525.1285714285714,2328.6,340.22232142857143,525.1285714285714,2432.4,340.22232142857143,525.1285714285714,2536.2,340.22232142857143,525.1285714285714,2637.1,340.22232142857143,525.1285714285714,2752.1,340.22232142857143,525.1285714285714,2861.3,340.22232142857143,525.1285714285714,2972,340.22232142857143,525.1285714285714,3083.6,340.22232142857143,525.1285714285714,3188,340.22232142857143,525.1285714285714,3307.3,340.22232142857143,525.1285714285714,3408,340.22232142857143,525.1285714285714,3525,340.22232142857143,525.1285714285714,3627.8,340.22232142857143,525.1285714285714,3736.9,340.22232142857143,525.1285714285714,3841.9,340.22232142857143,525.1285714285714,3952.7,340.22232142857143,525.1285714285714,4056.3,340.22232142857143,525.1285714285714,4156.7,340.22232142857143,525.1285714285714,4262.5,340.22232142857143,525.1285714285714,4368,340.22232142857143,525.1285714285714,4471.6,340.22232142857143,525.1285714285714,4574.2,340.22232142857143,525.1285714285714,4687,340.22232142857143,525.1285714285714,4787.5,340.22232142857143,525.1285714285714,4905.5]","[1608.6,1608.6,1000,0,608.6,""smooth"",""right"",""right"",""good_move"",5009.7,3400.6,2855.3,1609.2,545.3,""oops"",""right"",""left"",""bad_move"",7732.2,2722,2091.1,5010.3,630.8,""smooth"",""right"",""right"",""good_move"",11202.3,3469.7,2904.3,7732.6,565.4,""oops"",""right"",""up"",""bad_move"",14418,3213.7,2597.6,11204.3,616.1,""oops"",""down"",""down"",""good_move"",17744.9,3326.4,2834.9,14418.5,491.5,""smooth"",""down"",""down"",""good_move"",21145.1,3399.6,2913.9,17745.6,485.7,""oops"",""down"",""down"",""good_move""]","",""
"10569","","<div style=""width:500px;"">
  <p>What determined the result of this run?</p>
  </div>","42","html-slider-response","73","822325","0.0-10.0-1.5","203","1","2025-07-09 09:18:24","7701e855f2ef39aa3fd6c71abdc6918a","175.176.13.53","Mozilla/5.0 (Windows NT 10.0; Win64; x64) AppleWebKit/537.36 (KHTML, like Gecko) Chrome/138.0.0.0 Safari/537.36","WebKit","Chrome","138.0.0.0","Windows","10.0","https://app.prolific.com/","en-US,en;q=0.9","65f0831414fd6e9e51e08708","686d226cabeef709c732f8e1","686e31202692ec583bad8944","65f0831414fd6e9e51e08708","2025-07-09T09:32:11.278Z","","","","","","AttribQ","","","","","","","","","","","","","","","","","","","","","","","","","","","","","","","","","","","","","","50"
"3270","","<div style=""width:500px;"">
  <p>How much control did you have over the ball?</p>
  </div>","29","html-slider-response","74","825600","0.0-10.0-2.5","203","1","2025-07-09 09:18:24","7701e855f2ef39aa3fd6c71abdc6918a","175.176.13.53","Mozilla/5.0 (Windows NT 10.0; Win64; x64) AppleWebKit/537.36 (KHTML, like Gecko) Chrome/138.0.0.0 Safari/537.36","WebKit","Chrome","138.0.0.0","Windows","10.0","https://app.prolific.com/","en-US,en;q=0.9","65f0831414fd6e9e51e08708","686d226cabeef709c732f8e1","686e31202692ec583bad8944","65f0831414fd6e9e51e08708","2025-07-09T09:32:14.553Z","","","","","","ControlQ","","","","","","","","","","","","","","","","","","","","","","","","","","","","","","","","","","","","","","50"
"4326","","<div style=""width:500px;"">
  <p>How would you describe your current emotional state?</p>
  </div>","60","html-slider-response","75","829928","0.0-10.0-3.5","203","1","2025-07-09 09:18:24","7701e855f2ef39aa3fd6c71abdc6918a","175.176.13.53","Mozilla/5.0 (Windows NT 10.0; Win64; x64) AppleWebKit/537.36 (KHTML, like Gecko) Chrome/138.0.0.0 Safari/537.36","WebKit","Chrome","138.0.0.0","Windows","10.0","https://app.prolific.com/","en-US,en;q=0.9","65f0831414fd6e9e51e08708","686d226cabeef709c732f8e1","686e31202692ec583bad8944","65f0831414fd6e9e51e08708","2025-07-09T09:32:18.881Z","","","","","","StressQ","","","","","","","","","","","","","","","","","","","","","","","","","","","","","","","","","","","","","","50"
"3440","","<div style=""width:500px;"">
  <p>What best describes how you currently feel?</p>
  </div>","93","html-slider-response","76","833370","0.0-10.0-4.5","203","1","2025-07-09 09:18:24","7701e855f2ef39aa3fd6c71abdc6918a","175.176.13.53","Mozilla/5.0 (Windows NT 10.0; Win64; x64) AppleWebKit/537.36 (KHTML, like Gecko) Chrome/138.0.0.0 Safari/537.36","WebKit","Chrome","138.0.0.0","Windows","10.0","https://app.prolific.com/","en-US,en;q=0.9","65f0831414fd6e9e51e08708","686d226cabeef709c732f8e1","686e31202692ec583bad8944","65f0831414fd6e9e51e08708","2025-07-09T09:32:22.323Z","","","","","","MotivationQ","","","","","","","","","","","","","","","","","","","","","","","","","","","","","","","","","","","","","","50"
"","","","","ctl-task-cpt","77","862176","0.0-10.0-0.6","203","1","2025-07-09 09:18:24","7701e855f2ef39aa3fd6c71abdc6918a","175.176.13.53","Mozilla/5.0 (Windows NT 10.0; Win64; x64) AppleWebKit/537.36 (KHTML, like Gecko) Chrome/138.0.0.0 Safari/537.36","WebKit","Chrome","138.0.0.0","Windows","10.0","https://app.prolific.com/","en-US,en;q=0.9","65f0831414fd6e9e51e08708","686d226cabeef709c732f8e1","686e31202692ec583bad8944","65f0831414fd6e9e51e08708","2025-07-09T09:32:51.129Z","","","","","","","","","","","","","","","","win-only","3","g1:SW,g2:NE","0.4","7","0","838902.5","3027.2","8040.7","25786.6","1","4","4","6","1","1","1","3","2","0.022727272727272728","2061","3000","1445","[""down"",""left""]","{""num_key_presses"":4,""num_perfect"":2,""num_errors"":0,""num_randdir"":2,""num_randdir_good_moves"":2,""num_whilered"":0,""num_whileblue"":0,""num_blue"":2,""num_good_moves"":4}","[294.22232142857143,295.12857142857143,0.5,294.22232142857143,295.12857142857143,103.5,294.22232142857143,295.12857142857143,207.6,294.22232142857143,295.12857142857143,315.1,294.22232142857143,297.12857142857143,425.9,278.22232142857143,308.12857142857143,531,207.22232142857143,355.12857142857143,639.8,172.22232142857143,409.12857142857143,758.8,104.22232142857143,462.12857142857143,865.4,38.222321428571426,553.1285714285714,969.2,80.22232142857143,585.1285714285714,1073.5,386.22232142857143,278.12857142857143,1175.4,511.22232142857143,128.12857142857143,1278.7,298.22232142857143,323.12857142857143,1383.1,94.22232142857143,499.12857142857143,1484.4,4.222321428571426,584.1285714285714,1590.4,-11.777678571428574,609.1285714285714,1701.1,-3.7776785714285737,588.1285714285714,1813.6,18.222321428571426,570.1285714285714,1914,43.222321428571426,553.1285714285714,2014,44.222321428571426,551.1285714285714,2120.4,77.22232142857143,545.1285714285714,2223.4,274.22232142857143,583.1285714285714,2325.3,314.22232142857143,586.1285714285714,2443,275.22232142857143,541.1285714285714,2543,265.22232142857143,531.1285714285714,2645.7,251.22232142857143,508.12857142857143,2763.9,222.22232142857143,425.12857142857143,2865.6,219.22232142857143,408.12857142857143,2968.3,219.22232142857143,408.12857142857143,3068.9,219.22232142857143,476.12857142857143,3170.6,236.22232142857143,533.1285714285714,3275,258.22232142857143,623.1285714285714,3382.9,264.22232142857143,622.1285714285714,3489.2,264.22232142857143,622.1285714285714,3597.5,264.22232142857143,622.1285714285714,3703.6,264.22232142857143,622.1285714285714,3804.2,264.22232142857143,622.1285714285714,3904.4,264.22232142857143,622.1285714285714,4010.3,264.22232142857143,622.1285714285714,4111,264.22232142857143,622.1285714285714,4225.9,264.22232142857143,622.1285714285714,4330.2,264.22232142857143,622.1285714285714,4430.2,264.22232142857143,622.1285714285714,4549.5,264.22232142857143,622.1285714285714,4651.5,264.22232142857143,622.1285714285714,4754,264.22232142857143,622.1285714285714,4854.4,264.22232142857143,622.1285714285714,4954.7]","[1592.8,1592.8,1000,0,592.8,""smooth"",""down"",""down"",""good_move"",8608.8,7015.6,2455.3,5521.5,632,""oops"",""left"",""down"",""good_move"",14929.9,6320.7,2644.4,11731.2,554.3,""smooth"",""left"",""left"",""good_move"",17608.9,2678.4,2098.5,14930.5,579.9,""oops"",""left"",""left"",""good_move""]","",""
"2854","","<div style=""width:500px;"">
  <p>What determined the result of this run?</p>
  </div>","90","html-slider-response","78","865032","0.0-10.0-1.6","203","1","2025-07-09 09:18:24","7701e855f2ef39aa3fd6c71abdc6918a","175.176.13.53","Mozilla/5.0 (Windows NT 10.0; Win64; x64) AppleWebKit/537.36 (KHTML, like Gecko) Chrome/138.0.0.0 Safari/537.36","WebKit","Chrome","138.0.0.0","Windows","10.0","https://app.prolific.com/","en-US,en;q=0.9","65f0831414fd6e9e51e08708","686d226cabeef709c732f8e1","686e31202692ec583bad8944","65f0831414fd6e9e51e08708","2025-07-09T09:32:53.985Z","","","","","","AttribQ","","","","","","","","","","","","","","","","","","","","","","","","","","","","","","","","","","","","","","50"
"2900","","<div style=""width:500px;"">
  <p>How much control did you have over the ball?</p>
  </div>","90","html-slider-response","79","867934","0.0-10.0-2.6","203","1","2025-07-09 09:18:24","7701e855f2ef39aa3fd6c71abdc6918a","175.176.13.53","Mozilla/5.0 (Windows NT 10.0; Win64; x64) AppleWebKit/537.36 (KHTML, like Gecko) Chrome/138.0.0.0 Safari/537.36","WebKit","Chrome","138.0.0.0","Windows","10.0","https://app.prolific.com/","en-US,en;q=0.9","65f0831414fd6e9e51e08708","686d226cabeef709c732f8e1","686e31202692ec583bad8944","65f0831414fd6e9e51e08708","2025-07-09T09:32:56.887Z","","","","","","ControlQ","","","","","","","","","","","","","","","","","","","","","","","","","","","","","","","","","","","","","","50"
"3001","","<div style=""width:500px;"">
  <p>How would you describe your current emotional state?</p>
  </div>","1","html-slider-response","80","870936","0.0-10.0-3.6","203","1","2025-07-09 09:18:24","7701e855f2ef39aa3fd6c71abdc6918a","175.176.13.53","Mozilla/5.0 (Windows NT 10.0; Win64; x64) AppleWebKit/537.36 (KHTML, like Gecko) Chrome/138.0.0.0 Safari/537.36","WebKit","Chrome","138.0.0.0","Windows","10.0","https://app.prolific.com/","en-US,en;q=0.9","65f0831414fd6e9e51e08708","686d226cabeef709c732f8e1","686e31202692ec583bad8944","65f0831414fd6e9e51e08708","2025-07-09T09:32:59.890Z","","","","","","StressQ","","","","","","","","","","","","","","","","","","","","","","","","","","","","","","","","","","","","","","50"
"2140","","<div style=""width:500px;"">
  <p>What best describes how you currently feel?</p>
  </div>","100","html-slider-response","81","873079","0.0-10.0-4.6","203","1","2025-07-09 09:18:24","7701e855f2ef39aa3fd6c71abdc6918a","175.176.13.53","Mozilla/5.0 (Windows NT 10.0; Win64; x64) AppleWebKit/537.36 (KHTML, like Gecko) Chrome/138.0.0.0 Safari/537.36","WebKit","Chrome","138.0.0.0","Windows","10.0","https://app.prolific.com/","en-US,en;q=0.9","65f0831414fd6e9e51e08708","686d226cabeef709c732f8e1","686e31202692ec583bad8944","65f0831414fd6e9e51e08708","2025-07-09T09:33:02.032Z","","","","","","MotivationQ","","","","","","","","","","","","","","","","","","","","","","","","","","","","","","","","","","","","","","50"
"","","","","ctl-task-cpt","82","909839","0.0-10.0-0.7","203","1","2025-07-09 09:18:24","7701e855f2ef39aa3fd6c71abdc6918a","175.176.13.53","Mozilla/5.0 (Windows NT 10.0; Win64; x64) AppleWebKit/537.36 (KHTML, like Gecko) Chrome/138.0.0.0 Safari/537.36","WebKit","Chrome","138.0.0.0","Windows","10.0","https://app.prolific.com/","en-US,en;q=0.9","65f0831414fd6e9e51e08708","686d226cabeef709c732f8e1","686e31202692ec583bad8944","65f0831414fd6e9e51e08708","2025-07-09T09:33:38.792Z","","","","","","","","","","","","","","","","win-only","0","g1:NW,g2:SE","0.3","8","0","878611.4","4551","9564","33719.5","1","4","8","6","1","-1","-2","1","3","0.007575757575757576","1454.8","3000","-1945","[""left"",""up""]","{""num_key_presses"":7,""num_perfect"":1,""num_errors"":1,""num_randdir"":5,""num_randdir_good_moves"":1,""num_whilered"":0,""num_whileblue"":0,""num_blue"":0,""num_good_moves"":2}","[293.22232142857143,298.12857142857143,0.4,293.22232142857143,298.12857142857143,112.2,298.22232142857143,306.12857142857143,227.1,331.22232142857143,331.12857142857143,329.3,326.22232142857143,338.12857142857143,430.2,301.22232142857143,352.12857142857143,535.8,299.22232142857143,352.12857142857143,661.5,289.22232142857143,345.12857142857143,776.7,204.22232142857143,286.12857142857143,879.7,174.22232142857143,233.12857142857143,995.2,79.22232142857143,127.12857142857143,1099.8,47.222321428571426,79.12857142857143,1211.5,45.222321428571426,73.12857142857143,1313.1,45.222321428571426,69.12857142857143,1414.6,45.222321428571426,69.12857142857143,1515.2,51.222321428571426,68.12857142857143,1623.3,217.22232142857143,123.12857142857143,1731,389.22232142857143,216.12857142857143,1833,413.22232142857143,263.12857142857143,1948.5,374.22232142857143,273.12857142857143,2061.9,337.22232142857143,252.12857142857143,2166,330.22232142857143,250.12857142857143,2270.4,282.22232142857143,253.12857142857143,2383.1,270.22232142857143,254.12857142857143,2484,269.22232142857143,254.12857142857143,2597.5,267.22232142857143,254.12857142857143,2704,267.22232142857143,254.12857142857143,2805,267.22232142857143,254.12857142857143,2905.3,267.22232142857143,254.12857142857143,3012.8,267.22232142857143,254.12857142857143,3121.4,267.22232142857143,254.12857142857143,3251.3,267.22232142857143,254.12857142857143,3358.6,267.22232142857143,254.12857142857143,3459.8,267.22232142857143,254.12857142857143,3560.7,267.22232142857143,254.12857142857143,3663.4,267.22232142857143,254.12857142857143,3764.7,267.22232142857143,254.12857142857143,3866.7,267.22232142857143,254.12857142857143,3970.5,267.22232142857143,254.12857142857143,4070.5,267.22232142857143,254.12857142857143,4178.4,267.22232142857143,254.12857142857143,4279.9,267.22232142857143,254.12857142857143,4386.5,267.22232142857143,254.12857142857143,4504.3,267.22232142857143,254.12857142857143,4609.7,267.22232142857143,254.12857142857143,4713.9,267.22232142857143,254.12857142857143,4817,267.22232142857143,254.12857142857143,4918.1]","[1610.4,1610.4,1000,0,610.4,""smooth"",""up"",""up"",""good_move"",5697.2,4085.2,2855.9,1612.1,1229.3,""oops"",""left"",""right"",""bad_move"",9432.9,3733.7,2787.7,5699.3,946,""oops"",""up"",""down"",""bad_move"",12360.3,2926.5,2298.8,9433.8,627.7,""oops"",""down"",""down"",""bad_move"",14969.3,2608.4,1978.3,12360.9,630.2,""oops"",""up"",""right"",""bad_move"",16458.5,1488.4,2683.3,14970.1,-1194.9,""error"",""-"",""-"",""no_move"",21208.6,4749.3,2952.5,17461.3,794.8,""oops"",""left"",""left"",""good_move""]","",""
"4120","","<div style=""width:500px;"">
  <p>What determined the result of this run?</p>
  </div>","92","html-slider-response","83","913960","0.0-10.0-1.7","203","1","2025-07-09 09:18:24","7701e855f2ef39aa3fd6c71abdc6918a","175.176.13.53","Mozilla/5.0 (Windows NT 10.0; Win64; x64) AppleWebKit/537.36 (KHTML, like Gecko) Chrome/138.0.0.0 Safari/537.36","WebKit","Chrome","138.0.0.0","Windows","10.0","https://app.prolific.com/","en-US,en;q=0.9","65f0831414fd6e9e51e08708","686d226cabeef709c732f8e1","686e31202692ec583bad8944","65f0831414fd6e9e51e08708","2025-07-09T09:33:42.913Z","","","","","","AttribQ","","","","","","","","","","","","","","","","","","","","","","","","","","","","","","","","","","","","","","50"
"4285","","<div style=""width:500px;"">
  <p>How much control did you have over the ball?</p>
  </div>","30","html-slider-response","84","918248","0.0-10.0-2.7","203","1","2025-07-09 09:18:24","7701e855f2ef39aa3fd6c71abdc6918a","175.176.13.53","Mozilla/5.0 (Windows NT 10.0; Win64; x64) AppleWebKit/537.36 (KHTML, like Gecko) Chrome/138.0.0.0 Safari/537.36","WebKit","Chrome","138.0.0.0","Windows","10.0","https://app.prolific.com/","en-US,en;q=0.9","65f0831414fd6e9e51e08708","686d226cabeef709c732f8e1","686e31202692ec583bad8944","65f0831414fd6e9e51e08708","2025-07-09T09:33:47.201Z","","","","","","ControlQ","","","","","","","","","","","","","","","","","","","","","","","","","","","","","","","","","","","","","","50"
"3140","","<div style=""width:500px;"">
  <p>How would you describe your current emotional state?</p>
  </div>","16","html-slider-response","85","921389","0.0-10.0-3.7","203","1","2025-07-09 09:18:24","7701e855f2ef39aa3fd6c71abdc6918a","175.176.13.53","Mozilla/5.0 (Windows NT 10.0; Win64; x64) AppleWebKit/537.36 (KHTML, like Gecko) Chrome/138.0.0.0 Safari/537.36","WebKit","Chrome","138.0.0.0","Windows","10.0","https://app.prolific.com/","en-US,en;q=0.9","65f0831414fd6e9e51e08708","686d226cabeef709c732f8e1","686e31202692ec583bad8944","65f0831414fd6e9e51e08708","2025-07-09T09:33:50.343Z","","","","","","StressQ","","","","","","","","","","","","","","","","","","","","","","","","","","","","","","","","","","","","","","50"
"2652","","<div style=""width:500px;"">
  <p>What best describes how you currently feel?</p>
  </div>","99","html-slider-response","86","924044","0.0-10.0-4.7","203","1","2025-07-09 09:18:24","7701e855f2ef39aa3fd6c71abdc6918a","175.176.13.53","Mozilla/5.0 (Windows NT 10.0; Win64; x64) AppleWebKit/537.36 (KHTML, like Gecko) Chrome/138.0.0.0 Safari/537.36","WebKit","Chrome","138.0.0.0","Windows","10.0","https://app.prolific.com/","en-US,en;q=0.9","65f0831414fd6e9e51e08708","686d226cabeef709c732f8e1","686e31202692ec583bad8944","65f0831414fd6e9e51e08708","2025-07-09T09:33:52.997Z","","","","","","MotivationQ","","","","","","","","","","","","","","","","","","","","","","","","","","","","","","","","","","","","","","50"
"","","","","ctl-task-cpt","87","961322","0.0-10.0-0.8","203","1","2025-07-09 09:18:24","7701e855f2ef39aa3fd6c71abdc6918a","175.176.13.53","Mozilla/5.0 (Windows NT 10.0; Win64; x64) AppleWebKit/537.36 (KHTML, like Gecko) Chrome/138.0.0.0 Safari/537.36","WebKit","Chrome","138.0.0.0","Windows","10.0","https://app.prolific.com/","en-US,en;q=0.9","65f0831414fd6e9e51e08708","686d226cabeef709c732f8e1","686e31202692ec583bad8944","65f0831414fd6e9e51e08708","2025-07-09T09:34:30.275Z","","","","","","","","","","","","","","","","win-only","1","g1:NE,g2:SW","0.2","9","0","929576.5","10978.5","15992.7","34253.2","1","4","4","6","1","1","1","2","1","0.015151515151515152","1230.3","3000","1560","[""up"",""right""]","{""num_key_presses"":4,""num_perfect"":1,""num_errors"":0,""num_randdir"":3,""num_randdir_good_moves"":3,""num_whilered"":0,""num_whileblue"":0,""num_blue"":2,""num_good_moves"":4}","[294.22232142857143,300.12857142857143,0.4,294.22232142857143,300.12857142857143,121.4,294.22232142857143,300.12857142857143,240.9,296.22232142857143,299.12857142857143,342.5,303.22232142857143,302.12857142857143,444.5,308.22232142857143,302.12857142857143,563.4,333.22232142857143,291.12857142857143,664.5,376.22232142857143,253.12857142857143,776.4,489.22232142857143,157.12857142857143,878.5,576.2223214285714,70.12857142857143,992.9,584.2223214285714,52.128571428571426,1095.6,584.2223214285714,49.128571428571426,1196.7,585.2223214285714,48.128571428571426,1300,556.2223214285714,57.128571428571426,1428.3,467.22232142857143,201.12857142857143,1548.7,438.22232142857143,237.12857142857143,1649.2,438.22232142857143,237.12857142857143,1751.1,448.22232142857143,220.12857142857143,1884.8,451.22232142857143,219.12857142857143,1990.9,448.22232142857143,218.12857142857143,2093.5,416.22232142857143,214.12857142857143,2194.3,398.22232142857143,202.12857142857143,2298.7,359.22232142857143,182.12857142857143,2408.7,353.22232142857143,176.12857142857143,2513,364.22232142857143,175.12857142857143,2615.9,426.22232142857143,181.12857142857143,2717.8,568.2223214285714,327.12857142857143,2821.5,594.2223214285714,408.12857142857143,2922.1,594.2223214285714,408.12857142857143,3022.6,594.2223214285714,408.12857142857143,3123.8,594.2223214285714,408.12857142857143,3227.9,594.2223214285714,408.12857142857143,3328.7,594.2223214285714,408.12857142857143,3435.8,594.2223214285714,408.12857142857143,3539.2,594.2223214285714,408.12857142857143,3642.6,594.2223214285714,408.12857142857143,3743.1,594.2223214285714,408.12857142857143,3847.8,594.2223214285714,408.12857142857143,3951.4,594.2223214285714,408.12857142857143,4059.1,594.2223214285714,408.12857142857143,4163.7,594.2223214285714,408.12857142857143,4279.4,594.2223214285714,408.12857142857143,4387.2,594.2223214285714,408.12857142857143,4487.8,594.2223214285714,408.12857142857143,4607.1,594.2223214285714,408.12857142857143,4722.1,594.2223214285714,408.12857142857143,4836.9,594.2223214285714,408.12857142857143,4939.2]","[1767.1,1767.1,1000,0,767.1,""oops"",""up"",""right"",""good_move"",8829.5,7061,2665.4,5556.6,607.6,""oops"",""up"",""up"",""good_move"",15294.4,6464.1,2191.7,12583.5,519.2,""smooth"",""up"",""up"",""good_move"",18070.3,2775.6,2073.8,15294.8,701.8,""oops"",""right"",""right"",""good_move""]","",""
"2388","","<div style=""width:500px;"">
  <p>What determined the result of this run?</p>
  </div>","100","html-slider-response","88","963712","0.0-10.0-1.8","203","1","2025-07-09 09:18:24","7701e855f2ef39aa3fd6c71abdc6918a","175.176.13.53","Mozilla/5.0 (Windows NT 10.0; Win64; x64) AppleWebKit/537.36 (KHTML, like Gecko) Chrome/138.0.0.0 Safari/537.36","WebKit","Chrome","138.0.0.0","Windows","10.0","https://app.prolific.com/","en-US,en;q=0.9","65f0831414fd6e9e51e08708","686d226cabeef709c732f8e1","686e31202692ec583bad8944","65f0831414fd6e9e51e08708","2025-07-09T09:34:32.665Z","","","","","","AttribQ","","","","","","","","","","","","","","","","","","","","","","","","","","","","","","","","","","","","","","50"
"3405","","<div style=""width:500px;"">
  <p>How much control did you have over the ball?</p>
