"rt","response_timestamp","stimulus","response","trial_type","trial_index","time_elapsed","internal_node_id","run_id","condition","recorded_at","source_code_version","ip","user_agent","device","browser","browser_version","platform","platform_version","referer","accept_language","PROLIFIC_PID","STUDY_ID","SESSION_ID","prolific_id","realtime","view_history","question_order","consent","success","question_id","eventType","responses","item_order","radio_event_ids","radio_event_times","key_event_times","mouse_event_times","straightlining","zigzagging","honeypot","which_type","canvas_config","goals_layout","control_level","trial_number","tutorial_trial_number","trial_start_time","phase1_start_time","phase2_start_time","phase3_start_time","goal_1_value","goal_1_distance","goal_2_value","goal_2_distance","goal_selected","outcome","outcome_total","participant_final_score","participant_initial_score","participant_final_score_prop","goal_choice_rt","allocated_time","allocated_time_remaining","goal_direction","counts","mouse_movements","key_presses","correct","slider_start","sub_question"
"10242","1752052197114","<p style='font-size:40px;line-height:1.25'><strong>Welcome to the experiment!</strong></p><p style='font-size:1.1em;line-height:1.25'>Thank you for your interest in our experiment! Before you begin, it is important that we obtain your informed consent to participate in the study.</p><p style='font-size:1.1em;line-height:1.25'>On the next screen will be an <strong>information sheet</strong> for you to read. To participate in the study we need you to read this information sheet and the following consent form carefully. If you agree with all the statements, please click the <strong>I agree</strong> button.</p><p style='font-size:1.1em;line-height:1.25'>Press <strong>Next</strong> to read the information sheet.</p>","0","custom-html-button-response","0","10251","0.0-0.0","152","1","2025-07-09 09:09:43","7701e855f2ef39aa3fd6c71abdc6918a","41.145.193.111","Mozilla/5.0 (Windows NT 10.0; Win64; x64) AppleWebKit/537.36 (KHTML, like Gecko) Chrome/138.0.0.0 Safari/537.36","WebKit","Chrome","138.0.0.0","Windows","10.0","https://app.prolific.com/","en-GB,en;q=0.6","67d057fe81435b77cf5a4681","686d226cabeef709c732f8e1","686e3128ce032deca990cbc4","67d057fe81435b77cf5a4681","2025-07-09T09:09:57.118Z","","","","","","","","","","","","","","","","","","","","","","","","","","","","","","","","","","","","","","","","","","","","",""
"12785","","","","instructions","1","23042","0.0-1.0","152","1","2025-07-09 09:09:43","7701e855f2ef39aa3fd6c71abdc6918a","41.145.193.111","Mozilla/5.0 (Windows NT 10.0; Win64; x64) AppleWebKit/537.36 (KHTML, like Gecko) Chrome/138.0.0.0 Safari/537.36","WebKit","Chrome","138.0.0.0","Windows","10.0","https://app.prolific.com/","en-GB,en;q=0.6","67d057fe81435b77cf5a4681","686d226cabeef709c732f8e1","686e3128ce032deca990cbc4","67d057fe81435b77cf5a4681","","[{""page_index"":0,""viewing_time"":7134},{""page_index"":1,""viewing_time"":5650}]","","","","","","","","","","","","","","","","","","","","","","","","","","","","","","","","","","","","","","","","","","","",""
"24878","","","{""Q0"":"""",""Q1"":"""",""Q2"":"""",""Q3"":"""",""Q4"":"""",""Q5"":"""",""Q6"":""I agree""}","survey-multi-choice","2","47928","0.0-2.0","152","1","2025-07-09 09:09:43","7701e855f2ef39aa3fd6c71abdc6918a","41.145.193.111","Mozilla/5.0 (Windows NT 10.0; Win64; x64) AppleWebKit/537.36 (KHTML, like Gecko) Chrome/138.0.0.0 Safari/537.36","WebKit","Chrome","138.0.0.0","Windows","10.0","https://app.prolific.com/","en-GB,en;q=0.6","67d057fe81435b77cf5a4681","686d226cabeef709c732f8e1","686e3128ce032deca990cbc4","67d057fe81435b77cf5a4681","","","[0,1,2,3,4,5,6]","true","","","","","","","","","","","","","","","","","","","","","","","","","","","","","","","","","","","","","","","","","",""
"51248","","","","fullscreen","3","100192","0.0-4.0","152","1","2025-07-09 09:09:43","7701e855f2ef39aa3fd6c71abdc6918a","41.145.193.111","Mozilla/5.0 (Windows NT 10.0; Win64; x64) AppleWebKit/537.36 (KHTML, like Gecko) Chrome/138.0.0.0 Safari/537.36","WebKit","Chrome","138.0.0.0","Windows","10.0","https://app.prolific.com/","en-GB,en;q=0.6","67d057fe81435b77cf5a4681","686d226cabeef709c732f8e1","686e3128ce032deca990cbc4","67d057fe81435b77cf5a4681","","","","","true","","","","","","","","","","","","","","","","","","","","","","","","","","","","","","","","","","","","","","","","",""
"10929","1752052297989"," <p style='font-size:1.1em;line-height:1.25'>Thank you for completing the consent form and closing all other tabs.</p><p style='font-size:1.1em;line-height:1.25'>We will now invite you to fill in some demographic information and questionnaires, before starting the game.<br>This will take about 5 minutes.<br></p><p style='font-size:1.1em;line-height:1.25'>Press the <strong>Next</strong> button to continue.</p>","0","custom-html-button-response","4","111123","0.0-5.0","152","1","2025-07-09 09:09:43","7701e855f2ef39aa3fd6c71abdc6918a","41.145.193.111","Mozilla/5.0 (Windows NT 10.0; Win64; x64) AppleWebKit/537.36 (KHTML, like Gecko) Chrome/138.0.0.0 Safari/537.36","WebKit","Chrome","138.0.0.0","Windows","10.0","https://app.prolific.com/","en-GB,en;q=0.6","67d057fe81435b77cf5a4681","686d226cabeef709c732f8e1","686e3128ce032deca990cbc4","67d057fe81435b77cf5a4681","2025-07-09T09:11:37.990Z","","","","","","","","","","","","","","","","","","","","","","","","","","","","","","","","","","","","","","","","","","","","",""
"5766","","","{""age"":""19""}","survey-text","5","116895","0.0-6.0-0.0","152","1","2025-07-09 09:09:43","7701e855f2ef39aa3fd6c71abdc6918a","41.145.193.111","Mozilla/5.0 (Windows NT 10.0; Win64; x64) AppleWebKit/537.36 (KHTML, like Gecko) Chrome/138.0.0.0 Safari/537.36","WebKit","Chrome","138.0.0.0","Windows","10.0","https://app.prolific.com/","en-GB,en;q=0.6","67d057fe81435b77cf5a4681","686d226cabeef709c732f8e1","686e3128ce032deca990cbc4","67d057fe81435b77cf5a4681","","","","","","0","demographics","","","","","","","","","","","","","","","","","","","","","","","","","","","","","","","","","","","","","","",""
"5688","","","{""gender_identity"":""female/woman""}","survey-multi-choice","6","122585","0.0-6.0-1.0","152","1","2025-07-09 09:09:43","7701e855f2ef39aa3fd6c71abdc6918a","41.145.193.111","Mozilla/5.0 (Windows NT 10.0; Win64; x64) AppleWebKit/537.36 (KHTML, like Gecko) Chrome/138.0.0.0 Safari/537.36","WebKit","Chrome","138.0.0.0","Windows","10.0","https://app.prolific.com/","en-GB,en;q=0.6","67d057fe81435b77cf5a4681","686d226cabeef709c732f8e1","686e3128ce032deca990cbc4","67d057fe81435b77cf5a4681","","","[0]","","","1","demographics","","","","","","","","","","","","","","","","","","","","","","","","","","","","","","","","","","","","","","",""
"5479","","","{""assigned_sex"":""female""}","survey-multi-choice","7","128068","0.0-6.0-2.0","152","1","2025-07-09 09:09:43","7701e855f2ef39aa3fd6c71abdc6918a","41.145.193.111","Mozilla/5.0 (Windows NT 10.0; Win64; x64) AppleWebKit/537.36 (KHTML, like Gecko) Chrome/138.0.0.0 Safari/537.36","WebKit","Chrome","138.0.0.0","Windows","10.0","https://app.prolific.com/","en-GB,en;q=0.6","67d057fe81435b77cf5a4681","686d226cabeef709c732f8e1","686e3128ce032deca990cbc4","67d057fe81435b77cf5a4681","","","[0]","","","2","demographics","","","","","","","","","","","","","","","","","","","","","","","","","","","","","","","","","","","","","","",""
"6450","","","{""menstrual_cycle"":""Yes""}","survey-multi-choice","8","134520","0.0-6.0-3.0","152","1","2025-07-09 09:09:43","7701e855f2ef39aa3fd6c71abdc6918a","41.145.193.111","Mozilla/5.0 (Windows NT 10.0; Win64; x64) AppleWebKit/537.36 (KHTML, like Gecko) Chrome/138.0.0.0 Safari/537.36","WebKit","Chrome","138.0.0.0","Windows","10.0","https://app.prolific.com/","en-GB,en;q=0.6","67d057fe81435b77cf5a4681","686d226cabeef709c732f8e1","686e3128ce032deca990cbc4","67d057fe81435b77cf5a4681","","","[0]","","","4","demographics","","","","","","","","","","","","","","","","","","","","","","","","","","","","","","","","","","","","","","",""
"7990","","","{""education"":""Bachelor's Degree (e.g., BA)""}","survey-multi-choice","9","142513","0.0-6.0-4.0","152","1","2025-07-09 09:09:43","7701e855f2ef39aa3fd6c71abdc6918a","41.145.193.111","Mozilla/5.0 (Windows NT 10.0; Win64; x64) AppleWebKit/537.36 (KHTML, like Gecko) Chrome/138.0.0.0 Safari/537.36","WebKit","Chrome","138.0.0.0","Windows","10.0","https://app.prolific.com/","en-GB,en;q=0.6","67d057fe81435b77cf5a4681","686d226cabeef709c732f8e1","686e3128ce032deca990cbc4","67d057fe81435b77cf5a4681","","","[0]","","","5","demographics","","","","","","","","","","","","","","","","","","","","","","","","","","","","","","","","","","","","","","",""
"9438","","","{""education"":""Master's Degree (e.g., MSc)""}","survey-multi-choice","10","151953","0.0-6.0-5.0","152","1","2025-07-09 09:09:43","7701e855f2ef39aa3fd6c71abdc6918a","41.145.193.111","Mozilla/5.0 (Windows NT 10.0; Win64; x64) AppleWebKit/537.36 (KHTML, like Gecko) Chrome/138.0.0.0 Safari/537.36","WebKit","Chrome","138.0.0.0","Windows","10.0","https://app.prolific.com/","en-GB,en;q=0.6","67d057fe81435b77cf5a4681","686d226cabeef709c732f8e1","686e3128ce032deca990cbc4","67d057fe81435b77cf5a4681","2025-07-09T09:12:18.819Z","","[0]","","","6","demographics","","","","","","","","","","","","","","","","","","","","","","","","","","","","","","","","","","","","","","",""
"47611","","","{""mental_health_condition"":""no"",""mental_health_treatment"":""no"",""psychiatric_medication"":""no""}","survey-text","11","199568","0.0-7.0-0.0","152","1","2025-07-09 09:09:43","7701e855f2ef39aa3fd6c71abdc6918a","41.145.193.111","Mozilla/5.0 (Windows NT 10.0; Win64; x64) AppleWebKit/537.36 (KHTML, like Gecko) Chrome/138.0.0.0 Safari/537.36","WebKit","Chrome","138.0.0.0","Windows","10.0","https://app.prolific.com/","en-GB,en;q=0.6","67d057fe81435b77cf5a4681","686d226cabeef709c732f8e1","686e3128ce032deca990cbc4","67d057fe81435b77cf5a4681","2025-07-09T09:13:06.434Z","","","","","1","mental_health","","","","","","","","","","","","","","","","","","","","","","","","","","","","","","","","","","","","","","",""
"9636","","","{""depression_history"":[""Yes""]}","survey-multi-select","12","209209","0.0-7.0-1.0","152","1","2025-07-09 09:09:43","7701e855f2ef39aa3fd6c71abdc6918a","41.145.193.111","Mozilla/5.0 (Windows NT 10.0; Win64; x64) AppleWebKit/537.36 (KHTML, like Gecko) Chrome/138.0.0.0 Safari/537.36","WebKit","Chrome","138.0.0.0","Windows","10.0","https://app.prolific.com/","en-GB,en;q=0.6","67d057fe81435b77cf5a4681","686d226cabeef709c732f8e1","686e3128ce032deca990cbc4","67d057fe81435b77cf5a4681","","","[0]","","","","mental_health","","","","","","","","","","","","","","","","","","","","","","","","","","","","","","","","","","","","","","",""
"13890","","","{""depression_episodes"":""1-2"",""depression_recent"":""Within the past year""}","survey-multi-choice","13","223103","0.0-7.0-2.0-0.0","152","1","2025-07-09 09:09:43","7701e855f2ef39aa3fd6c71abdc6918a","41.145.193.111","Mozilla/5.0 (Windows NT 10.0; Win64; x64) AppleWebKit/537.36 (KHTML, like Gecko) Chrome/138.0.0.0 Safari/537.36","WebKit","Chrome","138.0.0.0","Windows","10.0","https://app.prolific.com/","en-GB,en;q=0.6","67d057fe81435b77cf5a4681","686d226cabeef709c732f8e1","686e3128ce032deca990cbc4","67d057fe81435b77cf5a4681","2025-07-09T09:13:29.969Z","","[0,1]","","","3","mental_health","","","","","","","","","","","","","","","","","","","","","","","","","","","","","","","","","","","","","","",""
"135286.80000001192","","","","survey-template","14","358399","0.0-7.0-3.0","152","1","2025-07-09 09:09:43","7701e855f2ef39aa3fd6c71abdc6918a","41.145.193.111","Mozilla/5.0 (Windows NT 10.0; Win64; x64) AppleWebKit/537.36 (KHTML, like Gecko) Chrome/138.0.0.0 Safari/537.36","WebKit","Chrome","138.0.0.0","Windows","10.0","https://app.prolific.com/","en-GB,en;q=0.6","67d057fe81435b77cf5a4681","686d226cabeef709c732f8e1","686e3128ce032deca990cbc4","67d057fe81435b77cf5a4681","2025-07-09T09:15:45.265Z","","","","","","ius","{""Q01"":""2"",""Q02"":""2"",""Q03"":""1"",""Q04"":""2"",""Q05"":""1"",""Q06"":""2"",""Q07"":""1"",""Q08"":""0"",""Q09"":""4"",""Q10"":""2"",""Q11"":""1"",""Q12"":""2"",""Q13"":""2""}","[0,1,2,3,4,5,6,7,8,9,10,11,12]","[""Q01"",""Q02"",""Q03"",""Q04"",""Q05"",""Q06"",""Q07"",""Q08"",""Q09"",""Q10"",""Q11"",""Q12"",""Q13""]","[29909.5,32175.30000001192,36498.80000001192,40384.10000002384,47753.69999998808,52378.5,66760.10000002384,78565.5,87906.10000002384,105782.69999998808,111600.69999998808,129790.5,133858.19999998808]","[]","[29909.5,32175.30000001192,36498.80000001192,40384.10000002384,47753.69999998808,52378.5,66760.10000002384,78565.5,87906.10000002384,102207.60000002384,105782.69999998808,111600.69999998808,129790.5,133858.19999998808,135283]","0.5384615384615384","0.75","0","","","","","","","","","","","","","","","","","","","","","","","","","","","","","",""
"3237","1752052548505","<p style='font-size:1.1em;line-height:1.25'>In the following, we will ask you a few questions relating to your experiences over the past month.<br></p><p style='font-size:1.1em;line-height:1.25'>Press the <strong>Next</strong> button to continue.</p>","0","custom-html-button-response","15","361639","0.0-7.0-4.0","152","1","2025-07-09 09:09:43","7701e855f2ef39aa3fd6c71abdc6918a","41.145.193.111","Mozilla/5.0 (Windows NT 10.0; Win64; x64) AppleWebKit/537.36 (KHTML, like Gecko) Chrome/138.0.0.0 Safari/537.36","WebKit","Chrome","138.0.0.0","Windows","10.0","https://app.prolific.com/","en-GB,en;q=0.6","67d057fe81435b77cf5a4681","686d226cabeef709c732f8e1","686e3128ce032deca990cbc4","67d057fe81435b77cf5a4681","2025-07-09T09:15:48.506Z","","","","","","","","","","","","","","","","","","","","","","","","","","","","","","","","","","","","","","","","","","","","",""
"66457.39999997616","","","","survey-template","16","428114","0.0-7.0-5.0","152","1","2025-07-09 09:09:43","7701e855f2ef39aa3fd6c71abdc6918a","41.145.193.111","Mozilla/5.0 (Windows NT 10.0; Win64; x64) AppleWebKit/537.36 (KHTML, like Gecko) Chrome/138.0.0.0 Safari/537.36","WebKit","Chrome","138.0.0.0","Windows","10.0","https://app.prolific.com/","en-GB,en;q=0.6","67d057fe81435b77cf5a4681","686d226cabeef709c732f8e1","686e3128ce032deca990cbc4","67d057fe81435b77cf5a4681","2025-07-09T09:16:54.980Z","","","","","","pss","{""Q01"":""2"",""Q02"":""2"",""Q03"":""1"",""Q04"":""2"",""Q05"":""2"",""Q06"":""2"",""Q07"":""2"",""Q08"":""2"",""Q09"":""2"",""Q10"":""2""}","[0,1,2,3,4,5,6,7,8,9]","[""Q01"",""Q03"",""Q02"",""Q04"",""Q05"",""Q06"",""Q07"",""Q08"",""Q09"",""Q10""]","[11583.599999964237,15992.099999964237,17195.69999998808,26698.69999998808,30931.69999998808,39963.5,48082,57513.5,60606.80000001192,62429.30000001192]","[]","[1.399999976158142,11583.599999964237,13787.300000011921,15992.099999964237,17195.69999998808,26698.69999998808,30931.69999998808,39963.5,48082,57513.5,60606.80000001192,62429.30000001192,66454.39999997616]","0.9","0.2222222222222222","0","","","","","","","","","","","","","","","","","","","","","","","","","","","","","",""
"5283","1752052620265","<p style='font-size:1.1em;line-height:1.25'>Thank you for your answers! Now we will ask you a few more questions relating to your feelings in the last 24 hours.<br></p><p style='font-size:1.1em;line-height:1.25'>Press the <strong>Next</strong> button to continue.</p>","0","custom-html-button-response","17","433399","0.0-7.0-6.0","152","1","2025-07-09 09:09:43","7701e855f2ef39aa3fd6c71abdc6918a","41.145.193.111","Mozilla/5.0 (Windows NT 10.0; Win64; x64) AppleWebKit/537.36 (KHTML, like Gecko) Chrome/138.0.0.0 Safari/537.36","WebKit","Chrome","138.0.0.0","Windows","10.0","https://app.prolific.com/","en-GB,en;q=0.6","67d057fe81435b77cf5a4681","686d226cabeef709c732f8e1","686e3128ce032deca990cbc4","67d057fe81435b77cf5a4681","2025-07-09T09:17:00.266Z","","","","","","","","","","","","","","","","","","","","","","","","","","","","","","","","","","","","","","","","","","","","",""
"88721.10000002384","","","","survey-template","18","522127","0.0-7.0-7.0","152","1","2025-07-09 09:09:43","7701e855f2ef39aa3fd6c71abdc6918a","41.145.193.111","Mozilla/5.0 (Windows NT 10.0; Win64; x64) AppleWebKit/537.36 (KHTML, like Gecko) Chrome/138.0.0.0 Safari/537.36","WebKit","Chrome","138.0.0.0","Windows","10.0","https://app.prolific.com/","en-GB,en;q=0.6","67d057fe81435b77cf5a4681","686d226cabeef709c732f8e1","686e3128ce032deca990cbc4","67d057fe81435b77cf5a4681","2025-07-09T09:18:28.993Z","","","","","","drsp","{""Q01"":""2"",""Q02"":""2"",""Q03"":""2"",""Q04"":""1"",""Q05"":""3"",""Q06"":""2"",""Q07"":""1"",""Q08"":""1"",""Q09"":""2"",""Q10"":""1"",""Q11"":""2"",""Q12"":""3"",""Q13"":""2"",""Q14"":""1"",""Q15"":""1"",""Q16"":""1"",""Q17"":""1"",""Q18"":""1"",""Q19"":""1"",""Q20"":""1"",""Q21"":""2""}","[0,1,2,3,4,5,6,7,8,9,10,11,12,13,14,15,16,17,18,19,20]","[""Q01"",""Q02"",""Q03"",""Q04"",""Q05"",""Q06"",""Q07"",""Q08"",""Q09"",""Q10"",""Q11"",""Q12"",""Q13"",""Q14"",""Q16"",""Q15"",""Q17"",""Q18"",""Q19"",""Q20"",""Q21""]","[4729.300000011921,7788,9646.5,12692.400000035763,15182.400000035763,17580.200000047684,19429.200000047684,27881,30919.5,33024.90000003576,35931.5,47764.40000003576,49732.40000003576,56848.90000003576,68598.90000003576,70228.30000001192,77323.20000004768,79548.10000002384,80864.90000003576,85610.30000001192,87426.10000002384]","[]","[2.300000011920929,4729.300000011921,7788,9646.5,12692.400000035763,15182.400000035763,17580.200000047684,19429.200000047684,27881,30919.5,33024.90000003576,35931.5,47764.40000003576,49732.40000003576,56848.90000003576,67359.40000003576,68598.90000003576,70228.30000001192,77323.20000004768,79548.10000002384,80864.90000003576,85610.30000001192,87426.10000002384,88715.60000002384]","0.5238095238095238","0.5","0","","","","","","","","","","","","","","","","","","","","","","","","","","","","","",""
"13377.300000011921","","","","survey-template","19","535508","0.0-7.0-8.0","152","1","2025-07-09 09:09:43","7701e855f2ef39aa3fd6c71abdc6918a","41.145.193.111","Mozilla/5.0 (Windows NT 10.0; Win64; x64) AppleWebKit/537.36 (KHTML, like Gecko) Chrome/138.0.0.0 Safari/537.36","WebKit","Chrome","138.0.0.0","Windows","10.0","https://app.prolific.com/","en-GB,en;q=0.6","67d057fe81435b77cf5a4681","686d226cabeef709c732f8e1","686e3128ce032deca990cbc4","67d057fe81435b77cf5a4681","2025-07-09T09:18:42.374Z","","","","","","stress","{""Q01"":""3"",""Q02"":""2"",""Q03"":""1""}","[0,1,2]","[""Q01"",""Q02"",""Q03""]","[4601.599999964237,6188.099999964237,12079]","[]","[4601.599999964237,6188.099999964237,12079,13376.199999988079]","0.6666666666666666","0","0","","","","","","","","","","","","","","","","","","","","","","","","","","","","","",""
"232242","","","","instructions","20","767751","0.0-8.0-0.0","152","1","2025-07-09 09:09:43","7701e855f2ef39aa3fd6c71abdc6918a","41.145.193.111","Mozilla/5.0 (Windows NT 10.0; Win64; x64) AppleWebKit/537.36 (KHTML, like Gecko) Chrome/138.0.0.0 Safari/537.36","WebKit","Chrome","138.0.0.0","Windows","10.0","https://app.prolific.com/","en-GB,en;q=0.6","67d057fe81435b77cf5a4681","686d226cabeef709c732f8e1","686e3128ce032deca990cbc4","67d057fe81435b77cf5a4681","","[{""page_index"":0,""viewing_time"":39060},{""page_index"":1,""viewing_time"":25983},{""page_index"":2,""viewing_time"":132697},{""page_index"":3,""viewing_time"":34502}]","","","","","","","","","","","","","","","","","","","","","","","","","","","","","","","","","","","","","","","","","","","",""
"","","","","ctl-task-cpt","21","806654","0.0-8.0-1.0","152","1","2025-07-09 09:09:43","7701e855f2ef39aa3fd6c71abdc6918a","41.145.193.111","Mozilla/5.0 (Windows NT 10.0; Win64; x64) AppleWebKit/537.36 (KHTML, like Gecko) Chrome/138.0.0.0 Safari/537.36","WebKit","Chrome","138.0.0.0","Windows","10.0","https://app.prolific.com/","en-GB,en;q=0.6","67d057fe81435b77cf5a4681","686d226cabeef709c732f8e1","686e3128ce032deca990cbc4","67d057fe81435b77cf5a4681","","","","","","","","","","","","","","","","","win-only","0","g1:NW,g2:SE","1","0","1","774039.3","10794.1","14795","35886.1","2","4","4","6","1","2","-1","0","0","0","4000.9","4000","1580","[""left"",""up""]","{""num_key_presses"":11,""num_perfect"":4,""num_errors"":3,""num_randdir"":0,""num_randdir_good_moves"":0,""num_whilered"":4,""num_whileblue"":0,""num_blue"":1,""num_good_moves"":4}","[412.8214133126395,414.07142761775424,1.5,412.8214133126395,414.07142761775424,101.1,412.8214133126395,414.07142761775424,208.8,412.8214133126395,414.07142761775424,317.4,412.8214133126395,414.07142761775424,427.6,412.8214133126395,414.07142761775424,532.6,412.8214133126395,414.07142761775424,634.8,412.8214133126395,414.07142761775424,736.8,412.8214133126395,414.07142761775424,842.8,412.8214133126395,414.07142761775424,943.8,412.8214133126395,414.07142761775424,1044.1,412.8214133126395,414.07142761775424,1144.1,412.8214133126395,414.07142761775424,1244.2,412.8214133126395,414.07142761775424,1347.6,399.0714133126395,410.32142761775424,1452.5,377.8214133126395,405.32142761775424,1553.8,364.0714133126395,404.07142761775424,1665.6,344.0714133126395,390.32142761775424,1767.5,341.5714133126395,386.57142761775424,1873,341.5714133126395,386.57142761775424,1977.4,341.5714133126395,386.57142761775424,2078.5,341.5714133126395,386.57142761775424,2185.9,341.5714133126395,386.57142761775424,2288.5,341.5714133126395,386.57142761775424,2393.9,341.5714133126395,386.57142761775424,2500.4,341.5714133126395,386.57142761775424,2603,341.5714133126395,386.57142761775424,2706.9,341.5714133126395,386.57142761775424,2811.4,341.5714133126395,386.57142761775424,2912.2,341.5714133126395,386.57142761775424,3018.2,341.5714133126395,386.57142761775424,3119.3,341.5714133126395,386.57142761775424,3227.5,341.5714133126395,386.57142761775424,3333.2,341.5714133126395,386.57142761775424,3433.2,341.5714133126395,386.57142761775424,3534.8,515.3214133126395,542.8214276177542,3643.8,596.5714133126395,626.5714276177542,3744.1,596.5714133126395,626.5714276177542,3851.9,605.3214133126395,635.3214276177542,3953]","[3951.7,3951.6,2633.6,2000.9,-682.8,""error"",""-"",""-"",""no_move"",4154.6,201.5,2633.6,2000.9,-479.9,""while_red"",""-"",""-"",""no_move"",4323.2,370.1,2633.6,2000.9,-311.3,""while_red"",""-"",""-"",""no_move"",9483.2,5530.1,3150.9,4959.7,1372.6,""smooth"",""left"",""left"",""good_move"",9733.8,249.6,3211.5,9484.2,-2961.9,""error"",""-"",""-"",""no_move"",9932.2,197.9,3211.5,9484.2,-2763.5,""while_red"",""-"",""-"",""no_move"",10098.7,364.4,3211.5,9484.2,-2597,""while_red"",""-"",""-"",""no_move"",13802.7,4068.4,2383.5,10736.1,683.2,""smooth"",""left"",""left"",""good_move"",14163.6,359.9,1777.5,13803.8,-1417.6,""error"",""-"",""-"",""no_move"",17874.9,3710.7,2168.6,15167.2,539.5,""smooth"",""up"",""up"",""good_move"",20983,3105.8,2442.1,17877.2,663.7,""smooth"",""up"",""up"",""good_move""]","","",""
"14422","","","","instructions","22","821077","0.0-8.0-2.0","152","1","2025-07-09 09:09:43","7701e855f2ef39aa3fd6c71abdc6918a","41.145.193.111","Mozilla/5.0 (Windows NT 10.0; Win64; x64) AppleWebKit/537.36 (KHTML, like Gecko) Chrome/138.0.0.0 Safari/537.36","WebKit","Chrome","138.0.0.0","Windows","10.0","https://app.prolific.com/","en-GB,en;q=0.6","67d057fe81435b77cf5a4681","686d226cabeef709c732f8e1","686e3128ce032deca990cbc4","67d057fe81435b77cf5a4681","","[{""page_index"":0,""viewing_time"":14421}]","","","","","","","","","","","","","","","","","","","","","","","","","","","","","","","","","","","","","","","","","","","",""
"","","","","ctl-task-cpt","23","864749","0.0-8.0-3.0","152","1","2025-07-09 09:09:43","7701e855f2ef39aa3fd6c71abdc6918a","41.145.193.111","Mozilla/5.0 (Windows NT 10.0; Win64; x64) AppleWebKit/537.36 (KHTML, like Gecko) Chrome/138.0.0.0 Safari/537.36","WebKit","Chrome","138.0.0.0","Windows","10.0","https://app.prolific.com/","en-GB,en;q=0.6","67d057fe81435b77cf5a4681","686d226cabeef709c732f8e1","686e3128ce032deca990cbc4","67d057fe81435b77cf5a4681","","","","","","","","","","","","","","","","","win-only","0","g1:NW,g2:SE","0.35","0","3","827360.1","3926","7934.6","40659.8","2","4","8","6","2","-8","-8","0","0","0","4008.6","4000","-2190","[""down"",""right""]","{""num_key_presses"":9,""num_perfect"":4,""num_errors"":0,""num_randdir"":5,""num_randdir_good_moves"":2,""num_whilered"":0,""num_whileblue"":0,""num_blue"":1,""num_good_moves"":6}","[419.0714133126395,411.57142761775424,0.9,419.0714133126395,411.57142761775424,104.6,419.0714133126395,411.57142761775424,208.5,419.0714133126395,411.57142761775424,309,419.0714133126395,411.57142761775424,416.9,419.0714133126395,411.57142761775424,521.7,419.0714133126395,411.57142761775424,621.7,419.0714133126395,411.57142761775424,722.1,419.0714133126395,411.57142761775424,825.8,419.0714133126395,411.57142761775424,932.1,419.0714133126395,411.57142761775424,1038,419.0714133126395,411.57142761775424,1148.6,419.0714133126395,411.57142761775424,1258.8,419.0714133126395,411.57142761775424,1360.1,419.0714133126395,411.57142761775424,1469.9,419.0714133126395,411.57142761775424,1570.9,419.0714133126395,411.57142761775424,1676.3,419.0714133126395,411.57142761775424,1783.1,419.0714133126395,411.57142761775424,1884.7,419.0714133126395,411.57142761775424,1986.4,419.0714133126395,411.57142761775424,2092.4,419.0714133126395,411.57142761775424,2192.6,419.0714133126395,411.57142761775424,2301.2,419.0714133126395,411.57142761775424,2404.4,419.0714133126395,411.57142761775424,2505.1,419.0714133126395,411.57142761775424,2612.2,419.0714133126395,411.57142761775424,2721.2,419.0714133126395,411.57142761775424,2823.1,419.0714133126395,411.57142761775424,2926.1,419.0714133126395,411.57142761775424,3035.6,419.0714133126395,411.57142761775424,3138.7,419.0714133126395,411.57142761775424,3249.9,419.0714133126395,411.57142761775424,3357.8,419.0714133126395,411.57142761775424,3461.3,419.0714133126395,411.57142761775424,3566.5,475.3214133126395,435.32142761775424,3667.4,631.5714133126395,581.5714276177542,3775.1,646.5714133126395,591.5714276177542,3875.9,646.5714133126395,591.5714276177542,3976]","[1912.8,1912.8,1000,0,912.8,""oops"",""down"",""up"",""bad_move"",4846.6,2933.4,1925.3,1913.2,1008.1,""oops"",""up"",""up"",""bad_move"",6975,2127.9,1553.9,4847.1,574,""oops"",""left"",""down"",""good_move"",9267.1,2291,1852.7,6976.1,438.3,""oops"",""left"",""up"",""bad_move"",12696.2,3428.4,2810.3,9267.9,618,""smooth"",""right"",""right"",""good_move"",15573.6,2876.6,2386.2,12697,490.4,""smooth"",""right"",""right"",""good_move"",18598.9,3024.6,2541.3,15574.5,483.2,""smooth"",""right"",""right"",""good_move"",22393.5,3793.6,3338.7,18599.9,454.9,""smooth"",""down"",""down"",""good_move"",25674.7,3280.8,2782.7,22393.9,498.1,""oops"",""down"",""down"",""good_move""]","","",""
"62304","","","","instructions","24","927055","0.0-8.0-4.0","152","1","2025-07-09 09:09:43","7701e855f2ef39aa3fd6c71abdc6918a","41.145.193.111","Mozilla/5.0 (Windows NT 10.0; Win64; x64) AppleWebKit/537.36 (KHTML, like Gecko) Chrome/138.0.0.0 Safari/537.36","WebKit","Chrome","138.0.0.0","Windows","10.0","https://app.prolific.com/","en-GB,en;q=0.6","67d057fe81435b77cf5a4681","686d226cabeef709c732f8e1","686e3128ce032deca990cbc4","67d057fe81435b77cf5a4681","","[{""page_index"":0,""viewing_time"":11824},{""page_index"":1,""viewing_time"":50476}]","","","","","","","","","","","","","","","","","","","","","","","","","","","","","","","","","","","","","","","","","","","",""
"25163","","","{""green_ball"":[""Ball always moves in the direction I press""]}","survey-multi-select","25","952241","0.0-8.0-5.0-0.0","152","1","2025-07-09 09:09:43","7701e855f2ef39aa3fd6c71abdc6918a","41.145.193.111","Mozilla/5.0 (Windows NT 10.0; Win64; x64) AppleWebKit/537.36 (KHTML, like Gecko) Chrome/138.0.0.0 Safari/537.36","WebKit","Chrome","138.0.0.0","Windows","10.0","https://app.prolific.com/","en-GB,en;q=0.6","67d057fe81435b77cf5a4681","686d226cabeef709c732f8e1","686e3128ce032deca990cbc4","67d057fe81435b77cf5a4681","","","[0]","","","","quiz","","","","","","","","","","","","","","","","","","","","","","","","","","","","","","","","","","","","","false","",""
"8839","","<p align='center'><b>INCORRECT.</b> Usually the green ball moves in the indicated direction, but sometimes it shakes and moves randomly. </p>","0","html-button-response","26","961087","0.0-8.0-5.0-1.0","152","1","2025-07-09 09:09:43","7701e855f2ef39aa3fd6c71abdc6918a","41.145.193.111","Mozilla/5.0 (Windows NT 10.0; Win64; x64) AppleWebKit/537.36 (KHTML, like Gecko) Chrome/138.0.0.0 Safari/537.36","WebKit","Chrome","138.0.0.0","Windows","10.0","https://app.prolific.com/","en-GB,en;q=0.6","67d057fe81435b77cf5a4681","686d226cabeef709c732f8e1","686e3128ce032deca990cbc4","67d057fe81435b77cf5a4681","","","","","","","","","","","","","","","","","","","","","","","","","","","","","","","","","","","","","","","","","","","","","",""
"8848","","","{""green_ball"":[""Ball sometimes shakes and moves in a random direction""]}","survey-multi-select","27","969945","0.0-8.0-5.1-0.1","152","1","2025-07-09 09:09:43","7701e855f2ef39aa3fd6c71abdc6918a","41.145.193.111","Mozilla/5.0 (Windows NT 10.0; Win64; x64) AppleWebKit/537.36 (KHTML, like Gecko) Chrome/138.0.0.0 Safari/537.36","WebKit","Chrome","138.0.0.0","Windows","10.0","https://app.prolific.com/","en-GB,en;q=0.6","67d057fe81435b77cf5a4681","686d226cabeef709c732f8e1","686e3128ce032deca990cbc4","67d057fe81435b77cf5a4681","","","[0]","","","","quiz","","","","","","","","","","","","","","","","","","","","","","","","","","","","","","","","","","","","","true","",""
"4760","","<p align='center'><b>CORRECT!</b> Indeed, the green ball may sometimes shake and move in a random direction.</p>","0","html-button-response","28","974709","0.0-8.0-5.1-1.1","152","1","2025-07-09 09:09:43","7701e855f2ef39aa3fd6c71abdc6918a","41.145.193.111","Mozilla/5.0 (Windows NT 10.0; Win64; x64) AppleWebKit/537.36 (KHTML, like Gecko) Chrome/138.0.0.0 Safari/537.36","WebKit","Chrome","138.0.0.0","Windows","10.0","https://app.prolific.com/","en-GB,en;q=0.6","67d057fe81435b77cf5a4681","686d226cabeef709c732f8e1","686e3128ce032deca990cbc4","67d057fe81435b77cf5a4681","","","","","","","","","","","","","","","","","","","","","","","","","","","","","","","","","","","","","","","","","","","","","",""
"11021","","","{""yellow_ball"":[""Ball doesn‘t move and I get -1 penalty point""]}","survey-multi-select","29","985737","0.0-8.0-6.0-0.0","152","1","2025-07-09 09:09:43","7701e855f2ef39aa3fd6c71abdc6918a","41.145.193.111","Mozilla/5.0 (Windows NT 10.0; Win64; x64) AppleWebKit/537.36 (KHTML, like Gecko) Chrome/138.0.0.0 Safari/537.36","WebKit","Chrome","138.0.0.0","Windows","10.0","https://app.prolific.com/","en-GB,en;q=0.6","67d057fe81435b77cf5a4681","686d226cabeef709c732f8e1","686e3128ce032deca990cbc4","67d057fe81435b77cf5a4681","","","[0]","","","","quiz","","","","","","","","","","","","","","","","","","","","","","","","","","","","","","","","","","","","","true","",""
"1583","","<p align='center'><b>CORRECT!</b> Indeed, the yellow ball never moves and you receive a penalty.</p>","0","html-button-response","30","987323","0.0-8.0-6.0-1.0","152","1","2025-07-09 09:09:43","7701e855f2ef39aa3fd6c71abdc6918a","41.145.193.111","Mozilla/5.0 (Windows NT 10.0; Win64; x64) AppleWebKit/537.36 (KHTML, like Gecko) Chrome/138.0.0.0 Safari/537.36","WebKit","Chrome","138.0.0.0","Windows","10.0","https://app.prolific.com/","en-GB,en;q=0.6","67d057fe81435b77cf5a4681","686d226cabeef709c732f8e1","686e3128ce032deca990cbc4","67d057fe81435b77cf5a4681","","","","","","","","","","","","","","","","","","","","","","","","","","","","","","","","","","","","","","","","","","","","","",""
"5023","","","{""blue_ball"":[""Ball doesn‘t move and I get -1 penalty point""]}","survey-multi-select","31","992349","0.0-8.0-7.0-0.0","152","1","2025-07-09 09:09:43","7701e855f2ef39aa3fd6c71abdc6918a","41.145.193.111","Mozilla/5.0 (Windows NT 10.0; Win64; x64) AppleWebKit/537.36 (KHTML, like Gecko) Chrome/138.0.0.0 Safari/537.36","WebKit","Chrome","138.0.0.0","Windows","10.0","https://app.prolific.com/","en-GB,en;q=0.6","67d057fe81435b77cf5a4681","686d226cabeef709c732f8e1","686e3128ce032deca990cbc4","67d057fe81435b77cf5a4681","","","[0]","","","","quiz","","","","","","","","","","","","","","","","","","","","","","","","","","","","","","","","","","","","","false","",""
"3122","","<p align='center'><b>INCORRECT.</b> The blue ball always shakes and moves randomly.</p>","0","html-button-response","32","995474","0.0-8.0-7.0-1.0","152","1","2025-07-09 09:09:43","7701e855f2ef39aa3fd6c71abdc6918a","41.145.193.111","Mozilla/5.0 (Windows NT 10.0; Win64; x64) AppleWebKit/537.36 (KHTML, like Gecko) Chrome/138.0.0.0 Safari/537.36","WebKit","Chrome","138.0.0.0","Windows","10.0","https://app.prolific.com/","en-GB,en;q=0.6","67d057fe81435b77cf5a4681","686d226cabeef709c732f8e1","686e3128ce032deca990cbc4","67d057fe81435b77cf5a4681","","","","","","","","","","","","","","","","","","","","","","","","","","","","","","","","","","","","","","","","","","","","","",""
"10002","","","{""blue_ball"":[""Ball always shakes and moves in a random direction""]}","survey-multi-select","33","1005489","0.0-8.0-7.1-0.1","152","1","2025-07-09 09:09:43","7701e855f2ef39aa3fd6c71abdc6918a","41.145.193.111","Mozilla/5.0 (Windows NT 10.0; Win64; x64) AppleWebKit/537.36 (KHTML, like Gecko) Chrome/138.0.0.0 Safari/537.36","WebKit","Chrome","138.0.0.0","Windows","10.0","https://app.prolific.com/","en-GB,en;q=0.6","67d057fe81435b77cf5a4681","686d226cabeef709c732f8e1","686e3128ce032deca990cbc4","67d057fe81435b77cf5a4681","","","[0]","","","","quiz","","","","","","","","","","","","","","","","","","","","","","","","","","","","","","","","","","","","","true","",""
"1811","","<p align='center'><b>CORRECT!</b> Indeed, the blue ball always shakes and moves in a random direction. Also there is a penalty of -1 point.</p>","0","html-button-response","34","1007302","0.0-8.0-7.1-1.1","152","1","2025-07-09 09:09:43","7701e855f2ef39aa3fd6c71abdc6918a","41.145.193.111","Mozilla/5.0 (Windows NT 10.0; Win64; x64) AppleWebKit/537.36 (KHTML, like Gecko) Chrome/138.0.0.0 Safari/537.36","WebKit","Chrome","138.0.0.0","Windows","10.0","https://app.prolific.com/","en-GB,en;q=0.6","67d057fe81435b77cf5a4681","686d226cabeef709c732f8e1","686e3128ce032deca990cbc4","67d057fe81435b77cf5a4681","","","","","","","","","","","","","","","","","","","","","","","","","","","","","","","","","","","","","","","","","","","","","",""
"12038","","","{""bonus"":[""When I reach all possible points""]}","survey-multi-select","35","1019343","0.0-8.0-8.0-0.0","152","1","2025-07-09 09:09:43","7701e855f2ef39aa3fd6c71abdc6918a","41.145.193.111","Mozilla/5.0 (Windows NT 10.0; Win64; x64) AppleWebKit/537.36 (KHTML, like Gecko) Chrome/138.0.0.0 Safari/537.36","WebKit","Chrome","138.0.0.0","Windows","10.0","https://app.prolific.com/","en-GB,en;q=0.6","67d057fe81435b77cf5a4681","686d226cabeef709c732f8e1","686e3128ce032deca990cbc4","67d057fe81435b77cf5a4681","","","[0]","","","","quiz","","","","","","","","","","","","","","","","","","","","","","","","","","","","","","","","","","","","","false","",""
"5326","","<p align='center'><b>INCORRECT.</b> You receive 2 pounds extra when you reach 50% of points </p>","0","html-button-response","36","1024671","0.0-8.0-8.0-1.0","152","1","2025-07-09 09:09:43","7701e855f2ef39aa3fd6c71abdc6918a","41.145.193.111","Mozilla/5.0 (Windows NT 10.0; Win64; x64) AppleWebKit/537.36 (KHTML, like Gecko) Chrome/138.0.0.0 Safari/537.36","WebKit","Chrome","138.0.0.0","Windows","10.0","https://app.prolific.com/","en-GB,en;q=0.6","67d057fe81435b77cf5a4681","686d226cabeef709c732f8e1","686e3128ce032deca990cbc4","67d057fe81435b77cf5a4681","","","","","","","","","","","","","","","","","","","","","","","","","","","","","","","","","","","","","","","","","","","","","",""
"4180","","","{""bonus"":[""When I reach 50% of points""]}","survey-multi-select","37","1028854","0.0-8.0-8.1-0.1","152","1","2025-07-09 09:09:43","7701e855f2ef39aa3fd6c71abdc6918a","41.145.193.111","Mozilla/5.0 (Windows NT 10.0; Win64; x64) AppleWebKit/537.36 (KHTML, like Gecko) Chrome/138.0.0.0 Safari/537.36","WebKit","Chrome","138.0.0.0","Windows","10.0","https://app.prolific.com/","en-GB,en;q=0.6","67d057fe81435b77cf5a4681","686d226cabeef709c732f8e1","686e3128ce032deca990cbc4","67d057fe81435b77cf5a4681","","","[0]","","","","quiz","","","","","","","","","","","","","","","","","","","","","","","","","","","","","","","","","","","","","true","",""
"2598","","<p align='center'><b>CORRECT!</b> Indeed, you receive 2 pounds extra when you reach 50% of points.</p>","0","html-button-response","38","1031455","0.0-8.0-8.1-1.1","152","1","2025-07-09 09:09:43","7701e855f2ef39aa3fd6c71abdc6918a","41.145.193.111","Mozilla/5.0 (Windows NT 10.0; Win64; x64) AppleWebKit/537.36 (KHTML, like Gecko) Chrome/138.0.0.0 Safari/537.36","WebKit","Chrome","138.0.0.0","Windows","10.0","https://app.prolific.com/","en-GB,en;q=0.6","67d057fe81435b77cf5a4681","686d226cabeef709c732f8e1","686e3128ce032deca990cbc4","67d057fe81435b77cf5a4681","","","","","","","","","","","","","","","","","","","","","","","","","","","","","","","","","","","","","","","","","","","","","",""
"10798","","","","instructions","39","1042254","0.0-8.0-9.0","152","1","2025-07-09 09:09:43","7701e855f2ef39aa3fd6c71abdc6918a","41.145.193.111","Mozilla/5.0 (Windows NT 10.0; Win64; x64) AppleWebKit/537.36 (KHTML, like Gecko) Chrome/138.0.0.0 Safari/537.36","WebKit","Chrome","138.0.0.0","Windows","10.0","https://app.prolific.com/","en-GB,en;q=0.6","67d057fe81435b77cf5a4681","686d226cabeef709c732f8e1","686e3128ce032deca990cbc4","67d057fe81435b77cf5a4681","","[{""page_index"":0,""viewing_time"":10797}]","","","","","","","","","","","","","","","","","","","","","","","","","","","","","","","","","","","","","","","","","","","",""
"46549","","<p>Before you start with this game please answer the following three questions yourself. </p>
  <p>Through this game, we measure several aspects of your cognitive performance, such as reaction times, multi-tasking capabilities </p>
  <p>and the ability to assess the situation you are in.</p>
  <p></p>
  <p><b>How good do you usually are in such tasks?</b></p>","65","html-slider-response","40","1088807","0.0-9.0-0.0","152","1","2025-07-09 09:09:43","7701e855f2ef39aa3fd6c71abdc6918a","41.145.193.111","Mozilla/5.0 (Windows NT 10.0; Win64; x64) AppleWebKit/537.36 (KHTML, like Gecko) Chrome/138.0.0.0 Safari/537.36","WebKit","Chrome","138.0.0.0","Windows","10.0","https://app.prolific.com/","en-GB,en;q=0.6","67d057fe81435b77cf5a4681","686d226cabeef709c732f8e1","686e3128ce032deca990cbc4","67d057fe81435b77cf5a4681","2025-07-09T09:27:55.673Z","","","","","","PreSkillQ","","","","","","","","","","","","","","","","","","","","","","","","","","","","","","","","","","","","","","50",""
"9108","","<div style=""width:500px;"">
  <p>How well do you think you will perform in this task compared to other participants?</p>
  </div>","64","html-slider-response","41","1097918","0.0-9.0-1.0","152","1","2025-07-09 09:09:43","7701e855f2ef39aa3fd6c71abdc6918a","41.145.193.111","Mozilla/5.0 (Windows NT 10.0; Win64; x64) AppleWebKit/537.36 (KHTML, like Gecko) Chrome/138.0.0.0 Safari/537.36","WebKit","Chrome","138.0.0.0","Windows","10.0","https://app.prolific.com/","en-GB,en;q=0.6","67d057fe81435b77cf5a4681","686d226cabeef709c732f8e1","686e3128ce032deca990cbc4","67d057fe81435b77cf5a4681","2025-07-09T09:28:04.784Z","","","","","","PrePerfQ","","","","","","","","","","","","","","","","","","","","","","","","","","","","","","","","","","","","","","50",""
"5509","","<div style=""width:500px;"">
  <p>What best describes how you currently feel?</p>
  </div>","68","html-slider-response","42","1103430","0.0-9.0-2.0","152","1","2025-07-09 09:09:43","7701e855f2ef39aa3fd6c71abdc6918a","41.145.193.111","Mozilla/5.0 (Windows NT 10.0; Win64; x64) AppleWebKit/537.36 (KHTML, like Gecko) Chrome/138.0.0.0 Safari/537.36","WebKit","Chrome","138.0.0.0","Windows","10.0","https://app.prolific.com/","en-GB,en;q=0.6","67d057fe81435b77cf5a4681","686d226cabeef709c732f8e1","686e3128ce032deca990cbc4","67d057fe81435b77cf5a4681","2025-07-09T09:28:10.296Z","","","","","","PreMotivationQ","","","","","","","","","","","","","","","","","","","","","","","","","","","","","","","","","","","","","","50",""
"","","","","ctl-task-cpt","43","1136535","0.0-10.0-0.0","152","1","2025-07-09 09:09:43","7701e855f2ef39aa3fd6c71abdc6918a","41.145.193.111","Mozilla/5.0 (Windows NT 10.0; Win64; x64) AppleWebKit/537.36 (KHTML, like Gecko) Chrome/138.0.0.0 Safari/537.36","WebKit","Chrome","138.0.0.0","Windows","10.0","https://app.prolific.com/","en-GB,en;q=0.6","67d057fe81435b77cf5a4681","686d226cabeef709c732f8e1","686e3128ce032deca990cbc4","67d057fe81435b77cf5a4681","2025-07-09T09:28:43.402Z","","","","","","","","","","","","","","","","win-only","3","g1:SW,g2:NE","1","1","0","1109712.8","2986.1","7998","30095.1","1","4","8","6","2","8","8","8","0","0.06060606060606061","1294.2","3000","520","[""up"",""right""]","{""num_key_presses"":6,""num_perfect"":6,""num_errors"":0,""num_randdir"":0,""num_randdir_good_moves"":0,""num_whilered"":0,""num_whileblue"":0,""num_blue"":1,""num_good_moves"":6}","[352.9285637991769,351.6785685675485,1.4,352.9285637991769,351.6785685675485,102.7,352.9285637991769,351.6785685675485,207.5,352.9285637991769,351.6785685675485,310.6,352.9285637991769,351.6785685675485,410.6,370.4285637991769,312.9285685675485,511.8,590.4285637991769,166.6785685675485,620.9,634.1785637991769,150.4285685675485,724.4,647.9285637991769,124.17856856754848,827.2,637.9285637991769,90.42856856754848,929.3,637.9285637991769,82.92856856754848,1030.5,636.6785637991769,82.92856856754848,1132.3,636.6785637991769,82.92856856754848,1241.3,636.6785637991769,82.92856856754848,1344.8,636.6785637991769,82.92856856754848,1458.1,636.6785637991769,82.92856856754848,1560.6,636.6785637991769,82.92856856754848,1663,636.6785637991769,82.92856856754848,1763,636.6785637991769,82.92856856754848,1876.6,636.6785637991769,82.92856856754848,1982.7,482.9285637991769,309.1785685675485,2087.7,465.4285637991769,332.9285685675485,2192.8,440.4285637991769,345.4285685675485,2294,430.4285637991769,346.6785685675485,2405.6,420.4285637991769,325.4285685675485,2509.1,414.1785637991769,286.6785685675485,2610.2,381.6785637991769,285.4285685675485,2710.6,332.9285637991769,311.6785685675485,2811.1,332.9285637991769,311.6785685675485,2919.6,332.9285637991769,311.6785685675485,3020.1,332.9285637991769,311.6785685675485,3122.1,332.9285637991769,311.6785685675485,3228.4,332.9285637991769,311.6785685675485,3329.6,332.9285637991769,311.6785685675485,3433.9,332.9285637991769,311.6785685675485,3538.9,332.9285637991769,311.6785685675485,3641.3,332.9285637991769,311.6785685675485,3745.4,332.9285637991769,311.6785685675485,3851.5,332.9285637991769,311.6785685675485,3952.4,332.9285637991769,311.6785685675485,4055.3,332.9285637991769,311.6785685675485,4158.4,332.9285637991769,311.6785685675485,4260.2,332.9285637991769,311.6785685675485,4361.8,332.9285637991769,311.6785685675485,4469.4,332.9285637991769,311.6785685675485,4577.3,332.9285637991769,311.6785685675485,4682.6,332.9285637991769,311.6785685675485,4790.1,332.9285637991769,311.6785685675485,4893,332.9285637991769,311.6785685675485,4993.2]","[1841.6,1841.8,1000,0,841.8,""smooth"",""up"",""up"",""good_move"",9043.8,7199.5,3397.1,5210.7,436,""smooth"",""right"",""right"",""good_move"",11885.6,2834.4,2116.7,9051.2,717.7,""smooth"",""right"",""right"",""good_move"",14772.6,2884.2,2198.3,11888.4,685.9,""smooth"",""right"",""right"",""good_move"",18050.9,3277.4,2763.8,14773.6,513.6,""smooth"",""up"",""up"",""good_move"",21960.9,3909.6,3493.4,18051.3,416.2,""smooth"",""up"",""up"",""good_move""]","","",""
"11158","","<div style=""width:500px;"">
  <p>What determined the result of this run?</p>
  </div>","88","html-slider-response","44","1147698","0.0-10.0-1.0","152","1","2025-07-09 09:09:43","7701e855f2ef39aa3fd6c71abdc6918a","41.145.193.111","Mozilla/5.0 (Windows NT 10.0; Win64; x64) AppleWebKit/537.36 (KHTML, like Gecko) Chrome/138.0.0.0 Safari/537.36","WebKit","Chrome","138.0.0.0","Windows","10.0","https://app.prolific.com/","en-GB,en;q=0.6","67d057fe81435b77cf5a4681","686d226cabeef709c732f8e1","686e3128ce032deca990cbc4","67d057fe81435b77cf5a4681","2025-07-09T09:28:54.565Z","","","","","","AttribQ","","","","","","","","","","","","","","","","","","","","","","","","","","","","","","","","","","","","","","50",""
"6662","","<div style=""width:500px;"">
  <p>How much control did you have over the ball?</p>
  </div>","100","html-slider-response","45","1154368","0.0-10.0-2.0","152","1","2025-07-09 09:09:43","7701e855f2ef39aa3fd6c71abdc6918a","41.145.193.111","Mozilla/5.0 (Windows NT 10.0; Win64; x64) AppleWebKit/537.36 (KHTML, like Gecko) Chrome/138.0.0.0 Safari/537.36","WebKit","Chrome","138.0.0.0","Windows","10.0","https://app.prolific.com/","en-GB,en;q=0.6","67d057fe81435b77cf5a4681","686d226cabeef709c732f8e1","686e3128ce032deca990cbc4","67d057fe81435b77cf5a4681","2025-07-09T09:29:01.234Z","","","","","","ControlQ","","","","","","","","","","","","","","","","","","","","","","","","","","","","","","","","","","","","","","50",""
"8421","","<div style=""width:500px;"">
  <p>How would you describe your current emotional state?</p>
  </div>","4","html-slider-response","46","1162791","0.0-10.0-3.0","152","1","2025-07-09 09:09:43","7701e855f2ef39aa3fd6c71abdc6918a","41.145.193.111","Mozilla/5.0 (Windows NT 10.0; Win64; x64) AppleWebKit/537.36 (KHTML, like Gecko) Chrome/138.0.0.0 Safari/537.36","WebKit","Chrome","138.0.0.0","Windows","10.0","https://app.prolific.com/","en-GB,en;q=0.6","67d057fe81435b77cf5a4681","686d226cabeef709c732f8e1","686e3128ce032deca990cbc4","67d057fe81435b77cf5a4681","2025-07-09T09:29:09.657Z","","","","","","StressQ","","","","","","","","","","","","","","","","","","","","","","","","","","","","","","","","","","","","","","50",""
"10045","","<div style=""width:500px;"">
  <p>What best describes how you currently feel?</p>
  </div>","88","html-slider-response","47","1172839","0.0-10.0-4.0","152","1","2025-07-09 09:09:43","7701e855f2ef39aa3fd6c71abdc6918a","41.145.193.111","Mozilla/5.0 (Windows NT 10.0; Win64; x64) AppleWebKit/537.36 (KHTML, like Gecko) Chrome/138.0.0.0 Safari/537.36","WebKit","Chrome","138.0.0.0","Windows","10.0","https://app.prolific.com/","en-GB,en;q=0.6","67d057fe81435b77cf5a4681","686d226cabeef709c732f8e1","686e3128ce032deca990cbc4","67d057fe81435b77cf5a4681","2025-07-09T09:29:19.705Z","","","","","","MotivationQ","","","","","","","","","","","","","","","","","","","","","","","","","","","","","","","","","","","","","","50",""
"","","","","ctl-task-cpt","48","1205982","0.0-10.0-0.1","152","1","2025-07-09 09:09:43","7701e855f2ef39aa3fd6c71abdc6918a","41.145.193.111","Mozilla/5.0 (Windows NT 10.0; Win64; x64) AppleWebKit/537.36 (KHTML, like Gecko) Chrome/138.0.0.0 Safari/537.36","WebKit","Chrome","138.0.0.0","Windows","10.0","https://app.prolific.com/","en-GB,en;q=0.6","67d057fe81435b77cf5a4681","686d226cabeef709c732f8e1","686e3128ce032deca990cbc4","67d057fe81435b77cf5a4681","2025-07-09T09:29:52.849Z","","","","","","","","","","","","","","","","win-only","0","g1:NW,g2:SE","0.9","2","0","1179121.2","2846","7850.6","30121.3","1","4","4","6","1","1","0","8","8","0.06060606060606061","2114.5","3000","1245","[""left"",""up""]","{""num_key_presses"":6,""num_perfect"":5,""num_errors"":1,""num_randdir"":0,""num_randdir_good_moves"":0,""num_whilered"":0,""num_whileblue"":1,""num_blue"":2,""num_good_moves"":5}","[355.4285637991769,350.4285685675485,2.3,355.4285637991769,350.4285685675485,102,355.4285637991769,350.4285685675485,205.4,355.4285637991769,350.4285685675485,306.8,355.4285637991769,350.4285685675485,412.6,355.4285637991769,350.4285685675485,515.1,355.4285637991769,350.4285685675485,617.7,355.4285637991769,350.4285685675485,723.1,355.4285637991769,350.4285685675485,825.2,355.4285637991769,350.4285685675485,944.1,355.4285637991769,350.4285685675485,1046,355.4285637991769,350.4285685675485,1153.4,355.4285637991769,350.4285685675485,1257.8,355.4285637991769,350.4285685675485,1363.3,212.9285637991769,207.9285685675485,1464.4,152.9285637991769,161.6785685675485,1569.6,122.9285637991769,127.92856856754848,1674.8,95.4285637991769,97.92856856754848,1782.2,86.6785637991769,86.67856856754848,1897.3,85.4285637991769,85.42856856754848,2001.8,85.4285637991769,85.42856856754848,2105.7,85.4285637991769,85.42856856754848,2207.3,85.4285637991769,85.42856856754848,2313.3,85.4285637991769,85.42856856754848,2418.5,85.4285637991769,85.42856856754848,2525.4,85.4285637991769,85.42856856754848,2628.9,85.4285637991769,85.42856856754848,2730.1,85.4285637991769,85.42856856754848,2830.2,85.4285637991769,85.42856856754848,2944.2,85.4285637991769,85.42856856754848,3052,85.4285637991769,85.42856856754848,3163.8,120.4285637991769,101.67856856754848,3274.7,300.4285637991769,201.6785685675485,3380.5,442.9285637991769,304.1785685675485,3481.5,499.1785637991769,349.1785685675485,3588.3,499.1785637991769,349.1785685675485,3692.3,499.1785637991769,349.1785685675485,3809.8,499.1785637991769,349.1785685675485,3911.7,499.1785637991769,349.1785685675485,4015.3,499.1785637991769,349.1785685675485,4120.1,499.1785637991769,349.1785685675485,4221.9,499.1785637991769,349.1785685675485,4337.7,499.1785637991769,349.1785685675485,4440.4,499.1785637991769,349.1785685675485,4544.9,499.1785637991769,349.1785685675485,4646,499.1785637991769,349.1785685675485,4761,499.1785637991769,349.1785685675485,4875.3,499.1785637991769,349.1785685675485,4975.7]","[1640.8,1641.2,1000,0,641.3,""smooth"",""up"",""up"",""good_move"",5019,3376.8,2873.3,1642.5,503.2,""smooth"",""up"",""up"",""good_move"",8718.6,3698.3,3221.6,5020.4,476.6,""while_blue"",""left"",""down"",""bad_move"",11510.1,2789.8,2258.4,8720.3,531.4,""smooth"",""up"",""up"",""good_move"",18138.8,6628.1,2543.3,14997.3,598.3,""smooth"",""left"",""left"",""good_move"",22142,4001.9,3442.5,18140.2,559.3,""smooth"",""left"",""left"",""good_move""]","","",""
"5997","","<div style=""width:500px;"">
  <p>What determined the result of this run?</p>
  </div>","74","html-slider-response","49","1211985","0.0-10.0-1.1","152","1","2025-07-09 09:09:43","7701e855f2ef39aa3fd6c71abdc6918a","41.145.193.111","Mozilla/5.0 (Windows NT 10.0; Win64; x64) AppleWebKit/537.36 (KHTML, like Gecko) Chrome/138.0.0.0 Safari/537.36","WebKit","Chrome","138.0.0.0","Windows","10.0","https://app.prolific.com/","en-GB,en;q=0.6","67d057fe81435b77cf5a4681","686d226cabeef709c732f8e1","686e3128ce032deca990cbc4","67d057fe81435b77cf5a4681","2025-07-09T09:29:58.852Z","","","","","","AttribQ","","","","","","","","","","","","","","","","","","","","","","","","","","","","","","","","","","","","","","50",""
"6670","","<div style=""width:500px;"">
  <p>How much control did you have over the ball?</p>
  </div>","80","html-slider-response","50","1218662","0.0-10.0-2.1","152","1","2025-07-09 09:09:43","7701e855f2ef39aa3fd6c71abdc6918a","41.145.193.111","Mozilla/5.0 (Windows NT 10.0; Win64; x64) AppleWebKit/537.36 (KHTML, like Gecko) Chrome/138.0.0.0 Safari/537.36","WebKit","Chrome","138.0.0.0","Windows","10.0","https://app.prolific.com/","en-GB,en;q=0.6","67d057fe81435b77cf5a4681","686d226cabeef709c732f8e1","686e3128ce032deca990cbc4","67d057fe81435b77cf5a4681","2025-07-09T09:30:05.528Z","","","","","","ControlQ","","","","","","","","","","","","","","","","","","","","","","","","","","","","","","","","","","","","","","50",""
"6685","","<div style=""width:500px;"">
  <p>How would you describe your current emotional state?</p>
  </div>","78","html-slider-response","51","1225351","0.0-10.0-3.1","152","1","2025-07-09 09:09:43","7701e855f2ef39aa3fd6c71abdc6918a","41.145.193.111","Mozilla/5.0 (Windows NT 10.0; Win64; x64) AppleWebKit/537.36 (KHTML, like Gecko) Chrome/138.0.0.0 Safari/537.36","WebKit","Chrome","138.0.0.0","Windows","10.0","https://app.prolific.com/","en-GB,en;q=0.6","67d057fe81435b77cf5a4681","686d226cabeef709c732f8e1","686e3128ce032deca990cbc4","67d057fe81435b77cf5a4681","2025-07-09T09:30:12.217Z","","","","","","StressQ","","","","","","","","","","","","","","","","","","","","","","","","","","","","","","","","","","","","","","50",""
"4812","","<div style=""width:500px;"">
  <p>What best describes how you currently feel?</p>
  </div>","71","html-slider-response","52","1230164","0.0-10.0-4.1","152","1","2025-07-09 09:09:43","7701e855f2ef39aa3fd6c71abdc6918a","41.145.193.111","Mozilla/5.0 (Windows NT 10.0; Win64; x64) AppleWebKit/537.36 (KHTML, like Gecko) Chrome/138.0.0.0 Safari/537.36","WebKit","Chrome","138.0.0.0","Windows","10.0","https://app.prolific.com/","en-GB,en;q=0.6","67d057fe81435b77cf5a4681","686d226cabeef709c732f8e1","686e3128ce032deca990cbc4","67d057fe81435b77cf5a4681","2025-07-09T09:30:17.031Z","","","","","","MotivationQ","","","","","","","","","","","","","","","","","","","","","","","","","","","","","","","","","","","","","","50",""
"","","","","ctl-task-cpt","53","1257119","0.0-10.0-0.2","152","1","2025-07-09 09:09:43","7701e855f2ef39aa3fd6c71abdc6918a","41.145.193.111","Mozilla/5.0 (Windows NT 10.0; Win64; x64) AppleWebKit/537.36 (KHTML, like Gecko) Chrome/138.0.0.0 Safari/537.36","WebKit","Chrome","138.0.0.0","Windows","10.0","https://app.prolific.com/","en-GB,en;q=0.6","67d057fe81435b77cf5a4681","686d226cabeef709c732f8e1","686e3128ce032deca990cbc4","67d057fe81435b77cf5a4681","2025-07-09T09:30:43.985Z","","","","","","","","","","","","","","","","win-only","3","g1:SW,g2:NE","0.8","3","0","1236447.3","3032","8034.8","23921.4","1","4","4","6","1","1","1","9","8","0.06818181818181818","2798.2","3000","1410","[""down"",""left""]","{""num_key_presses"":4,""num_perfect"":4,""num_errors"":0,""num_randdir"":0,""num_randdir_good_moves"":0,""num_whilered"":0,""num_whileblue"":0,""num_blue"":1,""num_good_moves"":4}","[351.6785637991769,342.9285685675485,1.5,351.6785637991769,342.9285685675485,101.3,351.6785637991769,342.9285685675485,205.4,351.6785637991769,342.9285685675485,311.4,351.6785637991769,342.9285685675485,420.7,351.6785637991769,342.9285685675485,531.9,351.6785637991769,342.9285685675485,633.9,351.6785637991769,342.9285685675485,737.7,351.6785637991769,342.9285685675485,840.7,351.6785637991769,342.9285685675485,948.1,351.6785637991769,342.9285685675485,1063.2,351.6785637991769,342.9285685675485,1165.5,351.6785637991769,342.9285685675485,1282.4,351.6785637991769,342.9285685675485,1398,351.6785637991769,342.9285685675485,1506.4,351.6785637991769,342.9285685675485,1607.4,351.6785637991769,342.9285685675485,1720.3,351.6785637991769,342.9285685675485,1825.5,351.6785637991769,342.9285685675485,1931.5,332.9285637991769,355.4285685675485,2041.4,152.9285637991769,511.6785685675485,2142.2,127.9285637991769,525.4285685675485,2242.8,101.6785637991769,537.9285685675485,2346.5,95.4285637991769,591.6785685675485,2450,96.6785637991769,607.9285685675485,2560.5,99.1785637991769,619.1785685675485,2665.2,99.1785637991769,619.1785685675485,2766.4,99.1785637991769,619.1785685675485,2868.4,99.1785637991769,619.1785685675485,2981.8,99.1785637991769,619.1785685675485,3086.2,99.1785637991769,619.1785685675485,3197.8,99.1785637991769,619.1785685675485,3304.5,194.1785637991769,555.4285685675485,3410.4,311.6785637991769,507.9285685675485,3513.4,355.4285637991769,500.4285685675485,3617.3,355.4285637991769,500.4285685675485,3718.9,355.4285637991769,500.4285685675485,3825,355.4285637991769,500.4285685675485,3948.6,355.4285637991769,500.4285685675485,4061,355.4285637991769,500.4285685675485,4173.4,355.4285637991769,500.4285685675485,4281.6,355.4285637991769,500.4285685675485,4392.8,355.4285637991769,500.4285685675485,4495.9,355.4285637991769,500.4285685675485,4607.5,355.4285637991769,500.4285685675485,4708.5,355.4285637991769,500.4285685675485,4815.5,355.4285637991769,500.4285685675485,4922.7]","[1791.1,1791.1,1000,0,791.1,""smooth"",""down"",""down"",""good_move"",5652.4,3858.8,3173.1,1793.8,685.5,""smooth"",""down"",""down"",""good_move"",12436.8,6783.9,2926.9,8983.6,526.3,""smooth"",""left"",""left"",""good_move"",15728.5,3290.1,2473.3,12438.4,816.8,""smooth"",""left"",""left"",""good_move""]","","",""
"6773","","<div style=""width:500px;"">
  <p>What determined the result of this run?</p>
  </div>","67","html-slider-response","54","1263896","0.0-10.0-1.2","152","1","2025-07-09 09:09:43","7701e855f2ef39aa3fd6c71abdc6918a","41.145.193.111","Mozilla/5.0 (Windows NT 10.0; Win64; x64) AppleWebKit/537.36 (KHTML, like Gecko) Chrome/138.0.0.0 Safari/537.36","WebKit","Chrome","138.0.0.0","Windows","10.0","https://app.prolific.com/","en-GB,en;q=0.6","67d057fe81435b77cf5a4681","686d226cabeef709c732f8e1","686e3128ce032deca990cbc4","67d057fe81435b77cf5a4681","2025-07-09T09:30:50.762Z","","","","","","AttribQ","","","","","","","","","","","","","","","","","","","","","","","","","","","","","","","","","","","","","","50",""
"9380","","<div style=""width:500px;"">
  <p>How much control did you have over the ball?</p>
  </div>","71","html-slider-response","55","1273281","0.0-10.0-2.2","152","1","2025-07-09 09:09:43","7701e855f2ef39aa3fd6c71abdc6918a","41.145.193.111","Mozilla/5.0 (Windows NT 10.0; Win64; x64) AppleWebKit/537.36 (KHTML, like Gecko) Chrome/138.0.0.0 Safari/537.36","WebKit","Chrome","138.0.0.0","Windows","10.0","https://app.prolific.com/","en-GB,en;q=0.6","67d057fe81435b77cf5a4681","686d226cabeef709c732f8e1","686e3128ce032deca990cbc4","67d057fe81435b77cf5a4681","2025-07-09T09:31:00.148Z","","","","","","ControlQ","","","","","","","","","","","","","","","","","","","","","","","","","","","","","","","","","","","","","","50",""
"8910","","<div style=""width:500px;"">
  <p>How would you describe your current emotional state?</p>
  </div>","17","html-slider-response","56","1282201","0.0-10.0-3.2","152","1","2025-07-09 09:09:43","7701e855f2ef39aa3fd6c71abdc6918a","41.145.193.111","Mozilla/5.0 (Windows NT 10.0; Win64; x64) AppleWebKit/537.36 (KHTML, like Gecko) Chrome/138.0.0.0 Safari/537.36","WebKit","Chrome","138.0.0.0","Windows","10.0","https://app.prolific.com/","en-GB,en;q=0.6","67d057fe81435b77cf5a4681","686d226cabeef709c732f8e1","686e3128ce032deca990cbc4","67d057fe81435b77cf5a4681","2025-07-09T09:31:09.068Z","","","","","","StressQ","","","","","","","","","","","","","","","","","","","","","","","","","","","","","","","","","","","","","","50",""
"9070","","<div style=""width:500px;"">
  <p>What best describes how you currently feel?</p>
  </div>","79","html-slider-response","57","1291278","0.0-10.0-4.2","152","1","2025-07-09 09:09:43","7701e855f2ef39aa3fd6c71abdc6918a","41.145.193.111","Mozilla/5.0 (Windows NT 10.0; Win64; x64) AppleWebKit/537.36 (KHTML, like Gecko) Chrome/138.0.0.0 Safari/537.36","WebKit","Chrome","138.0.0.0","Windows","10.0","https://app.prolific.com/","en-GB,en;q=0.6","67d057fe81435b77cf5a4681","686d226cabeef709c732f8e1","686e3128ce032deca990cbc4","67d057fe81435b77cf5a4681","2025-07-09T09:31:18.145Z","","","","","","MotivationQ","","","","","","","","","","","","","","","","","","","","","","","","","","","","","","","","","","","","","","50",""
"","","","","ctl-task-cpt","58","1322726","0.0-10.0-0.3","152","1","2025-07-09 09:09:43","7701e855f2ef39aa3fd6c71abdc6918a","41.145.193.111","Mozilla/5.0 (Windows NT 10.0; Win64; x64) AppleWebKit/537.36 (KHTML, like Gecko) Chrome/138.0.0.0 Safari/537.36","WebKit","Chrome","138.0.0.0","Windows","10.0","https://app.prolific.com/","en-GB,en;q=0.6","67d057fe81435b77cf5a4681","686d226cabeef709c732f8e1","686e3128ce032deca990cbc4","67d057fe81435b77cf5a4681","2025-07-09T09:31:49.592Z","","","","","","","","","","","","","","","","win-only","2","g1:SE,g2:NW","0.7","4","0","1297567","5861.7","10869.6","28433.8","1","4","8","6","1","1","1","10","9","0.07575757575757576","1550.1","3000","1815","[""down"",""right""]","{""num_key_presses"":4,""num_perfect"":4,""num_errors"":0,""num_randdir"":0,""num_randdir_good_moves"":0,""num_whilered"":0,""num_whileblue"":0,""num_blue"":2,""num_good_moves"":4}","[351.6785637991769,356.6785685675485,1,351.6785637991769,356.6785685675485,101.5,351.6785637991769,356.6785685675485,205.9,351.6785637991769,356.6785685675485,306,351.6785637991769,356.6785685675485,411.5,351.6785637991769,356.6785685675485,514.9,351.6785637991769,356.6785685675485,616.6,351.6785637991769,356.6785685675485,718.9,351.6785637991769,356.6785685675485,822,590.4285637991769,580.4285685675485,930.8,615.4285637991769,605.4285685675485,1050.7,615.4285637991769,605.4285685675485,1151.8,620.4285637991769,621.6785685675485,1257.8,626.6785637991769,632.9285685675485,1365.5,626.6785637991769,632.9285685675485,1482.4,626.6785637991769,632.9285685675485,1585.1,626.6785637991769,632.9285685675485,1699.8,626.6785637991769,632.9285685675485,1804.4,626.6785637991769,632.9285685675485,1910.4,626.6785637991769,632.9285685675485,2017.4,626.6785637991769,632.9285685675485,2118.3,626.6785637991769,632.9285685675485,2220.5,626.6785637991769,632.9285685675485,2321.1,626.6785637991769,632.9285685675485,2422.9,626.6785637991769,632.9285685675485,2529.8,626.6785637991769,632.9285685675485,2636.1,626.6785637991769,632.9285685675485,2739.5,626.6785637991769,632.9285685675485,2852.3,626.6785637991769,632.9285685675485,2958.1,626.6785637991769,632.9285685675485,3058.9,626.6785637991769,632.9285685675485,3169.6,626.6785637991769,632.9285685675485,3275.4,626.6785637991769,632.9285685675485,3378.2,626.6785637991769,632.9285685675485,3479.9,626.6785637991769,632.9285685675485,3584.4,626.6785637991769,632.9285685675485,3685.8,626.6785637991769,632.9285685675485,3792.5,626.6785637991769,632.9285685675485,3895,626.6785637991769,632.9285685675485,4000.5,626.6785637991769,632.9285685675485,4102.8,626.6785637991769,632.9285685675485,4211.1,626.6785637991769,632.9285685675485,4314.7,626.6785637991769,632.9285685675485,4420.3,626.6785637991769,632.9285685675485,4524.5,626.6785637991769,632.9285685675485,4632,626.6785637991769,632.9285685675485,4734.3,626.6785637991769,632.9285685675485,4842,626.6785637991769,632.9285685675485,4948.9]","[1479,1479,1000,0,479,""smooth"",""down"",""down"",""good_move"",5090.9,3611.1,2902.2,1479.9,708.8,""smooth"",""down"",""down"",""good_move"",11140.1,6048.2,2311.2,8194.3,634.6,""smooth"",""down"",""right"",""good_move"",17414.9,6273.6,2254.8,14748,412.1,""smooth"",""right"",""right"",""good_move""]","","",""
"5094","","<div style=""width:500px;"">
  <p>What determined the result of this run?</p>
  </div>","84","html-slider-response","59","1327823","0.0-10.0-1.3","152","1","2025-07-09 09:09:43","7701e855f2ef39aa3fd6c71abdc6918a","41.145.193.111","Mozilla/5.0 (Windows NT 10.0; Win64; x64) AppleWebKit/537.36 (KHTML, like Gecko) Chrome/138.0.0.0 Safari/537.36","WebKit","Chrome","138.0.0.0","Windows","10.0","https://app.prolific.com/","en-GB,en;q=0.6","67d057fe81435b77cf5a4681","686d226cabeef709c732f8e1","686e3128ce032deca990cbc4","67d057fe81435b77cf5a4681","2025-07-09T09:31:54.689Z","","","","","","AttribQ","","","","","","","","","","","","","","","","","","","","","","","","","","","","","","","","","","","","","","50",""
"5479","","<div style=""width:500px;"">
  <p>How much control did you have over the ball?</p>
  </div>","81","html-slider-response","60","1333304","0.0-10.0-2.3","152","1","2025-07-09 09:09:43","7701e855f2ef39aa3fd6c71abdc6918a","41.145.193.111","Mozilla/5.0 (Windows NT 10.0; Win64; x64) AppleWebKit/537.36 (KHTML, like Gecko) Chrome/138.0.0.0 Safari/537.36","WebKit","Chrome","138.0.0.0","Windows","10.0","https://app.prolific.com/","en-GB,en;q=0.6","67d057fe81435b77cf5a4681","686d226cabeef709c732f8e1","686e3128ce032deca990cbc4","67d057fe81435b77cf5a4681","2025-07-09T09:32:00.170Z","","","","","","ControlQ","","","","","","","","","","","","","","","","","","","","","","","","","","","","","","","","","","","","","","50",""
"12605","","<div style=""width:500px;"">
  <p>How would you describe your current emotional state?</p>
  </div>","81","html-slider-response","61","1345912","0.0-10.0-3.3","152","1","2025-07-09 09:09:43","7701e855f2ef39aa3fd6c71abdc6918a","41.145.193.111","Mozilla/5.0 (Windows NT 10.0; Win64; x64) AppleWebKit/537.36 (KHTML, like Gecko) Chrome/138.0.0.0 Safari/537.36","WebKit","Chrome","138.0.0.0","Windows","10.0","https://app.prolific.com/","en-GB,en;q=0.6","67d057fe81435b77cf5a4681","686d226cabeef709c732f8e1","686e3128ce032deca990cbc4","67d057fe81435b77cf5a4681","2025-07-09T09:32:12.779Z","","","","","","StressQ","","","","","","","","","","","","","","","","","","","","","","","","","","","","","","","","","","","","","","50",""
"8910","","<div style=""width:500px;"">
  <p>What best describes how you currently feel?</p>
  </div>","70","html-slider-response","62","1354825","0.0-10.0-4.3","152","1","2025-07-09 09:09:43","7701e855f2ef39aa3fd6c71abdc6918a","41.145.193.111","Mozilla/5.0 (Windows NT 10.0; Win64; x64) AppleWebKit/537.36 (KHTML, like Gecko) Chrome/138.0.0.0 Safari/537.36","WebKit","Chrome","138.0.0.0","Windows","10.0","https://app.prolific.com/","en-GB,en;q=0.6","67d057fe81435b77cf5a4681","686d226cabeef709c732f8e1","686e3128ce032deca990cbc4","67d057fe81435b77cf5a4681","2025-07-09T09:32:21.691Z","","","","","","MotivationQ","","","","","","","","","","","","","","","","","","","","","","","","","","","","","","","","","","","","","","50",""
"","","","","ctl-task-cpt","63","1410289","0.0-10.0-0.4","152","1","2025-07-09 09:09:43","7701e855f2ef39aa3fd6c71abdc6918a","41.145.193.111","Mozilla/5.0 (Windows NT 10.0; Win64; x64) AppleWebKit/537.36 (KHTML, like Gecko) Chrome/138.0.0.0 Safari/537.36","WebKit","Chrome","138.0.0.0","Windows","10.0","https://app.prolific.com/","en-GB,en;q=0.6","67d057fe81435b77cf5a4681","686d226cabeef709c732f8e1","686e3128ce032deca990cbc4","67d057fe81435b77cf5a4681","2025-07-09T09:33:17.155Z","","","","","","","","","","","","","","","","win-only","0","g1:NW,g2:SE","0.6","5","0","1361107.3","3454.5","8466","52425.4","1","4","8","6","2","8","7","17","10","0.12878787878787878","2675.9","3000","655","[""down"",""right""]","{""num_key_presses"":13,""num_perfect"":8,""num_errors"":1,""num_randdir"":4,""num_randdir_good_moves"":2,""num_whilered"":0,""num_whileblue"":0,""num_blue"":0,""num_good_moves"":9}","[355.4285637991769,350.4285685675485,0.3,355.4285637991769,350.4285685675485,118.7,355.4285637991769,350.4285685675485,233.8,355.4285637991769,350.4285685675485,350.4,355.4285637991769,350.4285685675485,467,355.4285637991769,350.4285685675485,570.6,355.4285637991769,350.4285685675485,687.5,355.4285637991769,350.4285685675485,796.7,355.4285637991769,350.4285685675485,907.9,355.4285637991769,350.4285685675485,1010.3,355.4285637991769,350.4285685675485,1121.4,355.4285637991769,350.4285685675485,1222.4,355.4285637991769,350.4285685675485,1327.9,355.4285637991769,350.4285685675485,1428,355.4285637991769,350.4285685675485,1534,355.4285637991769,350.4285685675485,1642.8,355.4285637991769,350.4285685675485,1755.3,355.4285637991769,350.4285685675485,1858,417.9285637991769,420.4285685675485,1974.1,514.1785637991769,510.4285685675485,2084.1,562.9285637991769,620.4285685675485,2192.3,585.4285637991769,645.4285685675485,2297.8,607.9285637991769,652.9285685675485,2405.9,629.1785637991769,654.1785685675485,2524.6,629.1785637991769,654.1785685675485,2639.4,629.1785637991769,654.1785685675485,2764.2,629.1785637991769,654.1785685675485,2885.8,629.1785637991769,654.1785685675485,3002.8,629.1785637991769,654.1785685675485,3117.6,629.1785637991769,654.1785685675485,3225.8,629.1785637991769,654.1785685675485,3328.4,629.1785637991769,654.1785685675485,3434.9,629.1785637991769,654.1785685675485,3543.8,629.1785637991769,654.1785685675485,3650.3,629.1785637991769,654.1785685675485,3753.7,629.1785637991769,654.1785685675485,3858.3,629.1785637991769,654.1785685675485,3971.5,629.1785637991769,654.1785685675485,4085.9,629.1785637991769,654.1785685675485,4191.3,629.1785637991769,654.1785685675485,4300.7,629.1785637991769,654.1785685675485,4407.8,629.1785637991769,654.1785685675485,4518.6,629.1785637991769,654.1785685675485,4637.3,629.1785637991769,654.1785685675485,4743.2,629.1785637991769,654.1785685675485,4858.3,629.1785637991769,654.1785685675485,4967.7]","[944.1,944.1,1000,0,-55.9,""error"",""-"",""-"",""no_move"",4776.5,3832.1,2220.2,1950.1,606.3,""smooth"",""down"",""down"",""good_move"",8355.2,3577.6,2899.5,4777.6,678.1,""smooth"",""down"",""down"",""good_move"",12930.7,4574.2,3643.7,8356.5,930.5,""oops"",""down"",""up"",""bad_move"",16271,3338.7,2500.1,12932.3,838.6,""smooth"",""right"",""right"",""good_move"",19521.3,3248.3,2553.7,16273,694.6,""oops"",""right"",""down"",""good_move"",23301,3779.4,3083.5,19521.6,695.9,""smooth"",""down"",""down"",""good_move"",26951.3,3649.5,2742.9,23301.8,906.6,""smooth"",""right"",""right"",""good_move"",29657.3,2704.4,1847.6,26952.9,856.9,""oops"",""right"",""left"",""bad_move"",33674.9,4016.5,2751.9,29658.4,1264.6,""smooth"",""left"",""left"",""bad_move"",36704.7,3029.1,2535.4,33675.6,493.7,""oops"",""right"",""right"",""good_move"",40183.4,3478.2,2968.5,36705.2,509.7,""smooth"",""right"",""right"",""good_move"",43651.6,3467.6,2985.1,40184,482.5,""smooth"",""right"",""right"",""good_move""]","","",""
"3332","","<div style=""width:500px;"">
  <p>What determined the result of this run?</p>
  </div>","90","html-slider-response","64","1413623","0.0-10.0-1.4","152","1","2025-07-09 09:09:43","7701e855f2ef39aa3fd6c71abdc6918a","41.145.193.111","Mozilla/5.0 (Windows NT 10.0; Win64; x64) AppleWebKit/537.36 (KHTML, like Gecko) Chrome/138.0.0.0 Safari/537.36","WebKit","Chrome","138.0.0.0","Windows","10.0","https://app.prolific.com/","en-GB,en;q=0.6","67d057fe81435b77cf5a4681","686d226cabeef709c732f8e1","686e3128ce032deca990cbc4","67d057fe81435b77cf5a4681","2025-07-09T09:33:20.489Z","","","","","","AttribQ","","","","","","","","","","","","","","","","","","","","","","","","","","","","","","","","","","","","","","50",""
"4451","","<div style=""width:500px;"">
  <p>How much control did you have over the ball?</p>
  </div>","90","html-slider-response","65","1418076","0.0-10.0-2.4","152","1","2025-07-09 09:09:43","7701e855f2ef39aa3fd6c71abdc6918a","41.145.193.111","Mozilla/5.0 (Windows NT 10.0; Win64; x64) AppleWebKit/537.36 (KHTML, like Gecko) Chrome/138.0.0.0 Safari/537.36","WebKit","Chrome","138.0.0.0","Windows","10.0","https://app.prolific.com/","en-GB,en;q=0.6","67d057fe81435b77cf5a4681","686d226cabeef709c732f8e1","686e3128ce032deca990cbc4","67d057fe81435b77cf5a4681","2025-07-09T09:33:24.943Z","","","","","","ControlQ","","","","","","","","","","","","","","","","","","","","","","","","","","","","","","","","","","","","","","50",""
"3820","","<div style=""width:500px;"">
  <p>How would you describe your current emotional state?</p>
  </div>","9","html-slider-response","66","1421899","0.0-10.0-3.4","152","1","2025-07-09 09:09:43","7701e855f2ef39aa3fd6c71abdc6918a","41.145.193.111","Mozilla/5.0 (Windows NT 10.0; Win64; x64) AppleWebKit/537.36 (KHTML, like Gecko) Chrome/138.0.0.0 Safari/537.36","WebKit","Chrome","138.0.0.0","Windows","10.0","https://app.prolific.com/","en-GB,en;q=0.6","67d057fe81435b77cf5a4681","686d226cabeef709c732f8e1","686e3128ce032deca990cbc4","67d057fe81435b77cf5a4681","2025-07-09T09:33:28.765Z","","","","","","StressQ","","","","","","","","","","","","","","","","","","","","","","","","","","","","","","","","","","","","","","50",""
"6590","","<div style=""width:500px;"">
  <p>What best describes how you currently feel?</p>
  </div>","100","html-slider-response","67","1428492","0.0-10.0-4.4","152","1","2025-07-09 09:09:43","7701e855f2ef39aa3fd6c71abdc6918a","41.145.193.111","Mozilla/5.0 (Windows NT 10.0; Win64; x64) AppleWebKit/537.36 (KHTML, like Gecko) Chrome/138.0.0.0 Safari/537.36","WebKit","Chrome","138.0.0.0","Windows","10.0","https://app.prolific.com/","en-GB,en;q=0.6","67d057fe81435b77cf5a4681","686d226cabeef709c732f8e1","686e3128ce032deca990cbc4","67d057fe81435b77cf5a4681","2025-07-09T09:33:35.359Z","","","","","","MotivationQ","","","","","","","","","","","","","","","","","","","","","","","","","","","","","","","","","","","","","","50",""
"","","","","ctl-task-cpt","68","1464125","0.0-10.0-0.5","152","1","2025-07-09 09:09:43","7701e855f2ef39aa3fd6c71abdc6918a","41.145.193.111","Mozilla/5.0 (Windows NT 10.0; Win64; x64) AppleWebKit/537.36 (KHTML, like Gecko) Chrome/138.0.0.0 Safari/537.36","WebKit","Chrome","138.0.0.0","Windows","10.0","https://app.prolific.com/","en-GB,en;q=0.6","67d057fe81435b77cf5a4681","686d226cabeef709c732f8e1","686e3128ce032deca990cbc4","67d057fe81435b77cf5a4681","2025-07-09T09:34:10.991Z","","","","","","","","","","","","","","","","win-only","0","g1:NW,g2:SE","0.5","6","0","1434781.9","1588.8","6597.1","32596.9","1","4","4","6","1","1","1","18","17","0.13636363636363635","1763.7","3000","1765","[""left"",""up""]","{""num_key_presses"":8,""num_perfect"":4,""num_errors"":0,""num_randdir"":4,""num_randdir_good_moves"":2,""num_whilered"":0,""num_whileblue"":0,""num_blue"":0,""num_good_moves"":6}","[360.4285637991769,354.1785685675485,0.2,360.4285637991769,354.1785685675485,119.3,360.4285637991769,354.1785685675485,241.6,360.4285637991769,354.1785685675485,363,360.4285637991769,354.1785685675485,483.5,360.4285637991769,354.1785685675485,596.7,360.4285637991769,354.1785685675485,701.1,322.9285637991769,372.9285685675485,822.1,302.9285637991769,372.9285685675485,928.2,204.1785637991769,245.4285685675485,1036.2,171.6785637991769,156.6785685675485,1136.4,171.6785637991769,156.6785685675485,1242.2,165.4285637991769,155.4285685675485,1354.1,76.6785637991769,110.42856856754848,1455.8,54.1785637991769,85.42856856754848,1559.8,54.1785637991769,85.42856856754848,1661,54.1785637991769,85.42856856754848,1766.8,54.1785637991769,85.42856856754848,1880.2,54.1785637991769,85.42856856754848,2003.2,54.1785637991769,85.42856856754848,2122.9,54.1785637991769,85.42856856754848,2244.2,54.1785637991769,85.42856856754848,2354,74.1785637991769,125.42856856754848,2463,74.1785637991769,125.42856856754848,2565.7,74.1785637991769,125.42856856754848,2689,74.1785637991769,125.42856856754848,2789.1,74.1785637991769,125.42856856754848,2898.6,74.1785637991769,125.42856856754848,3027,74.1785637991769,125.42856856754848,3131.1,74.1785637991769,125.42856856754848,3250,74.1785637991769,125.42856856754848,3355.5,74.1785637991769,125.42856856754848,3456.7,74.1785637991769,125.42856856754848,3582.1,74.1785637991769,125.42856856754848,3686.2,74.1785637991769,125.42856856754848,3792.8,74.1785637991769,125.42856856754848,3908.3,74.1785637991769,125.42856856754848,4029,74.1785637991769,125.42856856754848,4130.6,74.1785637991769,125.42856856754848,4250,74.1785637991769,125.42856856754848,4371.1,74.1785637991769,125.42856856754848,4479.5,74.1785637991769,125.42856856754848,4597.2,74.1785637991769,125.42856856754848,4713.6,74.1785637991769,125.42856856754848,4828.3,74.1785637991769,125.42856856754848,4931]","[1532.2,1532.2,1000,0,532.2,""oops"",""up"",""right"",""bad_move"",5264.7,3731.7,2982.6,1533,749.1,""smooth"",""up"",""up"",""good_move"",8562.1,3295.7,2056,5266.4,1239.7,""oops"",""up"",""down"",""bad_move"",11972.5,3409.2,2752.3,8563.4,656.8,""oops"",""down"",""up"",""good_move"",15251.1,3278.1,2291.1,11973,987,""smooth"",""up"",""up"",""good_move"",18700.2,3448.1,2999.1,15252.2,449,""smooth"",""left"",""left"",""good_move"",22034.6,3333.9,2584.6,18700.7,749.4,""oops"",""left"",""left"",""good_move"",25637,3601.6,2037,22035.4,1564.6,""smooth"",""left"",""left"",""good_move""]","","",""
"4444","","<div style=""width:500px;"">
  <p>What determined the result of this run?</p>
  </div>","90","html-slider-response","69","1468572","0.0-10.0-1.5","152","1","2025-07-09 09:09:43","7701e855f2ef39aa3fd6c71abdc6918a","41.145.193.111","Mozilla/5.0 (Windows NT 10.0; Win64; x64) AppleWebKit/537.36 (KHTML, like Gecko) Chrome/138.0.0.0 Safari/537.36","WebKit","Chrome","138.0.0.0","Windows","10.0","https://app.prolific.com/","en-GB,en;q=0.6","67d057fe81435b77cf5a4681","686d226cabeef709c732f8e1","686e3128ce032deca990cbc4","67d057fe81435b77cf5a4681","2025-07-09T09:34:15.438Z","","","","","","AttribQ","","","","","","","","","","","","","","","","","","","","","","","","","","","","","","","","","","","","","","50",""
"3119","","<div style=""width:500px;"">
  <p>How much control did you have over the ball?</p>
  </div>","96","html-slider-response","70","1471693","0.0-10.0-2.5","152","1","2025-07-09 09:09:43","7701e855f2ef39aa3fd6c71abdc6918a","41.145.193.111","Mozilla/5.0 (Windows NT 10.0; Win64; x64) AppleWebKit/537.36 (KHTML, like Gecko) Chrome/138.0.0.0 Safari/537.36","WebKit","Chrome","138.0.0.0","Windows","10.0","https://app.prolific.com/","en-GB,en;q=0.6","67d057fe81435b77cf5a4681","686d226cabeef709c732f8e1","686e3128ce032deca990cbc4","67d057fe81435b77cf5a4681","2025-07-09T09:34:18.559Z","","","","","","ControlQ","","","","","","","","","","","","","","","","","","","","","","","","","","","","","","","","","","","","","","50",""
"3347","","<div style=""width:500px;"">
  <p>How would you describe your current emotional state?</p>
  </div>","7","html-slider-response","71","1475042","0.0-10.0-3.5","152","1","2025-07-09 09:09:43","7701e855f2ef39aa3fd6c71abdc6918a","41.145.193.111","Mozilla/5.0 (Windows NT 10.0; Win64; x64) AppleWebKit/537.36 (KHTML, like Gecko) Chrome/138.0.0.0 Safari/537.36","WebKit","Chrome","138.0.0.0","Windows","10.0","https://app.prolific.com/","en-GB,en;q=0.6","67d057fe81435b77cf5a4681","686d226cabeef709c732f8e1","686e3128ce032deca990cbc4","67d057fe81435b77cf5a4681","2025-07-09T09:34:21.908Z","","","","","","StressQ","","","","","","","","","","","","","","","","","","","","","","","","","","","","","","","","","","","","","","50",""
"4683","","<div style=""width:500px;"">
  <p>What best describes how you currently feel?</p>
  </div>","81","html-slider-response","72","1479727","0.0-10.0-4.5","152","1","2025-07-09 09:09:43","7701e855f2ef39aa3fd6c71abdc6918a","41.145.193.111","Mozilla/5.0 (Windows NT 10.0; Win64; x64) AppleWebKit/537.36 (KHTML, like Gecko) Chrome/138.0.0.0 Safari/537.36","WebKit","Chrome","138.0.0.0","Windows","10.0","https://app.prolific.com/","en-GB,en;q=0.6","67d057fe81435b77cf5a4681","686d226cabeef709c732f8e1","686e3128ce032deca990cbc4","67d057fe81435b77cf5a4681","2025-07-09T09:34:26.593Z","","","","","","MotivationQ","","","","","","","","","","","","","","","","","","","","","","","","","","","","","","","","","","","","","","50",""
"","","","","ctl-task-cpt","73","1515966","0.0-10.0-0.6","152","1","2025-07-09 09:09:43","7701e855f2ef39aa3fd6c71abdc6918a","41.145.193.111","Mozilla/5.0 (Windows NT 10.0; Win64; x64) AppleWebKit/537.36 (KHTML, like Gecko) Chrome/138.0.0.0 Safari/537.36","WebKit","Chrome","138.0.0.0","Windows","10.0","https://app.prolific.com/","en-GB,en;q=0.6","67d057fe81435b77cf5a4681","686d226cabeef709c732f8e1","686e3128ce032deca990cbc4","67d057fe81435b77cf5a4681","2025-07-09T09:35:02.832Z","","","","","","","","","","","","","","","","win-only","2","g1:SE,g2:NW","0.4","7","0","1486009.3","1314","6331.4","33209.5","1","4","4","6","1","1","1","19","18","0.14393939393939395","1645.1","3000","2280","[""down"",""right""]","{""num_key_presses"":6,""num_perfect"":2,""num_errors"":0,""num_randdir"":4,""num_randdir_good_moves"":3,""num_whilered"":0,""num_whileblue"":0,""num_blue"":2,""num_good_moves"":5}","[357.9285637991769,355.4285685675485,0.6,357.9285637991769,355.4285685675485,112.5,357.9285637991769,355.4285685675485,232.2,357.9285637991769,355.4285685675485,337.7,357.9285637991769,355.4285685675485,453.1,357.9285637991769,355.4285685675485,565.8,357.9285637991769,355.4285685675485,679.2,357.9285637991769,355.4285685675485,782.9,385.4285637991769,377.9285685675485,905.9,559.1785637991769,540.4285685675485,1014,559.1785637991769,540.4285685675485,1127.7,575.4285637991769,565.4285685675485,1247.6,629.1785637991769,637.9285685675485,1362.4,644.1785637991769,657.9285685675485,1472.4,644.1785637991769,657.9285685675485,1586.6,644.1785637991769,657.9285685675485,1702.8,644.1785637991769,657.9285685675485,1806.6,644.1785637991769,657.9285685675485,1918.6,644.1785637991769,657.9285685675485,2028.3,644.1785637991769,657.9285685675485,2136.8,644.1785637991769,657.9285685675485,2238.7,644.1785637991769,657.9285685675485,2348.6,644.1785637991769,657.9285685675485,2455.1,644.1785637991769,657.9285685675485,2561.5,644.1785637991769,657.9285685675485,2665.8,644.1785637991769,657.9285685675485,2776.3,644.1785637991769,657.9285685675485,2892.9,644.1785637991769,657.9285685675485,2995.3,644.1785637991769,657.9285685675485,3096.1,644.1785637991769,657.9285685675485,3216.5,644.1785637991769,657.9285685675485,3328.9,644.1785637991769,657.9285685675485,3431.6,644.1785637991769,657.9285685675485,3537.2,644.1785637991769,657.9285685675485,3654.9,644.1785637991769,657.9285685675485,3772.4,644.1785637991769,657.9285685675485,3889.4,644.1785637991769,657.9285685675485,4003.5,644.1785637991769,657.9285685675485,4107.5,644.1785637991769,657.9285685675485,4207.5,644.1785637991769,657.9285685675485,4310.9,644.1785637991769,657.9285685675485,4428.3,644.1785637991769,657.9285685675485,4532.7,644.1785637991769,657.9285685675485,4637.8,644.1785637991769,657.9285685675485,4758.2,644.1785637991769,657.9285685675485,4876.7,644.1785637991769,657.9285685675485,4980.8]","[1459,1459,1000,0,459,""oops"",""down"",""left"",""bad_move"",5795.7,4336.1,3606.2,1459.6,729.9,""oops"",""down"",""down"",""good_move"",12041.7,6245.2,2031.7,9516.1,493.9,""oops"",""down"",""down"",""good_move"",15000.4,2958.2,2223,12042.2,735.2,""smooth"",""right"",""right"",""good_move"",19105.6,4103.1,3656.5,15002.5,446.6,""oops"",""right"",""right"",""good_move"",26505.7,7399.8,3014.5,23037.8,453.5,""smooth"",""right"",""right"",""good_move""]","","",""
"4141","","<div style=""width:500px;"">
  <p>What determined the result of this run?</p>
  </div>","85","html-slider-response","74","1520111","0.0-10.0-1.6","152","1","2025-07-09 09:09:43","7701e855f2ef39aa3fd6c71abdc6918a","41.145.193.111","Mozilla/5.0 (Windows NT 10.0; Win64; x64) AppleWebKit/537.36 (KHTML, like Gecko) Chrome/138.0.0.0 Safari/537.36","WebKit","Chrome","138.0.0.0","Windows","10.0","https://app.prolific.com/","en-GB,en;q=0.6","67d057fe81435b77cf5a4681","686d226cabeef709c732f8e1","686e3128ce032deca990cbc4","67d057fe81435b77cf5a4681","2025-07-09T09:35:06.977Z","","","","","","AttribQ","","","","","","","","","","","","","","","","","","","","","","","","","","","","","","","","","","","","","","50",""
"3261","","<div style=""width:500px;"">
  <p>How much control did you have over the ball?</p>
  </div>","89","html-slider-response","75","1523375","0.0-10.0-2.6","152","1","2025-07-09 09:09:43","7701e855f2ef39aa3fd6c71abdc6918a","41.145.193.111","Mozilla/5.0 (Windows NT 10.0; Win64; x64) AppleWebKit/537.36 (KHTML, like Gecko) Chrome/138.0.0.0 Safari/537.36","WebKit","Chrome","138.0.0.0","Windows","10.0","https://app.prolific.com/","en-GB,en;q=0.6","67d057fe81435b77cf5a4681","686d226cabeef709c732f8e1","686e3128ce032deca990cbc4","67d057fe81435b77cf5a4681","2025-07-09T09:35:10.241Z","","","","","","ControlQ","","","","","","","","","","","","","","","","","","","","","","","","","","","","","","","","","","","","","","50",""
"2670","","<div style=""width:500px;"">
  <p>How would you describe your current emotional state?</p>
  </div>","80","html-slider-response","76","1526047","0.0-10.0-3.6","152","1","2025-07-09 09:09:43","7701e855f2ef39aa3fd6c71abdc6918a","41.145.193.111","Mozilla/5.0 (Windows NT 10.0; Win64; x64) AppleWebKit/537.36 (KHTML, like Gecko) Chrome/138.0.0.0 Safari/537.36","WebKit","Chrome","138.0.0.0","Windows","10.0","https://app.prolific.com/","en-GB,en;q=0.6","67d057fe81435b77cf5a4681","686d226cabeef709c732f8e1","686e3128ce032deca990cbc4","67d057fe81435b77cf5a4681","2025-07-09T09:35:12.913Z","","","","","","StressQ","","","","","","","","","","","","","","","","","","","","","","","","","","","","","","","","","","","","","","50",""
"3940","","<div style=""width:500px;"">
  <p>What best describes how you currently feel?</p>
  </div>","80","html-slider-response","77","1529989","0.0-10.0-4.6","152","1","2025-07-09 09:09:43","7701e855f2ef39aa3fd6c71abdc6918a","41.145.193.111","Mozilla/5.0 (Windows NT 10.0; Win64; x64) AppleWebKit/537.36 (KHTML, like Gecko) Chrome/138.0.0.0 Safari/537.36","WebKit","Chrome","138.0.0.0","Windows","10.0","https://app.prolific.com/","en-GB,en;q=0.6","67d057fe81435b77cf5a4681","686d226cabeef709c732f8e1","686e3128ce032deca990cbc4","67d057fe81435b77cf5a4681","2025-07-09T09:35:16.855Z","","","","","","MotivationQ","","","","","","","","","","","","","","","","","","","","","","","","","","","","","","","","","","","","","","50",""
"","","","","ctl-task-cpt","78","1629950","0.0-10.0-0.7","152","1","2025-07-09 09:09:43","7701e855f2ef39aa3fd6c71abdc6918a","41.145.193.111","Mozilla/5.0 (Windows NT 10.0; Win64; x64) AppleWebKit/537.36 (KHTML, like Gecko) Chrome/138.0.0.0 Safari/537.36","WebKit","Chrome","138.0.0.0","Windows","10.0","https://app.prolific.com/","en-GB,en;q=0.6","67d057fe81435b77cf5a4681","686d226cabeef709c732f8e1","686e3128ce032deca990cbc4","67d057fe81435b77cf5a4681","2025-07-09T09:36:56.816Z","","","","","","","","","","","","","","","","win-only","0","g1:NW,g2:SE","0.3","8","0","1536271","2023.1","7030.4","96927.4","1","4","8","6","1","-1","-1","18","19","0.13636363636363635","1729.7","3000","-560","[""left"",""up""]","{""num_key_presses"":21,""num_perfect"":6,""num_errors"":0,""num_randdir"":15,""num_randdir_good_moves"":5,""num_whilered"":0,""num_whileblue"":0,""num_blue"":2,""num_good_moves"":10}","[359.1785637991769,346.6785685675485,0.5,359.1785637991769,346.6785685675485,122.5,359.1785637991769,346.6785685675485,237.5,359.1785637991769,346.6785685675485,344.9,359.1785637991769,346.6785685675485,460.3,359.1785637991769,346.6785685675485,576.2,359.1785637991769,346.6785685675485,688.2,359.1785637991769,346.6785685675485,809.7,359.1785637991769,346.6785685675485,922.4,304.1785637991769,306.6785685675485,1025.2,197.9285637991769,140.4285685675485,1133.7,197.9285637991769,140.4285685675485,1256.1,197.9285637991769,140.4285685675485,1376.5,60.4285637991769,85.42856856754848,1490.3,54.1785637991769,80.42856856754848,1594.3,54.1785637991769,80.42856856754848,1709,54.1785637991769,80.42856856754848,1809.1,54.1785637991769,80.42856856754848,1920.7,54.1785637991769,80.42856856754848,2039.2,54.1785637991769,80.42856856754848,2139.8,54.1785637991769,80.42856856754848,2255,54.1785637991769,80.42856856754848,2374.8,66.6785637991769,130.4285685675485,2486.2,190.4285637991769,267.9285685675485,2594.2,212.9285637991769,289.1785685675485,2697.8,212.9285637991769,289.1785685675485,2802,212.9285637991769,289.1785685675485,2912.6,212.9285637991769,289.1785685675485,3021.2,212.9285637991769,289.1785685675485,3141.7,212.9285637991769,289.1785685675485,3265,212.9285637991769,289.1785685675485,3379.4,212.9285637991769,289.1785685675485,3485.6,212.9285637991769,289.1785685675485,3590.3,212.9285637991769,289.1785685675485,3697.3,212.9285637991769,289.1785685675485,3799.4,212.9285637991769,289.1785685675485,3908.6,212.9285637991769,289.1785685675485,4021.9,212.9285637991769,289.1785685675485,4134.2,212.9285637991769,289.1785685675485,4246.2,212.9285637991769,289.1785685675485,4355.5,212.9285637991769,289.1785685675485,4456.7,212.9285637991769,289.1785685675485,4559.4,212.9285637991769,289.1785685675485,4674.9,212.9285637991769,289.1785685675485,4778.2,212.9285637991769,289.1785685675485,4888.1,212.9285637991769,289.1785685675485,4993.3]","[1112,1112,1000,0,112,""oops"",""left"",""right"",""bad_move"",4165.2,3052.3,2462,1112.9,590.5,""oops"",""up"",""right"",""bad_move"",7682,3516.1,2968.3,4165.9,547.8,""oops"",""up"",""right"",""bad_move"",11092.9,3410.3,2860.5,7682.6,549.8,""smooth"",""up"",""up"",""good_move"",15454.4,4359.7,1295.9,11094.7,3063.8,""smooth"",""up"",""up"",""good_move"",19368,3912,2448.7,15456,1463.3,""oops"",""left"",""down"",""bad_move"",23226.3,3857.8,3034.8,19368.5,823,""oops"",""up"",""up"",""good_move"",28112.9,4885.9,2243,23227,2642.9,""smooth"",""left"",""left"",""good_move"",33107.2,4992.9,2671.8,28114.3,2321.1,""oops"",""left"",""right"",""bad_move"",36405.2,3297.3,2681.3,33107.9,616,""oops"",""left"",""left"",""good_move"",41644.7,5238.9,2506.5,36405.8,2732.4,""smooth"",""left"",""left"",""good_move"",46010.3,4365,2783,41645.3,1582,""oops"",""left"",""right"",""bad_move"",48956.5,2945.8,2384.6,46010.8,561.1,""oops"",""left"",""right"",""bad_move"",56059.6,7101.6,3079.6,52262.9,717.1,""oops"",""left"",""left"",""good_move"",60458.9,4398.6,1462.8,56060.3,2935.8,""oops"",""left"",""right"",""bad_move"",64129.8,3670,2485.5,60459.8,1184.5,""smooth"",""down"",""down"",""bad_move"",66816.3,2685.6,2047.3,64130.7,638.3,""oops"",""left"",""down"",""bad_move"",69477.3,2660.3,2249.4,66817,410.9,""oops"",""left"",""up"",""good_move"",76192.5,6714.7,2266.7,73499.6,426.2,""smooth"",""up"",""up"",""good_move"",80434.2,4241.1,2000.8,76193.2,2240.2,""oops"",""left"",""down"",""bad_move"",85212.8,4777.2,3082,80435.8,1695,""oops"",""down"",""up"",""good_move""]","","",""
"4221","","<div style=""width:500px;"">
  <p>What determined the result of this run?</p>
  </div>","88","html-slider-response","79","1634174","0.0-10.0-1.7","152","1","2025-07-09 09:09:43","7701e855f2ef39aa3fd6c71abdc6918a","41.145.193.111","Mozilla/5.0 (Windows NT 10.0; Win64; x64) AppleWebKit/537.36 (KHTML, like Gecko) Chrome/138.0.0.0 Safari/537.36","WebKit","Chrome","138.0.0.0","Windows","10.0","https://app.prolific.com/","en-GB,en;q=0.6","67d057fe81435b77cf5a4681","686d226cabeef709c732f8e1","686e3128ce032deca990cbc4","67d057fe81435b77cf5a4681","2025-07-09T09:37:01.040Z","","","","","","AttribQ","","","","","","","","","","","","","","","","","","","","","","","","","","","","","","","","","","","","","","50",""
"5243","","<div style=""width:500px;"">
  <p>How much control did you have over the ball?</p>
  </div>","9","html-slider-response","80","1639426","0.0-10.0-2.7","152","1","2025-07-09 09:09:43","7701e855f2ef39aa3fd6c71abdc6918a","41.145.193.111","Mozilla/5.0 (Windows NT 10.0; Win64; x64) AppleWebKit/537.36 (KHTML, like Gecko) Chrome/138.0.0.0 Safari/537.36","WebKit","Chrome","138.0.0.0","Windows","10.0","https://app.prolific.com/","en-GB,en;q=0.6","67d057fe81435b77cf5a4681","686d226cabeef709c732f8e1","686e3128ce032deca990cbc4","67d057fe81435b77cf5a4681","2025-07-09T09:37:06.292Z","","","","","","ControlQ","","","","","","","","","","","","","","","","","","","","","","","","","","","","","","","","","","","","","","50",""
"5115","","<div style=""width:500px;"">
  <p>How would you describe your current emotional state?</p>
  </div>","64","html-slider-response","81","1644542","0.0-10.0-3.7","152","1","2025-07-09 09:09:43","7701e855f2ef39aa3fd6c71abdc6918a","41.145.193.111","Mozilla/5.0 (Windows NT 10.0; Win64; x64) AppleWebKit/537.36 (KHTML, like Gecko) Chrome/138.0.0.0 Safari/537.36","WebKit","Chrome","138.0.0.0","Windows","10.0","https://app.prolific.com/","en-GB,en;q=0.6","67d057fe81435b77cf5a4681","686d226cabeef709c732f8e1","686e3128ce032deca990cbc4","67d057fe81435b77cf5a4681","2025-07-09T09:37:11.408Z","","","","","","StressQ","","","","","","","","","","","","","","","","","","","","","","","","","","","","","","","","","","","","","","50",""
"4812","","<div style=""width:500px;"">
  <p>What best describes how you currently feel?</p>
  </div>","36","html-slider-response","82","1649357","0.0-10.0-4.7","152","1","2025-07-09 09:09:43","7701e855f2ef39aa3fd6c71abdc6918a","41.145.193.111","Mozilla/5.0 (Windows NT 10.0; Win64; x64) AppleWebKit/537.36 (KHTML, like Gecko) Chrome/138.0.0.0 Safari/537.36","WebKit","Chrome","138.0.0.0","Windows","10.0","https://app.prolific.com/","en-GB,en;q=0.6","67d057fe81435b77cf5a4681","686d226cabeef709c732f8e1","686e3128ce032deca990cbc4","67d057fe81435b77cf5a4681","2025-07-09T09:37:16.223Z","","","","","","MotivationQ","","","","","","","","","","","","","","","","","","","","","","","","","","","","","","","","","","","","","","50",""
"","","","","ctl-task-cpt","83","1676196","0.0-10.0-0.8","152","1","2025-07-09 09:09:43","7701e855f2ef39aa3fd6c71abdc6918a","41.145.193.111","Mozilla/5.0 (Windows NT 10.0; Win64; x64) AppleWebKit/537.36 (KHTML, like Gecko) Chrome/138.0.0.0 Safari/537.36","WebKit","Chrome","138.0.0.0","Windows","10.0","https://app.prolific.com/","en-GB,en;q=0.6","67d057fe81435b77cf5a4681","686d226cabeef709c732f8e1","686e3128ce032deca990cbc4","67d057fe81435b77cf5a4681","2025-07-09T09:37:43.062Z","","","","","","","","","","","","","","","","win-only","3","g1:SW,g2:NE","0.2","9","0","1655639.3","1426.5","6449.7","23811.5","1","4","4","6","1","1","1","19","18","0.14393939393939395","1608.7","3000","2600","[""down"",""left""]","{""num_key_presses"":4,""num_perfect"":1,""num_errors"":0,""num_randdir"":3,""num_randdir_good_moves"":3,""num_whilered"":0,""num_whileblue"":0,""num_blue"":1,""num_good_moves"":4}","[352.9285637991769,346.6785685675485,0.3,352.9285637991769,346.6785685675485,104.4,352.9285637991769,346.6785685675485,217.7,352.9285637991769,346.6785685675485,328.9,352.9285637991769,346.6785685675485,433.5,352.9285637991769,346.6785685675485,553.2,352.9285637991769,346.6785685675485,676.9,352.9285637991769,346.6785685675485,789.5,354.1785637991769,354.1785685675485,902.7,222.9285637991769,481.6785685675485,1026.3,146.6785637991769,555.4285685675485,1154.1,99.1785637991769,606.6785685675485,1283.2,61.6785637991769,641.6785685675485,1405.6,61.6785637991769,641.6785685675485,1514.5,61.6785637991769,641.6785685675485,1630.9,61.6785637991769,641.6785685675485,1745.6,61.6785637991769,641.6785685675485,1873.5,61.6785637991769,641.6785685675485,2006.4,61.6785637991769,641.6785685675485,2112.6,61.6785637991769,641.6785685675485,2248.6,61.6785637991769,641.6785685675485,2380.6,61.6785637991769,641.6785685675485,2505.6,61.6785637991769,641.6785685675485,2628.4,61.6785637991769,641.6785685675485,2760.5,61.6785637991769,641.6785685675485,2882.3,61.6785637991769,641.6785685675485,3007.4,61.6785637991769,641.6785685675485,3116,61.6785637991769,641.6785685675485,3241.1,61.6785637991769,641.6785685675485,3364,61.6785637991769,641.6785685675485,3488.5,61.6785637991769,641.6785685675485,3615,61.6785637991769,641.6785685675485,3739.7,61.6785637991769,641.6785685675485,3846.1,61.6785637991769,641.6785685675485,3970.1,61.6785637991769,641.6785685675485,4073.2,61.6785637991769,641.6785685675485,4201.9,61.6785637991769,641.6785685675485,4320.5,61.6785637991769,641.6785685675485,4447.9,61.6785637991769,641.6785685675485,4575.7,61.6785637991769,641.6785685675485,4703.6,61.6785637991769,641.6785685675485,4833.3,61.6785637991769,641.6785685675485,4959.4]","[1599.9,1599.9,1000,0,599.9,""oops"",""left"",""left"",""good_move"",7740.2,6139.1,2347.3,1601.1,3791.8,""oops"",""down"",""down"",""good_move"",10942.8,3202.1,2574.5,7740.7,627.6,""oops"",""down"",""down"",""good_move"",16922,5978.7,2036.5,14448.7,436.8,""smooth"",""left"",""left"",""good_move""]","","",""
"3743","","<div style=""width:500px;"">
  <p>What determined the result of this run?</p>
  </div>","84","html-slider-response","84","1679942","0.0-10.0-1.8","152","1","2025-07-09 09:09:43","7701e855f2ef39aa3fd6c71abdc6918a","41.145.193.111","Mozilla/5.0 (Windows NT 10.0; Win64; x64) AppleWebKit/537.36 (KHTML, like Gecko) Chrome/138.0.0.0 Safari/537.36","WebKit","Chrome","138.0.0.0","Windows","10.0","https://app.prolific.com/","en-GB,en;q=0.6","67d057fe81435b77cf5a4681","686d226cabeef709c732f8e1","686e3128ce032deca990cbc4","67d057fe81435b77cf5a4681","2025-07-09T09:37:46.808Z","","","","","","AttribQ","","","","","","","","","","","","","","","","","","","","","","","","","","","","","","","","","","","","","","50",""
"3682","","<div style=""width:500px;"">
  <p>How much control did you have over the ball?</p>
  </div>","73","html-slider-response","85","1683628","0.0-10.0-2.8","152","1","2025-07-09 09:09:43","7701e855f2ef39aa3fd6c71abdc6918a","41.145.193.111","Mozilla/5.0 (Windows NT 10.0; Win64; x64) AppleWebKit/537.36 (KHTML, like Gecko) Chrome/138.0.0.0 Safari/537.36","WebKit","Chrome","138.0.0.0","Windows","10.0","https://app.prolific.com/","en-GB,en;q=0.6","67d057fe81435b77cf5a4681","686d226cabeef709c732f8e1","686e3128ce032deca990cbc4","67d057fe81435b77cf5a4681","2025-07-09T09:37:50.494Z","","","","","","ControlQ","","","","","","","","","","","","","","","","","","","","","","","","","","","","","","","","","","","","","","50",""
"5261","","<div style=""width:500px;"">
  <p>How would you describe your current emotional state?</p>
  </div>","28","html-slider-response","86","1688891","0.0-10.0-3.8","152","1","2025-07-09 09:09:43","7701e855f2ef39aa3fd6c71abdc6918a","41.145.193.111","Mozilla/5.0 (Windows NT 10.0; Win64; x64) AppleWebKit/537.36 (KHTML, like Gecko) Chrome/138.0.0.0 Safari/537.36","WebKit","Chrome","138.0.0.0","Windows","10.0","https://app.prolific.com/","en-GB,en;q=0.6","67d057fe81435b77cf5a4681","686d226cabeef709c732f8e1","686e3128ce032deca990cbc4","67d057fe81435b77cf5a4681","2025-07-09T09:37:55.758Z","","","","","","StressQ","","","","","","","","","","","","","","","","","","","","","","","","","","","","","","","","","","","","","","50",""
"3449","","<div style=""width:500px;"">
  <p>What best describes how you currently feel?</p>
  </div>","68","html-slider-response","87","1692342","0.0-10.0-4.8","152","1","2025-07-09 09:09:43","7701e855f2ef39aa3fd6c71abdc6918a","41.145.193.111","Mozilla/5.0 (Windows NT 10.0; Win64; x64) AppleWebKit/537.36 (KHTML, like Gecko) Chrome/138.0.0.0 Safari/537.36","WebKit","Chrome","138.0.0.0","Windows","10.0","https://app.prolific.com/","en-GB,en;q=0.6","67d057fe81435b77cf5a4681","686d226cabeef709c732f8e1","686e3128ce032deca990cbc4","67d057fe81435b77cf5a4681","2025-07-09T09:37:59.208Z","","","","","","MotivationQ","","","","","","","","","","","","","","","","","","","","","","","","","","","","","","","","","","","","","","50",""
