"rt","response_timestamp","stimulus","response","trial_type","trial_index","time_elapsed","internal_node_id","run_id","condition","recorded_at","source_code_version","ip","user_agent","device","browser","browser_version","platform","platform_version","referer","accept_language","PROLIFIC_PID","STUDY_ID","SESSION_ID","prolific_id","realtime","view_history","question_order","consent","success","question_id","eventType","responses","item_order","radio_event_ids","radio_event_times","key_event_times","mouse_event_times","straightlining","zigzagging","honeypot","which_type","canvas_config","goals_layout","control_level","trial_number","tutorial_trial_number","trial_start_time","phase1_start_time","phase2_start_time","phase3_start_time","goal_1_value","goal_1_distance","goal_2_value","goal_2_distance","goal_selected","outcome","outcome_total","participant_final_score","participant_initial_score","participant_final_score_prop","goal_choice_rt","allocated_time","allocated_time_remaining","goal_direction","counts","mouse_movements","key_presses","correct","slider_start","sub_question"
"32356","1752052072145","<p style='font-size:40px;line-height:1.25'><strong>Welcome to the experiment!</strong></p><p style='font-size:1.1em;line-height:1.25'>Thank you for your interest in our experiment! Before you begin, it is important that we obtain your informed consent to participate in the study.</p><p style='font-size:1.1em;line-height:1.25'>On the next screen will be an <strong>information sheet</strong> for you to read. To participate in the study we need you to read this information sheet and the following consent form carefully. If you agree with all the statements, please click the <strong>I agree</strong> button.</p><p style='font-size:1.1em;line-height:1.25'>Press <strong>Next</strong> to read the information sheet.</p>","0","custom-html-button-response","0","32358","0.0-0.0","53","1","2025-07-09 09:07:16","7701e855f2ef39aa3fd6c71abdc6918a","154.114.40.2","Mozilla/5.0 (Windows NT 10.0; Win64; x64) AppleWebKit/537.36 (KHTML, like Gecko) Chrome/137.0.0.0 Safari/537.36","WebKit","Chrome","137.0.0.0","Windows","10.0","https://app.prolific.com/","en-US,en;q=0.9","614de26d812e1b34acd48dfb","686d226cabeef709c732f8e1","686e310dc68e54bd44e04eaf","614de26d812e1b34acd48dfb","2025-07-09T09:07:52.145Z","","","","","","","","","","","","","","","","","","","","","","","","","","","","","","","","","","","","","","","","","","","","",""
"103487","","","","instructions","1","135846","0.0-1.0","53","1","2025-07-09 09:07:16","7701e855f2ef39aa3fd6c71abdc6918a","154.114.40.2","Mozilla/5.0 (Windows NT 10.0; Win64; x64) AppleWebKit/537.36 (KHTML, like Gecko) Chrome/137.0.0.0 Safari/537.36","WebKit","Chrome","137.0.0.0","Windows","10.0","https://app.prolific.com/","en-US,en;q=0.9","614de26d812e1b34acd48dfb","686d226cabeef709c732f8e1","686e310dc68e54bd44e04eaf","614de26d812e1b34acd48dfb","","[{""page_index"":0,""viewing_time"":85573},{""page_index"":1,""viewing_time"":17913}]","","","","","","","","","","","","","","","","","","","","","","","","","","","","","","","","","","","","","","","","","","","",""
"21973","","","{""Q0"":"""",""Q1"":"""",""Q2"":"""",""Q3"":"""",""Q4"":"""",""Q5"":"""",""Q6"":""I agree""}","survey-multi-choice","2","157821","0.0-2.0","53","1","2025-07-09 09:07:16","7701e855f2ef39aa3fd6c71abdc6918a","154.114.40.2","Mozilla/5.0 (Windows NT 10.0; Win64; x64) AppleWebKit/537.36 (KHTML, like Gecko) Chrome/137.0.0.0 Safari/537.36","WebKit","Chrome","137.0.0.0","Windows","10.0","https://app.prolific.com/","en-US,en;q=0.9","614de26d812e1b34acd48dfb","686d226cabeef709c732f8e1","686e310dc68e54bd44e04eaf","614de26d812e1b34acd48dfb","","","[0,1,2,3,4,5,6]","true","","","","","","","","","","","","","","","","","","","","","","","","","","","","","","","","","","","","","","","","","",""
"23160","","","","fullscreen","3","182000","0.0-4.0","53","1","2025-07-09 09:07:16","7701e855f2ef39aa3fd6c71abdc6918a","154.114.40.2","Mozilla/5.0 (Windows NT 10.0; Win64; x64) AppleWebKit/537.36 (KHTML, like Gecko) Chrome/137.0.0.0 Safari/537.36","WebKit","Chrome","137.0.0.0","Windows","10.0","https://app.prolific.com/","en-US,en;q=0.9","614de26d812e1b34acd48dfb","686d226cabeef709c732f8e1","686e310dc68e54bd44e04eaf","614de26d812e1b34acd48dfb","","","","","true","","","","","","","","","","","","","","","","","","","","","","","","","","","","","","","","","","","","","","","","",""
"9081","1752052230870"," <p style='font-size:1.1em;line-height:1.25'>Thank you for completing the consent form and closing all other tabs.</p><p style='font-size:1.1em;line-height:1.25'>We will now invite you to fill in some demographic information and questionnaires, before starting the game.<br>This will take about 5 minutes.<br></p><p style='font-size:1.1em;line-height:1.25'>Press the <strong>Next</strong> button to continue.</p>","0","custom-html-button-response","4","191083","0.0-5.0","53","1","2025-07-09 09:07:16","7701e855f2ef39aa3fd6c71abdc6918a","154.114.40.2","Mozilla/5.0 (Windows NT 10.0; Win64; x64) AppleWebKit/537.36 (KHTML, like Gecko) Chrome/137.0.0.0 Safari/537.36","WebKit","Chrome","137.0.0.0","Windows","10.0","https://app.prolific.com/","en-US,en;q=0.9","614de26d812e1b34acd48dfb","686d226cabeef709c732f8e1","686e310dc68e54bd44e04eaf","614de26d812e1b34acd48dfb","2025-07-09T09:10:30.870Z","","","","","","","","","","","","","","","","","","","","","","","","","","","","","","","","","","","","","","","","","","","","",""
"4249","","","{""age"":""31""}","survey-text","5","195339","0.0-6.0-0.0","53","1","2025-07-09 09:07:16","7701e855f2ef39aa3fd6c71abdc6918a","154.114.40.2","Mozilla/5.0 (Windows NT 10.0; Win64; x64) AppleWebKit/537.36 (KHTML, like Gecko) Chrome/137.0.0.0 Safari/537.36","WebKit","Chrome","137.0.0.0","Windows","10.0","https://app.prolific.com/","en-US,en;q=0.9","614de26d812e1b34acd48dfb","686d226cabeef709c732f8e1","686e310dc68e54bd44e04eaf","614de26d812e1b34acd48dfb","","","","","","0","demographics","","","","","","","","","","","","","","","","","","","","","","","","","","","","","","","","","","","","","","",""
"4606","","","{""gender_identity"":""female/woman""}","survey-multi-choice","6","199947","0.0-6.0-1.0","53","1","2025-07-09 09:07:16","7701e855f2ef39aa3fd6c71abdc6918a","154.114.40.2","Mozilla/5.0 (Windows NT 10.0; Win64; x64) AppleWebKit/537.36 (KHTML, like Gecko) Chrome/137.0.0.0 Safari/537.36","WebKit","Chrome","137.0.0.0","Windows","10.0","https://app.prolific.com/","en-US,en;q=0.9","614de26d812e1b34acd48dfb","686d226cabeef709c732f8e1","686e310dc68e54bd44e04eaf","614de26d812e1b34acd48dfb","","","[0]","","","1","demographics","","","","","","","","","","","","","","","","","","","","","","","","","","","","","","","","","","","","","","",""
"4832","","","{""assigned_sex"":""female""}","survey-multi-choice","7","204780","0.0-6.0-2.0","53","1","2025-07-09 09:07:16","7701e855f2ef39aa3fd6c71abdc6918a","154.114.40.2","Mozilla/5.0 (Windows NT 10.0; Win64; x64) AppleWebKit/537.36 (KHTML, like Gecko) Chrome/137.0.0.0 Safari/537.36","WebKit","Chrome","137.0.0.0","Windows","10.0","https://app.prolific.com/","en-US,en;q=0.9","614de26d812e1b34acd48dfb","686d226cabeef709c732f8e1","686e310dc68e54bd44e04eaf","614de26d812e1b34acd48dfb","","","[0]","","","2","demographics","","","","","","","","","","","","","","","","","","","","","","","","","","","","","","","","","","","","","","",""
"4799","","","{""menstrual_cycle"":""Yes""}","survey-multi-choice","8","209582","0.0-6.0-3.0","53","1","2025-07-09 09:07:16","7701e855f2ef39aa3fd6c71abdc6918a","154.114.40.2","Mozilla/5.0 (Windows NT 10.0; Win64; x64) AppleWebKit/537.36 (KHTML, like Gecko) Chrome/137.0.0.0 Safari/537.36","WebKit","Chrome","137.0.0.0","Windows","10.0","https://app.prolific.com/","en-US,en;q=0.9","614de26d812e1b34acd48dfb","686d226cabeef709c732f8e1","686e310dc68e54bd44e04eaf","614de26d812e1b34acd48dfb","","","[0]","","","4","demographics","","","","","","","","","","","","","","","","","","","","","","","","","","","","","","","","","","","","","","",""
"8349","","","{""education"":""Doctoral Degree (e.g., PhD)""}","survey-multi-choice","9","217932","0.0-6.0-4.0","53","1","2025-07-09 09:07:16","7701e855f2ef39aa3fd6c71abdc6918a","154.114.40.2","Mozilla/5.0 (Windows NT 10.0; Win64; x64) AppleWebKit/537.36 (KHTML, like Gecko) Chrome/137.0.0.0 Safari/537.36","WebKit","Chrome","137.0.0.0","Windows","10.0","https://app.prolific.com/","en-US,en;q=0.9","614de26d812e1b34acd48dfb","686d226cabeef709c732f8e1","686e310dc68e54bd44e04eaf","614de26d812e1b34acd48dfb","","","[0]","","","5","demographics","","","","","","","","","","","","","","","","","","","","","","","","","","","","","","","","","","","","","","",""
"19999","","","{""education"":""Bachelor's Degree (e.g., BA)""}","survey-multi-choice","10","237932","0.0-6.0-5.0","53","1","2025-07-09 09:07:16","7701e855f2ef39aa3fd6c71abdc6918a","154.114.40.2","Mozilla/5.0 (Windows NT 10.0; Win64; x64) AppleWebKit/537.36 (KHTML, like Gecko) Chrome/137.0.0.0 Safari/537.36","WebKit","Chrome","137.0.0.0","Windows","10.0","https://app.prolific.com/","en-US,en;q=0.9","614de26d812e1b34acd48dfb","686d226cabeef709c732f8e1","686e310dc68e54bd44e04eaf","614de26d812e1b34acd48dfb","2025-07-09T09:11:17.719Z","","[0]","","","6","demographics","","","","","","","","","","","","","","","","","","","","","","","","","","","","","","","","","","","","","","",""
"14378","","","{""mental_health_condition"":""No"",""mental_health_treatment"":""No"",""psychiatric_medication"":""""}","survey-text","11","252312","0.0-7.0-0.0","53","1","2025-07-09 09:07:16","7701e855f2ef39aa3fd6c71abdc6918a","154.114.40.2","Mozilla/5.0 (Windows NT 10.0; Win64; x64) AppleWebKit/537.36 (KHTML, like Gecko) Chrome/137.0.0.0 Safari/537.36","WebKit","Chrome","137.0.0.0","Windows","10.0","https://app.prolific.com/","en-US,en;q=0.9","614de26d812e1b34acd48dfb","686d226cabeef709c732f8e1","686e310dc68e54bd44e04eaf","614de26d812e1b34acd48dfb","2025-07-09T09:11:32.099Z","","","","","1","mental_health","","","","","","","","","","","","","","","","","","","","","","","","","","","","","","","","","","","","","","",""
"19864","","","{""depression_history"":[""Yes""]}","survey-multi-select","12","272179","0.0-7.0-1.0","53","1","2025-07-09 09:07:16","7701e855f2ef39aa3fd6c71abdc6918a","154.114.40.2","Mozilla/5.0 (Windows NT 10.0; Win64; x64) AppleWebKit/537.36 (KHTML, like Gecko) Chrome/137.0.0.0 Safari/537.36","WebKit","Chrome","137.0.0.0","Windows","10.0","https://app.prolific.com/","en-US,en;q=0.9","614de26d812e1b34acd48dfb","686d226cabeef709c732f8e1","686e310dc68e54bd44e04eaf","614de26d812e1b34acd48dfb","","","[0]","","","","mental_health","","","","","","","","","","","","","","","","","","","","","","","","","","","","","","","","","","","","","","",""
"12028","","","{""depression_episodes"":""more than 5"",""depression_recent"":""Currently experiencing an episode""}","survey-multi-choice","13","284209","0.0-7.0-2.0-0.0","53","1","2025-07-09 09:07:16","7701e855f2ef39aa3fd6c71abdc6918a","154.114.40.2","Mozilla/5.0 (Windows NT 10.0; Win64; x64) AppleWebKit/537.36 (KHTML, like Gecko) Chrome/137.0.0.0 Safari/537.36","WebKit","Chrome","137.0.0.0","Windows","10.0","https://app.prolific.com/","en-US,en;q=0.9","614de26d812e1b34acd48dfb","686d226cabeef709c732f8e1","686e310dc68e54bd44e04eaf","614de26d812e1b34acd48dfb","2025-07-09T09:12:03.996Z","","[0,1]","","","3","mental_health","","","","","","","","","","","","","","","","","","","","","","","","","","","","","","","","","","","","","","",""
"120490.60000014305","","","","survey-template","14","404701","0.0-7.0-3.0","53","1","2025-07-09 09:07:16","7701e855f2ef39aa3fd6c71abdc6918a","154.114.40.2","Mozilla/5.0 (Windows NT 10.0; Win64; x64) AppleWebKit/537.36 (KHTML, like Gecko) Chrome/137.0.0.0 Safari/537.36","WebKit","Chrome","137.0.0.0","Windows","10.0","https://app.prolific.com/","en-US,en;q=0.9","614de26d812e1b34acd48dfb","686d226cabeef709c732f8e1","686e310dc68e54bd44e04eaf","614de26d812e1b34acd48dfb","2025-07-09T09:14:04.488Z","","","","","","ius","{""Q01"":""3"",""Q02"":""3"",""Q03"":""3"",""Q04"":""3"",""Q05"":""4"",""Q06"":""3"",""Q07"":""3"",""Q08"":""0"",""Q09"":""3"",""Q10"":""3"",""Q11"":""3"",""Q12"":""4"",""Q13"":""4""}","[0,1,2,3,4,5,6,7,8,9,10,11,12]","[""Q01"",""Q02"",""Q03"",""Q04"",""Q05"",""Q05"",""Q06"",""Q07"",""Q08"",""Q09"",""Q10"",""Q11"",""Q12"",""Q12"",""Q13""]","[33445.10000014305,39856.40000009537,44424.200000047684,49294.799999952316,55476.700000047684,57610.40000009537,64618.5,68647.5,74529.29999995232,82200.40000009537,90129.90000009537,103623.40000009537,112915.60000014305,114564.10000014305,118828.10000014305]","[]","[33445.10000014305,38426,39856.40000009537,44424.200000047684,49294.799999952316,55476.700000047684,57610.40000009537,64618.5,68647.5,74529.29999995232,81063.90000009537,82200.40000009537,90129.90000009537,103623.40000009537,112915.60000014305,114564.10000014305,118828.10000014305,120489]","0.6923076923076923","0.25","0","","","","","","","","","","","","","","","","","","","","","","","","","","","","","",""
"5085","1752052449574","<p style='font-size:1.1em;line-height:1.25'>In the following, we will ask you a few questions relating to your experiences over the past month.<br></p><p style='font-size:1.1em;line-height:1.25'>Press the <strong>Next</strong> button to continue.</p>","0","custom-html-button-response","15","409788","0.0-7.0-4.0","53","1","2025-07-09 09:07:16","7701e855f2ef39aa3fd6c71abdc6918a","154.114.40.2","Mozilla/5.0 (Windows NT 10.0; Win64; x64) AppleWebKit/537.36 (KHTML, like Gecko) Chrome/137.0.0.0 Safari/537.36","WebKit","Chrome","137.0.0.0","Windows","10.0","https://app.prolific.com/","en-US,en;q=0.9","614de26d812e1b34acd48dfb","686d226cabeef709c732f8e1","686e310dc68e54bd44e04eaf","614de26d812e1b34acd48dfb","2025-07-09T09:14:09.575Z","","","","","","","","","","","","","","","","","","","","","","","","","","","","","","","","","","","","","","","","","","","","",""
"118985.09999990463","","","","survey-template","16","528776","0.0-7.0-5.0","53","1","2025-07-09 09:07:16","7701e855f2ef39aa3fd6c71abdc6918a","154.114.40.2","Mozilla/5.0 (Windows NT 10.0; Win64; x64) AppleWebKit/537.36 (KHTML, like Gecko) Chrome/137.0.0.0 Safari/537.36","WebKit","Chrome","137.0.0.0","Windows","10.0","https://app.prolific.com/","en-US,en;q=0.9","614de26d812e1b34acd48dfb","686d226cabeef709c732f8e1","686e310dc68e54bd44e04eaf","614de26d812e1b34acd48dfb","2025-07-09T09:16:08.563Z","","","","","","pss","{""Q01"":""2"",""Q02"":""2"",""Q03"":""3"",""Q04"":""2"",""Q05"":""3"",""Q06"":""2"",""Q07"":""2"",""Q08"":""2"",""Q09"":""3"",""Q10"":""3""}","[0,1,2,3,4,5,6,7,8,9]","[""Q01"",""Q01"",""Q01"",""Q02"",""Q03"",""Q04"",""Q05"",""Q06"",""Q07"",""Q08"",""Q09"",""Q10""]","[17979.5,23715.099999904633,25780.099999904633,37833.59999990463,42346.299999952316,53259.39999985695,60687.199999809265,76866.79999995232,85309.09999990463,95643.09999990463,110031.19999980927,117771.59999990463]","[]","[0,17979.5,23715.099999904633,25780.099999904633,37833.59999990463,42346.299999952316,53259.39999985695,60687.199999809265,76866.79999995232,85309.09999990463,95643.09999990463,110031.19999980927,117771.59999990463,118984.09999990463]","0.6","0.5555555555555556","0","","","","","","","","","","","","","","","","","","","","","","","","","","","","","",""
"5617","1752052574180","<p style='font-size:1.1em;line-height:1.25'>Thank you for your answers! Now we will ask you a few more questions relating to your feelings in the last 24 hours.<br></p><p style='font-size:1.1em;line-height:1.25'>Press the <strong>Next</strong> button to continue.</p>","0","custom-html-button-response","17","534394","0.0-7.0-6.0","53","1","2025-07-09 09:07:16","7701e855f2ef39aa3fd6c71abdc6918a","154.114.40.2","Mozilla/5.0 (Windows NT 10.0; Win64; x64) AppleWebKit/537.36 (KHTML, like Gecko) Chrome/137.0.0.0 Safari/537.36","WebKit","Chrome","137.0.0.0","Windows","10.0","https://app.prolific.com/","en-US,en;q=0.9","614de26d812e1b34acd48dfb","686d226cabeef709c732f8e1","686e310dc68e54bd44e04eaf","614de26d812e1b34acd48dfb","2025-07-09T09:16:14.181Z","","","","","","","","","","","","","","","","","","","","","","","","","","","","","","","","","","","","","","","","","","","","",""
"130997.5","","","","survey-template","18","665393","0.0-7.0-7.0","53","1","2025-07-09 09:07:16","7701e855f2ef39aa3fd6c71abdc6918a","154.114.40.2","Mozilla/5.0 (Windows NT 10.0; Win64; x64) AppleWebKit/537.36 (KHTML, like Gecko) Chrome/137.0.0.0 Safari/537.36","WebKit","Chrome","137.0.0.0","Windows","10.0","https://app.prolific.com/","en-US,en;q=0.9","614de26d812e1b34acd48dfb","686d226cabeef709c732f8e1","686e310dc68e54bd44e04eaf","614de26d812e1b34acd48dfb","2025-07-09T09:18:25.180Z","","","","","","drsp","{""Q01"":""4"",""Q02"":""4"",""Q03"":""4"",""Q04"":""5"",""Q05"":""4"",""Q06"":""3"",""Q07"":""4"",""Q08"":""3"",""Q09"":""2"",""Q10"":""2"",""Q11"":""4"",""Q12"":""0"",""Q13"":""0"",""Q14"":""4"",""Q15"":""0"",""Q16"":""5"",""Q17"":""5"",""Q18"":""0"",""Q19"":""1"",""Q20"":""1"",""Q21"":""1""}","[0,1,2,3,4,5,6,7,8,9,10,11,12,13,14,15,16,17,18,19,20]","[""Q01"",""Q02"",""Q03"",""Q04"",""Q05"",""Q06"",""Q07"",""Q08"",""Q09"",""Q09"",""Q10"",""Q11"",""Q11"",""Q12"",""Q13"",""Q14"",""Q15"",""Q16"",""Q17"",""Q18"",""Q19"",""Q19"",""Q20"",""Q21""]","[9234.299999952316,14090.700000047684,16404.799999952316,19995.10000014305,24079.10000014305,31270.700000047684,35542.40000009537,43404.299999952316,46283.799999952316,48704.700000047684,50814,55025.60000014305,58655.299999952316,64373.299999952316,66979.20000004768,72054.20000004768,84304.5,86874.40000009537,89634.90000009537,96668.29999995232,106514.40000009537,108818.40000009537,121974.79999995232,129433.79999995232]","[]","[0,9234.299999952316,14090.700000047684,16404.799999952316,19995.10000014305,24079.10000014305,31270.700000047684,35542.40000009537,43404.299999952316,46283.799999952316,48704.700000047684,50814,55025.60000014305,58655.299999952316,64373.299999952316,66979.20000004768,72054.20000004768,84304.5,86874.40000009537,89634.90000009537,96668.29999995232,106514.40000009537,108818.40000009537,121974.79999995232,129433.79999995232,130992.20000004768]","0.3333333333333333","0.45","0","","","","","","","","","","","","","","","","","","","","","","","","","","","","","",""
"19559.5","","","","survey-template","19","684954","0.0-7.0-8.0","53","1","2025-07-09 09:07:16","7701e855f2ef39aa3fd6c71abdc6918a","154.114.40.2","Mozilla/5.0 (Windows NT 10.0; Win64; x64) AppleWebKit/537.36 (KHTML, like Gecko) Chrome/137.0.0.0 Safari/537.36","WebKit","Chrome","137.0.0.0","Windows","10.0","https://app.prolific.com/","en-US,en;q=0.9","614de26d812e1b34acd48dfb","686d226cabeef709c732f8e1","686e310dc68e54bd44e04eaf","614de26d812e1b34acd48dfb","2025-07-09T09:18:44.741Z","","","","","","stress","{""Q01"":""4"",""Q02"":""5"",""Q03"":""1""}","[0,1,2]","[""Q01"",""Q02"",""Q03""]","[9343.299999952316,12309.099999904633,18205.799999952316]","[]","[9343.299999952316,12309.099999904633,18205.799999952316,19557.799999952316]","0.3333333333333333","0.5","0","","","","","","","","","","","","","","","","","","","","","","","","","","","","","",""
"158704","","","","instructions","20","843660","0.0-8.0-0.0","53","1","2025-07-09 09:07:16","7701e855f2ef39aa3fd6c71abdc6918a","154.114.40.2","Mozilla/5.0 (Windows NT 10.0; Win64; x64) AppleWebKit/537.36 (KHTML, like Gecko) Chrome/137.0.0.0 Safari/537.36","WebKit","Chrome","137.0.0.0","Windows","10.0","https://app.prolific.com/","en-US,en;q=0.9","614de26d812e1b34acd48dfb","686d226cabeef709c732f8e1","686e310dc68e54bd44e04eaf","614de26d812e1b34acd48dfb","","[{""page_index"":0,""viewing_time"":41725},{""page_index"":1,""viewing_time"":48050},{""page_index"":2,""viewing_time"":32073},{""page_index"":3,""viewing_time"":36855}]","","","","","","","","","","","","","","","","","","","","","","","","","","","","","","","","","","","","","","","","","","","",""
"","","","","ctl-task-cpt","21","876160","0.0-8.0-1.0","53","1","2025-07-09 09:07:16","7701e855f2ef39aa3fd6c71abdc6918a","154.114.40.2","Mozilla/5.0 (Windows NT 10.0; Win64; x64) AppleWebKit/537.36 (KHTML, like Gecko) Chrome/137.0.0.0 Safari/537.36","WebKit","Chrome","137.0.0.0","Windows","10.0","https://app.prolific.com/","en-US,en;q=0.9","614de26d812e1b34acd48dfb","686d226cabeef709c732f8e1","686e310dc68e54bd44e04eaf","614de26d812e1b34acd48dfb","","","","","","","","","","","","","","","","","win-only","2","g1:SE,g2:NW","1","0","1","846579.3","3387","7392.1","29482.9","2","4","4","6","2","4","2","2","0","0.015151515151515152","1897.5","4000","115","[""left"",""up""]","{""num_key_presses"":10,""num_perfect"":6,""num_errors"":2,""num_randdir"":0,""num_randdir_good_moves"":0,""num_whilered"":2,""num_whileblue"":0,""num_blue"":1,""num_good_moves"":6}","[416.57142857142856,414.47767857142856,0.2,416.57142857142856,414.47767857142856,103.9,416.57142857142856,414.47767857142856,204,416.57142857142856,414.47767857142856,304.1,416.57142857142856,414.47767857142856,404.7,416.57142857142856,414.47767857142856,509.1,416.57142857142856,414.47767857142856,609.3,416.57142857142856,414.47767857142856,713.9,416.57142857142856,414.47767857142856,814.1,433.57142857142856,427.47767857142856,919,428.57142857142856,433.47767857142856,1023.9,221.57142857142856,251.47767857142856,1124.1,216.57142857142856,238.47767857142856,1229.2,216.57142857142856,238.47767857142856,1334,92.57142857142857,145.47767857142856,1439,42.57142857142857,76.47767857142857,1539.2,46.57142857142857,76.47767857142857,1639.9,49.57142857142857,77.47767857142857,1740.1,49.57142857142857,77.47767857142857,1844.6,49.57142857142857,77.47767857142857,1949.6,49.57142857142857,77.47767857142857,2053.8,49.57142857142857,77.47767857142857,2159.6,49.57142857142857,77.47767857142857,2263.5,49.57142857142857,77.47767857142857,2363.7,49.57142857142857,77.47767857142857,2464.1,49.57142857142857,77.47767857142857,2568.7,49.57142857142857,77.47767857142857,2668.8,155.57142857142856,176.47767857142856,2769.3,281.57142857142856,306.47767857142856,2873.5,402.57142857142856,410.47767857142856,2975.1,433.57142857142856,428.47767857142856,3079.4,433.57142857142856,428.47767857142856,3179.8,433.57142857142856,428.47767857142856,3283.7,433.57142857142856,428.47767857142856,3383.7,457.57142857142856,454.47767857142856,3483.7,456.57142857142856,454.47767857142856,3589.1,290.57142857142856,293.47767857142856,3693.9,217.57142857142856,198.47767857142856,3794.3,217.57142857142856,198.47767857142856,3899.2,217.57142857142856,198.47767857142856,3999.9]","[6791,6790.9,2593.1,2003.9,2194,""smooth"",""up"",""up"",""good_move"",7254.7,463.5,2488.8,6791.2,-2025.2,""error"",""-"",""-"",""no_move"",7573.4,318.6,2488.8,6791.2,-1706.6,""while_red"",""-"",""-"",""no_move"",8009.1,754.3,2488.8,6791.2,-1270.9,""while_red"",""-"",""-"",""no_move"",10682.7,3427.9,1762,8258.9,661.8,""smooth"",""up"",""up"",""good_move"",11057.4,374.5,2680.2,10682.9,-2305.7,""error"",""-"",""-"",""no_move"",15096.2,4038.8,2497.7,12059.1,539.4,""smooth"",""up"",""up"",""good_move"",17620.9,2524.5,1920.6,15096.4,603.9,""smooth"",""left"",""left"",""good_move"",19934,2312.9,2018.6,17621.1,294.3,""smooth"",""left"",""left"",""good_move"",21953.2,2019,1554.6,19934.2,464.4,""smooth"",""left"",""left"",""good_move""]","","",""
"24232","","","","instructions","22","900392","0.0-8.0-2.0","53","1","2025-07-09 09:07:16","7701e855f2ef39aa3fd6c71abdc6918a","154.114.40.2","Mozilla/5.0 (Windows NT 10.0; Win64; x64) AppleWebKit/537.36 (KHTML, like Gecko) Chrome/137.0.0.0 Safari/537.36","WebKit","Chrome","137.0.0.0","Windows","10.0","https://app.prolific.com/","en-US,en;q=0.9","614de26d812e1b34acd48dfb","686d226cabeef709c732f8e1","686e310dc68e54bd44e04eaf","614de26d812e1b34acd48dfb","","[{""page_index"":0,""viewing_time"":24231}]","","","","","","","","","","","","","","","","","","","","","","","","","","","","","","","","","","","","","","","","","","","",""
"","","","","ctl-task-cpt","23","942593","0.0-8.0-3.0","53","1","2025-07-09 09:07:16","7701e855f2ef39aa3fd6c71abdc6918a","154.114.40.2","Mozilla/5.0 (Windows NT 10.0; Win64; x64) AppleWebKit/537.36 (KHTML, like Gecko) Chrome/137.0.0.0 Safari/537.36","WebKit","Chrome","137.0.0.0","Windows","10.0","https://app.prolific.com/","en-US,en;q=0.9","614de26d812e1b34acd48dfb","686d226cabeef709c732f8e1","686e310dc68e54bd44e04eaf","614de26d812e1b34acd48dfb","","","","","","","","","","","","","","","","","win-only","2","g1:SE,g2:NW","0.35","0","3","903312.3","1945.7","5946.4","39171.6","2","4","8","6","2","-8","-8","0","0","0","1732.4","4000","-2380","[""left"",""up""]","{""num_key_presses"":10,""num_perfect"":4,""num_errors"":0,""num_randdir"":6,""num_randdir_good_moves"":2,""num_whilered"":0,""num_whileblue"":0,""num_blue"":1,""num_good_moves"":6}","[424.57142857142856,419.47767857142856,0.1,424.57142857142856,419.47767857142856,100.5,424.57142857142856,419.47767857142856,205,424.57142857142856,419.47767857142856,305.6,424.57142857142856,419.47767857142856,410.5,424.57142857142856,419.47767857142856,514.7,424.57142857142856,419.47767857142856,615.3,424.57142857142856,419.47767857142856,720.2,424.57142857142856,419.47767857142856,820.5,80.57142857142857,149.47767857142856,925.1,80.57142857142857,149.47767857142856,1027.7,80.57142857142857,149.47767857142856,1129.6,28.57142857142857,-37.52232142857143,1231.1,76.57142857142857,14.47767857142857,1331.1,79.57142857142857,19.47767857142857,1435.2,88.57142857142857,84.47767857142857,1536.5,89.57142857142857,90.47767857142857,1639.7,89.57142857142857,90.47767857142857,1740,89.57142857142857,90.47767857142857,1842.7,89.57142857142857,90.47767857142857,1945.6,89.57142857142857,90.47767857142857,2045.9,89.57142857142857,90.47767857142857,2150.1,89.57142857142857,90.47767857142857,2250.8,89.57142857142857,90.47767857142857,2355.9,89.57142857142857,90.47767857142857,2459.8,89.57142857142857,90.47767857142857,2560.6,89.57142857142857,90.47767857142857,2666.3,89.57142857142857,90.47767857142857,2771.1,89.57142857142857,90.47767857142857,2875,89.57142857142857,90.47767857142857,2980.3,89.57142857142857,90.47767857142857,3080.8,89.57142857142857,90.47767857142857,3185.5,89.57142857142857,90.47767857142857,3289.7,89.57142857142857,90.47767857142857,3396.5,89.57142857142857,90.47767857142857,3500.3,89.57142857142857,90.47767857142857,3605.1,89.57142857142857,90.47767857142857,3710.8,89.57142857142857,90.47767857142857,3815.8,89.57142857142857,90.47767857142857,3916.3]","[1443.6,1443.6,1000,0,443.6,""oops"",""up"",""left"",""good_move"",6347.1,4903.5,1841.3,4129.8,376.1,""smooth"",""up"",""up"",""good_move"",9666.4,3319.1,2784.6,6347.3,534.5,""smooth"",""left"",""left"",""good_move"",12912.3,3245.8,2848.5,9666.5,397.3,""oops"",""up"",""down"",""bad_move"",16407.8,3495.3,3119.4,12912.5,375.9,""smooth"",""up"",""up"",""good_move"",19560.2,3152.2,2653.6,16408,498.6,""oops"",""up"",""right"",""bad_move"",22348.3,2788,2233.6,19560.3,554.4,""oops"",""up"",""down"",""bad_move"",25625.7,3277.2,2952.6,22348.5,324.6,""smooth"",""up"",""up"",""good_move"",28477.6,2851.7,2164.4,25625.9,687.3,""oops"",""left"",""down"",""bad_move"",30613.7,2136,1493.6,28477.7,642.4,""oops"",""up"",""up"",""good_move""]","","",""
"56486","","","","instructions","24","999079","0.0-8.0-4.0","53","1","2025-07-09 09:07:16","7701e855f2ef39aa3fd6c71abdc6918a","154.114.40.2","Mozilla/5.0 (Windows NT 10.0; Win64; x64) AppleWebKit/537.36 (KHTML, like Gecko) Chrome/137.0.0.0 Safari/537.36","WebKit","Chrome","137.0.0.0","Windows","10.0","https://app.prolific.com/","en-US,en;q=0.9","614de26d812e1b34acd48dfb","686d226cabeef709c732f8e1","686e310dc68e54bd44e04eaf","614de26d812e1b34acd48dfb","","[{""page_index"":0,""viewing_time"":18255},{""page_index"":1,""viewing_time"":38231}]","","","","","","","","","","","","","","","","","","","","","","","","","","","","","","","","","","","","","","","","","","","",""
"31156","","","{""green_ball"":[""Ball always moves in the direction I press""]}","survey-multi-select","25","1030237","0.0-8.0-5.0-0.0","53","1","2025-07-09 09:07:16","7701e855f2ef39aa3fd6c71abdc6918a","154.114.40.2","Mozilla/5.0 (Windows NT 10.0; Win64; x64) AppleWebKit/537.36 (KHTML, like Gecko) Chrome/137.0.0.0 Safari/537.36","WebKit","Chrome","137.0.0.0","Windows","10.0","https://app.prolific.com/","en-US,en;q=0.9","614de26d812e1b34acd48dfb","686d226cabeef709c732f8e1","686e310dc68e54bd44e04eaf","614de26d812e1b34acd48dfb","","","[0]","","","","quiz","","","","","","","","","","","","","","","","","","","","","","","","","","","","","","","","","","","","","false","",""
"12857","","<p align='center'><b>INCORRECT.</b> Usually the green ball moves in the indicated direction, but sometimes it shakes and moves randomly. </p>","0","html-button-response","26","1043095","0.0-8.0-5.0-1.0","53","1","2025-07-09 09:07:16","7701e855f2ef39aa3fd6c71abdc6918a","154.114.40.2","Mozilla/5.0 (Windows NT 10.0; Win64; x64) AppleWebKit/537.36 (KHTML, like Gecko) Chrome/137.0.0.0 Safari/537.36","WebKit","Chrome","137.0.0.0","Windows","10.0","https://app.prolific.com/","en-US,en;q=0.9","614de26d812e1b34acd48dfb","686d226cabeef709c732f8e1","686e310dc68e54bd44e04eaf","614de26d812e1b34acd48dfb","","","","","","","","","","","","","","","","","","","","","","","","","","","","","","","","","","","","","","","","","","","","","",""
"12392","","","{""green_ball"":[""Ball sometimes shakes and moves in a random direction""]}","survey-multi-select","27","1055488","0.0-8.0-5.1-0.1","53","1","2025-07-09 09:07:16","7701e855f2ef39aa3fd6c71abdc6918a","154.114.40.2","Mozilla/5.0 (Windows NT 10.0; Win64; x64) AppleWebKit/537.36 (KHTML, like Gecko) Chrome/137.0.0.0 Safari/537.36","WebKit","Chrome","137.0.0.0","Windows","10.0","https://app.prolific.com/","en-US,en;q=0.9","614de26d812e1b34acd48dfb","686d226cabeef709c732f8e1","686e310dc68e54bd44e04eaf","614de26d812e1b34acd48dfb","","","[0]","","","","quiz","","","","","","","","","","","","","","","","","","","","","","","","","","","","","","","","","","","","","true","",""
"2259","","<p align='center'><b>CORRECT!</b> Indeed, the green ball may sometimes shake and move in a random direction.</p>","0","html-button-response","28","1057748","0.0-8.0-5.1-1.1","53","1","2025-07-09 09:07:16","7701e855f2ef39aa3fd6c71abdc6918a","154.114.40.2","Mozilla/5.0 (Windows NT 10.0; Win64; x64) AppleWebKit/537.36 (KHTML, like Gecko) Chrome/137.0.0.0 Safari/537.36","WebKit","Chrome","137.0.0.0","Windows","10.0","https://app.prolific.com/","en-US,en;q=0.9","614de26d812e1b34acd48dfb","686d226cabeef709c732f8e1","686e310dc68e54bd44e04eaf","614de26d812e1b34acd48dfb","","","","","","","","","","","","","","","","","","","","","","","","","","","","","","","","","","","","","","","","","","","","","",""
"12182","","","{""yellow_ball"":[""Ball doesn‘t move and I get -1 penalty point""]}","survey-multi-select","29","1069931","0.0-8.0-6.0-0.0","53","1","2025-07-09 09:07:16","7701e855f2ef39aa3fd6c71abdc6918a","154.114.40.2","Mozilla/5.0 (Windows NT 10.0; Win64; x64) AppleWebKit/537.36 (KHTML, like Gecko) Chrome/137.0.0.0 Safari/537.36","WebKit","Chrome","137.0.0.0","Windows","10.0","https://app.prolific.com/","en-US,en;q=0.9","614de26d812e1b34acd48dfb","686d226cabeef709c732f8e1","686e310dc68e54bd44e04eaf","614de26d812e1b34acd48dfb","","","[0]","","","","quiz","","","","","","","","","","","","","","","","","","","","","","","","","","","","","","","","","","","","","true","",""
"2229","","<p align='center'><b>CORRECT!</b> Indeed, the yellow ball never moves and you receive a penalty.</p>","0","html-button-response","30","1072162","0.0-8.0-6.0-1.0","53","1","2025-07-09 09:07:16","7701e855f2ef39aa3fd6c71abdc6918a","154.114.40.2","Mozilla/5.0 (Windows NT 10.0; Win64; x64) AppleWebKit/537.36 (KHTML, like Gecko) Chrome/137.0.0.0 Safari/537.36","WebKit","Chrome","137.0.0.0","Windows","10.0","https://app.prolific.com/","en-US,en;q=0.9","614de26d812e1b34acd48dfb","686d226cabeef709c732f8e1","686e310dc68e54bd44e04eaf","614de26d812e1b34acd48dfb","","","","","","","","","","","","","","","","","","","","","","","","","","","","","","","","","","","","","","","","","","","","","",""
"6267","","","{""blue_ball"":[""Ball doesn‘t move and I get -1 penalty point""]}","survey-multi-select","31","1078429","0.0-8.0-7.0-0.0","53","1","2025-07-09 09:07:16","7701e855f2ef39aa3fd6c71abdc6918a","154.114.40.2","Mozilla/5.0 (Windows NT 10.0; Win64; x64) AppleWebKit/537.36 (KHTML, like Gecko) Chrome/137.0.0.0 Safari/537.36","WebKit","Chrome","137.0.0.0","Windows","10.0","https://app.prolific.com/","en-US,en;q=0.9","614de26d812e1b34acd48dfb","686d226cabeef709c732f8e1","686e310dc68e54bd44e04eaf","614de26d812e1b34acd48dfb","","","[0]","","","","quiz","","","","","","","","","","","","","","","","","","","","","","","","","","","","","","","","","","","","","false","",""
"2495","","<p align='center'><b>INCORRECT.</b> The blue ball always shakes and moves randomly.</p>","0","html-button-response","32","1080925","0.0-8.0-7.0-1.0","53","1","2025-07-09 09:07:16","7701e855f2ef39aa3fd6c71abdc6918a","154.114.40.2","Mozilla/5.0 (Windows NT 10.0; Win64; x64) AppleWebKit/537.36 (KHTML, like Gecko) Chrome/137.0.0.0 Safari/537.36","WebKit","Chrome","137.0.0.0","Windows","10.0","https://app.prolific.com/","en-US,en;q=0.9","614de26d812e1b34acd48dfb","686d226cabeef709c732f8e1","686e310dc68e54bd44e04eaf","614de26d812e1b34acd48dfb","","","","","","","","","","","","","","","","","","","","","","","","","","","","","","","","","","","","","","","","","","","","","",""
"4625","","","{""blue_ball"":[""Ball always shakes and moves in a random direction""]}","survey-multi-select","33","1085551","0.0-8.0-7.1-0.1","53","1","2025-07-09 09:07:16","7701e855f2ef39aa3fd6c71abdc6918a","154.114.40.2","Mozilla/5.0 (Windows NT 10.0; Win64; x64) AppleWebKit/537.36 (KHTML, like Gecko) Chrome/137.0.0.0 Safari/537.36","WebKit","Chrome","137.0.0.0","Windows","10.0","https://app.prolific.com/","en-US,en;q=0.9","614de26d812e1b34acd48dfb","686d226cabeef709c732f8e1","686e310dc68e54bd44e04eaf","614de26d812e1b34acd48dfb","","","[0]","","","","quiz","","","","","","","","","","","","","","","","","","","","","","","","","","","","","","","","","","","","","true","",""
"2098","","<p align='center'><b>CORRECT!</b> Indeed, the blue ball always shakes and moves in a random direction. Also there is a penalty of -1 point.</p>","0","html-button-response","34","1087650","0.0-8.0-7.1-1.1","53","1","2025-07-09 09:07:16","7701e855f2ef39aa3fd6c71abdc6918a","154.114.40.2","Mozilla/5.0 (Windows NT 10.0; Win64; x64) AppleWebKit/537.36 (KHTML, like Gecko) Chrome/137.0.0.0 Safari/537.36","WebKit","Chrome","137.0.0.0","Windows","10.0","https://app.prolific.com/","en-US,en;q=0.9","614de26d812e1b34acd48dfb","686d226cabeef709c732f8e1","686e310dc68e54bd44e04eaf","614de26d812e1b34acd48dfb","","","","","","","","","","","","","","","","","","","","","","","","","","","","","","","","","","","","","","","","","","","","","",""
"5004","","","{""bonus"":[""When I reach 50% of points""]}","survey-multi-select","35","1092654","0.0-8.0-8.0-0.0","53","1","2025-07-09 09:07:16","7701e855f2ef39aa3fd6c71abdc6918a","154.114.40.2","Mozilla/5.0 (Windows NT 10.0; Win64; x64) AppleWebKit/537.36 (KHTML, like Gecko) Chrome/137.0.0.0 Safari/537.36","WebKit","Chrome","137.0.0.0","Windows","10.0","https://app.prolific.com/","en-US,en;q=0.9","614de26d812e1b34acd48dfb","686d226cabeef709c732f8e1","686e310dc68e54bd44e04eaf","614de26d812e1b34acd48dfb","","","[0]","","","","quiz","","","","","","","","","","","","","","","","","","","","","","","","","","","","","","","","","","","","","true","",""
"2361","","<p align='center'><b>CORRECT!</b> Indeed, you receive 2 pounds extra when you reach 50% of points.</p>","0","html-button-response","36","1095016","0.0-8.0-8.0-1.0","53","1","2025-07-09 09:07:16","7701e855f2ef39aa3fd6c71abdc6918a","154.114.40.2","Mozilla/5.0 (Windows NT 10.0; Win64; x64) AppleWebKit/537.36 (KHTML, like Gecko) Chrome/137.0.0.0 Safari/537.36","WebKit","Chrome","137.0.0.0","Windows","10.0","https://app.prolific.com/","en-US,en;q=0.9","614de26d812e1b34acd48dfb","686d226cabeef709c732f8e1","686e310dc68e54bd44e04eaf","614de26d812e1b34acd48dfb","","","","","","","","","","","","","","","","","","","","","","","","","","","","","","","","","","","","","","","","","","","","","",""
"3481","","","","instructions","37","1098497","0.0-8.0-9.0","53","1","2025-07-09 09:07:16","7701e855f2ef39aa3fd6c71abdc6918a","154.114.40.2","Mozilla/5.0 (Windows NT 10.0; Win64; x64) AppleWebKit/537.36 (KHTML, like Gecko) Chrome/137.0.0.0 Safari/537.36","WebKit","Chrome","137.0.0.0","Windows","10.0","https://app.prolific.com/","en-US,en;q=0.9","614de26d812e1b34acd48dfb","686d226cabeef709c732f8e1","686e310dc68e54bd44e04eaf","614de26d812e1b34acd48dfb","","[{""page_index"":0,""viewing_time"":3481}]","","","","","","","","","","","","","","","","","","","","","","","","","","","","","","","","","","","","","","","","","","","",""
"23674","","<p>Before you start with this game please answer the following three questions yourself. </p>
  <p>Through this game, we measure several aspects of your cognitive performance, such as reaction times, multi-tasking capabilities </p>
  <p>and the ability to assess the situation you are in.</p>
  <p></p>
  <p><b>How good do you usually are in such tasks?</b></p>","30","html-slider-response","38","1122172","0.0-9.0-0.0","53","1","2025-07-09 09:07:16","7701e855f2ef39aa3fd6c71abdc6918a","154.114.40.2","Mozilla/5.0 (Windows NT 10.0; Win64; x64) AppleWebKit/537.36 (KHTML, like Gecko) Chrome/137.0.0.0 Safari/537.36","WebKit","Chrome","137.0.0.0","Windows","10.0","https://app.prolific.com/","en-US,en;q=0.9","614de26d812e1b34acd48dfb","686d226cabeef709c732f8e1","686e310dc68e54bd44e04eaf","614de26d812e1b34acd48dfb","2025-07-09T09:26:01.960Z","","","","","","PreSkillQ","","","","","","","","","","","","","","","","","","","","","","","","","","","","","","","","","","","","","","50",""
"6519","","<div style=""width:500px;"">
  <p>How well do you think you will perform in this task compared to other participants?</p>
  </div>","20","html-slider-response","39","1128692","0.0-9.0-1.0","53","1","2025-07-09 09:07:16","7701e855f2ef39aa3fd6c71abdc6918a","154.114.40.2","Mozilla/5.0 (Windows NT 10.0; Win64; x64) AppleWebKit/537.36 (KHTML, like Gecko) Chrome/137.0.0.0 Safari/537.36","WebKit","Chrome","137.0.0.0","Windows","10.0","https://app.prolific.com/","en-US,en;q=0.9","614de26d812e1b34acd48dfb","686d226cabeef709c732f8e1","686e310dc68e54bd44e04eaf","614de26d812e1b34acd48dfb","2025-07-09T09:26:08.479Z","","","","","","PrePerfQ","","","","","","","","","","","","","","","","","","","","","","","","","","","","","","","","","","","","","","50",""
"7142","","<div style=""width:500px;"">
  <p>What best describes how you currently feel?</p>
  </div>","61","html-slider-response","40","1135834","0.0-9.0-2.0","53","1","2025-07-09 09:07:16","7701e855f2ef39aa3fd6c71abdc6918a","154.114.40.2","Mozilla/5.0 (Windows NT 10.0; Win64; x64) AppleWebKit/537.36 (KHTML, like Gecko) Chrome/137.0.0.0 Safari/537.36","WebKit","Chrome","137.0.0.0","Windows","10.0","https://app.prolific.com/","en-US,en;q=0.9","614de26d812e1b34acd48dfb","686d226cabeef709c732f8e1","686e310dc68e54bd44e04eaf","614de26d812e1b34acd48dfb","2025-07-09T09:26:15.621Z","","","","","","PreMotivationQ","","","","","","","","","","","","","","","","","","","","","","","","","","","","","","","","","","","","","","50",""
"","","","","ctl-task-cpt","41","1172441","0.0-10.0-0.0","53","1","2025-07-09 09:07:16","7701e855f2ef39aa3fd6c71abdc6918a","154.114.40.2","Mozilla/5.0 (Windows NT 10.0; Win64; x64) AppleWebKit/537.36 (KHTML, like Gecko) Chrome/137.0.0.0 Safari/537.36","WebKit","Chrome","137.0.0.0","Windows","10.0","https://app.prolific.com/","en-US,en;q=0.9","614de26d812e1b34acd48dfb","686d226cabeef709c732f8e1","686e310dc68e54bd44e04eaf","614de26d812e1b34acd48dfb","2025-07-09T09:26:52.228Z","","","","","","","","","","","","","","","","win-only","0","g1:NW,g2:SE","1","1","0","1138755.4","4081.2","9084.7","33597.5","1","4","8","6","2","8","7","7","0","0.05303030303030303","2100","3000","705","[""down"",""right""]","{""num_key_presses"":6,""num_perfect"":5,""num_errors"":1,""num_randdir"":0,""num_randdir_good_moves"":0,""num_whilered"":0,""num_whileblue"":1,""num_blue"":3,""num_good_moves"":6}","[420.57142857142856,420.47767857142856,0.1,420.57142857142856,420.47767857142856,104.5,420.57142857142856,420.47767857142856,205.5,420.57142857142856,420.47767857142856,309.5,420.57142857142856,420.47767857142856,414.3,420.57142857142856,420.47767857142856,515.4,420.57142857142856,420.47767857142856,620.5,420.57142857142856,420.47767857142856,724.8,420.57142857142856,420.47767857142856,830.8,420.57142857142856,420.47767857142856,937.1,420.57142857142856,420.47767857142856,1039.4,420.57142857142856,418.47767857142856,1139.5,561.5714285714286,452.47767857142856,1240.8,731.5714285714286,568.4776785714286,1344.2,731.5714285714286,568.4776785714286,1445.5,731.5714285714286,568.4776785714286,1549.5,767.5714285714286,756.4776785714286,1654.3,768.5714285714286,771.4776785714286,1755.1,781.5714285714286,792.4776785714286,1859.5,783.5714285714286,791.4776785714286,1960.6,783.5714285714286,791.4776785714286,2064.4,783.5714285714286,791.4776785714286,2165.1,783.5714285714286,791.4776785714286,2269.7,783.5714285714286,791.4776785714286,2370.4,783.5714285714286,791.4776785714286,2475.2,783.5714285714286,791.4776785714286,2579.4,783.5714285714286,791.4776785714286,2679.8,783.5714285714286,791.4776785714286,2780.8,783.5714285714286,791.4776785714286,2885.3,783.5714285714286,791.4776785714286,2987.2,783.5714285714286,791.4776785714286,3090.7,783.5714285714286,791.4776785714286,3194.9,783.5714285714286,791.4776785714286,3299.7,783.5714285714286,791.4776785714286,3406.8,783.5714285714286,791.4776785714286,3509.9,783.5714285714286,791.4776785714286,3614,783.5714285714286,791.4776785714286,3714.5,783.5714285714286,791.4776785714286,3815.7,783.5714285714286,791.4776785714286,3920.3,783.5714285714286,791.4776785714286,4020.4,783.5714285714286,791.4776785714286,4124.2,783.5714285714286,791.4776785714286,4224.7,783.5714285714286,791.4776785714286,4329.5,783.5714285714286,791.4776785714286,4430.8,783.5714285714286,791.4776785714286,4530.9,783.5714285714286,791.4776785714286,4635.9,783.5714285714286,791.4776785714286,4740.5,783.5714285714286,791.4776785714286,4844.5,783.5714285714286,791.4776785714286,4951.3]","[1611.6,1611.6,1000,0,611.6,""smooth"",""down"",""down"",""good_move"",4635.5,3023.7,2601.9,1611.8,421.9,""smooth"",""right"",""right"",""good_move"",6947.9,2312.2,1935.9,4635.7,376.3,""smooth"",""down"",""down"",""good_move"",10747.6,3799.6,3364,6948,435.6,""while_blue"",""right"",""right"",""good_move"",21130,10381.6,1792.9,18836.2,500.9,""smooth"",""down"",""down"",""good_move"",24401.7,3271.6,2728.8,21130.1,542.8,""smooth"",""right"",""right"",""good_move""]","","",""
"6744","","<div style=""width:500px;"">
  <p>What determined the result of this run?</p>
  </div>","73","html-slider-response","42","1179186","0.0-10.0-1.0","53","1","2025-07-09 09:07:16","7701e855f2ef39aa3fd6c71abdc6918a","154.114.40.2","Mozilla/5.0 (Windows NT 10.0; Win64; x64) AppleWebKit/537.36 (KHTML, like Gecko) Chrome/137.0.0.0 Safari/537.36","WebKit","Chrome","137.0.0.0","Windows","10.0","https://app.prolific.com/","en-US,en;q=0.9","614de26d812e1b34acd48dfb","686d226cabeef709c732f8e1","686e310dc68e54bd44e04eaf","614de26d812e1b34acd48dfb","2025-07-09T09:26:58.973Z","","","","","","AttribQ","","","","","","","","","","","","","","","","","","","","","","","","","","","","","","","","","","","","","","50",""
"4753","","<div style=""width:500px;"">
  <p>How much control did you have over the ball?</p>
  </div>","100","html-slider-response","43","1183940","0.0-10.0-2.0","53","1","2025-07-09 09:07:16","7701e855f2ef39aa3fd6c71abdc6918a","154.114.40.2","Mozilla/5.0 (Windows NT 10.0; Win64; x64) AppleWebKit/537.36 (KHTML, like Gecko) Chrome/137.0.0.0 Safari/537.36","WebKit","Chrome","137.0.0.0","Windows","10.0","https://app.prolific.com/","en-US,en;q=0.9","614de26d812e1b34acd48dfb","686d226cabeef709c732f8e1","686e310dc68e54bd44e04eaf","614de26d812e1b34acd48dfb","2025-07-09T09:27:03.727Z","","","","","","ControlQ","","","","","","","","","","","","","","","","","","","","","","","","","","","","","","","","","","","","","","50",""
"9998","","<div style=""width:500px;"">
  <p>How would you describe your current emotional state?</p>
  </div>","56","html-slider-response","44","1193938","0.0-10.0-3.0","53","1","2025-07-09 09:07:16","7701e855f2ef39aa3fd6c71abdc6918a","154.114.40.2","Mozilla/5.0 (Windows NT 10.0; Win64; x64) AppleWebKit/537.36 (KHTML, like Gecko) Chrome/137.0.0.0 Safari/537.36","WebKit","Chrome","137.0.0.0","Windows","10.0","https://app.prolific.com/","en-US,en;q=0.9","614de26d812e1b34acd48dfb","686d226cabeef709c732f8e1","686e310dc68e54bd44e04eaf","614de26d812e1b34acd48dfb","2025-07-09T09:27:13.725Z","","","","","","StressQ","","","","","","","","","","","","","","","","","","","","","","","","","","","","","","","","","","","","","","50",""
"6707","","<div style=""width:500px;"">
  <p>What best describes how you currently feel?</p>
  </div>","32","html-slider-response","45","1200646","0.0-10.0-4.0","53","1","2025-07-09 09:07:16","7701e855f2ef39aa3fd6c71abdc6918a","154.114.40.2","Mozilla/5.0 (Windows NT 10.0; Win64; x64) AppleWebKit/537.36 (KHTML, like Gecko) Chrome/137.0.0.0 Safari/537.36","WebKit","Chrome","137.0.0.0","Windows","10.0","https://app.prolific.com/","en-US,en;q=0.9","614de26d812e1b34acd48dfb","686d226cabeef709c732f8e1","686e310dc68e54bd44e04eaf","614de26d812e1b34acd48dfb","2025-07-09T09:27:20.433Z","","","","","","MotivationQ","","","","","","","","","","","","","","","","","","","","","","","","","","","","","","","","","","","","","","50",""
"","","","","ctl-task-cpt","46","1221439","0.0-10.0-0.1","53","1","2025-07-09 09:07:16","7701e855f2ef39aa3fd6c71abdc6918a","154.114.40.2","Mozilla/5.0 (Windows NT 10.0; Win64; x64) AppleWebKit/537.36 (KHTML, like Gecko) Chrome/137.0.0.0 Safari/537.36","WebKit","Chrome","137.0.0.0","Windows","10.0","https://app.prolific.com/","en-US,en;q=0.9","614de26d812e1b34acd48dfb","686d226cabeef709c732f8e1","686e310dc68e54bd44e04eaf","614de26d812e1b34acd48dfb","2025-07-09T09:27:41.226Z","","","","","","","","","","","","","","","","win-only","1","g1:NE,g2:SW","0.9","2","0","1203566.2","1652.4","6653.3","17772.5","1","4","4","6","1","1","1","8","7","0.06060606060606061","1893.3","3000","1130","[""up"",""right""]","{""num_key_presses"":4,""num_perfect"":4,""num_errors"":0,""num_randdir"":0,""num_randdir_good_moves"":0,""num_whilered"":0,""num_whileblue"":0,""num_blue"":0,""num_good_moves"":4}","[412.57142857142856,413.47767857142856,0.2,412.57142857142856,413.47767857142856,102,412.57142857142856,413.47767857142856,203.9,412.57142857142856,413.47767857142856,304.2,412.57142857142856,413.47767857142856,408.8,412.57142857142856,413.47767857142856,508.9,412.57142857142856,413.47767857142856,613.2,412.57142857142856,413.47767857142856,718,524.5714285714286,285.47767857142856,818.9,631.5714285714286,194.47767857142856,922.9,585.5714285714286,255.47767857142856,1023.7,677.5714285714286,163.47767857142856,1128.2,677.5714285714286,163.47767857142856,1229.2,679.5714285714286,158.47767857142856,1335.3,783.5714285714286,20.47767857142857,1437.8,782.5714285714286,33.47767857142857,1542.8,775.5714285714286,54.47767857142857,1643.8,745.5714285714286,136.47767857142856,1744.3,745.5714285714286,136.47767857142856,1848.5,745.5714285714286,136.47767857142856,1950.2,745.5714285714286,136.47767857142856,2050.8,745.5714285714286,136.47767857142856,2152.9,745.5714285714286,136.47767857142856,2253.6,745.5714285714286,136.47767857142856,2357.9,745.5714285714286,136.47767857142856,2458.1,745.5714285714286,136.47767857142856,2559,745.5714285714286,136.47767857142856,2664.1,745.5714285714286,136.47767857142856,2767.8,745.5714285714286,136.47767857142856,2867.8,745.5714285714286,136.47767857142856,2967.9,745.5714285714286,136.47767857142856,3069,745.5714285714286,136.47767857142856,3169.2,745.5714285714286,141.47767857142856,3274.4,723.5714285714286,188.47767857142856,3378.2,677.5714285714286,280.47767857142856,3479.8,636.5714285714286,327.47767857142856,3585.9,609.5714285714286,333.47767857142856,3688,606.5714285714286,331.47767857142856,3788.9,606.5714285714286,331.47767857142856,3892.8,606.5714285714286,331.47767857142856,3993.4,606.5714285714286,331.47767857142856,4094.1,606.5714285714286,331.47767857142856,4197.8,606.5714285714286,331.47767857142856,4298.2,606.5714285714286,331.47767857142856,4401.6,606.5714285714286,331.47767857142856,4503.4,606.5714285714286,331.47767857142856,4603.5,606.5714285714286,331.47767857142856,4708,606.5714285714286,331.47767857142856,4808.9,606.5714285714286,331.47767857142856,4912.9]","[1480.4,1480.4,1000,0,480.4,""smooth"",""up"",""up"",""good_move"",4812,3331.1,2695.8,1480.9,635.3,""smooth"",""right"",""right"",""good_move"",7468.1,2655.7,2188.1,4812.4,467.6,""smooth"",""up"",""up"",""good_move"",11006.2,3538,3115.6,7468.2,422.4,""smooth"",""right"",""right"",""good_move""]","","",""
"5381","","<div style=""width:500px;"">
  <p>What determined the result of this run?</p>
  </div>","100","html-slider-response","47","1226822","0.0-10.0-1.1","53","1","2025-07-09 09:07:16","7701e855f2ef39aa3fd6c71abdc6918a","154.114.40.2","Mozilla/5.0 (Windows NT 10.0; Win64; x64) AppleWebKit/537.36 (KHTML, like Gecko) Chrome/137.0.0.0 Safari/537.36","WebKit","Chrome","137.0.0.0","Windows","10.0","https://app.prolific.com/","en-US,en;q=0.9","614de26d812e1b34acd48dfb","686d226cabeef709c732f8e1","686e310dc68e54bd44e04eaf","614de26d812e1b34acd48dfb","2025-07-09T09:27:46.609Z","","","","","","AttribQ","","","","","","","","","","","","","","","","","","","","","","","","","","","","","","","","","","","","","","50",""
"3337","","<div style=""width:500px;"">
  <p>How much control did you have over the ball?</p>
  </div>","100","html-slider-response","48","1230159","0.0-10.0-2.1","53","1","2025-07-09 09:07:16","7701e855f2ef39aa3fd6c71abdc6918a","154.114.40.2","Mozilla/5.0 (Windows NT 10.0; Win64; x64) AppleWebKit/537.36 (KHTML, like Gecko) Chrome/137.0.0.0 Safari/537.36","WebKit","Chrome","137.0.0.0","Windows","10.0","https://app.prolific.com/","en-US,en;q=0.9","614de26d812e1b34acd48dfb","686d226cabeef709c732f8e1","686e310dc68e54bd44e04eaf","614de26d812e1b34acd48dfb","2025-07-09T09:27:49.946Z","","","","","","ControlQ","","","","","","","","","","","","","","","","","","","","","","","","","","","","","","","","","","","","","","50",""
"3294","","<div style=""width:500px;"">
  <p>How would you describe your current emotional state?</p>
  </div>","56","html-slider-response","49","1233453","0.0-10.0-3.1","53","1","2025-07-09 09:07:16","7701e855f2ef39aa3fd6c71abdc6918a","154.114.40.2","Mozilla/5.0 (Windows NT 10.0; Win64; x64) AppleWebKit/537.36 (KHTML, like Gecko) Chrome/137.0.0.0 Safari/537.36","WebKit","Chrome","137.0.0.0","Windows","10.0","https://app.prolific.com/","en-US,en;q=0.9","614de26d812e1b34acd48dfb","686d226cabeef709c732f8e1","686e310dc68e54bd44e04eaf","614de26d812e1b34acd48dfb","2025-07-09T09:27:53.240Z","","","","","","StressQ","","","","","","","","","","","","","","","","","","","","","","","","","","","","","","","","","","","","","","50",""
"4620","","<div style=""width:500px;"">
  <p>What best describes how you currently feel?</p>
  </div>","42","html-slider-response","50","1238075","0.0-10.0-4.1","53","1","2025-07-09 09:07:16","7701e855f2ef39aa3fd6c71abdc6918a","154.114.40.2","Mozilla/5.0 (Windows NT 10.0; Win64; x64) AppleWebKit/537.36 (KHTML, like Gecko) Chrome/137.0.0.0 Safari/537.36","WebKit","Chrome","137.0.0.0","Windows","10.0","https://app.prolific.com/","en-US,en;q=0.9","614de26d812e1b34acd48dfb","686d226cabeef709c732f8e1","686e310dc68e54bd44e04eaf","614de26d812e1b34acd48dfb","2025-07-09T09:27:57.862Z","","","","","","MotivationQ","","","","","","","","","","","","","","","","","","","","","","","","","","","","","","","","","","","","","","50",""
"","","","","ctl-task-cpt","51","1270457","0.0-10.0-0.2","53","1","2025-07-09 09:07:16","7701e855f2ef39aa3fd6c71abdc6918a","154.114.40.2","Mozilla/5.0 (Windows NT 10.0; Win64; x64) AppleWebKit/537.36 (KHTML, like Gecko) Chrome/137.0.0.0 Safari/537.36","WebKit","Chrome","137.0.0.0","Windows","10.0","https://app.prolific.com/","en-US,en;q=0.9","614de26d812e1b34acd48dfb","686d226cabeef709c732f8e1","686e310dc68e54bd44e04eaf","614de26d812e1b34acd48dfb","2025-07-09T09:28:30.244Z","","","","","","","","","","","","","","","","win-only","2","g1:SE,g2:NW","0.8","3","0","1240994","1650.6","6654.8","29360.1","1","4","4","6","2","-4","-4","4","8","0.030303030303030304","1382.6","3000","-2340","[""left"",""up""]","{""num_key_presses"":7,""num_perfect"":5,""num_errors"":0,""num_randdir"":2,""num_randdir_good_moves"":1,""num_whilered"":0,""num_whileblue"":0,""num_blue"":0,""num_good_moves"":6}","[415.57142857142856,414.47767857142856,0.1,415.57142857142856,414.47767857142856,101.2,415.57142857142856,414.47767857142856,204.7,415.57142857142856,414.47767857142856,310.9,415.57142857142856,414.47767857142856,416,415.57142857142856,414.47767857142856,533.1,415.57142857142856,414.47767857142856,633.5,78.57142857142857,194.47767857142856,734.8,-33.42857142857143,87.47767857142857,835.8,-23.42857142857143,89.47767857142857,938.7,-13.42857142857143,85.47767857142857,1039.8,55.57142857142857,107.47767857142857,1141.3,77.57142857142857,112.47767857142857,1241.3,77.57142857142857,112.47767857142857,1345.2,77.57142857142857,112.47767857142857,1446.1,77.57142857142857,112.47767857142857,1550.5,77.57142857142857,112.47767857142857,1657.7,77.57142857142857,112.47767857142857,1759.9,77.57142857142857,112.47767857142857,1859.9,77.57142857142857,112.47767857142857,1961.2,77.57142857142857,112.47767857142857,2066.4,77.57142857142857,112.47767857142857,2170.4,77.57142857142857,112.47767857142857,2275.9,77.57142857142857,112.47767857142857,2379.7,77.57142857142857,112.47767857142857,2480,77.57142857142857,112.47767857142857,2586,77.57142857142857,112.47767857142857,2686.3,77.57142857142857,112.47767857142857,2791,77.57142857142857,112.47767857142857,2895.5,77.57142857142857,112.47767857142857,2999.7,77.57142857142857,112.47767857142857,3100.2,77.57142857142857,112.47767857142857,3200.9,77.57142857142857,112.47767857142857,3304.9,77.57142857142857,112.47767857142857,3405.8,77.57142857142857,112.47767857142857,3511.4,77.57142857142857,112.47767857142857,3615.7,77.57142857142857,112.47767857142857,3715.8,77.57142857142857,112.47767857142857,3816.1,77.57142857142857,112.47767857142857,3921,77.57142857142857,112.47767857142857,4026.3,77.57142857142857,112.47767857142857,4131.4,77.57142857142857,112.47767857142857,4237.5,77.57142857142857,112.47767857142857,4337.9,77.57142857142857,112.47767857142857,4439.7,77.57142857142857,112.47767857142857,4539.7,77.57142857142857,112.47767857142857,4640.4,77.57142857142857,112.47767857142857,4740.8,77.57142857142857,112.47767857142857,4844.6,77.57142857142857,112.47767857142857,4945.5]","[1668.9,1668.9,1000,0,668.9,""smooth"",""up"",""up"",""good_move"",5345.9,3676.8,3009.1,1669.1,667.7,""oops"",""up"",""right"",""bad_move"",8758.6,3412.5,3028.5,5346.1,384,""smooth"",""left"",""left"",""good_move"",11704.1,2945.3,2461.4,8758.9,483.8,""oops"",""left"",""left"",""good_move"",15346.4,3642.2,3252.3,11704.2,389.9,""smooth"",""left"",""left"",""good_move"",17800,2453.5,2077,15346.5,376.5,""smooth"",""left"",""left"",""good_move"",20579.2,2779.1,2405.3,17800.1,373.8,""smooth"",""up"",""up"",""good_move""]","","",""
"4379","","<div style=""width:500px;"">
  <p>What determined the result of this run?</p>
  </div>","99","html-slider-response","52","1274836","0.0-10.0-1.2","53","1","2025-07-09 09:07:16","7701e855f2ef39aa3fd6c71abdc6918a","154.114.40.2","Mozilla/5.0 (Windows NT 10.0; Win64; x64) AppleWebKit/537.36 (KHTML, like Gecko) Chrome/137.0.0.0 Safari/537.36","WebKit","Chrome","137.0.0.0","Windows","10.0","https://app.prolific.com/","en-US,en;q=0.9","614de26d812e1b34acd48dfb","686d226cabeef709c732f8e1","686e310dc68e54bd44e04eaf","614de26d812e1b34acd48dfb","2025-07-09T09:28:34.624Z","","","","","","AttribQ","","","","","","","","","","","","","","","","","","","","","","","","","","","","","","","","","","","","","","50",""
"4557","","<div style=""width:500px;"">
  <p>How much control did you have over the ball?</p>
  </div>","42","html-slider-response","53","1279394","0.0-10.0-2.2","53","1","2025-07-09 09:07:16","7701e855f2ef39aa3fd6c71abdc6918a","154.114.40.2","Mozilla/5.0 (Windows NT 10.0; Win64; x64) AppleWebKit/537.36 (KHTML, like Gecko) Chrome/137.0.0.0 Safari/537.36","WebKit","Chrome","137.0.0.0","Windows","10.0","https://app.prolific.com/","en-US,en;q=0.9","614de26d812e1b34acd48dfb","686d226cabeef709c732f8e1","686e310dc68e54bd44e04eaf","614de26d812e1b34acd48dfb","2025-07-09T09:28:39.181Z","","","","","","ControlQ","","","","","","","","","","","","","","","","","","","","","","","","","","","","","","","","","","","","","","50",""
"4148","","<div style=""width:500px;"">
  <p>How would you describe your current emotional state?</p>
  </div>","59","html-slider-response","54","1283543","0.0-10.0-3.2","53","1","2025-07-09 09:07:16","7701e855f2ef39aa3fd6c71abdc6918a","154.114.40.2","Mozilla/5.0 (Windows NT 10.0; Win64; x64) AppleWebKit/537.36 (KHTML, like Gecko) Chrome/137.0.0.0 Safari/537.36","WebKit","Chrome","137.0.0.0","Windows","10.0","https://app.prolific.com/","en-US,en;q=0.9","614de26d812e1b34acd48dfb","686d226cabeef709c732f8e1","686e310dc68e54bd44e04eaf","614de26d812e1b34acd48dfb","2025-07-09T09:28:43.330Z","","","","","","StressQ","","","","","","","","","","","","","","","","","","","","","","","","","","","","","","","","","","","","","","50",""
"3503","","<div style=""width:500px;"">
  <p>What best describes how you currently feel?</p>
  </div>","38","html-slider-response","55","1287047","0.0-10.0-4.2","53","1","2025-07-09 09:07:16","7701e855f2ef39aa3fd6c71abdc6918a","154.114.40.2","Mozilla/5.0 (Windows NT 10.0; Win64; x64) AppleWebKit/537.36 (KHTML, like Gecko) Chrome/137.0.0.0 Safari/537.36","WebKit","Chrome","137.0.0.0","Windows","10.0","https://app.prolific.com/","en-US,en;q=0.9","614de26d812e1b34acd48dfb","686d226cabeef709c732f8e1","686e310dc68e54bd44e04eaf","614de26d812e1b34acd48dfb","2025-07-09T09:28:46.834Z","","","","","","MotivationQ","","","","","","","","","","","","","","","","","","","","","","","","","","","","","","","","","","","","","","50",""
"","","","","ctl-task-cpt","56","1328370","0.0-10.0-0.3","53","1","2025-07-09 09:07:16","7701e855f2ef39aa3fd6c71abdc6918a","154.114.40.2","Mozilla/5.0 (Windows NT 10.0; Win64; x64) AppleWebKit/537.36 (KHTML, like Gecko) Chrome/137.0.0.0 Safari/537.36","WebKit","Chrome","137.0.0.0","Windows","10.0","https://app.prolific.com/","en-US,en;q=0.9","614de26d812e1b34acd48dfb","686d226cabeef709c732f8e1","686e310dc68e54bd44e04eaf","614de26d812e1b34acd48dfb","2025-07-09T09:29:28.157Z","","","","","","","","","","","","","","","","win-only","2","g1:SE,g2:NW","0.7","4","0","1289966.5","1456.7","6457.2","38305.9","1","4","8","6","2","8","8","12","4","0.09090909090909091","1427.5","3000","535","[""left"",""up""]","{""num_key_presses"":6,""num_perfect"":4,""num_errors"":0,""num_randdir"":2,""num_randdir_good_moves"":2,""num_whilered"":0,""num_whileblue"":0,""num_blue"":5,""num_good_moves"":6}","[416.57142857142856,415.47767857142856,0.3,416.57142857142856,415.47767857142856,100.1,416.57142857142856,415.47767857142856,205.8,416.57142857142856,415.47767857142856,310.6,416.57142857142856,415.47767857142856,414.6,416.57142857142856,415.47767857142856,518.9,416.57142857142856,415.47767857142856,619.3,206.57142857142856,250.47767857142856,719.9,111.57142857142857,77.47767857142857,824.3,111.57142857142857,77.47767857142857,929.6,111.57142857142857,77.47767857142857,1034,91.57142857142857,75.47767857142857,1134.3,73.57142857142857,77.47767857142857,1235.3,73.57142857142857,77.47767857142857,1339.1,73.57142857142857,77.47767857142857,1452.4,73.57142857142857,77.47767857142857,1553.7,73.57142857142857,77.47767857142857,1658.6,73.57142857142857,77.47767857142857,1760.6,73.57142857142857,77.47767857142857,1864.4,73.57142857142857,77.47767857142857,1964.9,73.57142857142857,77.47767857142857,2068.7,73.57142857142857,77.47767857142857,2169.2,73.57142857142857,77.47767857142857,2269.3,73.57142857142857,77.47767857142857,2377.6,73.57142857142857,77.47767857142857,2478.6,73.57142857142857,77.47767857142857,2579.4,73.57142857142857,77.47767857142857,2685.1,73.57142857142857,77.47767857142857,2789,73.57142857142857,77.47767857142857,2892.5,73.57142857142857,77.47767857142857,2995,73.57142857142857,77.47767857142857,3100.3,73.57142857142857,77.47767857142857,3204.3,73.57142857142857,77.47767857142857,3304.4,73.57142857142857,77.47767857142857,3404.4,73.57142857142857,77.47767857142857,3507.9,73.57142857142857,77.47767857142857,3608,73.57142857142857,77.47767857142857,3709.1,73.57142857142857,77.47767857142857,3814.3,73.57142857142857,77.47767857142857,3914.9,73.57142857142857,77.47767857142857,4024.8,73.57142857142857,77.47767857142857,4129.3,73.57142857142857,77.47767857142857,4229.5,73.57142857142857,77.47767857142857,4329.5,73.57142857142857,77.47767857142857,4434.4,73.57142857142857,77.47767857142857,4542.9,73.57142857142857,77.47767857142857,4643.7,73.57142857142857,77.47767857142857,4744.8,73.57142857142857,77.47767857142857,4848,73.57142857142857,77.47767857142857,4949]","[1460.7,1460.7,1000,0,460.7,""smooth"",""up"",""up"",""good_move"",7937.8,6476.9,2963.2,4528.8,445.8,""oops"",""up"",""left"",""good_move"",14355.6,6417.6,2504.3,11309.7,541.6,""smooth"",""left"",""left"",""good_move"",25634.6,11278.8,2339.9,22865.1,429.6,""smooth"",""left"",""left"",""good_move"",28862.2,3227.4,2688,25634.8,539.4,""smooth"",""up"",""up"",""good_move"",31755.3,2892.9,2286.6,28862.4,606.3,""oops"",""up"",""up"",""good_move""]","","",""
"4088","","<div style=""width:500px;"">
  <p>What determined the result of this run?</p>
  </div>","100","html-slider-response","57","1332459","0.0-10.0-1.3","53","1","2025-07-09 09:07:16","7701e855f2ef39aa3fd6c71abdc6918a","154.114.40.2","Mozilla/5.0 (Windows NT 10.0; Win64; x64) AppleWebKit/537.36 (KHTML, like Gecko) Chrome/137.0.0.0 Safari/537.36","WebKit","Chrome","137.0.0.0","Windows","10.0","https://app.prolific.com/","en-US,en;q=0.9","614de26d812e1b34acd48dfb","686d226cabeef709c732f8e1","686e310dc68e54bd44e04eaf","614de26d812e1b34acd48dfb","2025-07-09T09:29:32.246Z","","","","","","AttribQ","","","","","","","","","","","","","","","","","","","","","","","","","","","","","","","","","","","","","","50",""
"3430","","<div style=""width:500px;"">
  <p>How much control did you have over the ball?</p>
  </div>","100","html-slider-response","58","1335890","0.0-10.0-2.3","53","1","2025-07-09 09:07:16","7701e855f2ef39aa3fd6c71abdc6918a","154.114.40.2","Mozilla/5.0 (Windows NT 10.0; Win64; x64) AppleWebKit/537.36 (KHTML, like Gecko) Chrome/137.0.0.0 Safari/537.36","WebKit","Chrome","137.0.0.0","Windows","10.0","https://app.prolific.com/","en-US,en;q=0.9","614de26d812e1b34acd48dfb","686d226cabeef709c732f8e1","686e310dc68e54bd44e04eaf","614de26d812e1b34acd48dfb","2025-07-09T09:29:35.677Z","","","","","","ControlQ","","","","","","","","","","","","","","","","","","","","","","","","","","","","","","","","","","","","","","50",""
"4743","","<div style=""width:500px;"">
  <p>How would you describe your current emotional state?</p>
  </div>","57","html-slider-response","59","1340635","0.0-10.0-3.3","53","1","2025-07-09 09:07:16","7701e855f2ef39aa3fd6c71abdc6918a","154.114.40.2","Mozilla/5.0 (Windows NT 10.0; Win64; x64) AppleWebKit/537.36 (KHTML, like Gecko) Chrome/137.0.0.0 Safari/537.36","WebKit","Chrome","137.0.0.0","Windows","10.0","https://app.prolific.com/","en-US,en;q=0.9","614de26d812e1b34acd48dfb","686d226cabeef709c732f8e1","686e310dc68e54bd44e04eaf","614de26d812e1b34acd48dfb","2025-07-09T09:29:40.422Z","","","","","","StressQ","","","","","","","","","","","","","","","","","","","","","","","","","","","","","","","","","","","","","","50",""
"2573","","<div style=""width:500px;"">
  <p>What best describes how you currently feel?</p>
  </div>","25","html-slider-response","60","1343208","0.0-10.0-4.3","53","1","2025-07-09 09:07:16","7701e855f2ef39aa3fd6c71abdc6918a","154.114.40.2","Mozilla/5.0 (Windows NT 10.0; Win64; x64) AppleWebKit/537.36 (KHTML, like Gecko) Chrome/137.0.0.0 Safari/537.36","WebKit","Chrome","137.0.0.0","Windows","10.0","https://app.prolific.com/","en-US,en;q=0.9","614de26d812e1b34acd48dfb","686d226cabeef709c732f8e1","686e310dc68e54bd44e04eaf","614de26d812e1b34acd48dfb","2025-07-09T09:29:42.995Z","","","","","","MotivationQ","","","","","","","","","","","","","","","","","","","","","","","","","","","","","","","","","","","","","","50",""
"","","","","ctl-task-cpt","61","1376016","0.0-10.0-0.4","53","1","2025-07-09 09:07:16","7701e855f2ef39aa3fd6c71abdc6918a","154.114.40.2","Mozilla/5.0 (Windows NT 10.0; Win64; x64) AppleWebKit/537.36 (KHTML, like Gecko) Chrome/137.0.0.0 Safari/537.36","WebKit","Chrome","137.0.0.0","Windows","10.0","https://app.prolific.com/","en-US,en;q=0.9","614de26d812e1b34acd48dfb","686d226cabeef709c732f8e1","686e310dc68e54bd44e04eaf","614de26d812e1b34acd48dfb","2025-07-09T09:30:15.804Z","","","","","","","","","","","","","","","","win-only","3","g1:SW,g2:NE","0.6","5","0","1346127.7","1320.1","6323","29789.6","1","4","8","6","2","-8","-8","4","12","0.030303030303030304","1544","3000","-2475","[""up"",""right""]","{""num_key_presses"":6,""num_perfect"":4,""num_errors"":0,""num_randdir"":2,""num_randdir_good_moves"":1,""num_whilered"":0,""num_whileblue"":0,""num_blue"":1,""num_good_moves"":5}","[418.57142857142856,419.47767857142856,0.3,418.57142857142856,419.47767857142856,110.1,418.57142857142856,419.47767857142856,211.1,418.57142857142856,419.47767857142856,311.5,418.57142857142856,419.47767857142856,412,418.57142857142856,419.47767857142856,515.5,418.57142857142856,419.47767857142856,615.9,418.57142857142856,419.47767857142856,716.2,418.57142857142856,419.47767857142856,818,696.5714285714286,91.47767857142857,918.2,808.5714285714286,32.47767857142857,1018.7,810.5714285714286,32.47767857142857,1121.4,808.5714285714286,37.47767857142857,1226.1,770.5714285714286,68.47767857142857,1330.4,770.5714285714286,66.47767857142857,1435.9,770.5714285714286,66.47767857142857,1540.4,770.5714285714286,66.47767857142857,1645.7,770.5714285714286,66.47767857142857,1746.7,770.5714285714286,66.47767857142857,1853.1,770.5714285714286,66.47767857142857,1956.9,770.5714285714286,66.47767857142857,2061.1,770.5714285714286,66.47767857142857,2161.1,770.5714285714286,66.47767857142857,2268,770.5714285714286,66.47767857142857,2371.8,770.5714285714286,66.47767857142857,2475,770.5714285714286,66.47767857142857,2575.8,770.5714285714286,66.47767857142857,2686.2,770.5714285714286,66.47767857142857,2791,770.5714285714286,66.47767857142857,2896,770.5714285714286,66.47767857142857,3004.6,770.5714285714286,66.47767857142857,3105.4,770.5714285714286,66.47767857142857,3210,770.5714285714286,66.47767857142857,3311.3,770.5714285714286,66.47767857142857,3416,770.5714285714286,66.47767857142857,3520.4,770.5714285714286,66.47767857142857,3620.7,770.5714285714286,66.47767857142857,3721.2,770.5714285714286,66.47767857142857,3821.3,770.5714285714286,66.47767857142857,3925.1,770.5714285714286,66.47767857142857,4025.5,770.5714285714286,66.47767857142857,4125.7,770.5714285714286,66.47767857142857,4226.8,770.5714285714286,66.47767857142857,4334.8,770.5714285714286,66.47767857142857,4435.3,770.5714285714286,66.47767857142857,4541,770.5714285714286,66.47767857142857,4651.1,770.5714285714286,66.47767857142857,4755.8,770.5714285714286,66.47767857142857,4860.4,770.5714285714286,66.47767857142857,4961]","[1794.8,1794.8,1000,0,794.8,""smooth"",""up"",""up"",""good_move"",5152.7,3357.5,2874.7,1795.2,482.8,""smooth"",""up"",""up"",""good_move"",8281.9,3129.1,2737.6,5152.8,391.5,""smooth"",""up"",""up"",""good_move"",14270.2,5988.2,2367,11504.6,398.7,""oops"",""right"",""left"",""bad_move"",17797.8,3527.4,2595.6,14270.5,931.8,""oops"",""right"",""right"",""good_move"",21086.6,3288.5,2907.2,17798.1,381.3,""smooth"",""right"",""right"",""good_move""]","","",""
"4299","","<div style=""width:500px;"">
  <p>What determined the result of this run?</p>
  </div>","37","html-slider-response","62","1380317","0.0-10.0-1.4","53","1","2025-07-09 09:07:16","7701e855f2ef39aa3fd6c71abdc6918a","154.114.40.2","Mozilla/5.0 (Windows NT 10.0; Win64; x64) AppleWebKit/537.36 (KHTML, like Gecko) Chrome/137.0.0.0 Safari/537.36","WebKit","Chrome","137.0.0.0","Windows","10.0","https://app.prolific.com/","en-US,en;q=0.9","614de26d812e1b34acd48dfb","686d226cabeef709c732f8e1","686e310dc68e54bd44e04eaf","614de26d812e1b34acd48dfb","2025-07-09T09:30:20.104Z","","","","","","AttribQ","","","","","","","","","","","","","","","","","","","","","","","","","","","","","","","","","","","","","","50",""
"3212","","<div style=""width:500px;"">
  <p>How much control did you have over the ball?</p>
  </div>","39","html-slider-response","63","1383529","0.0-10.0-2.4","53","1","2025-07-09 09:07:16","7701e855f2ef39aa3fd6c71abdc6918a","154.114.40.2","Mozilla/5.0 (Windows NT 10.0; Win64; x64) AppleWebKit/537.36 (KHTML, like Gecko) Chrome/137.0.0.0 Safari/537.36","WebKit","Chrome","137.0.0.0","Windows","10.0","https://app.prolific.com/","en-US,en;q=0.9","614de26d812e1b34acd48dfb","686d226cabeef709c732f8e1","686e310dc68e54bd44e04eaf","614de26d812e1b34acd48dfb","2025-07-09T09:30:23.316Z","","","","","","ControlQ","","","","","","","","","","","","","","","","","","","","","","","","","","","","","","","","","","","","","","50",""
"3744","","<div style=""width:500px;"">
  <p>How would you describe your current emotional state?</p>
  </div>","58","html-slider-response","64","1387274","0.0-10.0-3.4","53","1","2025-07-09 09:07:16","7701e855f2ef39aa3fd6c71abdc6918a","154.114.40.2","Mozilla/5.0 (Windows NT 10.0; Win64; x64) AppleWebKit/537.36 (KHTML, like Gecko) Chrome/137.0.0.0 Safari/537.36","WebKit","Chrome","137.0.0.0","Windows","10.0","https://app.prolific.com/","en-US,en;q=0.9","614de26d812e1b34acd48dfb","686d226cabeef709c732f8e1","686e310dc68e54bd44e04eaf","614de26d812e1b34acd48dfb","2025-07-09T09:30:27.061Z","","","","","","StressQ","","","","","","","","","","","","","","","","","","","","","","","","","","","","","","","","","","","","","","50",""
"2928","","<div style=""width:500px;"">
  <p>What best describes how you currently feel?</p>
  </div>","40","html-slider-response","65","1390203","0.0-10.0-4.4","53","1","2025-07-09 09:07:16","7701e855f2ef39aa3fd6c71abdc6918a","154.114.40.2","Mozilla/5.0 (Windows NT 10.0; Win64; x64) AppleWebKit/537.36 (KHTML, like Gecko) Chrome/137.0.0.0 Safari/537.36","WebKit","Chrome","137.0.0.0","Windows","10.0","https://app.prolific.com/","en-US,en;q=0.9","614de26d812e1b34acd48dfb","686d226cabeef709c732f8e1","686e310dc68e54bd44e04eaf","614de26d812e1b34acd48dfb","2025-07-09T09:30:29.990Z","","","","","","MotivationQ","","","","","","","","","","","","","","","","","","","","","","","","","","","","","","","","","","","","","","50",""
"","","","","ctl-task-cpt","66","1420318","0.0-10.0-0.5","53","1","2025-07-09 09:07:16","7701e855f2ef39aa3fd6c71abdc6918a","154.114.40.2","Mozilla/5.0 (Windows NT 10.0; Win64; x64) AppleWebKit/537.36 (KHTML, like Gecko) Chrome/137.0.0.0 Safari/537.36","WebKit","Chrome","137.0.0.0","Windows","10.0","https://app.prolific.com/","en-US,en;q=0.9","614de26d812e1b34acd48dfb","686d226cabeef709c732f8e1","686e310dc68e54bd44e04eaf","614de26d812e1b34acd48dfb","2025-07-09T09:31:00.105Z","","","","","","","","","","","","","","","","win-only","0","g1:NW,g2:SE","0.5","6","0","1393122.7","3863.4","8866.8","27095.7","1","4","4","6","2","-4","-4","0","4","0","1607.7","3000","-2575","[""down"",""right""]","{""num_key_presses"":6,""num_perfect"":5,""num_errors"":0,""num_randdir"":1,""num_randdir_good_moves"":0,""num_whilered"":0,""num_whileblue"":0,""num_blue"":0,""num_good_moves"":5}","[415.57142857142856,412.47767857142856,0.1,415.57142857142856,412.47767857142856,103.1,415.57142857142856,412.47767857142856,208.2,415.57142857142856,412.47767857142856,318.3,415.57142857142856,412.47767857142856,422.9,415.57142857142856,412.47767857142856,528.4,415.57142857142856,412.47767857142856,632.9,415.57142857142856,412.47767857142856,734,415.57142857142856,412.47767857142856,837.4,572.5714285714286,499.47767857142856,943.1,694.5714285714286,690.4776785714286,1047.4,694.5714285714286,690.4776785714286,1148.1,755.5714285714286,758.4776785714286,1252.3,775.5714285714286,767.4776785714286,1352.5,775.5714285714286,769.4776785714286,1452.5,775.5714285714286,769.4776785714286,1554,775.5714285714286,769.4776785714286,1668.4,775.5714285714286,769.4776785714286,1768.9,775.5714285714286,769.4776785714286,1872.6,775.5714285714286,769.4776785714286,1973.2,775.5714285714286,769.4776785714286,2077.6,775.5714285714286,769.4776785714286,2178.5,775.5714285714286,769.4776785714286,2282.6,775.5714285714286,769.4776785714286,2388.1,775.5714285714286,769.4776785714286,2508.2,775.5714285714286,769.4776785714286,2612.9,775.5714285714286,769.4776785714286,2713.8,775.5714285714286,769.4776785714286,2819.7,775.5714285714286,769.4776785714286,2935.7,775.5714285714286,769.4776785714286,3037.4,775.5714285714286,769.4776785714286,3137.4,775.5714285714286,769.4776785714286,3238.6,775.5714285714286,769.4776785714286,3343.1,775.5714285714286,769.4776785714286,3443.6,775.5714285714286,769.4776785714286,3547.8,775.5714285714286,769.4776785714286,3652.3,775.5714285714286,769.4776785714286,3752.9,775.5714285714286,769.4776785714286,3856.9,775.5714285714286,769.4776785714286,3963.9,775.5714285714286,769.4776785714286,4067.2,775.5714285714286,769.4776785714286,4177.8,775.5714285714286,769.4776785714286,4282.6,775.5714285714286,769.4776785714286,4388.8,775.5714285714286,769.4776785714286,4497.6,775.5714285714286,769.4776785714286,4598,775.5714285714286,769.4776785714286,4698.5,775.5714285714286,769.4776785714286,4801.8,775.5714285714286,769.4776785714286,4903]","[1476.5,1476.5,1000,0,476.5,""smooth"",""down"",""down"",""good_move"",4179.4,2702.6,1914.5,1476.8,788.1,""oops"",""right"",""up"",""bad_move"",6346.3,2166.7,1466.4,4179.6,700.4,""smooth"",""down"",""down"",""good_move"",9110.3,2763.7,2343.4,6346.6,420.3,""smooth"",""down"",""down"",""good_move"",11919.2,2808.8,2310.7,9110.4,498.1,""smooth"",""down"",""down"",""good_move"",14888.3,2968.9,2517,11919.4,451.9,""smooth"",""right"",""right"",""good_move""]","","",""
"4010","","<div style=""width:500px;"">
  <p>What determined the result of this run?</p>
  </div>","100","html-slider-response","67","1424329","0.0-10.0-1.5","53","1","2025-07-09 09:07:16","7701e855f2ef39aa3fd6c71abdc6918a","154.114.40.2","Mozilla/5.0 (Windows NT 10.0; Win64; x64) AppleWebKit/537.36 (KHTML, like Gecko) Chrome/137.0.0.0 Safari/537.36","WebKit","Chrome","137.0.0.0","Windows","10.0","https://app.prolific.com/","en-US,en;q=0.9","614de26d812e1b34acd48dfb","686d226cabeef709c732f8e1","686e310dc68e54bd44e04eaf","614de26d812e1b34acd48dfb","2025-07-09T09:31:04.117Z","","","","","","AttribQ","","","","","","","","","","","","","","","","","","","","","","","","","","","","","","","","","","","","","","50",""
"3698","","<div style=""width:500px;"">
  <p>How much control did you have over the ball?</p>
  </div>","44","html-slider-response","68","1428028","0.0-10.0-2.5","53","1","2025-07-09 09:07:16","7701e855f2ef39aa3fd6c71abdc6918a","154.114.40.2","Mozilla/5.0 (Windows NT 10.0; Win64; x64) AppleWebKit/537.36 (KHTML, like Gecko) Chrome/137.0.0.0 Safari/537.36","WebKit","Chrome","137.0.0.0","Windows","10.0","https://app.prolific.com/","en-US,en;q=0.9","614de26d812e1b34acd48dfb","686d226cabeef709c732f8e1","686e310dc68e54bd44e04eaf","614de26d812e1b34acd48dfb","2025-07-09T09:31:07.815Z","","","","","","ControlQ","","","","","","","","","","","","","","","","","","","","","","","","","","","","","","","","","","","","","","50",""
"4161","","<div style=""width:500px;"">
  <p>How would you describe your current emotional state?</p>
  </div>","56","html-slider-response","69","1432189","0.0-10.0-3.5","53","1","2025-07-09 09:07:16","7701e855f2ef39aa3fd6c71abdc6918a","154.114.40.2","Mozilla/5.0 (Windows NT 10.0; Win64; x64) AppleWebKit/537.36 (KHTML, like Gecko) Chrome/137.0.0.0 Safari/537.36","WebKit","Chrome","137.0.0.0","Windows","10.0","https://app.prolific.com/","en-US,en;q=0.9","614de26d812e1b34acd48dfb","686d226cabeef709c732f8e1","686e310dc68e54bd44e04eaf","614de26d812e1b34acd48dfb","2025-07-09T09:31:11.976Z","","","","","","StressQ","","","","","","","","","","","","","","","","","","","","","","","","","","","","","","","","","","","","","","50",""
"4270","","<div style=""width:500px;"">
  <p>What best describes how you currently feel?</p>
  </div>","42","html-slider-response","70","1436460","0.0-10.0-4.5","53","1","2025-07-09 09:07:16","7701e855f2ef39aa3fd6c71abdc6918a","154.114.40.2","Mozilla/5.0 (Windows NT 10.0; Win64; x64) AppleWebKit/537.36 (KHTML, like Gecko) Chrome/137.0.0.0 Safari/537.36","WebKit","Chrome","137.0.0.0","Windows","10.0","https://app.prolific.com/","en-US,en;q=0.9","614de26d812e1b34acd48dfb","686d226cabeef709c732f8e1","686e310dc68e54bd44e04eaf","614de26d812e1b34acd48dfb","2025-07-09T09:31:16.247Z","","","","","","MotivationQ","","","","","","","","","","","","","","","","","","","","","","","","","","","","","","","","","","","","","","50",""
"","","","","ctl-task-cpt","71","1486010","0.0-10.0-0.6","53","1","2025-07-09 09:07:16","7701e855f2ef39aa3fd6c71abdc6918a","154.114.40.2","Mozilla/5.0 (Windows NT 10.0; Win64; x64) AppleWebKit/537.36 (KHTML, like Gecko) Chrome/137.0.0.0 Safari/537.36","WebKit","Chrome","137.0.0.0","Windows","10.0","https://app.prolific.com/","en-US,en;q=0.9","614de26d812e1b34acd48dfb","686d226cabeef709c732f8e1","686e310dc68e54bd44e04eaf","614de26d812e1b34acd48dfb","2025-07-09T09:32:05.798Z","","","","","","","","","","","","","","","","win-only","2","g1:SE,g2:NW","0.4","7","0","1439379.5","1548.6","6552.6","46535.3","1","4","8","6","2","-8","-8","0","0","0","1538","3000","-2445","[""left"",""up""]","{""num_key_presses"":7,""num_perfect"":3,""num_errors"":0,""num_randdir"":4,""num_randdir_good_moves"":1,""num_whilered"":0,""num_whileblue"":0,""num_blue"":5,""num_good_moves"":4}","[421.57142857142856,406.47767857142856,0.3,421.57142857142856,406.47767857142856,102.6,421.57142857142856,406.47767857142856,207.2,421.57142857142856,406.47767857142856,307.6,421.57142857142856,406.47767857142856,412.6,421.57142857142856,406.47767857142856,525.2,421.57142857142856,406.47767857142856,628.6,349.57142857142856,316.47767857142856,739.9,256.57142857142856,188.47767857142856,842.5,259.57142857142856,185.47767857142856,943.2,252.57142857142856,180.47767857142856,1046.6,98.57142857142857,99.47767857142857,1153.9,93.57142857142857,89.47767857142857,1257.6,92.57142857142857,83.47767857142857,1370.6,92.57142857142857,83.47767857142857,1472.2,92.57142857142857,83.47767857142857,1572.7,92.57142857142857,83.47767857142857,1676.5,92.57142857142857,83.47767857142857,1780.4,92.57142857142857,83.47767857142857,1891.4,92.57142857142857,83.47767857142857,1993.1,92.57142857142857,83.47767857142857,2093.2,92.57142857142857,83.47767857142857,2209.9,92.57142857142857,83.47767857142857,2312.3,92.57142857142857,83.47767857142857,2413,92.57142857142857,83.47767857142857,2520.9,92.57142857142857,83.47767857142857,2621.5,92.57142857142857,83.47767857142857,2722,92.57142857142857,83.47767857142857,2823.1,92.57142857142857,83.47767857142857,2925.9,92.57142857142857,83.47767857142857,3027.7,92.57142857142857,83.47767857142857,3138.2,92.57142857142857,83.47767857142857,3239.2,92.57142857142857,83.47767857142857,3342.9,92.57142857142857,83.47767857142857,3443.2,92.57142857142857,83.47767857142857,3557.1,92.57142857142857,83.47767857142857,3657.2,92.57142857142857,83.47767857142857,3757.8,92.57142857142857,83.47767857142857,3861.7,92.57142857142857,83.47767857142857,3962.1,92.57142857142857,83.47767857142857,4073.1,92.57142857142857,83.47767857142857,4173.6,92.57142857142857,83.47767857142857,4278.9,92.57142857142857,83.47767857142857,4389.5,92.57142857142857,83.47767857142857,4494.6,92.57142857142857,83.47767857142857,4597.7,92.57142857142857,83.47767857142857,4700.3,92.57142857142857,83.47767857142857,4802.8,92.57142857142857,83.47767857142857,4906.7]","[1600.6,1600.6,1000,0,600.6,""oops"",""up"",""down"",""bad_move"",4861.8,3261,2816.6,1600.8,444.4,""oops"",""up"",""left"",""good_move"",7250.1,2388.1,1944.4,4862,443.7,""oops"",""left"",""right"",""bad_move"",10331.8,3081.5,2715.1,7250.3,366.4,""smooth"",""left"",""left"",""good_move"",17530.4,7198.5,2380,14734.4,416,""smooth"",""up"",""up"",""good_move"",27347.2,9816.5,3096.2,23853.4,397.6,""oops"",""up"",""right"",""bad_move"",30032.8,2685.4,2158.7,27347.4,526.7,""smooth"",""up"",""up"",""good_move""]","","",""
"8072","","<div style=""width:500px;"">
  <p>What determined the result of this run?</p>
  </div>","41","html-slider-response","72","1494083","0.0-10.0-1.6","53","1","2025-07-09 09:07:16","7701e855f2ef39aa3fd6c71abdc6918a","154.114.40.2","Mozilla/5.0 (Windows NT 10.0; Win64; x64) AppleWebKit/537.36 (KHTML, like Gecko) Chrome/137.0.0.0 Safari/537.36","WebKit","Chrome","137.0.0.0","Windows","10.0","https://app.prolific.com/","en-US,en;q=0.9","614de26d812e1b34acd48dfb","686d226cabeef709c732f8e1","686e310dc68e54bd44e04eaf","614de26d812e1b34acd48dfb","2025-07-09T09:32:13.870Z","","","","","","AttribQ","","","","","","","","","","","","","","","","","","","","","","","","","","","","","","","","","","","","","","50",""
"5314","","<div style=""width:500px;"">
  <p>How much control did you have over the ball?</p>
  </div>","38","html-slider-response","73","1499398","0.0-10.0-2.6","53","1","2025-07-09 09:07:16","7701e855f2ef39aa3fd6c71abdc6918a","154.114.40.2","Mozilla/5.0 (Windows NT 10.0; Win64; x64) AppleWebKit/537.36 (KHTML, like Gecko) Chrome/137.0.0.0 Safari/537.36","WebKit","Chrome","137.0.0.0","Windows","10.0","https://app.prolific.com/","en-US,en;q=0.9","614de26d812e1b34acd48dfb","686d226cabeef709c732f8e1","686e310dc68e54bd44e04eaf","614de26d812e1b34acd48dfb","2025-07-09T09:32:19.185Z","","","","","","ControlQ","","","","","","","","","","","","","","","","","","","","","","","","","","","","","","","","","","","","","","50",""
"3903","","<div style=""width:500px;"">
  <p>How would you describe your current emotional state?</p>
  </div>","55","html-slider-response","74","1503302","0.0-10.0-3.6","53","1","2025-07-09 09:07:16","7701e855f2ef39aa3fd6c71abdc6918a","154.114.40.2","Mozilla/5.0 (Windows NT 10.0; Win64; x64) AppleWebKit/537.36 (KHTML, like Gecko) Chrome/137.0.0.0 Safari/537.36","WebKit","Chrome","137.0.0.0","Windows","10.0","https://app.prolific.com/","en-US,en;q=0.9","614de26d812e1b34acd48dfb","686d226cabeef709c732f8e1","686e310dc68e54bd44e04eaf","614de26d812e1b34acd48dfb","2025-07-09T09:32:23.089Z","","","","","","StressQ","","","","","","","","","","","","","","","","","","","","","","","","","","","","","","","","","","","","","","50",""
"4226","","<div style=""width:500px;"">
  <p>What best describes how you currently feel?</p>
  </div>","46","html-slider-response","75","1507529","0.0-10.0-4.6","53","1","2025-07-09 09:07:16","7701e855f2ef39aa3fd6c71abdc6918a","154.114.40.2","Mozilla/5.0 (Windows NT 10.0; Win64; x64) AppleWebKit/537.36 (KHTML, like Gecko) Chrome/137.0.0.0 Safari/537.36","WebKit","Chrome","137.0.0.0","Windows","10.0","https://app.prolific.com/","en-US,en;q=0.9","614de26d812e1b34acd48dfb","686d226cabeef709c732f8e1","686e310dc68e54bd44e04eaf","614de26d812e1b34acd48dfb","2025-07-09T09:32:27.316Z","","","","","","MotivationQ","","","","","","","","","","","","","","","","","","","","","","","","","","","","","","","","","","","","","","50",""
"","","","","ctl-task-cpt","76","1539948","0.0-10.0-0.7","53","1","2025-07-09 09:07:16","7701e855f2ef39aa3fd6c71abdc6918a","154.114.40.2","Mozilla/5.0 (Windows NT 10.0; Win64; x64) AppleWebKit/537.36 (KHTML, like Gecko) Chrome/137.0.0.0 Safari/537.36","WebKit","Chrome","137.0.0.0","Windows","10.0","https://app.prolific.com/","en-US,en;q=0.9","614de26d812e1b34acd48dfb","686d226cabeef709c732f8e1","686e310dc68e54bd44e04eaf","614de26d812e1b34acd48dfb","2025-07-09T09:32:59.736Z","","","","","","","","","","","","","","","","win-only","1","g1:NE,g2:SW","0.3","8","0","1510448.6","1420","6420.8","29395.4","1","4","4","6","2","-4","-4","0","0","0","1433.5","3000","-2035","[""down"",""left""]","{""num_key_presses"":6,""num_perfect"":1,""num_errors"":0,""num_randdir"":5,""num_randdir_good_moves"":3,""num_whilered"":0,""num_whileblue"":0,""num_blue"":1,""num_good_moves"":4}","[414.57142857142856,420.47767857142856,0.1,414.57142857142856,420.47767857142856,105.6,414.57142857142856,420.47767857142856,206,414.57142857142856,420.47767857142856,311.1,414.57142857142856,420.47767857142856,415.4,414.57142857142856,420.47767857142856,516.2,414.57142857142856,420.47767857142856,621.5,234.57142857142856,717.4776785714286,725.5,145.57142857142856,744.4776785714286,826.1,142.57142857142856,744.4776785714286,930.9,142.57142857142856,744.4776785714286,1031.2,142.57142857142856,744.4776785714286,1136.8,91.57142857142857,756.4776785714286,1241.4,91.57142857142857,756.4776785714286,1341.6,91.57142857142857,756.4776785714286,1442.4,91.57142857142857,756.4776785714286,1545.9,91.57142857142857,756.4776785714286,1646,91.57142857142857,756.4776785714286,1746.4,91.57142857142857,756.4776785714286,1861.3,91.57142857142857,756.4776785714286,1965.5,91.57142857142857,756.4776785714286,2071,91.57142857142857,756.4776785714286,2171.6,91.57142857142857,756.4776785714286,2271.7,91.57142857142857,756.4776785714286,2376.6,91.57142857142857,756.4776785714286,2478.4,91.57142857142857,756.4776785714286,2580.6,91.57142857142857,756.4776785714286,2689.7,91.57142857142857,756.4776785714286,2790.8,91.57142857142857,756.4776785714286,2891.7,91.57142857142857,756.4776785714286,2995.6,91.57142857142857,756.4776785714286,3095.6,91.57142857142857,756.4776785714286,3195.8,91.57142857142857,756.4776785714286,3296.1,91.57142857142857,756.4776785714286,3400.8,91.57142857142857,756.4776785714286,3501.4,91.57142857142857,756.4776785714286,3606.1,91.57142857142857,756.4776785714286,3711.5,91.57142857142857,756.4776785714286,3815.9,91.57142857142857,756.4776785714286,3920.3,91.57142857142857,756.4776785714286,4020.7,91.57142857142857,756.4776785714286,4121.2,91.57142857142857,756.4776785714286,4225.5,91.57142857142857,756.4776785714286,4325.7,91.57142857142857,756.4776785714286,4430.8,91.57142857142857,756.4776785714286,4532,91.57142857142857,756.4776785714286,4635.5,91.57142857142857,756.4776785714286,4735.5,91.57142857142857,756.4776785714286,4841.4,91.57142857142857,756.4776785714286,4941.8]","[1524.4,1524.4,1000,0,524.4,""oops"",""down"",""left"",""good_move"",8445.8,6921.2,2767.4,5164.4,514,""oops"",""left"",""up"",""bad_move"",10992.9,2546.9,1760.4,8446,786.5,""oops"",""down"",""left"",""good_move"",14018,3024.9,2503.1,10993.1,521.8,""oops"",""down"",""right"",""bad_move"",17073.2,3055,2538.7,14018.3,516.2,""smooth"",""down"",""down"",""good_move"",20176.5,3103,2691.5,17073.5,411.5,""oops"",""left"",""left"",""good_move""]","","",""
"8005","","<div style=""width:500px;"">
  <p>What determined the result of this run?</p>
  </div>","19","html-slider-response","77","1547954","0.0-10.0-1.7","53","1","2025-07-09 09:07:16","7701e855f2ef39aa3fd6c71abdc6918a","154.114.40.2","Mozilla/5.0 (Windows NT 10.0; Win64; x64) AppleWebKit/537.36 (KHTML, like Gecko) Chrome/137.0.0.0 Safari/537.36","WebKit","Chrome","137.0.0.0","Windows","10.0","https://app.prolific.com/","en-US,en;q=0.9","614de26d812e1b34acd48dfb","686d226cabeef709c732f8e1","686e310dc68e54bd44e04eaf","614de26d812e1b34acd48dfb","2025-07-09T09:33:07.741Z","","","","","","AttribQ","","","","","","","","","","","","","","","","","","","","","","","","","","","","","","","","","","","","","","50",""
"3864","","<div style=""width:500px;"">
  <p>How much control did you have over the ball?</p>
  </div>","7","html-slider-response","78","1551820","0.0-10.0-2.7","53","1","2025-07-09 09:07:16","7701e855f2ef39aa3fd6c71abdc6918a","154.114.40.2","Mozilla/5.0 (Windows NT 10.0; Win64; x64) AppleWebKit/537.36 (KHTML, like Gecko) Chrome/137.0.0.0 Safari/537.36","WebKit","Chrome","137.0.0.0","Windows","10.0","https://app.prolific.com/","en-US,en;q=0.9","614de26d812e1b34acd48dfb","686d226cabeef709c732f8e1","686e310dc68e54bd44e04eaf","614de26d812e1b34acd48dfb","2025-07-09T09:33:11.607Z","","","","","","ControlQ","","","","","","","","","","","","","","","","","","","","","","","","","","","","","","","","","","","","","","50",""
"3443","","<div style=""width:500px;"">
  <p>How would you describe your current emotional state?</p>
  </div>","55","html-slider-response","79","1555264","0.0-10.0-3.7","53","1","2025-07-09 09:07:16","7701e855f2ef39aa3fd6c71abdc6918a","154.114.40.2","Mozilla/5.0 (Windows NT 10.0; Win64; x64) AppleWebKit/537.36 (KHTML, like Gecko) Chrome/137.0.0.0 Safari/537.36","WebKit","Chrome","137.0.0.0","Windows","10.0","https://app.prolific.com/","en-US,en;q=0.9","614de26d812e1b34acd48dfb","686d226cabeef709c732f8e1","686e310dc68e54bd44e04eaf","614de26d812e1b34acd48dfb","2025-07-09T09:33:15.051Z","","","","","","StressQ","","","","","","","","","","","","","","","","","","","","","","","","","","","","","","","","","","","","","","50",""
"3203","","<div style=""width:500px;"">
  <p>What best describes how you currently feel?</p>
  </div>","43","html-slider-response","80","1558468","0.0-10.0-4.7","53","1","2025-07-09 09:07:16","7701e855f2ef39aa3fd6c71abdc6918a","154.114.40.2","Mozilla/5.0 (Windows NT 10.0; Win64; x64) AppleWebKit/537.36 (KHTML, like Gecko) Chrome/137.0.0.0 Safari/537.36","WebKit","Chrome","137.0.0.0","Windows","10.0","https://app.prolific.com/","en-US,en;q=0.9","614de26d812e1b34acd48dfb","686d226cabeef709c732f8e1","686e310dc68e54bd44e04eaf","614de26d812e1b34acd48dfb","2025-07-09T09:33:18.255Z","","","","","","MotivationQ","","","","","","","","","","","","","","","","","","","","","","","","","","","","","","","","","","","","","","50",""
"","","","","ctl-task-cpt","81","1595756","0.0-10.0-0.8","53","1","2025-07-09 09:07:16","7701e855f2ef39aa3fd6c71abdc6918a","154.114.40.2","Mozilla/5.0 (Windows NT 10.0; Win64; x64) AppleWebKit/537.36 (KHTML, like Gecko) Chrome/137.0.0.0 Safari/537.36","WebKit","Chrome","137.0.0.0","Windows","10.0","https://app.prolific.com/","en-US,en;q=0.9","614de26d812e1b34acd48dfb","686d226cabeef709c732f8e1","686e310dc68e54bd44e04eaf","614de26d812e1b34acd48dfb","2025-07-09T09:33:55.543Z","","","","","","","","","","","","","","","","win-only","2","g1:SE,g2:NW","0.2","9","0","1561387.6","1463.3","6470.4","34279","1","4","4","6","2","-4","-4","0","0","0","1457","3000","-2510","[""left"",""up""]","{""num_key_presses"":6,""num_perfect"":1,""num_errors"":0,""num_randdir"":5,""num_randdir_good_moves"":2,""num_whilered"":0,""num_whileblue"":0,""num_blue"":2,""num_good_moves"":3}","[413.57142857142856,426.47767857142856,0.3,413.57142857142856,426.47767857142856,102.8,413.57142857142856,426.47767857142856,207.7,413.57142857142856,426.47767857142856,313.3,413.57142857142856,426.47767857142856,424,413.57142857142856,426.47767857142856,524.4,413.57142857142856,426.47767857142856,628.4,386.57142857142856,417.47767857142856,728.4,139.57142857142856,200.47767857142856,832.4,146.57142857142856,183.47767857142856,944.8,146.57142857142856,183.47767857142856,1047.7,71.57142857142857,101.47767857142857,1160.5,81.57142857142857,93.47767857142857,1263.4,81.57142857142857,93.47767857142857,1367.3,81.57142857142857,93.47767857142857,1467.7,81.57142857142857,93.47767857142857,1573.7,81.57142857142857,93.47767857142857,1673.7,81.57142857142857,93.47767857142857,1780.3,81.57142857142857,93.47767857142857,1888.4,81.57142857142857,93.47767857142857,1992.6,81.57142857142857,93.47767857142857,2094.5,81.57142857142857,93.47767857142857,2197.1,81.57142857142857,93.47767857142857,2302.8,81.57142857142857,93.47767857142857,2407,81.57142857142857,93.47767857142857,2507.2,81.57142857142857,93.47767857142857,2608,81.57142857142857,93.47767857142857,2713.4,81.57142857142857,93.47767857142857,2823.7,81.57142857142857,93.47767857142857,2927.7,81.57142857142857,93.47767857142857,3028,81.57142857142857,93.47767857142857,3139.4,81.57142857142857,93.47767857142857,3244.3,81.57142857142857,93.47767857142857,3346.9,81.57142857142857,93.47767857142857,3447.7,84.57142857142857,93.47767857142857,3555.8,344.57142857142856,281.47767857142856,3657.5,432.57142857142856,416.47767857142856,3757.8,432.57142857142856,416.47767857142856,3864.4,432.57142857142856,416.47767857142856,3967.1,432.57142857142856,416.47767857142856,4067.1,432.57142857142856,416.47767857142856,4167.2,432.57142857142856,416.47767857142856,4267.3,432.57142857142856,416.47767857142856,4372,432.57142857142856,416.47767857142856,4472.4,432.57142857142856,416.47767857142856,4573.2,432.57142857142856,416.47767857142856,4676.9,432.57142857142856,416.47767857142856,4777.2,432.57142857142856,416.47767857142856,4877.8,432.57142857142856,416.47767857142856,4990]","[1603.7,1603.7,1000,0,603.7,""smooth"",""left"",""left"",""good_move"",9088.6,7479.8,3151.2,5418.5,518.9,""oops"",""up"",""up"",""good_move"",12034.5,2945.7,2340.4,9088.8,605.4,""oops"",""up"",""right"",""bad_move"",14552.3,2517.5,2000.8,12034.9,516.7,""oops"",""left"",""right"",""bad_move"",18296.8,3744.1,3184.6,14552.7,559.5,""oops"",""left"",""right"",""bad_move"",20960.3,2663.2,1737.9,18297.1,925.3,""oops"",""up"",""left"",""good_move""]","","",""
"4632","","<div style=""width:500px;"">
  <p>What determined the result of this run?</p>
  </div>","12","html-slider-response","82","1600389","0.0-10.0-1.8","53","1","2025-07-09 09:07:16","7701e855f2ef39aa3fd6c71abdc6918a","154.114.40.2","Mozilla/5.0 (Windows NT 10.0; Win64; x64) AppleWebKit/537.36 (KHTML, like Gecko) Chrome/137.0.0.0 Safari/537.36","WebKit","Chrome","137.0.0.0","Windows","10.0","https://app.prolific.com/","en-US,en;q=0.9","614de26d812e1b34acd48dfb","686d226cabeef709c732f8e1","686e310dc68e54bd44e04eaf","614de26d812e1b34acd48dfb","2025-07-09T09:34:00.176Z","","","","","","AttribQ","","","","","","","","","","","","","","","","","","","","","","","","","","","","","","","","","","","","","","50",""
"3780","","<div style=""width:500px;"">
  <p>How much control did you have over the ball?</p>
  </div>","2","html-slider-response","83","1604170","0.0-10.0-2.8","53","1","2025-07-09 09:07:16","7701e855f2ef39aa3fd6c71abdc6918a","154.114.40.2","Mozilla/5.0 (Windows NT 10.0; Win64; x64) AppleWebKit/537.36 (KHTML, like Gecko) Chrome/137.0.0.0 Safari/537.36","WebKit","Chrome","137.0.0.0","Windows","10.0","https://app.prolific.com/","en-US,en;q=0.9","614de26d812e1b34acd48dfb","686d226cabeef709c732f8e1","686e310dc68e54bd44e04eaf","614de26d812e1b34acd48dfb","2025-07-09T09:34:03.957Z","","","","","","ControlQ","","","","","","","","","","","","","","","","","","","","","","","","","","","","","","","","","","","","","","50",""
"3708","","<div style=""width:500px;"">
  <p>How would you describe your current emotional state?</p>
  </div>","56","html-slider-response","84","1607879","0.0-10.0-3.8","53","1","2025-07-09 09:07:16","7701e855f2ef39aa3fd6c71abdc6918a","154.114.40.2","Mozilla/5.0 (Windows NT 10.0; Win64; x64) AppleWebKit/537.36 (KHTML, like Gecko) Chrome/137.0.0.0 Safari/537.36","WebKit","Chrome","137.0.0.0","Windows","10.0","https://app.prolific.com/","en-US,en;q=0.9","614de26d812e1b34acd48dfb","686d226cabeef709c732f8e1","686e310dc68e54bd44e04eaf","614de26d812e1b34acd48dfb","2025-07-09T09:34:07.666Z","","","","","","StressQ","","","","","","","","","","","","","","","","","","","","","","","","","","","","","","","","","","","","","","50",""
"3496","","<div style=""width:500px;"">
  <p>What best describes how you currently feel?</p>
  </div>","44","html-slider-response","85","1611376","0.0-10.0-4.8","53","1","2025-07-09 09:07:16","7701e855f2ef39aa3fd6c71abdc6918a","154.114.40.2","Mozilla/5.0 (Windows NT 10.0; Win64; x64) AppleWebKit/537.36 (KHTML, like Gecko) Chrome/137.0.0.0 Safari/537.36","WebKit","Chrome","137.0.0.0","Windows","10.0","https://app.prolific.com/","en-US,en;q=0.9","614de26d812e1b34acd48dfb","686d226cabeef709c732f8e1","686e310dc68e54bd44e04eaf","614de26d812e1b34acd48dfb","2025-07-09T09:34:11.163Z","","","","","","MotivationQ","","","","","","","","","","","","","","","","","","","","","","","","","","","","","","","","","","","","","","50",""
