"rt","response_timestamp","stimulus","response","trial_type","trial_index","time_elapsed","internal_node_id","run_id","condition","recorded_at","source_code_version","ip","user_agent","device","browser","browser_version","platform","platform_version","referer","accept_language","PROLIFIC_PID","STUDY_ID","SESSION_ID","prolific_id","realtime","view_history","question_order","consent","success","question_id","eventType","responses","item_order","radio_event_ids","radio_event_times","key_event_times","mouse_event_times","straightlining","zigzagging","honeypot","which_type","canvas_config","goals_layout","control_level","trial_number","tutorial_trial_number","trial_start_time","phase1_start_time","phase2_start_time","phase3_start_time","goal_1_value","goal_1_distance","goal_2_value","goal_2_distance","goal_selected","outcome","outcome_total","participant_final_score","participant_initial_score","participant_final_score_prop","goal_choice_rt","allocated_time","allocated_time_remaining","goal_direction","counts","mouse_movements","key_presses","correct","slider_start","sub_question"
"13106","1752052156699","<p style='font-size:40px;line-height:1.25'><strong>Welcome to the experiment!</strong></p><p style='font-size:1.1em;line-height:1.25'>Thank you for your interest in our experiment! Before you begin, it is important that we obtain your informed consent to participate in the study.</p><p style='font-size:1.1em;line-height:1.25'>On the next screen will be an <strong>information sheet</strong> for you to read. To participate in the study we need you to read this information sheet and the following consent form carefully. If you agree with all the statements, please click the <strong>I agree</strong> button.</p><p style='font-size:1.1em;line-height:1.25'>Press <strong>Next</strong> to read the information sheet.</p>","0","custom-html-button-response","0","13110","0.0-0.0","134","1","2025-07-09 09:09:01","7701e855f2ef39aa3fd6c71abdc6918a","37.228.232.48","Mozilla/5.0 (Windows NT 10.0; Win64; x64) AppleWebKit/537.36 (KHTML, like Gecko) Chrome/138.0.0.0 Safari/537.36","WebKit","Chrome","138.0.0.0","Windows","10.0","https://app.prolific.com/","en-IE,en-US;q=0.9,en;q=0.8","60cd16e63d3924958e8d3d43","686d226cabeef709c732f8e1","686e3118efe01db55c06521e","60cd16e63d3924958e8d3d43","2025-07-09T09:09:16.700Z","","","","","","","","","","","","","","","","","","","","","","","","","","","","","","","","","","","","","","","","","","","","",""
"22080","","","","instructions","1","35192","0.0-1.0","134","1","2025-07-09 09:09:01","7701e855f2ef39aa3fd6c71abdc6918a","37.228.232.48","Mozilla/5.0 (Windows NT 10.0; Win64; x64) AppleWebKit/537.36 (KHTML, like Gecko) Chrome/138.0.0.0 Safari/537.36","WebKit","Chrome","138.0.0.0","Windows","10.0","https://app.prolific.com/","en-IE,en-US;q=0.9,en;q=0.8","60cd16e63d3924958e8d3d43","686d226cabeef709c732f8e1","686e3118efe01db55c06521e","60cd16e63d3924958e8d3d43","","[{""page_index"":0,""viewing_time"":17814},{""page_index"":1,""viewing_time"":4265}]","","","","","","","","","","","","","","","","","","","","","","","","","","","","","","","","","","","","","","","","","","","",""
"15463","","","{""Q0"":"""",""Q1"":"""",""Q2"":"""",""Q3"":"""",""Q4"":"""",""Q5"":"""",""Q6"":""I agree""}","survey-multi-choice","2","50658","0.0-2.0","134","1","2025-07-09 09:09:01","7701e855f2ef39aa3fd6c71abdc6918a","37.228.232.48","Mozilla/5.0 (Windows NT 10.0; Win64; x64) AppleWebKit/537.36 (KHTML, like Gecko) Chrome/138.0.0.0 Safari/537.36","WebKit","Chrome","138.0.0.0","Windows","10.0","https://app.prolific.com/","en-IE,en-US;q=0.9,en;q=0.8","60cd16e63d3924958e8d3d43","686d226cabeef709c732f8e1","686e3118efe01db55c06521e","60cd16e63d3924958e8d3d43","","","[0,1,2,3,4,5,6]","true","","","","","","","","","","","","","","","","","","","","","","","","","","","","","","","","","","","","","","","","","",""
"65103","","","","fullscreen","3","116772","0.0-4.0","134","1","2025-07-09 09:09:01","7701e855f2ef39aa3fd6c71abdc6918a","37.228.232.48","Mozilla/5.0 (Windows NT 10.0; Win64; x64) AppleWebKit/537.36 (KHTML, like Gecko) Chrome/138.0.0.0 Safari/537.36","WebKit","Chrome","138.0.0.0","Windows","10.0","https://app.prolific.com/","en-IE,en-US;q=0.9,en;q=0.8","60cd16e63d3924958e8d3d43","686d226cabeef709c732f8e1","686e3118efe01db55c06521e","60cd16e63d3924958e8d3d43","","","","","true","","","","","","","","","","","","","","","","","","","","","","","","","","","","","","","","","","","","","","","","",""
"72213","1752052332573"," <p style='font-size:1.1em;line-height:1.25'>Thank you for completing the consent form and closing all other tabs.</p><p style='font-size:1.1em;line-height:1.25'>We will now invite you to fill in some demographic information and questionnaires, before starting the game.<br>This will take about 5 minutes.<br></p><p style='font-size:1.1em;line-height:1.25'>Press the <strong>Next</strong> button to continue.</p>","0","custom-html-button-response","4","188983","0.0-5.0","134","1","2025-07-09 09:09:01","7701e855f2ef39aa3fd6c71abdc6918a","37.228.232.48","Mozilla/5.0 (Windows NT 10.0; Win64; x64) AppleWebKit/537.36 (KHTML, like Gecko) Chrome/138.0.0.0 Safari/537.36","WebKit","Chrome","138.0.0.0","Windows","10.0","https://app.prolific.com/","en-IE,en-US;q=0.9,en;q=0.8","60cd16e63d3924958e8d3d43","686d226cabeef709c732f8e1","686e3118efe01db55c06521e","60cd16e63d3924958e8d3d43","2025-07-09T09:12:12.573Z","","","","","","","","","","","","","","","","","","","","","","","","","","","","","","","","","","","","","","","","","","","","",""
"4123","","","{""age"":""36""}","survey-text","5","193111","0.0-6.0-0.0","134","1","2025-07-09 09:09:01","7701e855f2ef39aa3fd6c71abdc6918a","37.228.232.48","Mozilla/5.0 (Windows NT 10.0; Win64; x64) AppleWebKit/537.36 (KHTML, like Gecko) Chrome/138.0.0.0 Safari/537.36","WebKit","Chrome","138.0.0.0","Windows","10.0","https://app.prolific.com/","en-IE,en-US;q=0.9,en;q=0.8","60cd16e63d3924958e8d3d43","686d226cabeef709c732f8e1","686e3118efe01db55c06521e","60cd16e63d3924958e8d3d43","","","","","","0","demographics","","","","","","","","","","","","","","","","","","","","","","","","","","","","","","","","","","","","","","",""
"2951","","","{""gender_identity"":""female/woman""}","survey-multi-choice","6","196065","0.0-6.0-1.0","134","1","2025-07-09 09:09:01","7701e855f2ef39aa3fd6c71abdc6918a","37.228.232.48","Mozilla/5.0 (Windows NT 10.0; Win64; x64) AppleWebKit/537.36 (KHTML, like Gecko) Chrome/138.0.0.0 Safari/537.36","WebKit","Chrome","138.0.0.0","Windows","10.0","https://app.prolific.com/","en-IE,en-US;q=0.9,en;q=0.8","60cd16e63d3924958e8d3d43","686d226cabeef709c732f8e1","686e3118efe01db55c06521e","60cd16e63d3924958e8d3d43","","","[0]","","","1","demographics","","","","","","","","","","","","","","","","","","","","","","","","","","","","","","","","","","","","","","",""
"3180","","","{""assigned_sex"":""female""}","survey-multi-choice","7","199248","0.0-6.0-2.0","134","1","2025-07-09 09:09:01","7701e855f2ef39aa3fd6c71abdc6918a","37.228.232.48","Mozilla/5.0 (Windows NT 10.0; Win64; x64) AppleWebKit/537.36 (KHTML, like Gecko) Chrome/138.0.0.0 Safari/537.36","WebKit","Chrome","138.0.0.0","Windows","10.0","https://app.prolific.com/","en-IE,en-US;q=0.9,en;q=0.8","60cd16e63d3924958e8d3d43","686d226cabeef709c732f8e1","686e3118efe01db55c06521e","60cd16e63d3924958e8d3d43","","","[0]","","","2","demographics","","","","","","","","","","","","","","","","","","","","","","","","","","","","","","","","","","","","","","",""
"3930","","","{""menstrual_cycle"":""Yes""}","survey-multi-choice","8","203180","0.0-6.0-3.0","134","1","2025-07-09 09:09:01","7701e855f2ef39aa3fd6c71abdc6918a","37.228.232.48","Mozilla/5.0 (Windows NT 10.0; Win64; x64) AppleWebKit/537.36 (KHTML, like Gecko) Chrome/138.0.0.0 Safari/537.36","WebKit","Chrome","138.0.0.0","Windows","10.0","https://app.prolific.com/","en-IE,en-US;q=0.9,en;q=0.8","60cd16e63d3924958e8d3d43","686d226cabeef709c732f8e1","686e3118efe01db55c06521e","60cd16e63d3924958e8d3d43","","","[0]","","","4","demographics","","","","","","","","","","","","","","","","","","","","","","","","","","","","","","","","","","","","","","",""
"9852","","","{""education"":""Vocational Qualifications (e.g. City & Guilds)""}","survey-multi-choice","9","213035","0.0-6.0-4.0","134","1","2025-07-09 09:09:01","7701e855f2ef39aa3fd6c71abdc6918a","37.228.232.48","Mozilla/5.0 (Windows NT 10.0; Win64; x64) AppleWebKit/537.36 (KHTML, like Gecko) Chrome/138.0.0.0 Safari/537.36","WebKit","Chrome","138.0.0.0","Windows","10.0","https://app.prolific.com/","en-IE,en-US;q=0.9,en;q=0.8","60cd16e63d3924958e8d3d43","686d226cabeef709c732f8e1","686e3118efe01db55c06521e","60cd16e63d3924958e8d3d43","","","[0]","","","5","demographics","","","","","","","","","","","","","","","","","","","","","","","","","","","","","","","","","","","","","","",""
"7284","","","{""education"":""GCSE/Standard Grades""}","survey-multi-choice","10","220322","0.0-6.0-5.0","134","1","2025-07-09 09:09:01","7701e855f2ef39aa3fd6c71abdc6918a","37.228.232.48","Mozilla/5.0 (Windows NT 10.0; Win64; x64) AppleWebKit/537.36 (KHTML, like Gecko) Chrome/138.0.0.0 Safari/537.36","WebKit","Chrome","138.0.0.0","Windows","10.0","https://app.prolific.com/","en-IE,en-US;q=0.9,en;q=0.8","60cd16e63d3924958e8d3d43","686d226cabeef709c732f8e1","686e3118efe01db55c06521e","60cd16e63d3924958e8d3d43","2025-07-09T09:12:43.912Z","","[0]","","","6","demographics","","","","","","","","","","","","","","","","","","","","","","","","","","","","","","","","","","","","","","",""
"39959","","","{""mental_health_condition"":""Post traumatic stress disorder and post natal depression"",""mental_health_treatment"":""counselling"",""psychiatric_medication"":""venlafaxine 150mg""}","survey-text","11","260285","0.0-7.0-0.0","134","1","2025-07-09 09:09:01","7701e855f2ef39aa3fd6c71abdc6918a","37.228.232.48","Mozilla/5.0 (Windows NT 10.0; Win64; x64) AppleWebKit/537.36 (KHTML, like Gecko) Chrome/138.0.0.0 Safari/537.36","WebKit","Chrome","138.0.0.0","Windows","10.0","https://app.prolific.com/","en-IE,en-US;q=0.9,en;q=0.8","60cd16e63d3924958e8d3d43","686d226cabeef709c732f8e1","686e3118efe01db55c06521e","60cd16e63d3924958e8d3d43","2025-07-09T09:13:23.875Z","","","","","1","mental_health","","","","","","","","","","","","","","","","","","","","","","","","","","","","","","","","","","","","","","",""
"7872","","","{""depression_history"":[""Yes""]}","survey-multi-select","12","268161","0.0-7.0-1.0","134","1","2025-07-09 09:09:01","7701e855f2ef39aa3fd6c71abdc6918a","37.228.232.48","Mozilla/5.0 (Windows NT 10.0; Win64; x64) AppleWebKit/537.36 (KHTML, like Gecko) Chrome/138.0.0.0 Safari/537.36","WebKit","Chrome","138.0.0.0","Windows","10.0","https://app.prolific.com/","en-IE,en-US;q=0.9,en;q=0.8","60cd16e63d3924958e8d3d43","686d226cabeef709c732f8e1","686e3118efe01db55c06521e","60cd16e63d3924958e8d3d43","","","[0]","","","","mental_health","","","","","","","","","","","","","","","","","","","","","","","","","","","","","","","","","","","","","","",""
"5940","","","{""depression_episodes"":""1-2"",""depression_recent"":""More than 1 year ago""}","survey-multi-choice","13","274103","0.0-7.0-2.0-0.0","134","1","2025-07-09 09:09:01","7701e855f2ef39aa3fd6c71abdc6918a","37.228.232.48","Mozilla/5.0 (Windows NT 10.0; Win64; x64) AppleWebKit/537.36 (KHTML, like Gecko) Chrome/138.0.0.0 Safari/537.36","WebKit","Chrome","138.0.0.0","Windows","10.0","https://app.prolific.com/","en-IE,en-US;q=0.9,en;q=0.8","60cd16e63d3924958e8d3d43","686d226cabeef709c732f8e1","686e3118efe01db55c06521e","60cd16e63d3924958e8d3d43","2025-07-09T09:13:37.693Z","","[0,1]","","","3","mental_health","","","","","","","","","","","","","","","","","","","","","","","","","","","","","","","","","","","","","","",""
"41095.39999999851","","","","survey-template","14","315204","0.0-7.0-3.0","134","1","2025-07-09 09:09:01","7701e855f2ef39aa3fd6c71abdc6918a","37.228.232.48","Mozilla/5.0 (Windows NT 10.0; Win64; x64) AppleWebKit/537.36 (KHTML, like Gecko) Chrome/138.0.0.0 Safari/537.36","WebKit","Chrome","138.0.0.0","Windows","10.0","https://app.prolific.com/","en-IE,en-US;q=0.9,en;q=0.8","60cd16e63d3924958e8d3d43","686d226cabeef709c732f8e1","686e3118efe01db55c06521e","60cd16e63d3924958e8d3d43","2025-07-09T09:14:18.794Z","","","","","","ius","{""Q01"":""4"",""Q02"":""4"",""Q03"":""2"",""Q04"":""3"",""Q05"":""4"",""Q06"":""4"",""Q07"":""4"",""Q08"":""0"",""Q09"":""4"",""Q10"":""4"",""Q11"":""4"",""Q12"":""4"",""Q13"":""4""}","[0,1,2,3,4,5,6,7,8,9,10,11,12]","[""Q01"",""Q02"",""Q03"",""Q03"",""Q04"",""Q05"",""Q06"",""Q07"",""Q08"",""Q09"",""Q10"",""Q11"",""Q12"",""Q13""]","[5268.80000000447,7191.89999999851,8522.30000000447,11230.20000000298,13107.5,15984.89999999851,19693.39999999851,24447.5,26871.30000000447,31040.70000000298,32825.80000000447,34110.10000000149,37457.30000000447,40011]","[]","[5268.80000000447,7191.89999999851,8522.30000000447,11230.20000000298,13107.5,15984.89999999851,17962.20000000298,18746.80000000447,19693.39999999851,24447.5,26871.30000000447,31040.70000000298,32825.80000000447,34110.10000000149,37457.30000000447,38757.60000000149,40011,41088.60000000149]","0.7692307692307693","0.3333333333333333","0","","","","","","","","","","","","","","","","","","","","","","","","","","","","","",""
"4904","1752052463700","<p style='font-size:1.1em;line-height:1.25'>In the following, we will ask you a few questions relating to your experiences over the past month.<br></p><p style='font-size:1.1em;line-height:1.25'>Press the <strong>Next</strong> button to continue.</p>","0","custom-html-button-response","15","320112","0.0-7.0-4.0","134","1","2025-07-09 09:09:01","7701e855f2ef39aa3fd6c71abdc6918a","37.228.232.48","Mozilla/5.0 (Windows NT 10.0; Win64; x64) AppleWebKit/537.36 (KHTML, like Gecko) Chrome/138.0.0.0 Safari/537.36","WebKit","Chrome","138.0.0.0","Windows","10.0","https://app.prolific.com/","en-IE,en-US;q=0.9,en;q=0.8","60cd16e63d3924958e8d3d43","686d226cabeef709c732f8e1","686e3118efe01db55c06521e","60cd16e63d3924958e8d3d43","2025-07-09T09:14:23.702Z","","","","","","","","","","","","","","","","","","","","","","","","","","","","","","","","","","","","","","","","","","","","",""
"59815.40000000596","","","","survey-template","16","379929","0.0-7.0-5.0","134","1","2025-07-09 09:09:01","7701e855f2ef39aa3fd6c71abdc6918a","37.228.232.48","Mozilla/5.0 (Windows NT 10.0; Win64; x64) AppleWebKit/537.36 (KHTML, like Gecko) Chrome/138.0.0.0 Safari/537.36","WebKit","Chrome","138.0.0.0","Windows","10.0","https://app.prolific.com/","en-IE,en-US;q=0.9,en;q=0.8","60cd16e63d3924958e8d3d43","686d226cabeef709c732f8e1","686e3118efe01db55c06521e","60cd16e63d3924958e8d3d43","2025-07-09T09:15:23.519Z","","","","","","pss","{""Q01"":""4"",""Q02"":""2"",""Q03"":""4"",""Q04"":""2"",""Q05"":""3"",""Q06"":""4"",""Q07"":""2"",""Q08"":""2"",""Q09"":""2"",""Q10"":""3""}","[0,1,2,3,4,5,6,7,8,9]","[""Q01"",""Q03"",""Q04"",""Q04"",""Q05"",""Q06"",""Q07"",""Q08"",""Q10"",""Q10"",""Q02"",""Q09""]","[5266.9000000059605,9160,11751.80000000447,13736.90000000596,18539.40000000596,22938,29177.60000000149,31116.70000000298,40165.30000000447,41258.90000000596,47836.20000000298,58625.60000000149]","[]","[19.600000001490116,5266.9000000059605,7921.10000000149,9160,11751.80000000447,13736.90000000596,18539.40000000596,22938,29177.60000000149,31116.70000000298,38396.60000000149,40165.30000000447,41258.90000000596,42419.90000000596,46782.60000000149,47836.20000000298,49114.40000000596,58625.60000000149,59809.80000000447]","0.5","0.2222222222222222","0","","","","","","","","","","","","","","","","","","","","","","","","","","","","","",""
"172084","1752052695599","<p style='font-size:1.1em;line-height:1.25'>Thank you for your answers! Now we will ask you a few more questions relating to your feelings in the last 24 hours.<br></p><p style='font-size:1.1em;line-height:1.25'>Press the <strong>Next</strong> button to continue.</p>","0","custom-html-button-response","17","552010","0.0-7.0-6.0","134","1","2025-07-09 09:09:01","7701e855f2ef39aa3fd6c71abdc6918a","37.228.232.48","Mozilla/5.0 (Windows NT 10.0; Win64; x64) AppleWebKit/537.36 (KHTML, like Gecko) Chrome/138.0.0.0 Safari/537.36","WebKit","Chrome","138.0.0.0","Windows","10.0","https://app.prolific.com/","en-IE,en-US;q=0.9,en;q=0.8","60cd16e63d3924958e8d3d43","686d226cabeef709c732f8e1","686e3118efe01db55c06521e","60cd16e63d3924958e8d3d43","2025-07-09T09:18:15.600Z","","","","","","","","","","","","","","","","","","","","","","","","","","","","","","","","","","","","","","","","","","","","",""
"58929.30000000447","","","","survey-template","18","610944","0.0-7.0-7.0","134","1","2025-07-09 09:09:01","7701e855f2ef39aa3fd6c71abdc6918a","37.228.232.48","Mozilla/5.0 (Windows NT 10.0; Win64; x64) AppleWebKit/537.36 (KHTML, like Gecko) Chrome/138.0.0.0 Safari/537.36","WebKit","Chrome","138.0.0.0","Windows","10.0","https://app.prolific.com/","en-IE,en-US;q=0.9,en;q=0.8","60cd16e63d3924958e8d3d43","686d226cabeef709c732f8e1","686e3118efe01db55c06521e","60cd16e63d3924958e8d3d43","2025-07-09T09:19:14.534Z","","","","","","drsp","{""Q01"":""1"",""Q02"":""1"",""Q03"":""0"",""Q04"":""0"",""Q05"":""0"",""Q06"":""0"",""Q07"":""0"",""Q08"":""0"",""Q09"":""0"",""Q10"":""0"",""Q11"":""5"",""Q12"":""1"",""Q13"":""1"",""Q14"":""0"",""Q15"":""0"",""Q16"":""3"",""Q17"":""3"",""Q18"":""0"",""Q19"":""0"",""Q20"":""0"",""Q21"":""0""}","[0,1,2,3,4,5,6,7,8,9,10,11,12,13,14,15,16,17,18,19,20]","[""Q01"",""Q02"",""Q03"",""Q04"",""Q05"",""Q06"",""Q07"",""Q08"",""Q09"",""Q10"",""Q12"",""Q13"",""Q15"",""Q16"",""Q17"",""Q18"",""Q19"",""Q20"",""Q21"",""Q11"",""Q14""]","[6304.70000000298,7420.20000000298,8898.20000000298,9751.89999999851,10829.39999999851,12621.89999999851,13736.60000000149,14953.39999999851,16037.80000000447,16969.39999999851,23987,26689.20000000298,29367.30000000447,31114.10000000149,32522.30000000447,37077.80000000447,39256,41602.60000000149,42903.39999999851,51323.39999999851,57172.39999999851]","[]","[10.5,6304.70000000298,7420.20000000298,8898.20000000298,9751.89999999851,10829.39999999851,12621.89999999851,13736.60000000149,14953.39999999851,16037.80000000447,16969.39999999851,22110.5,23987,25450.39999999851,26689.20000000298,27712.60000000149,29367.30000000447,31114.10000000149,32522.30000000447,37077.80000000447,39256,40486.5,41602.60000000149,42903.39999999851,44712.39999999851,51323.39999999851,54202,57172.39999999851,58919.39999999851]","0.6666666666666666","0.15","0","","","","","","","","","","","","","","","","","","","","","","","","","","","","","",""
"10213.09999999404","","","","survey-template","19","621161","0.0-7.0-8.0","134","1","2025-07-09 09:09:01","7701e855f2ef39aa3fd6c71abdc6918a","37.228.232.48","Mozilla/5.0 (Windows NT 10.0; Win64; x64) AppleWebKit/537.36 (KHTML, like Gecko) Chrome/138.0.0.0 Safari/537.36","WebKit","Chrome","138.0.0.0","Windows","10.0","https://app.prolific.com/","en-IE,en-US;q=0.9,en;q=0.8","60cd16e63d3924958e8d3d43","686d226cabeef709c732f8e1","686e3118efe01db55c06521e","60cd16e63d3924958e8d3d43","2025-07-09T09:19:24.751Z","","","","","","stress","{""Q01"":""0"",""Q02"":""5"",""Q03"":""4""}","[0,1,2]","[""Q02"",""Q01"",""Q03""]","[5170.69999999553,5977.69999999553,9479.89999999851]","[]","[4254.0999999940395,5170.69999999553,5977.69999999553,8781,9479.89999999851,10211]","0.6666666666666666","0","0","","","","","","","","","","","","","","","","","","","","","","","","","","","","","",""
"113299","","","","instructions","20","734460","0.0-8.0-0.0","134","1","2025-07-09 09:09:01","7701e855f2ef39aa3fd6c71abdc6918a","37.228.232.48","Mozilla/5.0 (Windows NT 10.0; Win64; x64) AppleWebKit/537.36 (KHTML, like Gecko) Chrome/138.0.0.0 Safari/537.36","WebKit","Chrome","138.0.0.0","Windows","10.0","https://app.prolific.com/","en-IE,en-US;q=0.9,en;q=0.8","60cd16e63d3924958e8d3d43","686d226cabeef709c732f8e1","686e3118efe01db55c06521e","60cd16e63d3924958e8d3d43","","[{""page_index"":0,""viewing_time"":24270},{""page_index"":1,""viewing_time"":18083},{""page_index"":2,""viewing_time"":57818},{""page_index"":3,""viewing_time"":13127}]","","","","","","","","","","","","","","","","","","","","","","","","","","","","","","","","","","","","","","","","","","","",""
"","","","","ctl-task-cpt","21","762250","0.0-8.0-1.0","134","1","2025-07-09 09:09:01","7701e855f2ef39aa3fd6c71abdc6918a","37.228.232.48","Mozilla/5.0 (Windows NT 10.0; Win64; x64) AppleWebKit/537.36 (KHTML, like Gecko) Chrome/138.0.0.0 Safari/537.36","WebKit","Chrome","138.0.0.0","Windows","10.0","https://app.prolific.com/","en-IE,en-US;q=0.9,en;q=0.8","60cd16e63d3924958e8d3d43","686d226cabeef709c732f8e1","686e3118efe01db55c06521e","60cd16e63d3924958e8d3d43","","","","","","","","","","","","","","","","","win-only","2","g1:SE,g2:NW","1","0","1","736767","2719.4","6726.6","24779.3","2","4","4","6","2","4","3","3","0","0.022727272727272728","2376.4","4000","1670","[""left"",""up""]","{""num_key_presses"":7,""num_perfect"":6,""num_errors"":1,""num_randdir"":0,""num_randdir_good_moves"":0,""num_whilered"":0,""num_whileblue"":0,""num_blue"":0,""num_good_moves"":6}","[411.5714133126395,419.07142761775424,0.3,411.5714133126395,419.07142761775424,102.9,411.5714133126395,419.07142761775424,203.1,411.5714133126395,419.07142761775424,303.1,411.5714133126395,419.07142761775424,410.1,411.5714133126395,419.07142761775424,513.9,411.5714133126395,419.07142761775424,614.9,411.5714133126395,419.07142761775424,715,411.5714133126395,419.07142761775424,816.5,411.5714133126395,419.07142761775424,920.5,411.5714133126395,419.07142761775424,1022,411.5714133126395,419.07142761775424,1122.4,411.5714133126395,419.07142761775424,1229.6,411.5714133126395,420.32142761775424,1336,426.5714133126395,459.07142761775424,1437.1,366.5714133126395,451.57142761775424,1537.8,257.8214133126395,282.82142761775424,1641.9,219.0714133126395,205.32142761775424,1742.4,160.3214133126395,159.07142761775424,1847,135.3214133126395,139.07142761775424,1950.1,112.8214133126395,119.07142761775425,2052.5,99.0714133126395,109.07142761775425,2162.8,85.3214133126395,96.57142761775425,2263.4,85.3214133126395,96.57142761775425,2364.2,85.3214133126395,96.57142761775425,2473.8,85.3214133126395,96.57142761775425,2578.3,85.3214133126395,96.57142761775425,2684.5,85.3214133126395,96.57142761775425,2786.1,85.3214133126395,96.57142761775425,2892.7,85.3214133126395,96.57142761775425,2996,85.3214133126395,96.57142761775425,3096.8,85.3214133126395,96.57142761775425,3198.3,85.3214133126395,96.57142761775425,3299.6,85.3214133126395,96.57142761775425,3402.7,85.3214133126395,96.57142761775425,3511.1,85.3214133126395,96.57142761775425,3612.1,85.3214133126395,96.57142761775425,3714.8,85.3214133126395,96.57142761775425,3820.3,85.3214133126395,96.57142761775425,3920.6]","[1849.8,1849.7,1000,0.1,849.7,""smooth"",""left"",""left"",""good_move"",4203.3,2351,1644.4,1852.4,706.5,""smooth"",""up"",""up"",""good_move"",7397.6,3190.8,2758.1,4206.8,432.7,""smooth"",""left"",""left"",""good_move"",7654.1,255,2481.1,7399.2,-2226.2,""error"",""-"",""-"",""no_move"",12008.9,4354.6,2984.5,8662.2,362.2,""smooth"",""left"",""left"",""good_move"",14621.9,2612.2,2255.3,12009.7,356.9,""smooth"",""up"",""up"",""good_move"",17910.8,3288.4,2836.7,14622.5,451.6,""smooth"",""up"",""up"",""good_move""]","","",""
"19241","","","","instructions","22","781492","0.0-8.0-2.0","134","1","2025-07-09 09:09:01","7701e855f2ef39aa3fd6c71abdc6918a","37.228.232.48","Mozilla/5.0 (Windows NT 10.0; Win64; x64) AppleWebKit/537.36 (KHTML, like Gecko) Chrome/138.0.0.0 Safari/537.36","WebKit","Chrome","138.0.0.0","Windows","10.0","https://app.prolific.com/","en-IE,en-US;q=0.9,en;q=0.8","60cd16e63d3924958e8d3d43","686d226cabeef709c732f8e1","686e3118efe01db55c06521e","60cd16e63d3924958e8d3d43","","[{""page_index"":0,""viewing_time"":19240}]","","","","","","","","","","","","","","","","","","","","","","","","","","","","","","","","","","","","","","","","","","","",""
"","","","","ctl-task-cpt","23","835006","0.0-8.0-3.0","134","1","2025-07-09 09:09:01","7701e855f2ef39aa3fd6c71abdc6918a","37.228.232.48","Mozilla/5.0 (Windows NT 10.0; Win64; x64) AppleWebKit/537.36 (KHTML, like Gecko) Chrome/138.0.0.0 Safari/537.36","WebKit","Chrome","138.0.0.0","Windows","10.0","https://app.prolific.com/","en-IE,en-US;q=0.9,en;q=0.8","60cd16e63d3924958e8d3d43","686d226cabeef709c732f8e1","686e3118efe01db55c06521e","60cd16e63d3924958e8d3d43","","","","","","","","","","","","","","","","","win-only","2","g1:SE,g2:NW","0.35","0","3","783797.5","2538.1","6542.8","50508.1","2","4","8","6","2","-8","-9","0","0","0","4004.7","4000","-2270","[""left"",""up""]","{""num_key_presses"":13,""num_perfect"":6,""num_errors"":1,""num_randdir"":6,""num_randdir_good_moves"":3,""num_whilered"":0,""num_whileblue"":1,""num_blue"":3,""num_good_moves"":9}","[407.8214133126395,411.57142761775424,1,407.8214133126395,411.57142761775424,111.9,407.8214133126395,411.57142761775424,213.6,407.8214133126395,411.57142761775424,315.6,407.8214133126395,411.57142761775424,415.9,407.8214133126395,411.57142761775424,522.5,335.3214133126395,387.82142761775424,622.9,131.5714133126395,154.07142761775424,725.3,89.0714133126395,71.57142761775425,832.3,76.5714133126395,52.82142761775425,932.8,76.5714133126395,51.57142761775425,1039.9,76.5714133126395,51.57142761775425,1141.8,81.5714133126395,69.07142761775425,1249.7,81.5714133126395,74.07142761775425,1358.1,81.5714133126395,74.07142761775425,1461.6,81.5714133126395,74.07142761775425,1566.4,81.5714133126395,74.07142761775425,1675.2,81.5714133126395,74.07142761775425,1782.4,81.5714133126395,74.07142761775425,1883.1,81.5714133126395,74.07142761775425,1990.5,81.5714133126395,74.07142761775425,2098.1,81.5714133126395,74.07142761775425,2198.6,81.5714133126395,74.07142761775425,2308,81.5714133126395,74.07142761775425,2408.8,81.5714133126395,74.07142761775425,2519.8,81.5714133126395,74.07142761775425,2621.8,81.5714133126395,74.07142761775425,2724.2,81.5714133126395,74.07142761775425,2835.4,81.5714133126395,74.07142761775425,2938.1,81.5714133126395,74.07142761775425,3038.6,81.5714133126395,74.07142761775425,3141.5,81.5714133126395,74.07142761775425,3245.8,81.5714133126395,74.07142761775425,3352.1,81.5714133126395,74.07142761775425,3460.4,81.5714133126395,74.07142761775425,3560.4,81.5714133126395,74.07142761775425,3662.3,81.5714133126395,74.07142761775425,3762.3,81.5714133126395,74.07142761775425,3863.8,81.5714133126395,74.07142761775425,3970.4]","[2074.8,2074.9,1000,0,1074.9,""oops"",""left"",""right"",""bad_move"",5758.3,3682.8,2918.6,2075.6,764.1,""smooth"",""up"",""up"",""good_move"",8227.8,2468.1,2074.9,5759.7,393.2,""oops"",""left"",""left"",""good_move"",14439.6,6211.3,2633.6,11401.3,404.7,""smooth"",""left"",""left"",""good_move"",16819.8,2379.5,1893.3,14440.3,486.2,""smooth"",""left"",""left"",""good_move"",19931.8,3111.3,2735.7,16820.6,375.5,""oops"",""up"",""left"",""good_move"",22527.9,2595.2,2231.3,19932.7,363.9,""smooth"",""up"",""up"",""good_move"",25395.3,2866,2508,22529.3,358.1,""while_blue"",""up"",""down"",""bad_move"",27654.4,2258.4,1851.3,25396,407.1,""oops"",""up"",""down"",""bad_move"",30113.9,2458.8,2093.1,27655.1,365.7,""oops"",""up"",""up"",""good_move"",32375.6,2260.1,1856.5,30115.5,403.6,""oops"",""up"",""right"",""bad_move"",35849.7,3473.4,3115.7,32376.3,357.7,""smooth"",""up"",""up"",""good_move"",38238.6,2388.1,2044.2,35850.6,343.9,""smooth"",""left"",""left"",""good_move""]","","",""
"37786","","","","instructions","24","872791","0.0-8.0-4.0","134","1","2025-07-09 09:09:01","7701e855f2ef39aa3fd6c71abdc6918a","37.228.232.48","Mozilla/5.0 (Windows NT 10.0; Win64; x64) AppleWebKit/537.36 (KHTML, like Gecko) Chrome/138.0.0.0 Safari/537.36","WebKit","Chrome","138.0.0.0","Windows","10.0","https://app.prolific.com/","en-IE,en-US;q=0.9,en;q=0.8","60cd16e63d3924958e8d3d43","686d226cabeef709c732f8e1","686e3118efe01db55c06521e","60cd16e63d3924958e8d3d43","","[{""page_index"":0,""viewing_time"":30790},{""page_index"":1,""viewing_time"":6996}]","","","","","","","","","","","","","","","","","","","","","","","","","","","","","","","","","","","","","","","","","","","",""
"20157","","","{""green_ball"":[""Ball always moves in the direction I press""]}","survey-multi-select","25","892953","0.0-8.0-5.0-0.0","134","1","2025-07-09 09:09:01","7701e855f2ef39aa3fd6c71abdc6918a","37.228.232.48","Mozilla/5.0 (Windows NT 10.0; Win64; x64) AppleWebKit/537.36 (KHTML, like Gecko) Chrome/138.0.0.0 Safari/537.36","WebKit","Chrome","138.0.0.0","Windows","10.0","https://app.prolific.com/","en-IE,en-US;q=0.9,en;q=0.8","60cd16e63d3924958e8d3d43","686d226cabeef709c732f8e1","686e3118efe01db55c06521e","60cd16e63d3924958e8d3d43","","","[0]","","","","quiz","","","","","","","","","","","","","","","","","","","","","","","","","","","","","","","","","","","","","false","",""
"3720","","<p align='center'><b>INCORRECT.</b> Usually the green ball moves in the indicated direction, but sometimes it shakes and moves randomly. </p>","0","html-button-response","26","896676","0.0-8.0-5.0-1.0","134","1","2025-07-09 09:09:01","7701e855f2ef39aa3fd6c71abdc6918a","37.228.232.48","Mozilla/5.0 (Windows NT 10.0; Win64; x64) AppleWebKit/537.36 (KHTML, like Gecko) Chrome/138.0.0.0 Safari/537.36","WebKit","Chrome","138.0.0.0","Windows","10.0","https://app.prolific.com/","en-IE,en-US;q=0.9,en;q=0.8","60cd16e63d3924958e8d3d43","686d226cabeef709c732f8e1","686e3118efe01db55c06521e","60cd16e63d3924958e8d3d43","","","","","","","","","","","","","","","","","","","","","","","","","","","","","","","","","","","","","","","","","","","","","",""
"11234","","","{""green_ball"":[""Ball sometimes shakes and moves in a random direction""]}","survey-multi-select","27","907914","0.0-8.0-5.1-0.1","134","1","2025-07-09 09:09:01","7701e855f2ef39aa3fd6c71abdc6918a","37.228.232.48","Mozilla/5.0 (Windows NT 10.0; Win64; x64) AppleWebKit/537.36 (KHTML, like Gecko) Chrome/138.0.0.0 Safari/537.36","WebKit","Chrome","138.0.0.0","Windows","10.0","https://app.prolific.com/","en-IE,en-US;q=0.9,en;q=0.8","60cd16e63d3924958e8d3d43","686d226cabeef709c732f8e1","686e3118efe01db55c06521e","60cd16e63d3924958e8d3d43","","","[0]","","","","quiz","","","","","","","","","","","","","","","","","","","","","","","","","","","","","","","","","","","","","true","",""
"2658","","<p align='center'><b>CORRECT!</b> Indeed, the green ball may sometimes shake and move in a random direction.</p>","0","html-button-response","28","910574","0.0-8.0-5.1-1.1","134","1","2025-07-09 09:09:01","7701e855f2ef39aa3fd6c71abdc6918a","37.228.232.48","Mozilla/5.0 (Windows NT 10.0; Win64; x64) AppleWebKit/537.36 (KHTML, like Gecko) Chrome/138.0.0.0 Safari/537.36","WebKit","Chrome","138.0.0.0","Windows","10.0","https://app.prolific.com/","en-IE,en-US;q=0.9,en;q=0.8","60cd16e63d3924958e8d3d43","686d226cabeef709c732f8e1","686e3118efe01db55c06521e","60cd16e63d3924958e8d3d43","","","","","","","","","","","","","","","","","","","","","","","","","","","","","","","","","","","","","","","","","","","","","",""
"4665","","","{""yellow_ball"":[""Ball doesn‘t move and I get -1 penalty point""]}","survey-multi-select","29","915241","0.0-8.0-6.0-0.0","134","1","2025-07-09 09:09:01","7701e855f2ef39aa3fd6c71abdc6918a","37.228.232.48","Mozilla/5.0 (Windows NT 10.0; Win64; x64) AppleWebKit/537.36 (KHTML, like Gecko) Chrome/138.0.0.0 Safari/537.36","WebKit","Chrome","138.0.0.0","Windows","10.0","https://app.prolific.com/","en-IE,en-US;q=0.9,en;q=0.8","60cd16e63d3924958e8d3d43","686d226cabeef709c732f8e1","686e3118efe01db55c06521e","60cd16e63d3924958e8d3d43","","","[0]","","","","quiz","","","","","","","","","","","","","","","","","","","","","","","","","","","","","","","","","","","","","true","",""
"1289","","<p align='center'><b>CORRECT!</b> Indeed, the yellow ball never moves and you receive a penalty.</p>","0","html-button-response","30","916532","0.0-8.0-6.0-1.0","134","1","2025-07-09 09:09:01","7701e855f2ef39aa3fd6c71abdc6918a","37.228.232.48","Mozilla/5.0 (Windows NT 10.0; Win64; x64) AppleWebKit/537.36 (KHTML, like Gecko) Chrome/138.0.0.0 Safari/537.36","WebKit","Chrome","138.0.0.0","Windows","10.0","https://app.prolific.com/","en-IE,en-US;q=0.9,en;q=0.8","60cd16e63d3924958e8d3d43","686d226cabeef709c732f8e1","686e3118efe01db55c06521e","60cd16e63d3924958e8d3d43","","","","","","","","","","","","","","","","","","","","","","","","","","","","","","","","","","","","","","","","","","","","","",""
"10257","","","{""blue_ball"":[""Ball always shakes and moves in a random direction""]}","survey-multi-select","31","926790","0.0-8.0-7.0-0.0","134","1","2025-07-09 09:09:01","7701e855f2ef39aa3fd6c71abdc6918a","37.228.232.48","Mozilla/5.0 (Windows NT 10.0; Win64; x64) AppleWebKit/537.36 (KHTML, like Gecko) Chrome/138.0.0.0 Safari/537.36","WebKit","Chrome","138.0.0.0","Windows","10.0","https://app.prolific.com/","en-IE,en-US;q=0.9,en;q=0.8","60cd16e63d3924958e8d3d43","686d226cabeef709c732f8e1","686e3118efe01db55c06521e","60cd16e63d3924958e8d3d43","","","[0]","","","","quiz","","","","","","","","","","","","","","","","","","","","","","","","","","","","","","","","","","","","","true","",""
"1314","","<p align='center'><b>CORRECT!</b> Indeed, the blue ball always shakes and moves in a random direction. Also there is a penalty of -1 point.</p>","0","html-button-response","32","928106","0.0-8.0-7.0-1.0","134","1","2025-07-09 09:09:01","7701e855f2ef39aa3fd6c71abdc6918a","37.228.232.48","Mozilla/5.0 (Windows NT 10.0; Win64; x64) AppleWebKit/537.36 (KHTML, like Gecko) Chrome/138.0.0.0 Safari/537.36","WebKit","Chrome","138.0.0.0","Windows","10.0","https://app.prolific.com/","en-IE,en-US;q=0.9,en;q=0.8","60cd16e63d3924958e8d3d43","686d226cabeef709c732f8e1","686e3118efe01db55c06521e","60cd16e63d3924958e8d3d43","","","","","","","","","","","","","","","","","","","","","","","","","","","","","","","","","","","","","","","","","","","","","",""
"7822","","","{""bonus"":[""When I reach all possible points""]}","survey-multi-select","33","935932","0.0-8.0-8.0-0.0","134","1","2025-07-09 09:09:01","7701e855f2ef39aa3fd6c71abdc6918a","37.228.232.48","Mozilla/5.0 (Windows NT 10.0; Win64; x64) AppleWebKit/537.36 (KHTML, like Gecko) Chrome/138.0.0.0 Safari/537.36","WebKit","Chrome","138.0.0.0","Windows","10.0","https://app.prolific.com/","en-IE,en-US;q=0.9,en;q=0.8","60cd16e63d3924958e8d3d43","686d226cabeef709c732f8e1","686e3118efe01db55c06521e","60cd16e63d3924958e8d3d43","","","[0]","","","","quiz","","","","","","","","","","","","","","","","","","","","","","","","","","","","","","","","","","","","","false","",""
"1920","","<p align='center'><b>INCORRECT.</b> You receive 2 pounds extra when you reach 50% of points </p>","0","html-button-response","34","937858","0.0-8.0-8.0-1.0","134","1","2025-07-09 09:09:01","7701e855f2ef39aa3fd6c71abdc6918a","37.228.232.48","Mozilla/5.0 (Windows NT 10.0; Win64; x64) AppleWebKit/537.36 (KHTML, like Gecko) Chrome/138.0.0.0 Safari/537.36","WebKit","Chrome","138.0.0.0","Windows","10.0","https://app.prolific.com/","en-IE,en-US;q=0.9,en;q=0.8","60cd16e63d3924958e8d3d43","686d226cabeef709c732f8e1","686e3118efe01db55c06521e","60cd16e63d3924958e8d3d43","","","","","","","","","","","","","","","","","","","","","","","","","","","","","","","","","","","","","","","","","","","","","",""
"3225","","","{""bonus"":[""When I reach 50% of points""]}","survey-multi-select","35","941090","0.0-8.0-8.1-0.1","134","1","2025-07-09 09:09:01","7701e855f2ef39aa3fd6c71abdc6918a","37.228.232.48","Mozilla/5.0 (Windows NT 10.0; Win64; x64) AppleWebKit/537.36 (KHTML, like Gecko) Chrome/138.0.0.0 Safari/537.36","WebKit","Chrome","138.0.0.0","Windows","10.0","https://app.prolific.com/","en-IE,en-US;q=0.9,en;q=0.8","60cd16e63d3924958e8d3d43","686d226cabeef709c732f8e1","686e3118efe01db55c06521e","60cd16e63d3924958e8d3d43","","","[0]","","","","quiz","","","","","","","","","","","","","","","","","","","","","","","","","","","","","","","","","","","","","true","",""
"1438","","<p align='center'><b>CORRECT!</b> Indeed, you receive 2 pounds extra when you reach 50% of points.</p>","0","html-button-response","36","942531","0.0-8.0-8.1-1.1","134","1","2025-07-09 09:09:01","7701e855f2ef39aa3fd6c71abdc6918a","37.228.232.48","Mozilla/5.0 (Windows NT 10.0; Win64; x64) AppleWebKit/537.36 (KHTML, like Gecko) Chrome/138.0.0.0 Safari/537.36","WebKit","Chrome","138.0.0.0","Windows","10.0","https://app.prolific.com/","en-IE,en-US;q=0.9,en;q=0.8","60cd16e63d3924958e8d3d43","686d226cabeef709c732f8e1","686e3118efe01db55c06521e","60cd16e63d3924958e8d3d43","","","","","","","","","","","","","","","","","","","","","","","","","","","","","","","","","","","","","","","","","","","","","",""
"2413","","","","instructions","37","944945","0.0-8.0-9.0","134","1","2025-07-09 09:09:01","7701e855f2ef39aa3fd6c71abdc6918a","37.228.232.48","Mozilla/5.0 (Windows NT 10.0; Win64; x64) AppleWebKit/537.36 (KHTML, like Gecko) Chrome/138.0.0.0 Safari/537.36","WebKit","Chrome","138.0.0.0","Windows","10.0","https://app.prolific.com/","en-IE,en-US;q=0.9,en;q=0.8","60cd16e63d3924958e8d3d43","686d226cabeef709c732f8e1","686e3118efe01db55c06521e","60cd16e63d3924958e8d3d43","","[{""page_index"":0,""viewing_time"":2412}]","","","","","","","","","","","","","","","","","","","","","","","","","","","","","","","","","","","","","","","","","","","",""
"11685","","<p>Before you start with this game please answer the following three questions yourself. </p>
  <p>Through this game, we measure several aspects of your cognitive performance, such as reaction times, multi-tasking capabilities </p>
  <p>and the ability to assess the situation you are in.</p>
  <p></p>
  <p><b>How good do you usually are in such tasks?</b></p>","84","html-slider-response","38","956634","0.0-9.0-0.0","134","1","2025-07-09 09:09:01","7701e855f2ef39aa3fd6c71abdc6918a","37.228.232.48","Mozilla/5.0 (Windows NT 10.0; Win64; x64) AppleWebKit/537.36 (KHTML, like Gecko) Chrome/138.0.0.0 Safari/537.36","WebKit","Chrome","138.0.0.0","Windows","10.0","https://app.prolific.com/","en-IE,en-US;q=0.9,en;q=0.8","60cd16e63d3924958e8d3d43","686d226cabeef709c732f8e1","686e3118efe01db55c06521e","60cd16e63d3924958e8d3d43","2025-07-09T09:25:00.225Z","","","","","","PreSkillQ","","","","","","","","","","","","","","","","","","","","","","","","","","","","","","","","","","","","","","50",""
"4382","","<div style=""width:500px;"">
  <p>How well do you think you will perform in this task compared to other participants?</p>
  </div>","62","html-slider-response","39","961019","0.0-9.0-1.0","134","1","2025-07-09 09:09:01","7701e855f2ef39aa3fd6c71abdc6918a","37.228.232.48","Mozilla/5.0 (Windows NT 10.0; Win64; x64) AppleWebKit/537.36 (KHTML, like Gecko) Chrome/138.0.0.0 Safari/537.36","WebKit","Chrome","138.0.0.0","Windows","10.0","https://app.prolific.com/","en-IE,en-US;q=0.9,en;q=0.8","60cd16e63d3924958e8d3d43","686d226cabeef709c732f8e1","686e3118efe01db55c06521e","60cd16e63d3924958e8d3d43","2025-07-09T09:25:04.610Z","","","","","","PrePerfQ","","","","","","","","","","","","","","","","","","","","","","","","","","","","","","","","","","","","","","50",""
"5831","","<div style=""width:500px;"">
  <p>What best describes how you currently feel?</p>
  </div>","100","html-slider-response","40","966854","0.0-9.0-2.0","134","1","2025-07-09 09:09:01","7701e855f2ef39aa3fd6c71abdc6918a","37.228.232.48","Mozilla/5.0 (Windows NT 10.0; Win64; x64) AppleWebKit/537.36 (KHTML, like Gecko) Chrome/138.0.0.0 Safari/537.36","WebKit","Chrome","138.0.0.0","Windows","10.0","https://app.prolific.com/","en-IE,en-US;q=0.9,en;q=0.8","60cd16e63d3924958e8d3d43","686d226cabeef709c732f8e1","686e3118efe01db55c06521e","60cd16e63d3924958e8d3d43","2025-07-09T09:25:10.444Z","","","","","","PreMotivationQ","","","","","","","","","","","","","","","","","","","","","","","","","","","","","","","","","","","","","","50",""
"","","","","ctl-task-cpt","41","988622","0.0-10.0-0.0","134","1","2025-07-09 09:09:01","7701e855f2ef39aa3fd6c71abdc6918a","37.228.232.48","Mozilla/5.0 (Windows NT 10.0; Win64; x64) AppleWebKit/537.36 (KHTML, like Gecko) Chrome/138.0.0.0 Safari/537.36","WebKit","Chrome","138.0.0.0","Windows","10.0","https://app.prolific.com/","en-IE,en-US;q=0.9,en;q=0.8","60cd16e63d3924958e8d3d43","686d226cabeef709c732f8e1","686e3118efe01db55c06521e","60cd16e63d3924958e8d3d43","2025-07-09T09:25:32.212Z","","","","","","","","","","","","","","","","win-only","1","g1:NE,g2:SW","1","1","0","969171.1","2808.9","7814.7","18747.1","1","4","8","6","1","1","1","1","0","0.007575757575757576","2342.1","3000","1625","[""up"",""right""]","{""num_key_presses"":4,""num_perfect"":4,""num_errors"":0,""num_randdir"":0,""num_randdir_good_moves"":0,""num_whilered"":0,""num_whileblue"":0,""num_blue"":0,""num_good_moves"":4}","[415.3214133126395,402.82142761775424,0.5,415.3214133126395,402.82142761775424,101.9,415.3214133126395,402.82142761775424,203.6,415.3214133126395,402.82142761775424,304.2,415.3214133126395,402.82142761775424,415,415.3214133126395,402.82142761775424,521.3,415.3214133126395,402.82142761775424,623.2,415.3214133126395,402.82142761775424,728.9,415.3214133126395,402.82142761775424,838,415.3214133126395,402.82142761775424,945.1,415.3214133126395,402.82142761775424,1048.8,415.3214133126395,402.82142761775424,1155.7,411.5714133126395,402.82142761775424,1256.5,296.5714133126395,456.57142761775424,1359.6,332.8214133126395,421.57142761775424,1460.9,485.3214133126395,329.07142761775424,1567.8,680.3214133126395,252.82142761775424,1668,772.8214133126395,206.57142761775424,1772,805.3214133126395,150.32142761775424,1872.9,796.5714133126395,126.57142761775425,1976.9,796.5714133126395,117.82142761775425,2080.4,789.0714133126395,110.32142761775425,2186.6,789.0714133126395,110.32142761775425,2294.5,789.0714133126395,110.32142761775425,2404.3,789.0714133126395,110.32142761775425,2511,789.0714133126395,110.32142761775425,2612.4,789.0714133126395,110.32142761775425,2719.9,789.0714133126395,110.32142761775425,2820.9,789.0714133126395,110.32142761775425,2923.3,789.0714133126395,110.32142761775425,3028.7,789.0714133126395,110.32142761775425,3132.9,789.0714133126395,110.32142761775425,3240,789.0714133126395,110.32142761775425,3348.8,789.0714133126395,110.32142761775425,3460,789.0714133126395,110.32142761775425,3565.3,789.0714133126395,110.32142761775425,3667.4,789.0714133126395,110.32142761775425,3773.2,789.0714133126395,110.32142761775425,3878.6,789.0714133126395,110.32142761775425,3979.1,789.0714133126395,110.32142761775425,4083.3,789.0714133126395,110.32142761775425,4192.4,789.0714133126395,110.32142761775425,4294.4,789.0714133126395,110.32142761775425,4394.5,789.0714133126395,110.32142761775425,4500.7,789.0714133126395,110.32142761775425,4611.5,789.0714133126395,110.32142761775425,4719,789.0714133126395,110.32142761775425,4819.7,789.0714133126395,110.32142761775425,4925.9]","[1468.3,1468.3,1000,0,468.3,""smooth"",""right"",""right"",""good_move"",5177.2,3708.2,3159.1,1469,549.1,""smooth"",""right"",""right"",""good_move"",8417.2,3239.3,2832.4,5177.9,407,""smooth"",""up"",""up"",""good_move"",10815.8,2396.6,1930.1,8419.2,466.5,""smooth"",""up"",""up"",""good_move""]","","",""
"4455","","<div style=""width:500px;"">
  <p>What determined the result of this run?</p>
  </div>","100","html-slider-response","42","993081","0.0-10.0-1.0","134","1","2025-07-09 09:09:01","7701e855f2ef39aa3fd6c71abdc6918a","37.228.232.48","Mozilla/5.0 (Windows NT 10.0; Win64; x64) AppleWebKit/537.36 (KHTML, like Gecko) Chrome/138.0.0.0 Safari/537.36","WebKit","Chrome","138.0.0.0","Windows","10.0","https://app.prolific.com/","en-IE,en-US;q=0.9,en;q=0.8","60cd16e63d3924958e8d3d43","686d226cabeef709c732f8e1","686e3118efe01db55c06521e","60cd16e63d3924958e8d3d43","2025-07-09T09:25:36.671Z","","","","","","AttribQ","","","","","","","","","","","","","","","","","","","","","","","","","","","","","","","","","","","","","","50",""
"3255","","<div style=""width:500px;"">
  <p>How much control did you have over the ball?</p>
  </div>","100","html-slider-response","43","996340","0.0-10.0-2.0","134","1","2025-07-09 09:09:01","7701e855f2ef39aa3fd6c71abdc6918a","37.228.232.48","Mozilla/5.0 (Windows NT 10.0; Win64; x64) AppleWebKit/537.36 (KHTML, like Gecko) Chrome/138.0.0.0 Safari/537.36","WebKit","Chrome","138.0.0.0","Windows","10.0","https://app.prolific.com/","en-IE,en-US;q=0.9,en;q=0.8","60cd16e63d3924958e8d3d43","686d226cabeef709c732f8e1","686e3118efe01db55c06521e","60cd16e63d3924958e8d3d43","2025-07-09T09:25:39.930Z","","","","","","ControlQ","","","","","","","","","","","","","","","","","","","","","","","","","","","","","","","","","","","","","","50",""
"4405","","<div style=""width:500px;"">
  <p>How would you describe your current emotional state?</p>
  </div>","1","html-slider-response","44","1000746","0.0-10.0-3.0","134","1","2025-07-09 09:09:01","7701e855f2ef39aa3fd6c71abdc6918a","37.228.232.48","Mozilla/5.0 (Windows NT 10.0; Win64; x64) AppleWebKit/537.36 (KHTML, like Gecko) Chrome/138.0.0.0 Safari/537.36","WebKit","Chrome","138.0.0.0","Windows","10.0","https://app.prolific.com/","en-IE,en-US;q=0.9,en;q=0.8","60cd16e63d3924958e8d3d43","686d226cabeef709c732f8e1","686e3118efe01db55c06521e","60cd16e63d3924958e8d3d43","2025-07-09T09:25:44.336Z","","","","","","StressQ","","","","","","","","","","","","","","","","","","","","","","","","","","","","","","","","","","","","","","50",""
"3744","","<div style=""width:500px;"">
  <p>What best describes how you currently feel?</p>
  </div>","100","html-slider-response","45","1004492","0.0-10.0-4.0","134","1","2025-07-09 09:09:01","7701e855f2ef39aa3fd6c71abdc6918a","37.228.232.48","Mozilla/5.0 (Windows NT 10.0; Win64; x64) AppleWebKit/537.36 (KHTML, like Gecko) Chrome/138.0.0.0 Safari/537.36","WebKit","Chrome","138.0.0.0","Windows","10.0","https://app.prolific.com/","en-IE,en-US;q=0.9,en;q=0.8","60cd16e63d3924958e8d3d43","686d226cabeef709c732f8e1","686e3118efe01db55c06521e","60cd16e63d3924958e8d3d43","2025-07-09T09:25:48.082Z","","","","","","MotivationQ","","","","","","","","","","","","","","","","","","","","","","","","","","","","","","","","","","","","","","50",""
"","","","","ctl-task-cpt","46","1043734","0.0-10.0-0.1","134","1","2025-07-09 09:09:01","7701e855f2ef39aa3fd6c71abdc6918a","37.228.232.48","Mozilla/5.0 (Windows NT 10.0; Win64; x64) AppleWebKit/537.36 (KHTML, like Gecko) Chrome/138.0.0.0 Safari/537.36","WebKit","Chrome","138.0.0.0","Windows","10.0","https://app.prolific.com/","en-IE,en-US;q=0.9,en;q=0.8","60cd16e63d3924958e8d3d43","686d226cabeef709c732f8e1","686e3118efe01db55c06521e","60cd16e63d3924958e8d3d43","2025-07-09T09:26:27.324Z","","","","","","","","","","","","","","","","win-only","1","g1:NE,g2:SW","0.9","2","0","1006805.9","1769","6772.3","36227","1","4","4","6","2","4","4","5","1","0.03787878787878788","1419.5","3000","1270","[""down"",""left""]","{""num_key_presses"":6,""num_perfect"":6,""num_errors"":0,""num_randdir"":0,""num_randdir_good_moves"":0,""num_whilered"":0,""num_whileblue"":0,""num_blue"":4,""num_good_moves"":6}","[415.3214133126395,416.57142761775424,0.3,415.3214133126395,416.57142761775424,105.3,415.3214133126395,416.57142761775424,207,415.3214133126395,416.57142761775424,308.5,415.3214133126395,416.57142761775424,410.8,415.3214133126395,416.57142761775424,513.2,415.3214133126395,416.57142761775424,616,415.3214133126395,416.57142761775424,722.1,254.0714133126395,515.3214276177542,823.2,129.0714133126395,637.8214276177542,931.4,106.5714133126395,670.3214276177542,1035.2,76.5714133126395,721.5714276177542,1135.3,76.5714133126395,746.5714276177542,1242.1,76.5714133126395,746.5714276177542,1347,76.5714133126395,746.5714276177542,1448.1,76.5714133126395,746.5714276177542,1553.6,76.5714133126395,746.5714276177542,1660.2,76.5714133126395,746.5714276177542,1761.6,76.5714133126395,746.5714276177542,1866.8,76.5714133126395,746.5714276177542,1967.8,76.5714133126395,746.5714276177542,2067.9,76.5714133126395,746.5714276177542,2168.3,76.5714133126395,746.5714276177542,2270.3,76.5714133126395,746.5714276177542,2373.4,76.5714133126395,746.5714276177542,2473.4,76.5714133126395,746.5714276177542,2579.1,76.5714133126395,746.5714276177542,2682.2,76.5714133126395,746.5714276177542,2785,76.5714133126395,746.5714276177542,2887.4,76.5714133126395,746.5714276177542,2988.7,76.5714133126395,746.5714276177542,3091.6,76.5714133126395,746.5714276177542,3191.8,76.5714133126395,746.5714276177542,3302.1,76.5714133126395,746.5714276177542,3407.3,76.5714133126395,746.5714276177542,3507.6,76.5714133126395,746.5714276177542,3608.3,76.5714133126395,746.5714276177542,3712.8,76.5714133126395,746.5714276177542,3814,76.5714133126395,746.5714276177542,3918.7,76.5714133126395,746.5714276177542,4020.6,76.5714133126395,746.5714276177542,4121.9,76.5714133126395,746.5714276177542,4221.9,76.5714133126395,746.5714276177542,4333.2,76.5714133126395,746.5714276177542,4437.3,76.5714133126395,746.5714276177542,4539.2,76.5714133126395,746.5714276177542,4652.2,76.5714133126395,746.5714276177542,4758.6,76.5714133126395,746.5714276177542,4859,76.5714133126395,746.5714276177542,4964.2]","[1419.4,1419.4,1000,0,419.4,""smooth"",""down"",""down"",""good_move"",4653.6,3232.7,2838.4,1421,394.3,""smooth"",""left"",""left"",""good_move"",14654.3,10000,2523,11741.6,389.7,""smooth"",""left"",""left"",""good_move"",17154.8,2499.1,2083.3,14655.7,415.8,""smooth"",""left"",""left"",""good_move"",19902.7,2747.4,2367,17155.3,380.4,""smooth"",""down"",""down"",""good_move"",29351,9447.5,2709.9,26149.4,491.7,""smooth"",""down"",""down"",""good_move""]","","",""
"3094","","<div style=""width:500px;"">
  <p>What determined the result of this run?</p>
  </div>","100","html-slider-response","47","1046831","0.0-10.0-1.1","134","1","2025-07-09 09:09:01","7701e855f2ef39aa3fd6c71abdc6918a","37.228.232.48","Mozilla/5.0 (Windows NT 10.0; Win64; x64) AppleWebKit/537.36 (KHTML, like Gecko) Chrome/138.0.0.0 Safari/537.36","WebKit","Chrome","138.0.0.0","Windows","10.0","https://app.prolific.com/","en-IE,en-US;q=0.9,en;q=0.8","60cd16e63d3924958e8d3d43","686d226cabeef709c732f8e1","686e3118efe01db55c06521e","60cd16e63d3924958e8d3d43","2025-07-09T09:26:30.421Z","","","","","","AttribQ","","","","","","","","","","","","","","","","","","","","","","","","","","","","","","","","","","","","","","50",""
"2735","","<div style=""width:500px;"">
  <p>How much control did you have over the ball?</p>
  </div>","100","html-slider-response","48","1049571","0.0-10.0-2.1","134","1","2025-07-09 09:09:01","7701e855f2ef39aa3fd6c71abdc6918a","37.228.232.48","Mozilla/5.0 (Windows NT 10.0; Win64; x64) AppleWebKit/537.36 (KHTML, like Gecko) Chrome/138.0.0.0 Safari/537.36","WebKit","Chrome","138.0.0.0","Windows","10.0","https://app.prolific.com/","en-IE,en-US;q=0.9,en;q=0.8","60cd16e63d3924958e8d3d43","686d226cabeef709c732f8e1","686e3118efe01db55c06521e","60cd16e63d3924958e8d3d43","2025-07-09T09:26:33.161Z","","","","","","ControlQ","","","","","","","","","","","","","","","","","","","","","","","","","","","","","","","","","","","","","","50",""
"19699","","<div style=""width:500px;"">
  <p>How would you describe your current emotional state?</p>
  </div>","0","html-slider-response","49","1069273","0.0-10.0-3.1","134","1","2025-07-09 09:09:01","7701e855f2ef39aa3fd6c71abdc6918a","37.228.232.48","Mozilla/5.0 (Windows NT 10.0; Win64; x64) AppleWebKit/537.36 (KHTML, like Gecko) Chrome/138.0.0.0 Safari/537.36","WebKit","Chrome","138.0.0.0","Windows","10.0","https://app.prolific.com/","en-IE,en-US;q=0.9,en;q=0.8","60cd16e63d3924958e8d3d43","686d226cabeef709c732f8e1","686e3118efe01db55c06521e","60cd16e63d3924958e8d3d43","2025-07-09T09:26:52.863Z","","","","","","StressQ","","","","","","","","","","","","","","","","","","","","","","","","","","","","","","","","","","","","","","50",""
"3633","","<div style=""width:500px;"">
  <p>What best describes how you currently feel?</p>
  </div>","100","html-slider-response","50","1072909","0.0-10.0-4.1","134","1","2025-07-09 09:09:01","7701e855f2ef39aa3fd6c71abdc6918a","37.228.232.48","Mozilla/5.0 (Windows NT 10.0; Win64; x64) AppleWebKit/537.36 (KHTML, like Gecko) Chrome/138.0.0.0 Safari/537.36","WebKit","Chrome","138.0.0.0","Windows","10.0","https://app.prolific.com/","en-IE,en-US;q=0.9,en;q=0.8","60cd16e63d3924958e8d3d43","686d226cabeef709c732f8e1","686e3118efe01db55c06521e","60cd16e63d3924958e8d3d43","2025-07-09T09:26:56.499Z","","","","","","MotivationQ","","","","","","","","","","","","","","","","","","","","","","","","","","","","","","","","","","","","","","50",""
"","","","","ctl-task-cpt","51","1111153","0.0-10.0-0.2","134","1","2025-07-09 09:09:01","7701e855f2ef39aa3fd6c71abdc6918a","37.228.232.48","Mozilla/5.0 (Windows NT 10.0; Win64; x64) AppleWebKit/537.36 (KHTML, like Gecko) Chrome/138.0.0.0 Safari/537.36","WebKit","Chrome","138.0.0.0","Windows","10.0","https://app.prolific.com/","en-IE,en-US;q=0.9,en;q=0.8","60cd16e63d3924958e8d3d43","686d226cabeef709c732f8e1","686e3118efe01db55c06521e","60cd16e63d3924958e8d3d43","2025-07-09T09:27:34.743Z","","","","","","","","","","","","","","","","win-only","0","g1:NW,g2:SE","0.8","3","0","1075224.9","1758.4","6774.4","35237.3","1","4","4","6","2","4","4","9","5","0.06818181818181818","1491.9","3000","885","[""down"",""right""]","{""num_key_presses"":8,""num_perfect"":6,""num_errors"":0,""num_randdir"":2,""num_randdir_good_moves"":1,""num_whilered"":0,""num_whileblue"":0,""num_blue"":2,""num_good_moves"":7}","[415.3214133126395,420.32142761775424,0.4,415.3214133126395,420.32142761775424,100.5,415.3214133126395,420.32142761775424,206.1,415.3214133126395,420.32142761775424,308.1,415.3214133126395,420.32142761775424,409.6,415.3214133126395,420.32142761775424,512.1,415.3214133126395,420.32142761775424,618.5,415.3214133126395,420.32142761775424,727.4,580.3214133126395,576.5714276177542,830.7,696.5714133126395,706.5714276177542,932.4,721.5714133126395,722.8214276177542,1037.8,736.5714133126395,726.5714276177542,1146,747.8214133126395,726.5714276177542,1248.9,765.3214133126395,741.5714276177542,1357.1,765.3214133126395,741.5714276177542,1465.3,765.3214133126395,741.5714276177542,1573.2,765.3214133126395,741.5714276177542,1673.9,765.3214133126395,741.5714276177542,1782.9,765.3214133126395,741.5714276177542,1887.6,765.3214133126395,741.5714276177542,1997,765.3214133126395,741.5714276177542,2097.9,765.3214133126395,741.5714276177542,2199.4,765.3214133126395,741.5714276177542,2307.8,765.3214133126395,741.5714276177542,2416.8,765.3214133126395,741.5714276177542,2521.1,765.3214133126395,741.5714276177542,2622.4,765.3214133126395,741.5714276177542,2722.7,765.3214133126395,741.5714276177542,2827.7,765.3214133126395,741.5714276177542,2929.1,765.3214133126395,741.5714276177542,3038.6,765.3214133126395,741.5714276177542,3139.6,765.3214133126395,741.5714276177542,3247.1,765.3214133126395,741.5714276177542,3347.9,765.3214133126395,741.5714276177542,3456.1,765.3214133126395,741.5714276177542,3559.9,765.3214133126395,741.5714276177542,3669.4,765.3214133126395,741.5714276177542,3770.6,765.3214133126395,741.5714276177542,3872.1,765.3214133126395,741.5714276177542,3982.4,765.3214133126395,741.5714276177542,4086.2,765.3214133126395,741.5714276177542,4188.1,765.3214133126395,741.5714276177542,4294.5,765.3214133126395,741.5714276177542,4395.8,765.3214133126395,741.5714276177542,4502.3,765.3214133126395,741.5714276177542,4603,765.3214133126395,741.5714276177542,4712,765.3214133126395,741.5714276177542,4813.6,765.3214133126395,741.5714276177542,4922.3]","[1451,1451,1000,0,451,""smooth"",""down"",""down"",""good_move"",7460,6008.5,2293.6,4776.7,389.7,""smooth"",""right"",""right"",""good_move"",10122.7,2662,2288.3,7460.8,373.6,""oops"",""right"",""left"",""bad_move"",12425.6,2302.3,1962.1,10123.3,340.3,""smooth"",""right"",""right"",""good_move"",16176.5,3750.2,3367.4,12426.4,382.7,""smooth"",""down"",""down"",""good_move"",18759.8,2583,2160,16176.8,423,""oops"",""right"",""right"",""good_move"",25719.5,6957.8,2783.4,22585.9,350.3,""smooth"",""right"",""right"",""good_move"",28329.9,2609.4,2243.4,25720.5,366,""smooth"",""down"",""down"",""good_move""]","","",""
"3360","","<div style=""width:500px;"">
  <p>What determined the result of this run?</p>
  </div>","50","html-slider-response","52","1114515","0.0-10.0-1.2","134","1","2025-07-09 09:09:01","7701e855f2ef39aa3fd6c71abdc6918a","37.228.232.48","Mozilla/5.0 (Windows NT 10.0; Win64; x64) AppleWebKit/537.36 (KHTML, like Gecko) Chrome/138.0.0.0 Safari/537.36","WebKit","Chrome","138.0.0.0","Windows","10.0","https://app.prolific.com/","en-IE,en-US;q=0.9,en;q=0.8","60cd16e63d3924958e8d3d43","686d226cabeef709c732f8e1","686e3118efe01db55c06521e","60cd16e63d3924958e8d3d43","2025-07-09T09:27:38.105Z","","","","","","AttribQ","","","","","","","","","","","","","","","","","","","","","","","","","","","","","","","","","","","","","","50",""
"3425","","<div style=""width:500px;"">
  <p>How much control did you have over the ball?</p>
  </div>","100","html-slider-response","53","1117941","0.0-10.0-2.2","134","1","2025-07-09 09:09:01","7701e855f2ef39aa3fd6c71abdc6918a","37.228.232.48","Mozilla/5.0 (Windows NT 10.0; Win64; x64) AppleWebKit/537.36 (KHTML, like Gecko) Chrome/138.0.0.0 Safari/537.36","WebKit","Chrome","138.0.0.0","Windows","10.0","https://app.prolific.com/","en-IE,en-US;q=0.9,en;q=0.8","60cd16e63d3924958e8d3d43","686d226cabeef709c732f8e1","686e3118efe01db55c06521e","60cd16e63d3924958e8d3d43","2025-07-09T09:27:41.531Z","","","","","","ControlQ","","","","","","","","","","","","","","","","","","","","","","","","","","","","","","","","","","","","","","50",""
"2924","","<div style=""width:500px;"">
  <p>How would you describe your current emotional state?</p>
  </div>","0","html-slider-response","54","1120867","0.0-10.0-3.2","134","1","2025-07-09 09:09:01","7701e855f2ef39aa3fd6c71abdc6918a","37.228.232.48","Mozilla/5.0 (Windows NT 10.0; Win64; x64) AppleWebKit/537.36 (KHTML, like Gecko) Chrome/138.0.0.0 Safari/537.36","WebKit","Chrome","138.0.0.0","Windows","10.0","https://app.prolific.com/","en-IE,en-US;q=0.9,en;q=0.8","60cd16e63d3924958e8d3d43","686d226cabeef709c732f8e1","686e3118efe01db55c06521e","60cd16e63d3924958e8d3d43","2025-07-09T09:27:44.457Z","","","","","","StressQ","","","","","","","","","","","","","","","","","","","","","","","","","","","","","","","","","","","","","","50",""
"2756","","<div style=""width:500px;"">
  <p>What best describes how you currently feel?</p>
  </div>","100","html-slider-response","55","1123625","0.0-10.0-4.2","134","1","2025-07-09 09:09:01","7701e855f2ef39aa3fd6c71abdc6918a","37.228.232.48","Mozilla/5.0 (Windows NT 10.0; Win64; x64) AppleWebKit/537.36 (KHTML, like Gecko) Chrome/138.0.0.0 Safari/537.36","WebKit","Chrome","138.0.0.0","Windows","10.0","https://app.prolific.com/","en-IE,en-US;q=0.9,en;q=0.8","60cd16e63d3924958e8d3d43","686d226cabeef709c732f8e1","686e3118efe01db55c06521e","60cd16e63d3924958e8d3d43","2025-07-09T09:27:47.215Z","","","","","","MotivationQ","","","","","","","","","","","","","","","","","","","","","","","","","","","","","","","","","","","","","","50",""
"","","","","ctl-task-cpt","56","1170716","0.0-10.0-0.3","134","1","2025-07-09 09:09:01","7701e855f2ef39aa3fd6c71abdc6918a","37.228.232.48","Mozilla/5.0 (Windows NT 10.0; Win64; x64) AppleWebKit/537.36 (KHTML, like Gecko) Chrome/138.0.0.0 Safari/537.36","WebKit","Chrome","138.0.0.0","Windows","10.0","https://app.prolific.com/","en-IE,en-US;q=0.9,en;q=0.8","60cd16e63d3924958e8d3d43","686d226cabeef709c732f8e1","686e3118efe01db55c06521e","60cd16e63d3924958e8d3d43","2025-07-09T09:28:34.306Z","","","","","","","","","","","","","","","","win-only","2","g1:SE,g2:NW","0.7","4","0","1125943.1","1483.3","6484","44078.3","1","4","8","6","2","8","8","17","9","0.12878787878787878","1322.2","3000","1400","[""left"",""up""]","{""num_key_presses"":6,""num_perfect"":5,""num_errors"":0,""num_randdir"":1,""num_randdir_good_moves"":1,""num_whilered"":0,""num_whileblue"":0,""num_blue"":6,""num_good_moves"":6}","[406.5714133126395,422.82142761775424,0.6,406.5714133126395,422.82142761775424,111.2,406.5714133126395,422.82142761775424,219.5,406.5714133126395,422.82142761775424,325.4,406.5714133126395,422.82142761775424,428.6,406.5714133126395,422.82142761775424,539.3,406.5714133126395,422.82142761775424,642.7,201.5714133126395,271.57142761775424,750.9,136.5714133126395,196.57142761775424,852.7,105.3214133126395,139.07142761775424,960.9,96.5714133126395,130.32142761775424,1070.9,91.5714133126395,122.82142761775425,1176.2,91.5714133126395,122.82142761775425,1278.5,91.5714133126395,122.82142761775425,1391.3,91.5714133126395,122.82142761775425,1499.1,91.5714133126395,122.82142761775425,1601.8,91.5714133126395,122.82142761775425,1707.4,91.5714133126395,122.82142761775425,1809.1,91.5714133126395,122.82142761775425,1910.9,91.5714133126395,122.82142761775425,2018.3,91.5714133126395,122.82142761775425,2119.8,91.5714133126395,122.82142761775425,2229,91.5714133126395,122.82142761775425,2329.9,91.5714133126395,122.82142761775425,2435.7,91.5714133126395,122.82142761775425,2536.9,91.5714133126395,122.82142761775425,2638.1,91.5714133126395,122.82142761775425,2739.5,91.5714133126395,122.82142761775425,2844.2,91.5714133126395,122.82142761775425,2949.6,91.5714133126395,122.82142761775425,3050.8,91.5714133126395,122.82142761775425,3159.7,91.5714133126395,122.82142761775425,3260.9,91.5714133126395,122.82142761775425,3368.1,91.5714133126395,122.82142761775425,3470.9,91.5714133126395,122.82142761775425,3574.9,91.5714133126395,122.82142761775425,3675.6,91.5714133126395,122.82142761775425,3777.7,91.5714133126395,122.82142761775425,3878.6,91.5714133126395,122.82142761775425,3993,91.5714133126395,122.82142761775425,4095.8,91.5714133126395,122.82142761775425,4199.4,91.5714133126395,122.82142761775425,4300.6,91.5714133126395,122.82142761775425,4404.9,91.5714133126395,122.82142761775425,4507.8,91.5714133126395,122.82142761775425,4608.7,91.5714133126395,122.82142761775425,4708.8,91.5714133126395,122.82142761775425,4814.6,91.5714133126395,122.82142761775425,4925.2]","[5312.2,5312.2,2865.3,2006.5,440.4,""oops"",""left"",""up"",""good_move"",18757.9,13443.6,2878.6,15444,435.3,""smooth"",""left"",""left"",""good_move"",21095.4,2336.3,1893,18759.3,443.2,""smooth"",""left"",""left"",""good_move"",24965.5,3869.8,3474.4,21095.7,395.4,""smooth"",""left"",""left"",""good_move"",35069,10103.2,2389.8,32258.1,421.1,""smooth"",""up"",""up"",""good_move"",37457.4,2386.4,1963.9,35071,422.5,""smooth"",""up"",""up"",""good_move""]","","",""
"4008","","<div style=""width:500px;"">
  <p>What determined the result of this run?</p>
  </div>","100","html-slider-response","57","1174728","0.0-10.0-1.3","134","1","2025-07-09 09:09:01","7701e855f2ef39aa3fd6c71abdc6918a","37.228.232.48","Mozilla/5.0 (Windows NT 10.0; Win64; x64) AppleWebKit/537.36 (KHTML, like Gecko) Chrome/138.0.0.0 Safari/537.36","WebKit","Chrome","138.0.0.0","Windows","10.0","https://app.prolific.com/","en-IE,en-US;q=0.9,en;q=0.8","60cd16e63d3924958e8d3d43","686d226cabeef709c732f8e1","686e3118efe01db55c06521e","60cd16e63d3924958e8d3d43","2025-07-09T09:28:38.318Z","","","","","","AttribQ","","","","","","","","","","","","","","","","","","","","","","","","","","","","","","","","","","","","","","50",""
"2621","","<div style=""width:500px;"">
  <p>How much control did you have over the ball?</p>
  </div>","100","html-slider-response","58","1177352","0.0-10.0-2.3","134","1","2025-07-09 09:09:01","7701e855f2ef39aa3fd6c71abdc6918a","37.228.232.48","Mozilla/5.0 (Windows NT 10.0; Win64; x64) AppleWebKit/537.36 (KHTML, like Gecko) Chrome/138.0.0.0 Safari/537.36","WebKit","Chrome","138.0.0.0","Windows","10.0","https://app.prolific.com/","en-IE,en-US;q=0.9,en;q=0.8","60cd16e63d3924958e8d3d43","686d226cabeef709c732f8e1","686e3118efe01db55c06521e","60cd16e63d3924958e8d3d43","2025-07-09T09:28:40.942Z","","","","","","ControlQ","","","","","","","","","","","","","","","","","","","","","","","","","","","","","","","","","","","","","","50",""
"52954","","<div style=""width:500px;"">
  <p>How would you describe your current emotional state?</p>
  </div>","0","html-slider-response","59","1230307","0.0-10.0-3.3","134","1","2025-07-09 09:09:01","7701e855f2ef39aa3fd6c71abdc6918a","37.228.232.48","Mozilla/5.0 (Windows NT 10.0; Win64; x64) AppleWebKit/537.36 (KHTML, like Gecko) Chrome/138.0.0.0 Safari/537.36","WebKit","Chrome","138.0.0.0","Windows","10.0","https://app.prolific.com/","en-IE,en-US;q=0.9,en;q=0.8","60cd16e63d3924958e8d3d43","686d226cabeef709c732f8e1","686e3118efe01db55c06521e","60cd16e63d3924958e8d3d43","2025-07-09T09:29:33.897Z","","","","","","StressQ","","","","","","","","","","","","","","","","","","","","","","","","","","","","","","","","","","","","","","50",""
"3583","","<div style=""width:500px;"">
  <p>What best describes how you currently feel?</p>
  </div>","100","html-slider-response","60","1233892","0.0-10.0-4.3","134","1","2025-07-09 09:09:01","7701e855f2ef39aa3fd6c71abdc6918a","37.228.232.48","Mozilla/5.0 (Windows NT 10.0; Win64; x64) AppleWebKit/537.36 (KHTML, like Gecko) Chrome/138.0.0.0 Safari/537.36","WebKit","Chrome","138.0.0.0","Windows","10.0","https://app.prolific.com/","en-IE,en-US;q=0.9,en;q=0.8","60cd16e63d3924958e8d3d43","686d226cabeef709c732f8e1","686e3118efe01db55c06521e","60cd16e63d3924958e8d3d43","2025-07-09T09:29:37.482Z","","","","","","MotivationQ","","","","","","","","","","","","","","","","","","","","","","","","","","","","","","","","","","","","","","50",""
"","","","","ctl-task-cpt","61","1266085","0.0-10.0-0.4","134","1","2025-07-09 09:09:01","7701e855f2ef39aa3fd6c71abdc6918a","37.228.232.48","Mozilla/5.0 (Windows NT 10.0; Win64; x64) AppleWebKit/537.36 (KHTML, like Gecko) Chrome/138.0.0.0 Safari/537.36","WebKit","Chrome","138.0.0.0","Windows","10.0","https://app.prolific.com/","en-IE,en-US;q=0.9,en;q=0.8","60cd16e63d3924958e8d3d43","686d226cabeef709c732f8e1","686e3118efe01db55c06521e","60cd16e63d3924958e8d3d43","2025-07-09T09:30:09.675Z","","","","","","","","","","","","","","","","win-only","2","g1:SE,g2:NW","0.6","5","0","1236212.2","2287.1","7287.5","29178.4","1","4","8","6","2","8","8","25","17","0.1893939393939394","1497.8","3000","1415","[""left"",""up""]","{""num_key_presses"":6,""num_perfect"":5,""num_errors"":0,""num_randdir"":1,""num_randdir_good_moves"":1,""num_whilered"":0,""num_whileblue"":0,""num_blue"":1,""num_good_moves"":6}","[416.5714133126395,415.32142761775424,0.3,416.5714133126395,415.32142761775424,107.1,416.5714133126395,415.32142761775424,210.7,416.5714133126395,415.32142761775424,313.1,416.5714133126395,415.32142761775424,416.1,416.5714133126395,415.32142761775424,519.8,319.0714133126395,351.57142761775424,630.2,77.8214133126395,100.32142761775425,736.5,34.07141331263951,44.07142761775425,838.2,30.321413312639507,40.32142761775425,944,30.321413312639507,40.32142761775425,1044.9,30.321413312639507,40.32142761775425,1146.7,34.07141331263951,44.07142761775425,1249.8,80.3214133126395,89.07142761775425,1354.5,80.3214133126395,89.07142761775425,1467.6,80.3214133126395,89.07142761775425,1570.8,80.3214133126395,89.07142761775425,1677.5,80.3214133126395,89.07142761775425,1779,80.3214133126395,89.07142761775425,1887.6,80.3214133126395,89.07142761775425,1987.7,80.3214133126395,89.07142761775425,2091.2,80.3214133126395,89.07142761775425,2203.6,80.3214133126395,89.07142761775425,2306.7,80.3214133126395,89.07142761775425,2409.4,80.3214133126395,89.07142761775425,2514.3,80.3214133126395,89.07142761775425,2622.5,80.3214133126395,89.07142761775425,2729.2,80.3214133126395,89.07142761775425,2836.6,80.3214133126395,89.07142761775425,2937,80.3214133126395,89.07142761775425,3037.2,80.3214133126395,89.07142761775425,3150.2,80.3214133126395,89.07142761775425,3252.5,80.3214133126395,89.07142761775425,3353.3,80.3214133126395,89.07142761775425,3467.7,80.3214133126395,89.07142761775425,3567.8,80.3214133126395,89.07142761775425,3673.8,80.3214133126395,89.07142761775425,3783.8,80.3214133126395,89.07142761775425,3888.5,80.3214133126395,89.07142761775425,3997.7,80.3214133126395,89.07142761775425,4098.4,80.3214133126395,89.07142761775425,4203.8,80.3214133126395,89.07142761775425,4309.3,80.3214133126395,89.07142761775425,4410.2,80.3214133126395,89.07142761775425,4529.8,80.3214133126395,89.07142761775425,4635.3,80.3214133126395,89.07142761775425,4737.3,80.3214133126395,89.07142761775425,4837.8,80.3214133126395,89.07142761775425,4945.9]","[1509.5,1509.5,1000,0,509.5,""smooth"",""left"",""left"",""good_move"",8445.8,6936,2843,5203.4,399.4,""smooth"",""left"",""left"",""good_move"",12357.5,3911.5,3490.2,8446,421.3,""smooth"",""left"",""left"",""good_move"",15175.5,2817.5,2373.1,12358,444.4,""oops"",""up"",""up"",""good_move"",18445.3,3269.4,2923,15176,346.4,""smooth"",""up"",""up"",""good_move"",21750,3304.4,2916.9,18445.7,387.4,""smooth"",""up"",""up"",""good_move""]","","",""
"6429","","<div style=""width:500px;"">
  <p>What determined the result of this run?</p>
  </div>","100","html-slider-response","62","1272516","0.0-10.0-1.4","134","1","2025-07-09 09:09:01","7701e855f2ef39aa3fd6c71abdc6918a","37.228.232.48","Mozilla/5.0 (Windows NT 10.0; Win64; x64) AppleWebKit/537.36 (KHTML, like Gecko) Chrome/138.0.0.0 Safari/537.36","WebKit","Chrome","138.0.0.0","Windows","10.0","https://app.prolific.com/","en-IE,en-US;q=0.9,en;q=0.8","60cd16e63d3924958e8d3d43","686d226cabeef709c732f8e1","686e3118efe01db55c06521e","60cd16e63d3924958e8d3d43","2025-07-09T09:30:16.106Z","","","","","","AttribQ","","","","","","","","","","","","","","","","","","","","","","","","","","","","","","","","","","","","","","50",""
"2626","","<div style=""width:500px;"">
  <p>How much control did you have over the ball?</p>
  </div>","100","html-slider-response","63","1275144","0.0-10.0-2.4","134","1","2025-07-09 09:09:01","7701e855f2ef39aa3fd6c71abdc6918a","37.228.232.48","Mozilla/5.0 (Windows NT 10.0; Win64; x64) AppleWebKit/537.36 (KHTML, like Gecko) Chrome/138.0.0.0 Safari/537.36","WebKit","Chrome","138.0.0.0","Windows","10.0","https://app.prolific.com/","en-IE,en-US;q=0.9,en;q=0.8","60cd16e63d3924958e8d3d43","686d226cabeef709c732f8e1","686e3118efe01db55c06521e","60cd16e63d3924958e8d3d43","2025-07-09T09:30:18.734Z","","","","","","ControlQ","","","","","","","","","","","","","","","","","","","","","","","","","","","","","","","","","","","","","","50",""
"2743","","<div style=""width:500px;"">
  <p>How would you describe your current emotional state?</p>
  </div>","0","html-slider-response","64","1277889","0.0-10.0-3.4","134","1","2025-07-09 09:09:01","7701e855f2ef39aa3fd6c71abdc6918a","37.228.232.48","Mozilla/5.0 (Windows NT 10.0; Win64; x64) AppleWebKit/537.36 (KHTML, like Gecko) Chrome/138.0.0.0 Safari/537.36","WebKit","Chrome","138.0.0.0","Windows","10.0","https://app.prolific.com/","en-IE,en-US;q=0.9,en;q=0.8","60cd16e63d3924958e8d3d43","686d226cabeef709c732f8e1","686e3118efe01db55c06521e","60cd16e63d3924958e8d3d43","2025-07-09T09:30:21.479Z","","","","","","StressQ","","","","","","","","","","","","","","","","","","","","","","","","","","","","","","","","","","","","","","50",""
"27570","","<div style=""width:500px;"">
  <p>What best describes how you currently feel?</p>
  </div>","100","html-slider-response","65","1305459","0.0-10.0-4.4","134","1","2025-07-09 09:09:01","7701e855f2ef39aa3fd6c71abdc6918a","37.228.232.48","Mozilla/5.0 (Windows NT 10.0; Win64; x64) AppleWebKit/537.36 (KHTML, like Gecko) Chrome/138.0.0.0 Safari/537.36","WebKit","Chrome","138.0.0.0","Windows","10.0","https://app.prolific.com/","en-IE,en-US;q=0.9,en;q=0.8","60cd16e63d3924958e8d3d43","686d226cabeef709c732f8e1","686e3118efe01db55c06521e","60cd16e63d3924958e8d3d43","2025-07-09T09:30:49.049Z","","","","","","MotivationQ","","","","","","","","","","","","","","","","","","","","","","","","","","","","","","","","","","","","","","50",""
"","","","","ctl-task-cpt","66","1341023","0.0-10.0-0.5","134","1","2025-07-09 09:09:01","7701e855f2ef39aa3fd6c71abdc6918a","37.228.232.48","Mozilla/5.0 (Windows NT 10.0; Win64; x64) AppleWebKit/537.36 (KHTML, like Gecko) Chrome/138.0.0.0 Safari/537.36","WebKit","Chrome","138.0.0.0","Windows","10.0","https://app.prolific.com/","en-IE,en-US;q=0.9,en;q=0.8","60cd16e63d3924958e8d3d43","686d226cabeef709c732f8e1","686e3118efe01db55c06521e","60cd16e63d3924958e8d3d43","2025-07-09T09:31:24.613Z","","","","","","","","","","","","","","","","win-only","0","g1:NW,g2:SE","0.5","6","0","1307782.5","2402","7404.2","32542.8","1","4","4","6","2","4","4","29","25","0.2196969696969697","1464.1","3000","1520","[""down"",""right""]","{""num_key_presses"":6,""num_perfect"":4,""num_errors"":0,""num_randdir"":2,""num_randdir_good_moves"":2,""num_whilered"":0,""num_whileblue"":0,""num_blue"":2,""num_good_moves"":6}","[416.5714133126395,417.82142761775424,0.3,416.5714133126395,417.82142761775424,102.9,416.5714133126395,417.82142761775424,203.5,416.5714133126395,417.82142761775424,304.3,416.5714133126395,417.82142761775424,410.2,416.5714133126395,417.82142761775424,516.6,416.5714133126395,417.82142761775424,618.4,656.5714133126395,611.5714276177542,721,682.8214133126395,636.5714276177542,826.6,682.8214133126395,636.5714276177542,935.6,689.0714133126395,661.5714276177542,1038.4,696.5714133126395,690.3214276177542,1145.5,757.8214133126395,735.3214276177542,1251.3,759.0714133126395,736.5714276177542,1354.1,759.0714133126395,736.5714276177542,1460,759.0714133126395,736.5714276177542,1561.2,759.0714133126395,736.5714276177542,1663,759.0714133126395,736.5714276177542,1783.5,759.0714133126395,736.5714276177542,1890.4,759.0714133126395,736.5714276177542,1993.1,759.0714133126395,736.5714276177542,2093.5,759.0714133126395,736.5714276177542,2198.9,759.0714133126395,736.5714276177542,2300.4,759.0714133126395,736.5714276177542,2403.8,759.0714133126395,736.5714276177542,2511.7,759.0714133126395,736.5714276177542,2617.5,759.0714133126395,736.5714276177542,2718,759.0714133126395,736.5714276177542,2819.5,759.0714133126395,736.5714276177542,2921.1,759.0714133126395,736.5714276177542,3026.3,759.0714133126395,736.5714276177542,3133.9,759.0714133126395,736.5714276177542,3235.1,759.0714133126395,736.5714276177542,3343.1,759.0714133126395,736.5714276177542,3443.8,759.0714133126395,736.5714276177542,3551.3,759.0714133126395,736.5714276177542,3653.4,759.0714133126395,736.5714276177542,3753.7,759.0714133126395,736.5714276177542,3855.3,759.0714133126395,736.5714276177542,3958.9,759.0714133126395,736.5714276177542,4060,759.0714133126395,736.5714276177542,4160.1,759.0714133126395,736.5714276177542,4267.2,759.0714133126395,736.5714276177542,4371.2,759.0714133126395,736.5714276177542,4475,759.0714133126395,736.5714276177542,4580.7,759.0714133126395,736.5714276177542,4682.1,759.0714133126395,736.5714276177542,4784.2,759.0714133126395,736.5714276177542,4895.7]","[1481.1,1481.1,1000,0,481.1,""oops"",""down"",""right"",""good_move"",8461.5,6979.7,3128.5,4901.3,431.7,""smooth"",""down"",""down"",""good_move"",11645.1,3182.9,2755.3,8462.2,427.6,""smooth"",""down"",""down"",""good_move"",18701.8,7056.3,2381.6,15983.5,336.7,""smooth"",""down"",""down"",""good_move"",21873.7,3171.5,2733.8,18702.2,437.7,""oops"",""right"",""right"",""good_move"",24999.7,3124.3,2737.6,21875.4,386.7,""smooth"",""right"",""right"",""good_move""]","","",""
"4718","","<div style=""width:500px;"">
  <p>What determined the result of this run?</p>
  </div>","100","html-slider-response","67","1345746","0.0-10.0-1.5","134","1","2025-07-09 09:09:01","7701e855f2ef39aa3fd6c71abdc6918a","37.228.232.48","Mozilla/5.0 (Windows NT 10.0; Win64; x64) AppleWebKit/537.36 (KHTML, like Gecko) Chrome/138.0.0.0 Safari/537.36","WebKit","Chrome","138.0.0.0","Windows","10.0","https://app.prolific.com/","en-IE,en-US;q=0.9,en;q=0.8","60cd16e63d3924958e8d3d43","686d226cabeef709c732f8e1","686e3118efe01db55c06521e","60cd16e63d3924958e8d3d43","2025-07-09T09:31:29.336Z","","","","","","AttribQ","","","","","","","","","","","","","","","","","","","","","","","","","","","","","","","","","","","","","","50",""
"2833","","<div style=""width:500px;"">
  <p>How much control did you have over the ball?</p>
  </div>","100","html-slider-response","68","1348580","0.0-10.0-2.5","134","1","2025-07-09 09:09:01","7701e855f2ef39aa3fd6c71abdc6918a","37.228.232.48","Mozilla/5.0 (Windows NT 10.0; Win64; x64) AppleWebKit/537.36 (KHTML, like Gecko) Chrome/138.0.0.0 Safari/537.36","WebKit","Chrome","138.0.0.0","Windows","10.0","https://app.prolific.com/","en-IE,en-US;q=0.9,en;q=0.8","60cd16e63d3924958e8d3d43","686d226cabeef709c732f8e1","686e3118efe01db55c06521e","60cd16e63d3924958e8d3d43","2025-07-09T09:31:32.171Z","","","","","","ControlQ","","","","","","","","","","","","","","","","","","","","","","","","","","","","","","","","","","","","","","50",""
"3159","","<div style=""width:500px;"">
  <p>How would you describe your current emotional state?</p>
  </div>","0","html-slider-response","69","1351741","0.0-10.0-3.5","134","1","2025-07-09 09:09:01","7701e855f2ef39aa3fd6c71abdc6918a","37.228.232.48","Mozilla/5.0 (Windows NT 10.0; Win64; x64) AppleWebKit/537.36 (KHTML, like Gecko) Chrome/138.0.0.0 Safari/537.36","WebKit","Chrome","138.0.0.0","Windows","10.0","https://app.prolific.com/","en-IE,en-US;q=0.9,en;q=0.8","60cd16e63d3924958e8d3d43","686d226cabeef709c732f8e1","686e3118efe01db55c06521e","60cd16e63d3924958e8d3d43","2025-07-09T09:31:35.331Z","","","","","","StressQ","","","","","","","","","","","","","","","","","","","","","","","","","","","","","","","","","","","","","","50",""
"25173","","<div style=""width:500px;"">
  <p>What best describes how you currently feel?</p>
  </div>","100","html-slider-response","70","1376913","0.0-10.0-4.5","134","1","2025-07-09 09:09:01","7701e855f2ef39aa3fd6c71abdc6918a","37.228.232.48","Mozilla/5.0 (Windows NT 10.0; Win64; x64) AppleWebKit/537.36 (KHTML, like Gecko) Chrome/138.0.0.0 Safari/537.36","WebKit","Chrome","138.0.0.0","Windows","10.0","https://app.prolific.com/","en-IE,en-US;q=0.9,en;q=0.8","60cd16e63d3924958e8d3d43","686d226cabeef709c732f8e1","686e3118efe01db55c06521e","60cd16e63d3924958e8d3d43","2025-07-09T09:32:00.504Z","","","","","","MotivationQ","","","","","","","","","","","","","","","","","","","","","","","","","","","","","","","","","","","","","","50",""
"","","","","ctl-task-cpt","71","1423284","0.0-10.0-0.6","134","1","2025-07-09 09:09:01","7701e855f2ef39aa3fd6c71abdc6918a","37.228.232.48","Mozilla/5.0 (Windows NT 10.0; Win64; x64) AppleWebKit/537.36 (KHTML, like Gecko) Chrome/138.0.0.0 Safari/537.36","WebKit","Chrome","138.0.0.0","Windows","10.0","https://app.prolific.com/","en-IE,en-US;q=0.9,en;q=0.8","60cd16e63d3924958e8d3d43","686d226cabeef709c732f8e1","686e3118efe01db55c06521e","60cd16e63d3924958e8d3d43","2025-07-09T09:32:46.874Z","","","","","","","","","","","","","","","","win-only","3","g1:SW,g2:NE","0.4","7","0","1379239.4","1377.4","6384.8","43347","1","4","4","6","2","4","4","33","29","0.25","1701.9","3000","670","[""up"",""right""]","{""num_key_presses"":10,""num_perfect"":4,""num_errors"":0,""num_randdir"":6,""num_randdir_good_moves"":4,""num_whilered"":0,""num_whileblue"":0,""num_blue"":3,""num_good_moves"":8}","[409.0714133126395,422.82142761775424,1,409.0714133126395,422.82142761775424,112.6,409.0714133126395,422.82142761775424,223.9,409.0714133126395,422.82142761775424,333.5,409.0714133126395,422.82142761775424,440.5,409.0714133126395,422.82142761775424,545.7,409.0714133126395,422.82142761775424,651,409.0714133126395,422.82142761775424,759.2,365.3214133126395,432.82142761775424,865.3,260.3214133126395,466.57142761775424,970,321.5714133126395,369.07142761775424,1078.6,611.5714133126395,152.82142761775424,1186.7,681.5714133126395,81.57142761775425,1308.6,701.5714133126395,71.57142761775425,1409.9,732.8214133126395,71.57142761775425,1511.3,732.8214133126395,71.57142761775425,1613.7,732.8214133126395,71.57142761775425,1723,732.8214133126395,71.57142761775425,1823.6,732.8214133126395,71.57142761775425,1942.5,732.8214133126395,71.57142761775425,2044.5,732.8214133126395,71.57142761775425,2150.3,745.3214133126395,80.32142761775425,2255.8,882.8214133126395,236.57142761775424,2361.5,887.8214133126395,246.57142761775424,2462.8,887.8214133126395,246.57142761775424,2566.7,887.8214133126395,246.57142761775424,2670.9,887.8214133126395,246.57142761775424,2778,887.8214133126395,246.57142761775424,2887.6,887.8214133126395,246.57142761775424,2992.4,887.8214133126395,246.57142761775424,3095.8,887.8214133126395,246.57142761775424,3198,887.8214133126395,246.57142761775424,3310.4,887.8214133126395,246.57142761775424,3427.6,887.8214133126395,246.57142761775424,3527.8,887.8214133126395,246.57142761775424,3632.7,887.8214133126395,246.57142761775424,3750.3,887.8214133126395,246.57142761775424,3851.5,887.8214133126395,246.57142761775424,3959.5,887.8214133126395,246.57142761775424,4063.9,887.8214133126395,246.57142761775424,4167.4,887.8214133126395,246.57142761775424,4269.1,887.8214133126395,246.57142761775424,4377,887.8214133126395,246.57142761775424,4478,887.8214133126395,246.57142761775424,4580.9,887.8214133126395,246.57142761775424,4684.5,887.8214133126395,246.57142761775424,4793.1,887.8214133126395,246.57142761775424,4894.2,887.8214133126395,246.57142761775424,4995.9]","[1377.2,1377.3,1000,0,377.3,""oops"",""up"",""up"",""good_move"",4533.5,3155.6,2727.2,1377.9,428.4,""oops"",""right"",""right"",""good_move"",7479.6,2945.6,2468.9,4534,476.7,""smooth"",""right"",""right"",""good_move"",13003.4,5522.6,2193.2,10419,391.2,""smooth"",""right"",""right"",""good_move"",15891.2,2887.6,2533,13003.6,354.6,""oops"",""up"",""left"",""bad_move"",18367.8,2474.8,2102.1,15893,372.7,""oops"",""right"",""down"",""bad_move"",21120.5,2751.6,2357.2,18368.9,394.4,""oops"",""up"",""up"",""good_move"",24774.3,3653.1,3307,21121.2,346.1,""oops"",""up"",""right"",""good_move"",33901,9126.2,2083.9,31454.9,362.2,""smooth"",""up"",""up"",""good_move"",36821.9,2920.7,2567.5,33901.3,353.2,""smooth"",""up"",""up"",""good_move""]","","",""
"4806","","<div style=""width:500px;"">
  <p>What determined the result of this run?</p>
  </div>","50","html-slider-response","72","1428093","0.0-10.0-1.6","134","1","2025-07-09 09:09:01","7701e855f2ef39aa3fd6c71abdc6918a","37.228.232.48","Mozilla/5.0 (Windows NT 10.0; Win64; x64) AppleWebKit/537.36 (KHTML, like Gecko) Chrome/138.0.0.0 Safari/537.36","WebKit","Chrome","138.0.0.0","Windows","10.0","https://app.prolific.com/","en-IE,en-US;q=0.9,en;q=0.8","60cd16e63d3924958e8d3d43","686d226cabeef709c732f8e1","686e3118efe01db55c06521e","60cd16e63d3924958e8d3d43","2025-07-09T09:32:51.683Z","","","","","","AttribQ","","","","","","","","","","","","","","","","","","","","","","","","","","","","","","","","","","","","","","50",""
"3040","","<div style=""width:500px;"">
  <p>How much control did you have over the ball?</p>
  </div>","50","html-slider-response","73","1431134","0.0-10.0-2.6","134","1","2025-07-09 09:09:01","7701e855f2ef39aa3fd6c71abdc6918a","37.228.232.48","Mozilla/5.0 (Windows NT 10.0; Win64; x64) AppleWebKit/537.36 (KHTML, like Gecko) Chrome/138.0.0.0 Safari/537.36","WebKit","Chrome","138.0.0.0","Windows","10.0","https://app.prolific.com/","en-IE,en-US;q=0.9,en;q=0.8","60cd16e63d3924958e8d3d43","686d226cabeef709c732f8e1","686e3118efe01db55c06521e","60cd16e63d3924958e8d3d43","2025-07-09T09:32:54.725Z","","","","","","ControlQ","","","","","","","","","","","","","","","","","","","","","","","","","","","","","","","","","","","","","","50",""
"3760","","<div style=""width:500px;"">
  <p>How would you describe your current emotional state?</p>
  </div>","0","html-slider-response","74","1434897","0.0-10.0-3.6","134","1","2025-07-09 09:09:01","7701e855f2ef39aa3fd6c71abdc6918a","37.228.232.48","Mozilla/5.0 (Windows NT 10.0; Win64; x64) AppleWebKit/537.36 (KHTML, like Gecko) Chrome/138.0.0.0 Safari/537.36","WebKit","Chrome","138.0.0.0","Windows","10.0","https://app.prolific.com/","en-IE,en-US;q=0.9,en;q=0.8","60cd16e63d3924958e8d3d43","686d226cabeef709c732f8e1","686e3118efe01db55c06521e","60cd16e63d3924958e8d3d43","2025-07-09T09:32:58.487Z","","","","","","StressQ","","","","","","","","","","","","","","","","","","","","","","","","","","","","","","","","","","","","","","50",""
"2738","","<div style=""width:500px;"">
  <p>What best describes how you currently feel?</p>
  </div>","100","html-slider-response","75","1437635","0.0-10.0-4.6","134","1","2025-07-09 09:09:01","7701e855f2ef39aa3fd6c71abdc6918a","37.228.232.48","Mozilla/5.0 (Windows NT 10.0; Win64; x64) AppleWebKit/537.36 (KHTML, like Gecko) Chrome/138.0.0.0 Safari/537.36","WebKit","Chrome","138.0.0.0","Windows","10.0","https://app.prolific.com/","en-IE,en-US;q=0.9,en;q=0.8","60cd16e63d3924958e8d3d43","686d226cabeef709c732f8e1","686e3118efe01db55c06521e","60cd16e63d3924958e8d3d43","2025-07-09T09:33:01.225Z","","","","","","MotivationQ","","","","","","","","","","","","","","","","","","","","","","","","","","","","","","","","","","","","","","50",""
"","","","","ctl-task-cpt","76","1485808","0.0-10.0-0.7","134","1","2025-07-09 09:09:01","7701e855f2ef39aa3fd6c71abdc6918a","37.228.232.48","Mozilla/5.0 (Windows NT 10.0; Win64; x64) AppleWebKit/537.36 (KHTML, like Gecko) Chrome/138.0.0.0 Safari/537.36","WebKit","Chrome","138.0.0.0","Windows","10.0","https://app.prolific.com/","en-IE,en-US;q=0.9,en;q=0.8","60cd16e63d3924958e8d3d43","686d226cabeef709c732f8e1","686e3118efe01db55c06521e","60cd16e63d3924958e8d3d43","2025-07-09T09:33:49.398Z","","","","","","","","","","","","","","","","win-only","3","g1:SW,g2:NE","0.3","8","0","1439964.1","992.6","6000.6","45146.6","1","4","8","6","2","8","8","41","33","0.3106060606060606","1229.9","3000","780","[""up"",""right""]","{""num_key_presses"":10,""num_perfect"":3,""num_errors"":0,""num_randdir"":7,""num_randdir_good_moves"":5,""num_whilered"":0,""num_whileblue"":0,""num_blue"":3,""num_good_moves"":8}","[416.5714133126395,404.07142761775424,0.2,416.5714133126395,404.07142761775424,108.9,416.5714133126395,404.07142761775424,221.6,416.5714133126395,404.07142761775424,328.3,416.5714133126395,404.07142761775424,437.6,416.5714133126395,404.07142761775424,555.8,532.8214133126395,280.32142761775424,666.8,717.8214133126395,96.57142761775425,773.8,717.8214133126395,95.32142761775425,874.7,721.5714133126395,92.82142761775425,986,762.8214133126395,65.32142761775425,1090.4,762.8214133126395,65.32142761775425,1194.3,762.8214133126395,65.32142761775425,1297.5,762.8214133126395,65.32142761775425,1405,762.8214133126395,65.32142761775425,1508.7,762.8214133126395,65.32142761775425,1610.1,762.8214133126395,65.32142761775425,1722,762.8214133126395,65.32142761775425,1825.2,762.8214133126395,65.32142761775425,1927.1,762.8214133126395,65.32142761775425,2032.4,762.8214133126395,65.32142761775425,2133.7,762.8214133126395,65.32142761775425,2235.2,762.8214133126395,65.32142761775425,2341.1,762.8214133126395,65.32142761775425,2449.5,762.8214133126395,65.32142761775425,2567.4,762.8214133126395,65.32142761775425,2675.6,762.8214133126395,65.32142761775425,2779.4,762.8214133126395,65.32142761775425,2886.6,762.8214133126395,65.32142761775425,2998.3,762.8214133126395,65.32142761775425,3109.7,762.8214133126395,65.32142761775425,3215.1,762.8214133126395,65.32142761775425,3315.1,762.8214133126395,65.32142761775425,3416.3,762.8214133126395,65.32142761775425,3520.7,762.8214133126395,65.32142761775425,3625,762.8214133126395,65.32142761775425,3729,762.8214133126395,65.32142761775425,3830.6,762.8214133126395,65.32142761775425,3938.8,762.8214133126395,65.32142761775425,4045.4,762.8214133126395,65.32142761775425,4147.8,762.8214133126395,65.32142761775425,4249,762.8214133126395,65.32142761775425,4361.5,762.8214133126395,65.32142761775425,4462.6,762.8214133126395,65.32142761775425,4566.1,762.8214133126395,65.32142761775425,4674.9,762.8214133126395,65.32142761775425,4781.2,762.8214133126395,65.32142761775425,4896.8]","[1436.7,1436.7,1000,0,436.7,""oops"",""right"",""down"",""bad_move"",3938.6,2499,2088.6,1439.6,410.4,""oops"",""right"",""right"",""good_move"",10886.5,6947.2,2763.6,7750.7,372.2,""oops"",""right"",""right"",""good_move"",13405.3,2518.5,2156.7,10886.8,361.8,""oops"",""right"",""up"",""good_move"",15835.1,2429.5,1384.5,13405.7,1045,""smooth"",""up"",""up"",""good_move"",18987.7,3150,2788,15837.8,361.9,""smooth"",""up"",""up"",""good_move"",21910.6,2922.7,2519.8,18988,402.9,""oops"",""up"",""left"",""bad_move"",32968,11056.5,2955.6,29643.5,368.9,""oops"",""right"",""up"",""good_move"",36071.9,3103.2,2695,32968.7,408.2,""smooth"",""right"",""right"",""good_move"",38996.6,2923.6,2587.1,36073,336.5,""oops"",""right"",""right"",""good_move""]","","",""
"3913","","<div style=""width:500px;"">
  <p>What determined the result of this run?</p>
  </div>","50","html-slider-response","77","1489723","0.0-10.0-1.7","134","1","2025-07-09 09:09:01","7701e855f2ef39aa3fd6c71abdc6918a","37.228.232.48","Mozilla/5.0 (Windows NT 10.0; Win64; x64) AppleWebKit/537.36 (KHTML, like Gecko) Chrome/138.0.0.0 Safari/537.36","WebKit","Chrome","138.0.0.0","Windows","10.0","https://app.prolific.com/","en-IE,en-US;q=0.9,en;q=0.8","60cd16e63d3924958e8d3d43","686d226cabeef709c732f8e1","686e3118efe01db55c06521e","60cd16e63d3924958e8d3d43","2025-07-09T09:33:53.313Z","","","","","","AttribQ","","","","","","","","","","","","","","","","","","","","","","","","","","","","","","","","","","","","","","50",""
"2653","","<div style=""width:500px;"">
  <p>How much control did you have over the ball?</p>
  </div>","68","html-slider-response","78","1492379","0.0-10.0-2.7","134","1","2025-07-09 09:09:01","7701e855f2ef39aa3fd6c71abdc6918a","37.228.232.48","Mozilla/5.0 (Windows NT 10.0; Win64; x64) AppleWebKit/537.36 (KHTML, like Gecko) Chrome/138.0.0.0 Safari/537.36","WebKit","Chrome","138.0.0.0","Windows","10.0","https://app.prolific.com/","en-IE,en-US;q=0.9,en;q=0.8","60cd16e63d3924958e8d3d43","686d226cabeef709c732f8e1","686e3118efe01db55c06521e","60cd16e63d3924958e8d3d43","2025-07-09T09:33:55.969Z","","","","","","ControlQ","","","","","","","","","","","","","","","","","","","","","","","","","","","","","","","","","","","","","","50",""
"3149","","<div style=""width:500px;"">
  <p>How would you describe your current emotional state?</p>
  </div>","0","html-slider-response","79","1495530","0.0-10.0-3.7","134","1","2025-07-09 09:09:01","7701e855f2ef39aa3fd6c71abdc6918a","37.228.232.48","Mozilla/5.0 (Windows NT 10.0; Win64; x64) AppleWebKit/537.36 (KHTML, like Gecko) Chrome/138.0.0.0 Safari/537.36","WebKit","Chrome","138.0.0.0","Windows","10.0","https://app.prolific.com/","en-IE,en-US;q=0.9,en;q=0.8","60cd16e63d3924958e8d3d43","686d226cabeef709c732f8e1","686e3118efe01db55c06521e","60cd16e63d3924958e8d3d43","2025-07-09T09:33:59.120Z","","","","","","StressQ","","","","","","","","","","","","","","","","","","","","","","","","","","","","","","","","","","","","","","50",""
"3006","","<div style=""width:500px;"">
  <p>What best describes how you currently feel?</p>
  </div>","100","html-slider-response","80","1498537","0.0-10.0-4.7","134","1","2025-07-09 09:09:01","7701e855f2ef39aa3fd6c71abdc6918a","37.228.232.48","Mozilla/5.0 (Windows NT 10.0; Win64; x64) AppleWebKit/537.36 (KHTML, like Gecko) Chrome/138.0.0.0 Safari/537.36","WebKit","Chrome","138.0.0.0","Windows","10.0","https://app.prolific.com/","en-IE,en-US;q=0.9,en;q=0.8","60cd16e63d3924958e8d3d43","686d226cabeef709c732f8e1","686e3118efe01db55c06521e","60cd16e63d3924958e8d3d43","2025-07-09T09:34:02.127Z","","","","","","MotivationQ","","","","","","","","","","","","","","","","","","","","","","","","","","","","","","","","","","","","","","50",""
"","","","","ctl-task-cpt","81","1560146","0.0-10.0-0.8","134","1","2025-07-09 09:09:01","7701e855f2ef39aa3fd6c71abdc6918a","37.228.232.48","Mozilla/5.0 (Windows NT 10.0; Win64; x64) AppleWebKit/537.36 (KHTML, like Gecko) Chrome/138.0.0.0 Safari/537.36","WebKit","Chrome","138.0.0.0","Windows","10.0","https://app.prolific.com/","en-IE,en-US;q=0.9,en;q=0.8","60cd16e63d3924958e8d3d43","686d226cabeef709c732f8e1","686e3118efe01db55c06521e","60cd16e63d3924958e8d3d43","2025-07-09T09:35:03.736Z","","","","","","","","","","","","","","","","win-only","3","g1:SW,g2:NE","0.2","9","0","1500864.7","1011.1","6017.8","58583.8","1","4","8","6","2","-8","-8","33","41","0.25","1865.1","3000","-1535","[""up"",""right""]","{""num_key_presses"":14,""num_perfect"":4,""num_errors"":0,""num_randdir"":10,""num_randdir_good_moves"":4,""num_whilered"":0,""num_whileblue"":0,""num_blue"":3,""num_good_moves"":8}","[419.0714133126395,409.07142761775424,0.1,419.0714133126395,409.07142761775424,105.4,419.0714133126395,409.07142761775424,206.6,419.0714133126395,409.07142761775424,314,419.0714133126395,409.07142761775424,418.1,419.0714133126395,409.07142761775424,526.1,419.0714133126395,409.07142761775424,634.8,419.0714133126395,409.07142761775424,736.1,419.0714133126395,409.07142761775424,844.2,419.0714133126395,409.07142761775424,945.2,419.0714133126395,409.07142761775424,1053.4,419.0714133126395,409.07142761775424,1153.9,419.0714133126395,409.07142761775424,1259.4,731.5714133126395,161.57142761775424,1368.7,812.8214133126395,112.82142761775425,1474.4,812.8214133126395,112.82142761775425,1582.8,812.8214133126395,112.82142761775425,1689.6,812.8214133126395,112.82142761775425,1804.9,812.8214133126395,112.82142761775425,1907.8,812.8214133126395,112.82142761775425,2026.9,812.8214133126395,112.82142761775425,2127.6,812.8214133126395,112.82142761775425,2234.7,812.8214133126395,112.82142761775425,2337.9,812.8214133126395,112.82142761775425,2446.6,812.8214133126395,112.82142761775425,2551.3,812.8214133126395,112.82142761775425,2651.3,812.8214133126395,112.82142761775425,2754.1,812.8214133126395,112.82142761775425,2854.9,812.8214133126395,112.82142761775425,2982.4,812.8214133126395,112.82142761775425,3090.7,812.8214133126395,112.82142761775425,3202.2,812.8214133126395,112.82142761775425,3303.4,812.8214133126395,112.82142761775425,3413.8,812.8214133126395,112.82142761775425,3527.2,812.8214133126395,112.82142761775425,3633.3,812.8214133126395,112.82142761775425,3737.3,812.8214133126395,112.82142761775425,3837.7,812.8214133126395,112.82142761775425,3941.5,812.8214133126395,112.82142761775425,4043.2,812.8214133126395,112.82142761775425,4144.8,812.8214133126395,112.82142761775425,4249.3,812.8214133126395,112.82142761775425,4355.8,812.8214133126395,112.82142761775425,4458.7,812.8214133126395,112.82142761775425,4576,812.8214133126395,112.82142761775425,4679.6,812.8214133126395,112.82142761775425,4787.5,812.8214133126395,112.82142761775425,4892.7,812.8214133126395,112.82142761775425,4998.8]","[1370.1,1370.1,1000,0,370.1,""oops"",""right"",""left"",""bad_move"",6935.9,5564.9,2570.6,3923.8,441.5,""oops"",""up"",""right"",""good_move"",9870.6,2934.1,2499.9,6936.5,434.2,""oops"",""up"",""down"",""bad_move"",15865.2,5993.7,2344.7,13086.9,433.6,""oops"",""right"",""left"",""bad_move"",19411.3,3545.6,3118.7,15865.7,426.9,""oops"",""right"",""up"",""good_move"",22494.7,3082.6,2699.5,19412.1,383.1,""oops"",""right"",""up"",""good_move"",26225.8,3730,3100.2,22495.8,629.8,""oops"",""right"",""right"",""good_move"",29167.1,2940.3,2552.3,26226.9,387.9,""smooth"",""right"",""right"",""good_move"",31870.2,2702.6,2291,29167.6,411.6,""oops"",""right"",""left"",""bad_move"",34481.3,2610.4,2261.9,31870.9,348.5,""smooth"",""right"",""right"",""good_move"",40901.8,6419.4,2608.2,37923.3,370.3,""smooth"",""right"",""right"",""good_move"",44187.3,3285.1,2931.5,40902.2,353.6,""oops"",""right"",""left"",""bad_move"",47716.5,3528.1,3221.4,44188.4,306.7,""smooth"",""right"",""right"",""good_move"",50049.5,2332.3,1941.5,47717.2,390.8,""oops"",""right"",""down"",""bad_move""]","","",""
"4707","","<div style=""width:500px;"">
  <p>What determined the result of this run?</p>
  </div>","0","html-slider-response","82","1564857","0.0-10.0-1.8","134","1","2025-07-09 09:09:01","7701e855f2ef39aa3fd6c71abdc6918a","37.228.232.48","Mozilla/5.0 (Windows NT 10.0; Win64; x64) AppleWebKit/537.36 (KHTML, like Gecko) Chrome/138.0.0.0 Safari/537.36","WebKit","Chrome","138.0.0.0","Windows","10.0","https://app.prolific.com/","en-IE,en-US;q=0.9,en;q=0.8","60cd16e63d3924958e8d3d43","686d226cabeef709c732f8e1","686e3118efe01db55c06521e","60cd16e63d3924958e8d3d43","2025-07-09T09:35:08.447Z","","","","","","AttribQ","","","","","","","","","","","","","","","","","","","","","","","","","","","","","","","","","","","","","","50",""
"3280","","<div style=""width:500px;"">
  <p>How much control did you have over the ball?</p>
  </div>","0","html-slider-response","83","1568142","0.0-10.0-2.8","134","1","2025-07-09 09:09:01","7701e855f2ef39aa3fd6c71abdc6918a","37.228.232.48","Mozilla/5.0 (Windows NT 10.0; Win64; x64) AppleWebKit/537.36 (KHTML, like Gecko) Chrome/138.0.0.0 Safari/537.36","WebKit","Chrome","138.0.0.0","Windows","10.0","https://app.prolific.com/","en-IE,en-US;q=0.9,en;q=0.8","60cd16e63d3924958e8d3d43","686d226cabeef709c732f8e1","686e3118efe01db55c06521e","60cd16e63d3924958e8d3d43","2025-07-09T09:35:11.732Z","","","","","","ControlQ","","","","","","","","","","","","","","","","","","","","","","","","","","","","","","","","","","","","","","50",""
"4799","","<div style=""width:500px;"">
  <p>How would you describe your current emotional state?</p>
  </div>","59","html-slider-response","84","1572943","0.0-10.0-3.8","134","1","2025-07-09 09:09:01","7701e855f2ef39aa3fd6c71abdc6918a","37.228.232.48","Mozilla/5.0 (Windows NT 10.0; Win64; x64) AppleWebKit/537.36 (KHTML, like Gecko) Chrome/138.0.0.0 Safari/537.36","WebKit","Chrome","138.0.0.0","Windows","10.0","https://app.prolific.com/","en-IE,en-US;q=0.9,en;q=0.8","60cd16e63d3924958e8d3d43","686d226cabeef709c732f8e1","686e3118efe01db55c06521e","60cd16e63d3924958e8d3d43","2025-07-09T09:35:16.533Z","","","","","","StressQ","","","","","","","","","","","","","","","","","","","","","","","","","","","","","","","","","","","","","","50",""
"4128","","<div style=""width:500px;"">
  <p>What best describes how you currently feel?</p>
  </div>","100","html-slider-response","85","1577077","0.0-10.0-4.8","134","1","2025-07-09 09:09:01","7701e855f2ef39aa3fd6c71abdc6918a","37.228.232.48","Mozilla/5.0 (Windows NT 10.0; Win64; x64) AppleWebKit/537.36 (KHTML, like Gecko) Chrome/138.0.0.0 Safari/537.36","WebKit","Chrome","138.0.0.0","Windows","10.0","https://app.prolific.com/","en-IE,en-US;q=0.9,en;q=0.8","60cd16e63d3924958e8d3d43","686d226cabeef709c732f8e1","686e3118efe01db55c06521e","60cd16e63d3924958e8d3d43","2025-07-09T09:35:20.667Z","","","","","","MotivationQ","","","","","","","","","","","","","","","","","","","","","","","","","","","","","","","","","","","","","","50",""
