"rt","response_timestamp","stimulus","response","trial_type","trial_index","time_elapsed","internal_node_id","run_id","condition","recorded_at","source_code_version","ip","user_agent","device","browser","browser_version","platform","platform_version","referer","accept_language","PROLIFIC_PID","STUDY_ID","SESSION_ID","prolific_id","realtime","view_history","question_order","consent","success","question_id","eventType","responses","item_order","radio_event_ids","radio_event_times","key_event_times","mouse_event_times","straightlining","zigzagging","honeypot","which_type","canvas_config","goals_layout","control_level","trial_number","tutorial_trial_number","trial_start_time","phase1_start_time","phase2_start_time","phase3_start_time","goal_1_value","goal_1_distance","goal_2_value","goal_2_distance","goal_selected","outcome","outcome_total","participant_final_score","participant_initial_score","participant_final_score_prop","goal_choice_rt","allocated_time","allocated_time_remaining","goal_direction","counts","mouse_movements","key_presses","correct","slider_start"
"2279","1752059584739","<p style='font-size:40px;line-height:1.25'><strong>Welcome to the experiment!</strong></p><p style='font-size:1.1em;line-height:1.25'>Thank you for your interest in our experiment! Before you begin, it is important that we obtain your informed consent to participate in the study.</p><p style='font-size:1.1em;line-height:1.25'>On the next screen will be an <strong>information sheet</strong> for you to read. To participate in the study we need you to read this information sheet and the following consent form carefully. If you agree with all the statements, please click the <strong>I agree</strong> button.</p><p style='font-size:1.1em;line-height:1.25'>Press <strong>Next</strong> to read the information sheet.</p>","0","custom-html-button-response","0","2283","0.0-0.0","274","1","2025-07-09 11:11:04","7701e855f2ef39aa3fd6c71abdc6918a","165.16.167.133","Mozilla/5.0 (X11; Linux x86_64) AppleWebKit/537.36 (KHTML, like Gecko) Chrome/138.0.0.0 Safari/537.36","WebKit","Chrome","138.0.0.0","Linux","","https://app.prolific.com/","en-GB,en-US;q=0.9,en;q=0.8,ar;q=0.7","667b1ca693a1d52a0447f22f","686d226cabeef709c732f8e1","686e313d7eb80da74ad69479","667b1ca693a1d52a0447f22f","2025-07-09T11:13:04.742Z","","","","","","","","","","","","","","","","","","","","","","","","","","","","","","","","","","","","","","","","","","","",""
"1115576","","","","instructions","1","1135368","0.0-1.0","274","1","2025-07-09 11:11:04","7701e855f2ef39aa3fd6c71abdc6918a","165.16.167.133","Mozilla/5.0 (X11; Linux x86_64) AppleWebKit/537.36 (KHTML, like Gecko) Chrome/138.0.0.0 Safari/537.36","WebKit","Chrome","138.0.0.0","Linux","","https://app.prolific.com/","en-GB,en-US;q=0.9,en;q=0.8,ar;q=0.7","667b1ca693a1d52a0447f22f","686d226cabeef709c732f8e1","686e313d7eb80da74ad69479","667b1ca693a1d52a0447f22f","","[{""page_index"":0,""viewing_time"":1114641},{""page_index"":1,""viewing_time"":929}]","","","","","","","","","","","","","","","","","","","","","","","","","","","","","","","","","","","","","","","","","","",""
"3724","","","{""Q0"":"""",""Q1"":"""",""Q2"":"""",""Q3"":"""",""Q4"":"""",""Q5"":"""",""Q6"":""I agree""}","survey-multi-choice","2","1139105","0.0-2.0","274","1","2025-07-09 11:11:04","7701e855f2ef39aa3fd6c71abdc6918a","165.16.167.133","Mozilla/5.0 (X11; Linux x86_64) AppleWebKit/537.36 (KHTML, like Gecko) Chrome/138.0.0.0 Safari/537.36","WebKit","Chrome","138.0.0.0","Linux","","https://app.prolific.com/","en-GB,en-US;q=0.9,en;q=0.8,ar;q=0.7","667b1ca693a1d52a0447f22f","686d226cabeef709c732f8e1","686e313d7eb80da74ad69479","667b1ca693a1d52a0447f22f","","","[0,1,2,3,4,5,6]","true","","","","","","","","","","","","","","","","","","","","","","","","","","","","","","","","","","","","","","","","",""
"9574","","","","fullscreen","3","1149689","0.0-4.0","274","1","2025-07-09 11:11:04","7701e855f2ef39aa3fd6c71abdc6918a","165.16.167.133","Mozilla/5.0 (X11; Linux x86_64) AppleWebKit/537.36 (KHTML, like Gecko) Chrome/138.0.0.0 Safari/537.36","WebKit","Chrome","138.0.0.0","Linux","","https://app.prolific.com/","en-GB,en-US;q=0.9,en;q=0.8,ar;q=0.7","667b1ca693a1d52a0447f22f","686d226cabeef709c732f8e1","686e313d7eb80da74ad69479","667b1ca693a1d52a0447f22f","","","","","true","","","","","","","","","","","","","","","","","","","","","","","","","","","","","","","","","","","","","","","",""
"1084","1752060733233"," <p style='font-size:1.1em;line-height:1.25'>Thank you for completing the consent form and closing all other tabs.</p><p style='font-size:1.1em;line-height:1.25'>We will now invite you to fill in some demographic information and questionnaires, before starting the game.<br>This will take about 5 minutes.<br></p><p style='font-size:1.1em;line-height:1.25'>Press the <strong>Next</strong> button to continue.</p>","0","custom-html-button-response","4","1150776","0.0-5.0","274","1","2025-07-09 11:11:04","7701e855f2ef39aa3fd6c71abdc6918a","165.16.167.133","Mozilla/5.0 (X11; Linux x86_64) AppleWebKit/537.36 (KHTML, like Gecko) Chrome/138.0.0.0 Safari/537.36","WebKit","Chrome","138.0.0.0","Linux","","https://app.prolific.com/","en-GB,en-US;q=0.9,en;q=0.8,ar;q=0.7","667b1ca693a1d52a0447f22f","686d226cabeef709c732f8e1","686e313d7eb80da74ad69479","667b1ca693a1d52a0447f22f","2025-07-09T11:32:13.234Z","","","","","","","","","","","","","","","","","","","","","","","","","","","","","","","","","","","","","","","","","","","",""
"10608","","","{""age"":""30""}","survey-text","5","1161394","0.0-6.0-0.0","274","1","2025-07-09 11:11:04","7701e855f2ef39aa3fd6c71abdc6918a","165.16.167.133","Mozilla/5.0 (X11; Linux x86_64) AppleWebKit/537.36 (KHTML, like Gecko) Chrome/138.0.0.0 Safari/537.36","WebKit","Chrome","138.0.0.0","Linux","","https://app.prolific.com/","en-GB,en-US;q=0.9,en;q=0.8,ar;q=0.7","667b1ca693a1d52a0447f22f","686d226cabeef709c732f8e1","686e313d7eb80da74ad69479","667b1ca693a1d52a0447f22f","","","","","","0","demographics","","","","","","","","","","","","","","","","","","","","","","","","","","","","","","","","","","","","","",""
"3423","","","{""gender_identity"":""female/woman""}","survey-multi-choice","6","1164826","0.0-6.0-1.0","274","1","2025-07-09 11:11:04","7701e855f2ef39aa3fd6c71abdc6918a","165.16.167.133","Mozilla/5.0 (X11; Linux x86_64) AppleWebKit/537.36 (KHTML, like Gecko) Chrome/138.0.0.0 Safari/537.36","WebKit","Chrome","138.0.0.0","Linux","","https://app.prolific.com/","en-GB,en-US;q=0.9,en;q=0.8,ar;q=0.7","667b1ca693a1d52a0447f22f","686d226cabeef709c732f8e1","686e313d7eb80da74ad69479","667b1ca693a1d52a0447f22f","","","[0]","","","1","demographics","","","","","","","","","","","","","","","","","","","","","","","","","","","","","","","","","","","","","",""
"2988","","","{""assigned_sex"":""female""}","survey-multi-choice","7","1167821","0.0-6.0-2.0","274","1","2025-07-09 11:11:04","7701e855f2ef39aa3fd6c71abdc6918a","165.16.167.133","Mozilla/5.0 (X11; Linux x86_64) AppleWebKit/537.36 (KHTML, like Gecko) Chrome/138.0.0.0 Safari/537.36","WebKit","Chrome","138.0.0.0","Linux","","https://app.prolific.com/","en-GB,en-US;q=0.9,en;q=0.8,ar;q=0.7","667b1ca693a1d52a0447f22f","686d226cabeef709c732f8e1","686e313d7eb80da74ad69479","667b1ca693a1d52a0447f22f","","","[0]","","","2","demographics","","","","","","","","","","","","","","","","","","","","","","","","","","","","","","","","","","","","","",""
"11246","","","{""menstrual_cycle"":""Yes""}","survey-multi-choice","8","1179072","0.0-6.0-3.0","274","1","2025-07-09 11:11:04","7701e855f2ef39aa3fd6c71abdc6918a","165.16.167.133","Mozilla/5.0 (X11; Linux x86_64) AppleWebKit/537.36 (KHTML, like Gecko) Chrome/138.0.0.0 Safari/537.36","WebKit","Chrome","138.0.0.0","Linux","","https://app.prolific.com/","en-GB,en-US;q=0.9,en;q=0.8,ar;q=0.7","667b1ca693a1d52a0447f22f","686d226cabeef709c732f8e1","686e313d7eb80da74ad69479","667b1ca693a1d52a0447f22f","","","[0]","","","4","demographics","","","","","","","","","","","","","","","","","","","","","","","","","","","","","","","","","","","","","",""
"4880","","","{""education"":""Bachelor's Degree (e.g., BA)""}","survey-multi-choice","9","1183961","0.0-6.0-4.0","274","1","2025-07-09 11:11:04","7701e855f2ef39aa3fd6c71abdc6918a","165.16.167.133","Mozilla/5.0 (X11; Linux x86_64) AppleWebKit/537.36 (KHTML, like Gecko) Chrome/138.0.0.0 Safari/537.36","WebKit","Chrome","138.0.0.0","Linux","","https://app.prolific.com/","en-GB,en-US;q=0.9,en;q=0.8,ar;q=0.7","667b1ca693a1d52a0447f22f","686d226cabeef709c732f8e1","686e313d7eb80da74ad69479","667b1ca693a1d52a0447f22f","","","[0]","","","5","demographics","","","","","","","","","","","","","","","","","","","","","","","","","","","","","","","","","","","","","",""
"7385","","","{""education"":""Master's Degree (e.g., MSc)""}","survey-multi-choice","10","1191352","0.0-6.0-5.0","274","1","2025-07-09 11:11:04","7701e855f2ef39aa3fd6c71abdc6918a","165.16.167.133","Mozilla/5.0 (X11; Linux x86_64) AppleWebKit/537.36 (KHTML, like Gecko) Chrome/138.0.0.0 Safari/537.36","WebKit","Chrome","138.0.0.0","Linux","","https://app.prolific.com/","en-GB,en-US;q=0.9,en;q=0.8,ar;q=0.7","667b1ca693a1d52a0447f22f","686d226cabeef709c732f8e1","686e313d7eb80da74ad69479","667b1ca693a1d52a0447f22f","2025-07-09T11:32:53.811Z","","[0]","","","6","demographics","","","","","","","","","","","","","","","","","","","","","","","","","","","","","","","","","","","","","",""
"11202","","","{""mental_health_condition"":""No"",""mental_health_treatment"":""No"",""psychiatric_medication"":""None""}","survey-text","11","1202567","0.0-7.0-0.0","274","1","2025-07-09 11:11:04","7701e855f2ef39aa3fd6c71abdc6918a","165.16.167.133","Mozilla/5.0 (X11; Linux x86_64) AppleWebKit/537.36 (KHTML, like Gecko) Chrome/138.0.0.0 Safari/537.36","WebKit","Chrome","138.0.0.0","Linux","","https://app.prolific.com/","en-GB,en-US;q=0.9,en;q=0.8,ar;q=0.7","667b1ca693a1d52a0447f22f","686d226cabeef709c732f8e1","686e313d7eb80da74ad69479","667b1ca693a1d52a0447f22f","2025-07-09T11:33:05.026Z","","","","","1","mental_health","","","","","","","","","","","","","","","","","","","","","","","","","","","","","","","","","","","","","",""
"9181","","","{""depression_history"":[""Yes""]}","survey-multi-select","12","1211765","0.0-7.0-1.0","274","1","2025-07-09 11:11:04","7701e855f2ef39aa3fd6c71abdc6918a","165.16.167.133","Mozilla/5.0 (X11; Linux x86_64) AppleWebKit/537.36 (KHTML, like Gecko) Chrome/138.0.0.0 Safari/537.36","WebKit","Chrome","138.0.0.0","Linux","","https://app.prolific.com/","en-GB,en-US;q=0.9,en;q=0.8,ar;q=0.7","667b1ca693a1d52a0447f22f","686d226cabeef709c732f8e1","686e313d7eb80da74ad69479","667b1ca693a1d52a0447f22f","","","[0]","","","","mental_health","","","","","","","","","","","","","","","","","","","","","","","","","","","","","","","","","","","","","",""
"10346","","","{""depression_episodes"":""more than 5"",""depression_recent"":""Within the past year""}","survey-multi-choice","13","1222118","0.0-7.0-2.0-0.0","274","1","2025-07-09 11:11:04","7701e855f2ef39aa3fd6c71abdc6918a","165.16.167.133","Mozilla/5.0 (X11; Linux x86_64) AppleWebKit/537.36 (KHTML, like Gecko) Chrome/138.0.0.0 Safari/537.36","WebKit","Chrome","138.0.0.0","Linux","","https://app.prolific.com/","en-GB,en-US;q=0.9,en;q=0.8,ar;q=0.7","667b1ca693a1d52a0447f22f","686d226cabeef709c732f8e1","686e313d7eb80da74ad69479","667b1ca693a1d52a0447f22f","2025-07-09T11:33:24.577Z","","[0,1]","","","3","mental_health","","","","","","","","","","","","","","","","","","","","","","","","","","","","","","","","","","","","","",""
"18618.70000001788","","","","survey-template","14","1240753","0.0-7.0-3.0","274","1","2025-07-09 11:11:04","7701e855f2ef39aa3fd6c71abdc6918a","165.16.167.133","Mozilla/5.0 (X11; Linux x86_64) AppleWebKit/537.36 (KHTML, like Gecko) Chrome/138.0.0.0 Safari/537.36","WebKit","Chrome","138.0.0.0","Linux","","https://app.prolific.com/","en-GB,en-US;q=0.9,en;q=0.8,ar;q=0.7","667b1ca693a1d52a0447f22f","686d226cabeef709c732f8e1","686e313d7eb80da74ad69479","667b1ca693a1d52a0447f22f","2025-07-09T11:33:43.211Z","","","","","","ius","{""Q01"":""3"",""Q02"":""3"",""Q03"":""3"",""Q04"":""3"",""Q05"":""3"",""Q06"":""3"",""Q07"":""3"",""Q08"":""0"",""Q09"":""3"",""Q10"":""3"",""Q11"":""3"",""Q12"":""3"",""Q13"":""3""}","[0,1,2,3,4,5,6,7,8,9,10,11,12]","[""Q08"",""Q01"",""Q02"",""Q03"",""Q04"",""Q05"",""Q07"",""Q06"",""Q09"",""Q10"",""Q11"",""Q12"",""Q13""]","[3710.7000000178814,7076.5,8149.200000017881,8871.90000000596,9424.300000011921,9836.90000000596,10757.59999999404,11195.59999999404,13324.90000000596,13688.59999999404,14192.59999999404,14715.300000011921,15135.800000011921]","[]","[3710.7000000178814,5506.700000017881,6025,6488.5999999940395,7076.5,8149.200000017881,8871.90000000596,9424.300000011921,9836.90000000596,10278.90000000596,10757.59999999404,11195.59999999404,13324.90000000596,13688.59999999404,14192.59999999404,14715.300000011921,15135.800000011921,18603.70000001788]","0.9230769230769231","0","0","","","","","","","","","","","","","","","","","","","","","","","","","","","","",""
"1209","1752060824423","<p style='font-size:1.1em;line-height:1.25'>In the following, we will ask you a few questions relating to your experiences over the past month.<br></p><p style='font-size:1.1em;line-height:1.25'>Press the <strong>Next</strong> button to continue.</p>","0","custom-html-button-response","15","1241967","0.0-7.0-4.0","274","1","2025-07-09 11:11:04","7701e855f2ef39aa3fd6c71abdc6918a","165.16.167.133","Mozilla/5.0 (X11; Linux x86_64) AppleWebKit/537.36 (KHTML, like Gecko) Chrome/138.0.0.0 Safari/537.36","WebKit","Chrome","138.0.0.0","Linux","","https://app.prolific.com/","en-GB,en-US;q=0.9,en;q=0.8,ar;q=0.7","667b1ca693a1d52a0447f22f","686d226cabeef709c732f8e1","686e313d7eb80da74ad69479","667b1ca693a1d52a0447f22f","2025-07-09T11:33:44.425Z","","","","","","","","","","","","","","","","","","","","","","","","","","","","","","","","","","","","","","","","","","","",""
"20037.19999998808","","","","survey-template","16","1262015","0.0-7.0-5.0","274","1","2025-07-09 11:11:04","7701e855f2ef39aa3fd6c71abdc6918a","165.16.167.133","Mozilla/5.0 (X11; Linux x86_64) AppleWebKit/537.36 (KHTML, like Gecko) Chrome/138.0.0.0 Safari/537.36","WebKit","Chrome","138.0.0.0","Linux","","https://app.prolific.com/","en-GB,en-US;q=0.9,en;q=0.8,ar;q=0.7","667b1ca693a1d52a0447f22f","686d226cabeef709c732f8e1","686e313d7eb80da74ad69479","667b1ca693a1d52a0447f22f","2025-07-09T11:34:04.473Z","","","","","","pss","{""Q01"":""1"",""Q02"":""2"",""Q03"":""1"",""Q04"":""3"",""Q05"":""2"",""Q06"":""2"",""Q07"":""2"",""Q08"":""2"",""Q09"":""2"",""Q10"":""2""}","[0,1,2,3,4,5,6,7,8,9]","[""Q01"",""Q02"",""Q03"",""Q05"",""Q04"",""Q06"",""Q07"",""Q09"",""Q08"",""Q10""]","[9341.59999999404,10186.799999982119,10755.699999988079,12117.40000000596,12819.90000000596,13553.199999988079,14163.799999982119,15111.799999982119,15483.699999988079,16100.199999988079]","[]","[0.09999999403953552,1971.699999988079,9341.59999999404,10186.799999982119,10755.699999988079,11250.299999982119,11675.5,12117.40000000596,12819.90000000596,13553.199999988079,14163.799999982119,14574.299999982119,15111.799999982119,15483.699999988079,16100.199999988079,20025.69999998808]","0.7","0.3333333333333333","0","","","","","","","","","","","","","","","","","","","","","","","","","","","","",""
"1027","1752060845505","<p style='font-size:1.1em;line-height:1.25'>Thank you for your answers! Now we will ask you a few more questions relating to your feelings in the last 24 hours.<br></p><p style='font-size:1.1em;line-height:1.25'>Press the <strong>Next</strong> button to continue.</p>","0","custom-html-button-response","17","1263048","0.0-7.0-6.0","274","1","2025-07-09 11:11:04","7701e855f2ef39aa3fd6c71abdc6918a","165.16.167.133","Mozilla/5.0 (X11; Linux x86_64) AppleWebKit/537.36 (KHTML, like Gecko) Chrome/138.0.0.0 Safari/537.36","WebKit","Chrome","138.0.0.0","Linux","","https://app.prolific.com/","en-GB,en-US;q=0.9,en;q=0.8,ar;q=0.7","667b1ca693a1d52a0447f22f","686d226cabeef709c732f8e1","686e313d7eb80da74ad69479","667b1ca693a1d52a0447f22f","2025-07-09T11:34:05.506Z","","","","","","","","","","","","","","","","","","","","","","","","","","","","","","","","","","","","","","","","","","","",""
"17898.09999999404","","","","survey-template","18","1280958","0.0-7.0-7.0","274","1","2025-07-09 11:11:04","7701e855f2ef39aa3fd6c71abdc6918a","165.16.167.133","Mozilla/5.0 (X11; Linux x86_64) AppleWebKit/537.36 (KHTML, like Gecko) Chrome/138.0.0.0 Safari/537.36","WebKit","Chrome","138.0.0.0","Linux","","https://app.prolific.com/","en-GB,en-US;q=0.9,en;q=0.8,ar;q=0.7","667b1ca693a1d52a0447f22f","686d226cabeef709c732f8e1","686e313d7eb80da74ad69479","667b1ca693a1d52a0447f22f","2025-07-09T11:34:23.416Z","","","","","","drsp","{""Q01"":""0"",""Q02"":""0"",""Q03"":""0"",""Q04"":""0"",""Q05"":""0"",""Q06"":""0"",""Q07"":""1"",""Q08"":""1"",""Q09"":""0"",""Q10"":""0"",""Q11"":""2"",""Q12"":""2"",""Q13"":""2"",""Q14"":""2"",""Q15"":""1"",""Q16"":""1"",""Q17"":""1"",""Q18"":""1"",""Q19"":""0"",""Q20"":""0"",""Q21"":""0""}","[0,1,2,3,4,5,6,7,8,9,10,11,12,13,14,15,16,17,18,19,20]","[""Q01"",""Q02"",""Q03"",""Q04"",""Q05"",""Q06"",""Q09"",""Q10"",""Q11"",""Q08"",""Q07"",""Q11"",""Q12"",""Q13"",""Q14"",""Q15"",""Q16"",""Q17"",""Q18"",""Q19"",""Q20"",""Q21""]","[2295.0999999940395,2776.5999999940395,3227.9000000059605,3660,4066.4000000059605,4454.300000011921,5600.9000000059605,5960.4000000059605,6367.300000011921,7419.699999988079,8957.300000011921,10416.800000011921,10859,11375.300000011921,11937.59999999404,12626.90000000596,13065.40000000596,13675.300000011921,14158.90000000596,14710,15848.199999988079,16297]","[]","[0.09999999403953552,2295.0999999940395,2776.5999999940395,3227.9000000059605,3660,4066.4000000059605,4454.300000011921,4842.300000011921,5203.5999999940395,5600.9000000059605,5960.4000000059605,6367.300000011921,7419.699999988079,7901.300000011921,8957.300000011921,10416.800000011921,10859,11375.300000011921,11937.59999999404,12626.90000000596,13065.40000000596,13675.300000011921,14158.90000000596,14710,15848.199999988079,16297,17879.5]","0.5238095238095238","0.2","0","","","","","","","","","","","","","","","","","","","","","","","","","","","","",""
"3114.0999999940395","","","","survey-template","19","1284077","0.0-7.0-8.0","274","1","2025-07-09 11:11:04","7701e855f2ef39aa3fd6c71abdc6918a","165.16.167.133","Mozilla/5.0 (X11; Linux x86_64) AppleWebKit/537.36 (KHTML, like Gecko) Chrome/138.0.0.0 Safari/537.36","WebKit","Chrome","138.0.0.0","Linux","","https://app.prolific.com/","en-GB,en-US;q=0.9,en;q=0.8,ar;q=0.7","667b1ca693a1d52a0447f22f","686d226cabeef709c732f8e1","686e313d7eb80da74ad69479","667b1ca693a1d52a0447f22f","2025-07-09T11:34:26.535Z","","","","","","stress","{""Q01"":""1"",""Q02"":""4"",""Q03"":""1""}","[0,1,2]","[""Q01"",""Q02"",""Q03""]","[1610.5999999940395,2099.699999988079,2508.7999999821186]","[]","[1610.5999999940395,2099.699999988079,2508.7999999821186,3110]","1","0","0","","","","","","","","","","","","","","","","","","","","","","","","","","","","",""
"28753","","","","instructions","20","1312832","0.0-8.0-0.0","274","1","2025-07-09 11:11:04","7701e855f2ef39aa3fd6c71abdc6918a","165.16.167.133","Mozilla/5.0 (X11; Linux x86_64) AppleWebKit/537.36 (KHTML, like Gecko) Chrome/138.0.0.0 Safari/537.36","WebKit","Chrome","138.0.0.0","Linux","","https://app.prolific.com/","en-GB,en-US;q=0.9,en;q=0.8,ar;q=0.7","667b1ca693a1d52a0447f22f","686d226cabeef709c732f8e1","686e313d7eb80da74ad69479","667b1ca693a1d52a0447f22f","","[{""page_index"":0,""viewing_time"":2246},{""page_index"":1,""viewing_time"":24491},{""page_index"":2,""viewing_time"":966},{""page_index"":3,""viewing_time"":1047}]","","","","","","","","","","","","","","","","","","","","","","","","","","","","","","","","","","","","","","","","","","",""
"","","","","ctl-task-cpt","21","1335002","0.0-8.0-1.0","274","1","2025-07-09 11:11:04","7701e855f2ef39aa3fd6c71abdc6918a","165.16.167.133","Mozilla/5.0 (X11; Linux x86_64) AppleWebKit/537.36 (KHTML, like Gecko) Chrome/138.0.0.0 Safari/537.36","WebKit","Chrome","138.0.0.0","Linux","","https://app.prolific.com/","en-GB,en-US;q=0.9,en;q=0.8,ar;q=0.7","667b1ca693a1d52a0447f22f","686d226cabeef709c732f8e1","686e313d7eb80da74ad69479","667b1ca693a1d52a0447f22f","","","","","","","","","","","","","","","","","win-only","3","g1:SW,g2:NE","1","0","1","1296133.2","3016.4","7017.4","19153.8","2","4","4","6","1","2","2","2","0","0.015151515151515152","1743.9","4000","2135","[""down"",""left""]","{""num_key_presses"":4,""num_perfect"":4,""num_errors"":0,""num_randdir"":0,""num_randdir_good_moves"":0,""num_whilered"":0,""num_whileblue"":0,""num_blue"":0,""num_good_moves"":4}","[465.2871023081517,460.9644072628854,0.8,465.2871023081517,460.9644072628854,105.3,465.2871023081517,460.9644072628854,205.7,465.2871023081517,460.9644072628854,310.1,465.2871023081517,460.9644072628854,411.6,465.2871023081517,460.9644072628854,516.9,471.2890544794774,535.2385653830407,619.6,473.5397865437245,594.5078430748819,721,469.78856643664597,612.5136995888589,824.8,348.2490349673009,734.8034750796197,925.7,336.2451306246495,789.5712886429666,1039.6,254.4685322903371,838.3371500349878,1139.7,232.7114556692815,849.5908103562234,1241.5,188.44705840575458,858.5937386132119,1344.5,140.4314410351491,861.5947146988748,1444.9,140.4314410351491,861.5947146988748,1550.4,140.4314410351491,861.5947146988748,1655,136.68022092807055,866.096178827369,1755,138.93095299231769,863.8454467631219,1863.1,178.69388612735034,853.342030463302,1965.2,925.1866874359822,887.1030114270089,2070.4,1123.2511090897299,860.0942266560434,2174.9,1123.2511090897299,860.0942266560434,2275.1,1123.2511090897299,860.0942266560434,2375.2,1123.2511090897299,860.0942266560434,2479.6,1121.0003770254827,860.0942266560434,2582.5,1121.0003770254827,860.0942266560434,2701.4,1121.0003770254827,860.0942266560434,2804.9,1121.0003770254827,860.0942266560434,2904.9,1238.0384443663336,908.1098440266488,3015.9,1238.0384443663336,908.1098440266488,3119.9,1243.2901525162436,908.1098440266488,3220,1244.790640559075,908.1098440266488,3325.9,1244.790640559075,908.1098440266488,3445.5,1247.041372623322,905.8591119624017,3549.7,1247.041372623322,905.8591119624017,3650.6,1247.041372623322,905.8591119624017,3754.6,1247.041372623322,905.8591119624017,3854.8,1247.041372623322,905.8591119624017,3960.2]","[1558.9,1558.6,1000,0.3,558.6,""smooth"",""down"",""down"",""good_move"",5414.5,3852.8,3290.6,1562.1,561.8,""smooth"",""left"",""left"",""good_move"",8798.3,3382.3,2693.7,5416,688.6,""smooth"",""down"",""down"",""good_move"",12038.2,3238.9,2641.5,8799.3,597.4,""smooth"",""left"",""left"",""good_move""]","",""
"3733","","","","instructions","22","1338736","0.0-8.0-2.0","274","1","2025-07-09 11:11:04","7701e855f2ef39aa3fd6c71abdc6918a","165.16.167.133","Mozilla/5.0 (X11; Linux x86_64) AppleWebKit/537.36 (KHTML, like Gecko) Chrome/138.0.0.0 Safari/537.36","WebKit","Chrome","138.0.0.0","Linux","","https://app.prolific.com/","en-GB,en-US;q=0.9,en;q=0.8,ar;q=0.7","667b1ca693a1d52a0447f22f","686d226cabeef709c732f8e1","686e313d7eb80da74ad69479","667b1ca693a1d52a0447f22f","","[{""page_index"":0,""viewing_time"":3733}]","","","","","","","","","","","","","","","","","","","","","","","","","","","","","","","","","","","","","","","","","","",""
"","","","","ctl-task-cpt","23","1377772","0.0-8.0-3.0","274","1","2025-07-09 11:11:04","7701e855f2ef39aa3fd6c71abdc6918a","165.16.167.133","Mozilla/5.0 (X11; Linux x86_64) AppleWebKit/537.36 (KHTML, like Gecko) Chrome/138.0.0.0 Safari/537.36","WebKit","Chrome","138.0.0.0","Linux","","https://app.prolific.com/","en-GB,en-US;q=0.9,en;q=0.8,ar;q=0.7","667b1ca693a1d52a0447f22f","686d226cabeef709c732f8e1","686e313d7eb80da74ad69479","667b1ca693a1d52a0447f22f","","","","","","","","","","","","","","","","","win-only","3","g1:SW,g2:NE","0.35","0","3","1322026.8","2176.4","6181.8","36025.7","2","4","8","6","1","2","2","2","0","0.015151515151515152","4005.4","4000","1065","[""down"",""left""]","{""num_key_presses"":6,""num_perfect"":3,""num_errors"":0,""num_randdir"":3,""num_randdir_good_moves"":2,""num_whilered"":0,""num_whileblue"":0,""num_blue"":4,""num_good_moves"":5}","[461.53588220107315,459.463919220054,1.3,461.53588220107315,459.463919220054,104.4,461.53588220107315,459.463919220054,204.4,463.03637024390457,451.9614790058969,305.5,463.03637024390457,451.9614790058969,410.2,463.03637024390457,451.9614790058969,512.8,463.03637024390457,451.9614790058969,618.6,463.03637024390457,451.9614790058969,728.8,463.03637024390457,451.9614790058969,829.5,463.03637024390457,451.9614790058969,934.4,463.03637024390457,451.9614790058969,1035,463.03637024390457,451.9614790058969,1140.1,463.03637024390457,451.9614790058969,1244.4,463.03637024390457,451.9614790058969,1344.5,463.03637024390457,451.9614790058969,1444.5,463.03637024390457,451.9614790058969,1544.6,463.03637024390457,451.9614790058969,1649.5,463.03637024390457,451.9614790058969,1749.5,463.03637024390457,451.9614790058969,1849.5,463.03637024390457,451.9614790058969,1949.7,463.03637024390457,451.9614790058969,2054.4,463.03637024390457,451.9614790058969,2154.5,463.03637024390457,451.9614790058969,2277.7,463.03637024390457,451.9614790058969,2387.7,463.03637024390457,451.9614790058969,2490.2,463.03637024390457,451.9614790058969,2594.6,463.03637024390457,451.9614790058969,2695.1,463.03637024390457,451.9614790058969,2798.2,465.2871023081517,451.9614790058969,2899.5,465.2871023081517,451.9614790058969,2999.5,465.2871023081517,449.71074694164975,3104.7,526.80711206424,539.740029511535,3205.1,-0.6144349910044582,964.3781456328271,3313.8,-497.2759771682048,1056.6581602669596,3414.5,-401.9949864484096,956.1254613972543,3523.8,-230.93934956562757,921.6142364121316,3624.4,-218.9354452229762,887.8532554484246,3734.6,183.1953502558446,892.3547195769189,3840.4,218.456819262383,887.8532554484246,3945]","[2380.9,2380.9,1000,0,1381,""oops"",""down"",""left"",""good_move"",5471,3088.2,2558.8,2383.1,529.2,""smooth"",""down"",""down"",""good_move"",15282.7,9811,2423,12428.9,430.8,""smooth"",""left"",""left"",""good_move"",24675.2,9391.8,2527.6,21683.8,463.8,""oops"",""down"",""up"",""bad_move"",27498.1,2821.9,2337.9,24676.3,484,""smooth"",""down"",""down"",""good_move"",29737.9,2239.2,1875,27498.7,364.2,""oops"",""down"",""down"",""good_move""]","",""
"3481","","","","instructions","24","1381254","0.0-8.0-4.0","274","1","2025-07-09 11:11:04","7701e855f2ef39aa3fd6c71abdc6918a","165.16.167.133","Mozilla/5.0 (X11; Linux x86_64) AppleWebKit/537.36 (KHTML, like Gecko) Chrome/138.0.0.0 Safari/537.36","WebKit","Chrome","138.0.0.0","Linux","","https://app.prolific.com/","en-GB,en-US;q=0.9,en;q=0.8,ar;q=0.7","667b1ca693a1d52a0447f22f","686d226cabeef709c732f8e1","686e313d7eb80da74ad69479","667b1ca693a1d52a0447f22f","","[{""page_index"":0,""viewing_time"":1693},{""page_index"":1,""viewing_time"":1787}]","","","","","","","","","","","","","","","","","","","","","","","","","","","","","","","","","","","","","","","","","","",""
"3320","","","{""green_ball"":[""Ball sometimes shakes and moves in a random direction""]}","survey-multi-select","25","1384580","0.0-8.0-5.0-0.0","274","1","2025-07-09 11:11:04","7701e855f2ef39aa3fd6c71abdc6918a","165.16.167.133","Mozilla/5.0 (X11; Linux x86_64) AppleWebKit/537.36 (KHTML, like Gecko) Chrome/138.0.0.0 Safari/537.36","WebKit","Chrome","138.0.0.0","Linux","","https://app.prolific.com/","en-GB,en-US;q=0.9,en;q=0.8,ar;q=0.7","667b1ca693a1d52a0447f22f","686d226cabeef709c732f8e1","686e313d7eb80da74ad69479","667b1ca693a1d52a0447f22f","","","[0]","","","","quiz","","","","","","","","","","","","","","","","","","","","","","","","","","","","","","","","","","","","","true",""
"1312","","<p align='center'><b>CORRECT!</b> Indeed, the green ball may sometimes shake and move in a random direction.</p>","0","html-button-response","26","1385899","0.0-8.0-5.0-1.0","274","1","2025-07-09 11:11:04","7701e855f2ef39aa3fd6c71abdc6918a","165.16.167.133","Mozilla/5.0 (X11; Linux x86_64) AppleWebKit/537.36 (KHTML, like Gecko) Chrome/138.0.0.0 Safari/537.36","WebKit","Chrome","138.0.0.0","Linux","","https://app.prolific.com/","en-GB,en-US;q=0.9,en;q=0.8,ar;q=0.7","667b1ca693a1d52a0447f22f","686d226cabeef709c732f8e1","686e313d7eb80da74ad69479","667b1ca693a1d52a0447f22f","","","","","","","","","","","","","","","","","","","","","","","","","","","","","","","","","","","","","","","","","","","","",""
"5902","","","{""yellow_ball"":[""Ball doesn‘t move and I get -1 penalty point""]}","survey-multi-select","27","1391809","0.0-8.0-6.0-0.0","274","1","2025-07-09 11:11:04","7701e855f2ef39aa3fd6c71abdc6918a","165.16.167.133","Mozilla/5.0 (X11; Linux x86_64) AppleWebKit/537.36 (KHTML, like Gecko) Chrome/138.0.0.0 Safari/537.36","WebKit","Chrome","138.0.0.0","Linux","","https://app.prolific.com/","en-GB,en-US;q=0.9,en;q=0.8,ar;q=0.7","667b1ca693a1d52a0447f22f","686d226cabeef709c732f8e1","686e313d7eb80da74ad69479","667b1ca693a1d52a0447f22f","","","[0]","","","","quiz","","","","","","","","","","","","","","","","","","","","","","","","","","","","","","","","","","","","","true",""
"1004","","<p align='center'><b>CORRECT!</b> Indeed, the yellow ball never moves and you receive a penalty.</p>","0","html-button-response","28","1392816","0.0-8.0-6.0-1.0","274","1","2025-07-09 11:11:04","7701e855f2ef39aa3fd6c71abdc6918a","165.16.167.133","Mozilla/5.0 (X11; Linux x86_64) AppleWebKit/537.36 (KHTML, like Gecko) Chrome/138.0.0.0 Safari/537.36","WebKit","Chrome","138.0.0.0","Linux","","https://app.prolific.com/","en-GB,en-US;q=0.9,en;q=0.8,ar;q=0.7","667b1ca693a1d52a0447f22f","686d226cabeef709c732f8e1","686e313d7eb80da74ad69479","667b1ca693a1d52a0447f22f","","","","","","","","","","","","","","","","","","","","","","","","","","","","","","","","","","","","","","","","","","","","",""
"4951","","","{""blue_ball"":[""Ball always moves in the direction I press""]}","survey-multi-select","29","1397772","0.0-8.0-7.0-0.0","274","1","2025-07-09 11:11:04","7701e855f2ef39aa3fd6c71abdc6918a","165.16.167.133","Mozilla/5.0 (X11; Linux x86_64) AppleWebKit/537.36 (KHTML, like Gecko) Chrome/138.0.0.0 Safari/537.36","WebKit","Chrome","138.0.0.0","Linux","","https://app.prolific.com/","en-GB,en-US;q=0.9,en;q=0.8,ar;q=0.7","667b1ca693a1d52a0447f22f","686d226cabeef709c732f8e1","686e313d7eb80da74ad69479","667b1ca693a1d52a0447f22f","","","[0]","","","","quiz","","","","","","","","","","","","","","","","","","","","","","","","","","","","","","","","","","","","","false",""
"1086","","<p align='center'><b>INCORRECT.</b> The blue ball always shakes and moves randomly.</p>","0","html-button-response","30","1398861","0.0-8.0-7.0-1.0","274","1","2025-07-09 11:11:04","7701e855f2ef39aa3fd6c71abdc6918a","165.16.167.133","Mozilla/5.0 (X11; Linux x86_64) AppleWebKit/537.36 (KHTML, like Gecko) Chrome/138.0.0.0 Safari/537.36","WebKit","Chrome","138.0.0.0","Linux","","https://app.prolific.com/","en-GB,en-US;q=0.9,en;q=0.8,ar;q=0.7","667b1ca693a1d52a0447f22f","686d226cabeef709c732f8e1","686e313d7eb80da74ad69479","667b1ca693a1d52a0447f22f","","","","","","","","","","","","","","","","","","","","","","","","","","","","","","","","","","","","","","","","","","","","",""
"1909","","","{""blue_ball"":[""Ball always shakes and moves in a random direction""]}","survey-multi-select","31","1400775","0.0-8.0-7.1-0.1","274","1","2025-07-09 11:11:04","7701e855f2ef39aa3fd6c71abdc6918a","165.16.167.133","Mozilla/5.0 (X11; Linux x86_64) AppleWebKit/537.36 (KHTML, like Gecko) Chrome/138.0.0.0 Safari/537.36","WebKit","Chrome","138.0.0.0","Linux","","https://app.prolific.com/","en-GB,en-US;q=0.9,en;q=0.8,ar;q=0.7","667b1ca693a1d52a0447f22f","686d226cabeef709c732f8e1","686e313d7eb80da74ad69479","667b1ca693a1d52a0447f22f","","","[0]","","","","quiz","","","","","","","","","","","","","","","","","","","","","","","","","","","","","","","","","","","","","true",""
"1297","","<p align='center'><b>CORRECT!</b> Indeed, the blue ball always shakes and moves in a random direction. Also there is a penalty of -1 point.</p>","0","html-button-response","32","1402076","0.0-8.0-7.1-1.1","274","1","2025-07-09 11:11:04","7701e855f2ef39aa3fd6c71abdc6918a","165.16.167.133","Mozilla/5.0 (X11; Linux x86_64) AppleWebKit/537.36 (KHTML, like Gecko) Chrome/138.0.0.0 Safari/537.36","WebKit","Chrome","138.0.0.0","Linux","","https://app.prolific.com/","en-GB,en-US;q=0.9,en;q=0.8,ar;q=0.7","667b1ca693a1d52a0447f22f","686d226cabeef709c732f8e1","686e313d7eb80da74ad69479","667b1ca693a1d52a0447f22f","","","","","","","","","","","","","","","","","","","","","","","","","","","","","","","","","","","","","","","","","","","","",""
"2430","","","{""bonus"":[""When I reach 50% of points""]}","survey-multi-select","33","1404511","0.0-8.0-8.0-0.0","274","1","2025-07-09 11:11:04","7701e855f2ef39aa3fd6c71abdc6918a","165.16.167.133","Mozilla/5.0 (X11; Linux x86_64) AppleWebKit/537.36 (KHTML, like Gecko) Chrome/138.0.0.0 Safari/537.36","WebKit","Chrome","138.0.0.0","Linux","","https://app.prolific.com/","en-GB,en-US;q=0.9,en;q=0.8,ar;q=0.7","667b1ca693a1d52a0447f22f","686d226cabeef709c732f8e1","686e313d7eb80da74ad69479","667b1ca693a1d52a0447f22f","","","[0]","","","","quiz","","","","","","","","","","","","","","","","","","","","","","","","","","","","","","","","","","","","","true",""
"1006","","<p align='center'><b>CORRECT!</b> Indeed, you receive 2 pounds extra when you reach 50% of points.</p>","0","html-button-response","34","1405522","0.0-8.0-8.0-1.0","274","1","2025-07-09 11:11:04","7701e855f2ef39aa3fd6c71abdc6918a","165.16.167.133","Mozilla/5.0 (X11; Linux x86_64) AppleWebKit/537.36 (KHTML, like Gecko) Chrome/138.0.0.0 Safari/537.36","WebKit","Chrome","138.0.0.0","Linux","","https://app.prolific.com/","en-GB,en-US;q=0.9,en;q=0.8,ar;q=0.7","667b1ca693a1d52a0447f22f","686d226cabeef709c732f8e1","686e313d7eb80da74ad69479","667b1ca693a1d52a0447f22f","","","","","","","","","","","","","","","","","","","","","","","","","","","","","","","","","","","","","","","","","","","","",""
"1200","","","","instructions","35","1406726","0.0-8.0-9.0","274","1","2025-07-09 11:11:04","7701e855f2ef39aa3fd6c71abdc6918a","165.16.167.133","Mozilla/5.0 (X11; Linux x86_64) AppleWebKit/537.36 (KHTML, like Gecko) Chrome/138.0.0.0 Safari/537.36","WebKit","Chrome","138.0.0.0","Linux","","https://app.prolific.com/","en-GB,en-US;q=0.9,en;q=0.8,ar;q=0.7","667b1ca693a1d52a0447f22f","686d226cabeef709c732f8e1","686e313d7eb80da74ad69479","667b1ca693a1d52a0447f22f","","[{""page_index"":0,""viewing_time"":1199}]","","","","","","","","","","","","","","","","","","","","","","","","","","","","","","","","","","","","","","","","","","",""
"3786","","<p>Before you start with this game please answer the following three questions yourself. </p>
  <p>Through this game, we measure several aspects of your cognitive performance, such as reaction times, multi-tasking capabilities </p>
  <p>and the ability to assess the situation you are in.</p>
  <p></p>
  <p><b>How good do you usually are in such tasks?</b></p>","100","html-slider-response","36","1410516","0.0-9.0-0.0","274","1","2025-07-09 11:11:04","7701e855f2ef39aa3fd6c71abdc6918a","165.16.167.133","Mozilla/5.0 (X11; Linux x86_64) AppleWebKit/537.36 (KHTML, like Gecko) Chrome/138.0.0.0 Safari/537.36","WebKit","Chrome","138.0.0.0","Linux","","https://app.prolific.com/","en-GB,en-US;q=0.9,en;q=0.8,ar;q=0.7","667b1ca693a1d52a0447f22f","686d226cabeef709c732f8e1","686e313d7eb80da74ad69479","667b1ca693a1d52a0447f22f","2025-07-09T11:36:32.975Z","","","","","","PreSkillQ","","","","","","","","","","","","","","","","","","","","","","","","","","","","","","","","","","","","","","50"
"4287","","<div style=""width:500px;"">
  <p>How well do you think you will perform in this task compared to other participants?</p>
  </div>","98","html-slider-response","37","1414809","0.0-9.0-1.0","274","1","2025-07-09 11:11:04","7701e855f2ef39aa3fd6c71abdc6918a","165.16.167.133","Mozilla/5.0 (X11; Linux x86_64) AppleWebKit/537.36 (KHTML, like Gecko) Chrome/138.0.0.0 Safari/537.36","WebKit","Chrome","138.0.0.0","Linux","","https://app.prolific.com/","en-GB,en-US;q=0.9,en;q=0.8,ar;q=0.7","667b1ca693a1d52a0447f22f","686d226cabeef709c732f8e1","686e313d7eb80da74ad69479","667b1ca693a1d52a0447f22f","2025-07-09T11:36:37.268Z","","","","","","PrePerfQ","","","","","","","","","","","","","","","","","","","","","","","","","","","","","","","","","","","","","","50"
"5986","","<div style=""width:500px;"">
  <p>What best describes how you currently feel?</p>
  </div>","98","html-slider-response","38","1420799","0.0-9.0-2.0","274","1","2025-07-09 11:11:04","7701e855f2ef39aa3fd6c71abdc6918a","165.16.167.133","Mozilla/5.0 (X11; Linux x86_64) AppleWebKit/537.36 (KHTML, like Gecko) Chrome/138.0.0.0 Safari/537.36","WebKit","Chrome","138.0.0.0","Linux","","https://app.prolific.com/","en-GB,en-US;q=0.9,en;q=0.8,ar;q=0.7","667b1ca693a1d52a0447f22f","686d226cabeef709c732f8e1","686e313d7eb80da74ad69479","667b1ca693a1d52a0447f22f","2025-07-09T11:36:43.258Z","","","","","","PreMotivationQ","","","","","","","","","","","","","","","","","","","","","","","","","","","","","","","","","","","","","","50"
"","","","","ctl-task-cpt","39","1444133","0.0-10.0-0.0","274","1","2025-07-09 11:11:04","7701e855f2ef39aa3fd6c71abdc6918a","165.16.167.133","Mozilla/5.0 (X11; Linux x86_64) AppleWebKit/537.36 (KHTML, like Gecko) Chrome/138.0.0.0 Safari/537.36","WebKit","Chrome","138.0.0.0","Linux","","https://app.prolific.com/","en-GB,en-US;q=0.9,en;q=0.8,ar;q=0.7","667b1ca693a1d52a0447f22f","686d226cabeef709c732f8e1","686e313d7eb80da74ad69479","667b1ca693a1d52a0447f22f","2025-07-09T11:37:06.591Z","","","","","","","","","","","","","","","","win-only","0","g1:NW,g2:SE","1","1","0","1404098.4","4471.2","9472.4","20312.4","1","4","4","6","1","1","1","1","0","0.007575757575757576","2097.9","3000","1775","[""left"",""up""]","{""num_key_presses"":4,""num_perfect"":4,""num_errors"":0,""num_randdir"":0,""num_randdir_good_moves"":0,""num_whilered"":0,""num_whileblue"":0,""num_blue"":0,""num_good_moves"":4}","[466.7875903509831,462.4648953057168,0.6,466.7875903509831,462.4648953057168,100.8,466.7875903509831,460.2141632414697,205.3,466.7875903509831,460.2141632414697,306.1,466.7875903509831,460.2141632414697,415.5,460.03539415824173,467.7166034556268,530.9,445.78075775134323,465.46587139137966,635.1,618.3368826769566,593.0073550320504,735.2,859.9154575728154,773.8161641932367,835.2,859.9154575728154,758.8112837649225,935.6,859.9154575728154,758.8112837649225,1035.8,857.6647255085683,779.8181163645623,1136,857.6647255085683,779.8181163645623,1241.1,857.6647255085683,781.3186044073938,1345.5,857.6647255085683,781.3186044073938,1445.6,628.8402989767766,627.5185800171731,1553,105.92021605002643,194.62777966030822,1661.4,105.92021605002643,194.62777966030822,1770.1,102.16899594294787,148.86289435394988,1875.6,96.16704377162219,126.35557371147857,1976.2,96.16704377162219,124.85508566864715,2079.8,96.16704377162219,124.85508566864715,2180,102.16899594294787,127.85606175430999,2285.6,299.4831735752797,217.88534432419524,2385.8,668.6032321118092,318.4180431939004,2486.5,847.911553230164,405.44634967812283,2588.1,907.9310749434209,472.21806758412106,2690.4,1172.7672145031668,589.2561349249719,2790.9,1390.3379807137228,615.5146756745218,2895.7,1390.3379807137228,615.5146756745218,2996.9,1390.3379807137228,615.5146756745218,3101.2,1390.3379807137228,615.5146756745218,3205.3,1390.3379807137228,615.5146756745218,3305.4,1390.3379807137228,615.5146756745218,3413.2,1390.3379807137228,615.5146756745218,3514.9,1390.3379807137228,615.5146756745218,3621.9,1390.3379807137228,615.5146756745218,3724.7,1390.3379807137228,615.5146756745218,3825,1390.3379807137228,615.5146756745218,3925.7,1390.3379807137228,615.5146756745218,4032.2,1390.3379807137228,615.5146756745218,4135.5,1390.3379807137228,615.5146756745218,4235.9,1390.3379807137228,615.5146756745218,4335.9,1390.3379807137228,615.5146756745218,4440.4,1390.3379807137228,615.5146756745218,4540.8,1390.3379807137228,615.5146756745218,4646,1390.3379807137228,615.5146756745218,4747,1390.3379807137228,615.5146756745218,4850.7,1390.3379807137228,615.5146756745218,4952.9]","[1491.4,1491.4,1000,0,491.4,""smooth"",""up"",""up"",""good_move"",4467,2974.8,2581.7,1492.2,393.1,""smooth"",""left"",""left"",""good_move"",7453.2,2985.3,2608,4467.9,377.3,""smooth"",""up"",""up"",""good_move"",10730.8,3277,2900.8,7453.8,376.4,""smooth"",""left"",""left"",""good_move""]","",""
"5676","","<div style=""width:500px;"">
  <p>What determined the result of this run?</p>
  </div>","100","html-slider-response","40","1449812","0.0-10.0-1.0","274","1","2025-07-09 11:11:04","7701e855f2ef39aa3fd6c71abdc6918a","165.16.167.133","Mozilla/5.0 (X11; Linux x86_64) AppleWebKit/537.36 (KHTML, like Gecko) Chrome/138.0.0.0 Safari/537.36","WebKit","Chrome","138.0.0.0","Linux","","https://app.prolific.com/","en-GB,en-US;q=0.9,en;q=0.8,ar;q=0.7","667b1ca693a1d52a0447f22f","686d226cabeef709c732f8e1","686e313d7eb80da74ad69479","667b1ca693a1d52a0447f22f","2025-07-09T11:37:12.270Z","","","","","","AttribQ","","","","","","","","","","","","","","","","","","","","","","","","","","","","","","","","","","","","","","50"
"3391","","<div style=""width:500px;"">
  <p>How much control did you have over the ball?</p>
  </div>","99","html-slider-response","41","1453206","0.0-10.0-2.0","274","1","2025-07-09 11:11:04","7701e855f2ef39aa3fd6c71abdc6918a","165.16.167.133","Mozilla/5.0 (X11; Linux x86_64) AppleWebKit/537.36 (KHTML, like Gecko) Chrome/138.0.0.0 Safari/537.36","WebKit","Chrome","138.0.0.0","Linux","","https://app.prolific.com/","en-GB,en-US;q=0.9,en;q=0.8,ar;q=0.7","667b1ca693a1d52a0447f22f","686d226cabeef709c732f8e1","686e313d7eb80da74ad69479","667b1ca693a1d52a0447f22f","2025-07-09T11:37:15.665Z","","","","","","ControlQ","","","","","","","","","","","","","","","","","","","","","","","","","","","","","","","","","","","","","","50"
"9448","","<div style=""width:500px;"">
  <p>How would you describe your current emotional state?</p>
  </div>","0","html-slider-response","42","1462658","0.0-10.0-3.0","274","1","2025-07-09 11:11:04","7701e855f2ef39aa3fd6c71abdc6918a","165.16.167.133","Mozilla/5.0 (X11; Linux x86_64) AppleWebKit/537.36 (KHTML, like Gecko) Chrome/138.0.0.0 Safari/537.36","WebKit","Chrome","138.0.0.0","Linux","","https://app.prolific.com/","en-GB,en-US;q=0.9,en;q=0.8,ar;q=0.7","667b1ca693a1d52a0447f22f","686d226cabeef709c732f8e1","686e313d7eb80da74ad69479","667b1ca693a1d52a0447f22f","2025-07-09T11:37:25.116Z","","","","","","StressQ","","","","","","","","","","","","","","","","","","","","","","","","","","","","","","","","","","","","","","50"
"4945","","<div style=""width:500px;"">
  <p>What best describes how you currently feel?</p>
  </div>","100","html-slider-response","43","1467606","0.0-10.0-4.0","274","1","2025-07-09 11:11:04","7701e855f2ef39aa3fd6c71abdc6918a","165.16.167.133","Mozilla/5.0 (X11; Linux x86_64) AppleWebKit/537.36 (KHTML, like Gecko) Chrome/138.0.0.0 Safari/537.36","WebKit","Chrome","138.0.0.0","Linux","","https://app.prolific.com/","en-GB,en-US;q=0.9,en;q=0.8,ar;q=0.7","667b1ca693a1d52a0447f22f","686d226cabeef709c732f8e1","686e313d7eb80da74ad69479","667b1ca693a1d52a0447f22f","2025-07-09T11:37:30.065Z","","","","","","MotivationQ","","","","","","","","","","","","","","","","","","","","","","","","","","","","","","","","","","","","","","50"
"","","","","ctl-task-cpt","44","1499153","0.0-10.0-0.1","274","1","2025-07-09 11:11:04","7701e855f2ef39aa3fd6c71abdc6918a","165.16.167.133","Mozilla/5.0 (X11; Linux x86_64) AppleWebKit/537.36 (KHTML, like Gecko) Chrome/138.0.0.0 Safari/537.36","WebKit","Chrome","138.0.0.0","Linux","","https://app.prolific.com/","en-GB,en-US;q=0.9,en;q=0.8,ar;q=0.7","667b1ca693a1d52a0447f22f","686d226cabeef709c732f8e1","686e313d7eb80da74ad69479","667b1ca693a1d52a0447f22f","2025-07-09T11:38:01.611Z","","","","","","","","","","","","","","","","win-only","2","g1:SE,g2:NW","0.9","2","0","1450898.6","5054.9","10059.4","28537.7","1","4","8","6","2","8","8","9","1","0.06818181818181818","1858.2","3000","745","[""left"",""up""]","{""num_key_presses"":6,""num_perfect"":5,""num_errors"":0,""num_randdir"":1,""num_randdir_good_moves"":1,""num_whilered"":0,""num_whileblue"":0,""num_blue"":0,""num_good_moves"":6}","[460.78563817965744,461.7146512843011,0.5,460.78563817965744,461.7146512843011,102.2,471.2890544794774,461.7146512843011,203.2,790.1427635811543,470.71757954128964,310,1041.4745107554174,483.4717279053567,412,1041.4745107554174,483.4717279053567,517.4,1041.4745107554174,483.4717279053567,618.6,1041.4745107554174,483.4717279053567,722.1,1012.2149939202046,591.506866989219,823,994.9593814276433,725.8005468226312,924.3,993.4588933848119,736.3039631224511,1024.6,888.4247303866124,815.0795853711007,1127.9,220.70755132663012,358.18097632893307,1230.8,-1.3646790124201686,76.08922427662597,1334.5,-4.36565509808301,65.58580797680602,1437,5.387517180321225,50.580927548491815,1540.7,45.15045031535388,69.33702808388458,1642,70.65874704348803,78.3399563408731,1750.1,70.65874704348803,78.3399563408731,1853.2,72.90947910773517,78.3399563408731,1954.6,809.6491081379628,289.1585263586877,2057.7,1274.0501573942877,399.44439750679715,2165.7,1274.0501573942877,399.44439750679715,2267.6,1274.0501573942877,399.44439750679715,2367.6,1274.0501573942877,399.44439750679715,2468.5,1274.0501573942877,399.44439750679715,2572.9,1274.0501573942877,399.44439750679715,2673.1,1274.0501573942877,399.44439750679715,2777.1,1274.0501573942877,399.44439750679715,2877.2,1274.0501573942877,399.44439750679715,2978.4,1274.0501573942877,399.44439750679715,3078.5,1274.0501573942877,399.44439750679715,3187.1,1274.0501573942877,399.44439750679715,3287.7,1274.0501573942877,399.44439750679715,3392.7,1274.0501573942877,399.44439750679715,3497.7,1274.0501573942877,399.44439750679715,3602.7,1274.0501573942877,399.44439750679715,3707.7,1274.0501573942877,399.44439750679715,3812,1274.0501573942877,399.44439750679715,3917.5,1274.0501573942877,399.44439750679715,4018.3,1274.0501573942877,399.44439750679715,4122.3,1274.0501573942877,399.44439750679715,4222.5,1274.0501573942877,399.44439750679715,4322.6,1274.0501573942877,399.44439750679715,4422.8,1274.0501573942877,399.44439750679715,4522.9,1274.0501573942877,399.44439750679715,4626.8,1274.0501573942877,399.44439750679715,4727.6,1274.0501573942877,399.44439750679715,4832.5,1274.0501573942877,399.44439750679715,4932.9]","[1494.3,1494.3,1000,0,494.3,""smooth"",""up"",""up"",""good_move"",4504,3008.8,2487.6,1495.2,521.2,""smooth"",""left"",""left"",""good_move"",7308.8,2804,2336.8,4504.8,467.2,""oops"",""left"",""left"",""good_move"",10511.1,3201.8,2832.4,7309.3,369.4,""smooth"",""up"",""up"",""good_move"",14112.1,3600.4,3174.1,10511.7,426.3,""smooth"",""left"",""left"",""good_move"",18382.2,4269.5,3908.8,14112.8,360.7,""smooth"",""up"",""up"",""good_move""]","",""
"3912","","<div style=""width:500px;"">
  <p>What determined the result of this run?</p>
  </div>","100","html-slider-response","45","1503068","0.0-10.0-1.1","274","1","2025-07-09 11:11:04","7701e855f2ef39aa3fd6c71abdc6918a","165.16.167.133","Mozilla/5.0 (X11; Linux x86_64) AppleWebKit/537.36 (KHTML, like Gecko) Chrome/138.0.0.0 Safari/537.36","WebKit","Chrome","138.0.0.0","Linux","","https://app.prolific.com/","en-GB,en-US;q=0.9,en;q=0.8,ar;q=0.7","667b1ca693a1d52a0447f22f","686d226cabeef709c732f8e1","686e313d7eb80da74ad69479","667b1ca693a1d52a0447f22f","2025-07-09T11:38:05.526Z","","","","","","AttribQ","","","","","","","","","","","","","","","","","","","","","","","","","","","","","","","","","","","","","","50"
"6795","","<div style=""width:500px;"">
  <p>How much control did you have over the ball?</p>
  </div>","100","html-slider-response","46","1509866","0.0-10.0-2.1","274","1","2025-07-09 11:11:04","7701e855f2ef39aa3fd6c71abdc6918a","165.16.167.133","Mozilla/5.0 (X11; Linux x86_64) AppleWebKit/537.36 (KHTML, like Gecko) Chrome/138.0.0.0 Safari/537.36","WebKit","Chrome","138.0.0.0","Linux","","https://app.prolific.com/","en-GB,en-US;q=0.9,en;q=0.8,ar;q=0.7","667b1ca693a1d52a0447f22f","686d226cabeef709c732f8e1","686e313d7eb80da74ad69479","667b1ca693a1d52a0447f22f","2025-07-09T11:38:12.325Z","","","","","","ControlQ","","","","","","","","","","","","","","","","","","","","","","","","","","","","","","","","","","","","","","50"
"6867","","<div style=""width:500px;"">
  <p>How would you describe your current emotional state?</p>
  </div>","3","html-slider-response","47","1516737","0.0-10.0-3.1","274","1","2025-07-09 11:11:04","7701e855f2ef39aa3fd6c71abdc6918a","165.16.167.133","Mozilla/5.0 (X11; Linux x86_64) AppleWebKit/537.36 (KHTML, like Gecko) Chrome/138.0.0.0 Safari/537.36","WebKit","Chrome","138.0.0.0","Linux","","https://app.prolific.com/","en-GB,en-US;q=0.9,en;q=0.8,ar;q=0.7","667b1ca693a1d52a0447f22f","686d226cabeef709c732f8e1","686e313d7eb80da74ad69479","667b1ca693a1d52a0447f22f","2025-07-09T11:38:19.195Z","","","","","","StressQ","","","","","","","","","","","","","","","","","","","","","","","","","","","","","","","","","","","","","","50"
"5632","","<div style=""width:500px;"">
  <p>What best describes how you currently feel?</p>
  </div>","99","html-slider-response","48","1522373","0.0-10.0-4.1","274","1","2025-07-09 11:11:04","7701e855f2ef39aa3fd6c71abdc6918a","165.16.167.133","Mozilla/5.0 (X11; Linux x86_64) AppleWebKit/537.36 (KHTML, like Gecko) Chrome/138.0.0.0 Safari/537.36","WebKit","Chrome","138.0.0.0","Linux","","https://app.prolific.com/","en-GB,en-US;q=0.9,en;q=0.8,ar;q=0.7","667b1ca693a1d52a0447f22f","686d226cabeef709c732f8e1","686e313d7eb80da74ad69479","667b1ca693a1d52a0447f22f","2025-07-09T11:38:24.831Z","","","","","","MotivationQ","","","","","","","","","","","","","","","","","","","","","","","","","","","","","","","","","","","","","","50"
"","","","","ctl-task-cpt","49","1553859","0.0-10.0-0.2","274","1","2025-07-09 11:11:04","7701e855f2ef39aa3fd6c71abdc6918a","165.16.167.133","Mozilla/5.0 (X11; Linux x86_64) AppleWebKit/537.36 (KHTML, like Gecko) Chrome/138.0.0.0 Safari/537.36","WebKit","Chrome","138.0.0.0","Linux","","https://app.prolific.com/","en-GB,en-US;q=0.9,en;q=0.8,ar;q=0.7","667b1ca693a1d52a0447f22f","686d226cabeef709c732f8e1","686e313d7eb80da74ad69479","667b1ca693a1d52a0447f22f","2025-07-09T11:38:56.317Z","","","","","","","","","","","","","","","","win-only","2","g1:SE,g2:NW","0.8","3","0","1505665.8","3157.1","8161.2","28471.2","1","4","4","6","2","-4","-4","5","9","0.03787878787878788","1706","3000","-2820","[""left"",""up""]","{""num_key_presses"":5,""num_perfect"":4,""num_errors"":0,""num_randdir"":1,""num_randdir_good_moves"":1,""num_whilered"":0,""num_whileblue"":0,""num_blue"":1,""num_good_moves"":5}","[457.0344180725789,462.4648953057168,0.4,457.0344180725789,462.4648953057168,100.2,459.285150136826,462.4648953057168,204.8,466.0373463295674,458.71367519863827,305.1,632.5915190838551,457.96343117722256,408.5,642.3446913622594,470.71757954128964,511.6,709.1164092682576,550.243445811355,615.4,704.6149451397633,559.9966180897592,715.4,700.8637250326848,601.2600392676233,821.3,702.3642130755162,603.5107713318704,925.2,412.01977678763626,401.6951295710443,1032.5,166.68998178469897,113.60142534741149,1145.6,154.6860774420476,108.34971719750152,1248.6,152.43534537780047,106.09898513325439,1348.9,148.68412527072192,106.09898513325439,1450.3,146.4333932064748,106.09898513325439,1554,136.68022092807055,106.09898513325439,1658.6,136.68022092807055,104.59849709042297,1764.3,234.96218773352862,124.10484164723144,1866.6,1048.9769509695745,277.15462201603634,1970.9,1043.7252428196646,277.15462201603634,2076.4,1043.7252428196646,277.15462201603634,2177.7,1043.7252428196646,277.15462201603634,2277.8,1043.7252428196646,277.15462201603634,2380,1043.7252428196646,277.15462201603634,2481.2,1043.7252428196646,277.15462201603634,2581.4,1043.7252428196646,277.15462201603634,2685.8,1043.7252428196646,277.15462201603634,2790.6,1043.7252428196646,277.15462201603634,2893.7,1043.7252428196646,277.15462201603634,2995,1043.7252428196646,277.15462201603634,3098.8,1043.7252428196646,277.15462201603634,3199.8,1043.7252428196646,277.15462201603634,3303.7,1043.7252428196646,277.15462201603634,3403.7,1043.7252428196646,277.15462201603634,3503.7,1043.7252428196646,277.15462201603634,3609.3,1043.7252428196646,277.15462201603634,3713.7,1043.7252428196646,277.15462201603634,3818.8,1043.7252428196646,277.15462201603634,3919.7,1043.7252428196646,277.15462201603634,4020.1,1043.7252428196646,277.15462201603634,4123.6,1043.7252428196646,277.15462201603634,4229.4,1043.7252428196646,277.15462201603634,4339.2,1043.7252428196646,277.15462201603634,4443.6,1043.7252428196646,277.15462201603634,4543.6,1043.7252428196646,277.15462201603634,4643.8,1043.7252428196646,277.15462201603634,4743.8,1043.7252428196646,277.15462201603634,4844.2,1043.7252428196646,277.15462201603634,4948.6]","[1982.3,1982.3,1000,0,982.3,""smooth"",""up"",""up"",""good_move"",4142.4,2159.4,1694.5,1983,464.9,""smooth"",""left"",""left"",""good_move"",7344.9,3201.5,2303,4143.5,898.5,""oops"",""up"",""left"",""good_move"",10431.3,3085.6,2599.9,7345.7,485.7,""smooth"",""up"",""up"",""good_move"",13566.3,3134.5,2657.8,10431.9,476.7,""smooth"",""up"",""up"",""good_move""]","",""
"4725","","<div style=""width:500px;"">
  <p>What determined the result of this run?</p>
  </div>","62","html-slider-response","50","1558587","0.0-10.0-1.2","274","1","2025-07-09 11:11:04","7701e855f2ef39aa3fd6c71abdc6918a","165.16.167.133","Mozilla/5.0 (X11; Linux x86_64) AppleWebKit/537.36 (KHTML, like Gecko) Chrome/138.0.0.0 Safari/537.36","WebKit","Chrome","138.0.0.0","Linux","","https://app.prolific.com/","en-GB,en-US;q=0.9,en;q=0.8,ar;q=0.7","667b1ca693a1d52a0447f22f","686d226cabeef709c732f8e1","686e313d7eb80da74ad69479","667b1ca693a1d52a0447f22f","2025-07-09T11:39:01.045Z","","","","","","AttribQ","","","","","","","","","","","","","","","","","","","","","","","","","","","","","","","","","","","","","","50"
"10673","","<div style=""width:500px;"">
  <p>How much control did you have over the ball?</p>
  </div>","29","html-slider-response","51","1569264","0.0-10.0-2.2","274","1","2025-07-09 11:11:04","7701e855f2ef39aa3fd6c71abdc6918a","165.16.167.133","Mozilla/5.0 (X11; Linux x86_64) AppleWebKit/537.36 (KHTML, like Gecko) Chrome/138.0.0.0 Safari/537.36","WebKit","Chrome","138.0.0.0","Linux","","https://app.prolific.com/","en-GB,en-US;q=0.9,en;q=0.8,ar;q=0.7","667b1ca693a1d52a0447f22f","686d226cabeef709c732f8e1","686e313d7eb80da74ad69479","667b1ca693a1d52a0447f22f","2025-07-09T11:39:11.723Z","","","","","","ControlQ","","","","","","","","","","","","","","","","","","","","","","","","","","","","","","","","","","","","","","50"
"5864","","<div style=""width:500px;"">
  <p>How would you describe your current emotional state?</p>
  </div>","72","html-slider-response","52","1575133","0.0-10.0-3.2","274","1","2025-07-09 11:11:04","7701e855f2ef39aa3fd6c71abdc6918a","165.16.167.133","Mozilla/5.0 (X11; Linux x86_64) AppleWebKit/537.36 (KHTML, like Gecko) Chrome/138.0.0.0 Safari/537.36","WebKit","Chrome","138.0.0.0","Linux","","https://app.prolific.com/","en-GB,en-US;q=0.9,en;q=0.8,ar;q=0.7","667b1ca693a1d52a0447f22f","686d226cabeef709c732f8e1","686e313d7eb80da74ad69479","667b1ca693a1d52a0447f22f","2025-07-09T11:39:17.592Z","","","","","","StressQ","","","","","","","","","","","","","","","","","","","","","","","","","","","","","","","","","","","","","","50"
"11532","","<div style=""width:500px;"">
  <p>What best describes how you currently feel?</p>
  </div>","71","html-slider-response","53","1586668","0.0-10.0-4.2","274","1","2025-07-09 11:11:04","7701e855f2ef39aa3fd6c71abdc6918a","165.16.167.133","Mozilla/5.0 (X11; Linux x86_64) AppleWebKit/537.36 (KHTML, like Gecko) Chrome/138.0.0.0 Safari/537.36","WebKit","Chrome","138.0.0.0","Linux","","https://app.prolific.com/","en-GB,en-US;q=0.9,en;q=0.8,ar;q=0.7","667b1ca693a1d52a0447f22f","686d226cabeef709c732f8e1","686e313d7eb80da74ad69479","667b1ca693a1d52a0447f22f","2025-07-09T11:39:29.126Z","","","","","","MotivationQ","","","","","","","","","","","","","","","","","","","","","","","","","","","","","","","","","","","","","","50"
"","","","","ctl-task-cpt","54","1615047","0.0-10.0-0.3","274","1","2025-07-09 11:11:04","7701e855f2ef39aa3fd6c71abdc6918a","165.16.167.133","Mozilla/5.0 (X11; Linux x86_64) AppleWebKit/537.36 (KHTML, like Gecko) Chrome/138.0.0.0 Safari/537.36","WebKit","Chrome","138.0.0.0","Linux","","https://app.prolific.com/","en-GB,en-US;q=0.9,en;q=0.8,ar;q=0.7","667b1ca693a1d52a0447f22f","686d226cabeef709c732f8e1","686e313d7eb80da74ad69479","667b1ca693a1d52a0447f22f","2025-07-09T11:39:57.505Z","","","","","","","","","","","","","","","","win-only","0","g1:NW,g2:SE","0.7","4","0","1569959.9","3499.2","8507.6","25358.6","1","4","8","6","2","8","8","13","5","0.09848484848484848","1394.5","3000","1485","[""down"",""right""]","{""num_key_presses"":6,""num_perfect"":4,""num_errors"":0,""num_randdir"":2,""num_randdir_good_moves"":2,""num_whilered"":0,""num_whileblue"":0,""num_blue"":0,""num_good_moves"":6}","[449.5319778584218,454.9624550915597,0.4,449.5319778584218,454.9624550915597,107.3,449.5319778584218,454.9624550915597,212.6,449.5319778584218,457.21318715580685,319.6,456.2841740511632,477.46977573403103,420.1,461.53588220107315,492.47465616234524,521,461.53588220107315,500.72734039791806,625,461.53588220107315,505.97904854782803,730.1,544.0627245568013,716.047374544227,835.5,847.1613092087483,907.3596000052331,941.7,847.1613092087483,900.6074038124917,1042.1,847.1613092087483,886.3527674055932,1148.2,831.4061847590184,848.090322313392,1252,831.4061847590184,848.090322313392,1353.4,831.4061847590184,848.090322313392,1455.4,894.4266825579381,850.3410543776391,1558.1,1421.097985591767,806.8269011355279,1660.1,1421.097985591767,803.8259250498651,1762.3,1421.097985591767,803.8259250498651,1863.9,1421.097985591767,803.8259250498651,1967.9,1421.097985591767,803.8259250498651,2070.5,1421.097985591767,803.8259250498651,2171.1,1421.097985591767,803.8259250498651,2276.5,1421.097985591767,803.8259250498651,2377.2,1421.097985591767,803.8259250498651,2478.2,1421.097985591767,803.8259250498651,2580.8,1421.097985591767,803.8259250498651,2698.1,1421.097985591767,803.8259250498651,2799.5,1421.097985591767,803.8259250498651,2905.7,1421.097985591767,803.8259250498651,3010.9,1421.097985591767,803.8259250498651,3112,1421.097985591767,803.8259250498651,3213,1421.097985591767,803.8259250498651,3317.9,1421.097985591767,803.8259250498651,3422.2,1421.097985591767,803.8259250498651,3527.3,1421.097985591767,803.8259250498651,3629,1421.097985591767,803.8259250498651,3730.8,1421.097985591767,803.8259250498651,3835.6,1421.097985591767,803.8259250498651,3939.6,1421.097985591767,803.8259250498651,4041.4,1421.097985591767,803.8259250498651,4142.7,1421.097985591767,803.8259250498651,4244.1,1421.097985591767,803.8259250498651,4346.1,1421.097985591767,803.8259250498651,4451.6,1421.097985591767,803.8259250498651,4554.5,1421.097985591767,803.8259250498651,4655.1,1421.097985591767,803.8259250498651,4761.1,1421.097985591767,803.8259250498651,4866.5,1421.097985591767,803.8259250498651,4974.7]","[1465.6,1465.6,1000,0,465.6,""oops"",""right"",""down"",""good_move"",4534.8,3068.4,2578.6,1466.4,489.8,""smooth"",""right"",""right"",""good_move"",8171.9,3636.4,3177.4,4535.5,459,""smooth"",""right"",""right"",""good_move"",11417.8,3245.5,2854.9,8172.3,390.6,""smooth"",""down"",""down"",""good_move"",14388,2969.7,2512.1,11418.3,457.6,""smooth"",""right"",""right"",""good_move"",16662.6,2274.1,1786.7,14388.5,487.4,""oops"",""down"",""down"",""good_move""]","",""
"3193","","<div style=""width:500px;"">
  <p>What determined the result of this run?</p>
  </div>","100","html-slider-response","55","1618244","0.0-10.0-1.3","274","1","2025-07-09 11:11:04","7701e855f2ef39aa3fd6c71abdc6918a","165.16.167.133","Mozilla/5.0 (X11; Linux x86_64) AppleWebKit/537.36 (KHTML, like Gecko) Chrome/138.0.0.0 Safari/537.36","WebKit","Chrome","138.0.0.0","Linux","","https://app.prolific.com/","en-GB,en-US;q=0.9,en;q=0.8,ar;q=0.7","667b1ca693a1d52a0447f22f","686d226cabeef709c732f8e1","686e313d7eb80da74ad69479","667b1ca693a1d52a0447f22f","2025-07-09T11:40:00.702Z","","","","","","AttribQ","","","","","","","","","","","","","","","","","","","","","","","","","","","","","","","","","","","","","","50"
"7085","","<div style=""width:500px;"">
  <p>How much control did you have over the ball?</p>
  </div>","93","html-slider-response","56","1625332","0.0-10.0-2.3","274","1","2025-07-09 11:11:04","7701e855f2ef39aa3fd6c71abdc6918a","165.16.167.133","Mozilla/5.0 (X11; Linux x86_64) AppleWebKit/537.36 (KHTML, like Gecko) Chrome/138.0.0.0 Safari/537.36","WebKit","Chrome","138.0.0.0","Linux","","https://app.prolific.com/","en-GB,en-US;q=0.9,en;q=0.8,ar;q=0.7","667b1ca693a1d52a0447f22f","686d226cabeef709c732f8e1","686e313d7eb80da74ad69479","667b1ca693a1d52a0447f22f","2025-07-09T11:40:07.790Z","","","","","","ControlQ","","","","","","","","","","","","","","","","","","","","","","","","","","","","","","","","","","","","","","50"
"15050","","<div style=""width:500px;"">
  <p>How would you describe your current emotional state?</p>
  </div>","2","html-slider-response","57","1640384","0.0-10.0-3.3","274","1","2025-07-09 11:11:04","7701e855f2ef39aa3fd6c71abdc6918a","165.16.167.133","Mozilla/5.0 (X11; Linux x86_64) AppleWebKit/537.36 (KHTML, like Gecko) Chrome/138.0.0.0 Safari/537.36","WebKit","Chrome","138.0.0.0","Linux","","https://app.prolific.com/","en-GB,en-US;q=0.9,en;q=0.8,ar;q=0.7","667b1ca693a1d52a0447f22f","686d226cabeef709c732f8e1","686e313d7eb80da74ad69479","667b1ca693a1d52a0447f22f","2025-07-09T11:40:22.843Z","","","","","","StressQ","","","","","","","","","","","","","","","","","","","","","","","","","","","","","","","","","","","","","","50"
"11214","","<div style=""width:500px;"">
  <p>What best describes how you currently feel?</p>
  </div>","99","html-slider-response","58","1651601","0.0-10.0-4.3","274","1","2025-07-09 11:11:04","7701e855f2ef39aa3fd6c71abdc6918a","165.16.167.133","Mozilla/5.0 (X11; Linux x86_64) AppleWebKit/537.36 (KHTML, like Gecko) Chrome/138.0.0.0 Safari/537.36","WebKit","Chrome","138.0.0.0","Linux","","https://app.prolific.com/","en-GB,en-US;q=0.9,en;q=0.8,ar;q=0.7","667b1ca693a1d52a0447f22f","686d226cabeef709c732f8e1","686e313d7eb80da74ad69479","667b1ca693a1d52a0447f22f","2025-07-09T11:40:34.059Z","","","","","","MotivationQ","","","","","","","","","","","","","","","","","","","","","","","","","","","","","","","","","","","","","","50"
"","","","","ctl-task-cpt","59","1737916","0.0-10.0-0.4","274","1","2025-07-09 11:11:04","7701e855f2ef39aa3fd6c71abdc6918a","165.16.167.133","Mozilla/5.0 (X11; Linux x86_64) AppleWebKit/537.36 (KHTML, like Gecko) Chrome/138.0.0.0 Safari/537.36","WebKit","Chrome","138.0.0.0","Linux","","https://app.prolific.com/","en-GB,en-US;q=0.9,en;q=0.8,ar;q=0.7","667b1ca693a1d52a0447f22f","686d226cabeef709c732f8e1","686e313d7eb80da74ad69479","667b1ca693a1d52a0447f22f","2025-07-09T11:42:00.374Z","","","","","","","","","","","","","","","","win-only","1","g1:NE,g2:SW","0.6","5","0","1634892.9","29184.3","34187.8","83298.7","1","4","8","6","2","-8","-10","3","13","0.022727272727272728","1490.5","3000","-1995","[""down"",""left""]","{""num_key_presses"":11,""num_perfect"":5,""num_errors"":2,""num_randdir"":4,""num_randdir_good_moves"":1,""num_whilered"":0,""num_whileblue"":2,""num_blue"":6,""num_good_moves"":7}","[448.7817338370061,469.2170914984582,0.6,448.7817338370061,469.2170914984582,103.7,451.0324659012532,466.9663594342111,210.7,452.5329539440846,463.21513932713253,314.6,460.78563817965744,460.9644072628854,420.3,568.8207772635197,475.9692876911996,526.9,631.0910310410237,404.6961056567071,630.7,563.5690691136098,442.95855074890835,736.7,332.49391051757095,818.8308054781793,839.2,290.48024531829117,862.3449587202905,945.2,179.44413014876605,881.851303277099,1049.4,105.16997202861072,851.8415424204705,1153.9,89.4148475788808,851.8415424204705,1256.4,89.4148475788808,851.8415424204705,1363.1,89.4148475788808,851.8415424204705,1465.2,89.4148475788808,851.8415424204705,1571.6,592.8285859488225,653.0268767453073,1680.7,1142.0072096251226,400.19464152821286,1781.5,1154.011113967774,391.94195729264004,1882.3,1421.097985591767,37.82677918442474,1988.2,1421.097985591767,-31.195670785820624,2092.2,1421.097985591767,-31.195670785820624,2194,1421.097985591767,-31.195670785820624,2298.4,1421.097985591767,-31.195670785820624,2399,1421.097985591767,-31.195670785820624,2504.6,1421.097985591767,-31.195670785820624,2616.1,1421.097985591767,-31.195670785820624,2721.3,1421.097985591767,-31.195670785820624,2834.1,1421.097985591767,-31.195670785820624,2966.4,1421.097985591767,-31.195670785820624,3074,1421.097985591767,-31.195670785820624,3176.7,1421.097985591767,-31.195670785820624,3281.4,1421.097985591767,-31.195670785820624,3386.9,1421.097985591767,-31.195670785820624,3487.4,1421.097985591767,-31.195670785820624,3587.4,1421.097985591767,-31.195670785820624,3696.3,1421.097985591767,-31.195670785820624,3800.4,1421.097985591767,-31.195670785820624,3906.6,1421.097985591767,-31.195670785820624,4007.5,1421.097985591767,-31.195670785820624,4112.7,1421.097985591767,-31.195670785820624,4220.6,1421.097985591767,-31.195670785820624,4327.6,1421.097985591767,-31.195670785820624,4432.5,1421.097985591767,-31.195670785820624,4535.3,1421.097985591767,-31.195670785820624,4638.4,1421.097985591767,-31.195670785820624,4741.5,1421.097985591767,-31.195670785820624,4847.6,1421.097985591767,-31.195670785820624,4948.4]","[1519.3,1519.3,1000,0,519.3,""smooth"",""left"",""left"",""good_move"",4404.2,2883.9,2413.3,1520.4,470.6,""smooth"",""down"",""down"",""good_move"",11391.6,6986.6,2883,8016.2,492.4,""oops"",""left"",""down"",""good_move"",21472,10080,3154.5,17893.9,423.7,""smooth"",""left"",""left"",""good_move"",24794.4,3321.4,2892,21473,429.4,""smooth"",""left"",""left"",""good_move"",27559.8,2764.8,2359.5,24795.1,405.2,""oops"",""down"",""right"",""bad_move"",30346.2,2784.7,2370.6,27561.5,414.1,""oops"",""down"",""up"",""bad_move"",36614.9,6268,2130.8,33957.7,526.4,""smooth"",""down"",""down"",""good_move"",39785.3,3169.5,2719.2,36615.8,450.3,""while_blue"",""down"",""left"",""good_move"",42339.3,2553.2,1976.3,39786.1,576.9,""while_blue"",""down"",""right"",""bad_move"",46278.3,3938.4,2804.6,42339.9,1133.8,""oops"",""left"",""up"",""bad_move""]","",""
"9712","","<div style=""width:500px;"">
  <p>What determined the result of this run?</p>
  </div>","4","html-slider-response","60","1747631","0.0-10.0-1.4","274","1","2025-07-09 11:11:04","7701e855f2ef39aa3fd6c71abdc6918a","165.16.167.133","Mozilla/5.0 (X11; Linux x86_64) AppleWebKit/537.36 (KHTML, like Gecko) Chrome/138.0.0.0 Safari/537.36","WebKit","Chrome","138.0.0.0","Linux","","https://app.prolific.com/","en-GB,en-US;q=0.9,en;q=0.8,ar;q=0.7","667b1ca693a1d52a0447f22f","686d226cabeef709c732f8e1","686e313d7eb80da74ad69479","667b1ca693a1d52a0447f22f","2025-07-09T11:42:10.089Z","","","","","","AttribQ","","","","","","","","","","","","","","","","","","","","","","","","","","","","","","","","","","","","","","50"
"15635","","<div style=""width:500px;"">
  <p>How much control did you have over the ball?</p>
  </div>","23","html-slider-response","61","1763269","0.0-10.0-2.4","274","1","2025-07-09 11:11:04","7701e855f2ef39aa3fd6c71abdc6918a","165.16.167.133","Mozilla/5.0 (X11; Linux x86_64) AppleWebKit/537.36 (KHTML, like Gecko) Chrome/138.0.0.0 Safari/537.36","WebKit","Chrome","138.0.0.0","Linux","","https://app.prolific.com/","en-GB,en-US;q=0.9,en;q=0.8,ar;q=0.7","667b1ca693a1d52a0447f22f","686d226cabeef709c732f8e1","686e313d7eb80da74ad69479","667b1ca693a1d52a0447f22f","2025-07-09T11:42:25.727Z","","","","","","ControlQ","","","","","","","","","","","","","","","","","","","","","","","","","","","","","","","","","","","","","","50"
"12969","","<div style=""width:500px;"">
  <p>How would you describe your current emotional state?</p>
  </div>","78","html-slider-response","62","1776241","0.0-10.0-3.4","274","1","2025-07-09 11:11:04","7701e855f2ef39aa3fd6c71abdc6918a","165.16.167.133","Mozilla/5.0 (X11; Linux x86_64) AppleWebKit/537.36 (KHTML, like Gecko) Chrome/138.0.0.0 Safari/537.36","WebKit","Chrome","138.0.0.0","Linux","","https://app.prolific.com/","en-GB,en-US;q=0.9,en;q=0.8,ar;q=0.7","667b1ca693a1d52a0447f22f","686d226cabeef709c732f8e1","686e313d7eb80da74ad69479","667b1ca693a1d52a0447f22f","2025-07-09T11:42:38.699Z","","","","","","StressQ","","","","","","","","","","","","","","","","","","","","","","","","","","","","","","","","","","","","","","50"
"15095","","<div style=""width:500px;"">
  <p>What best describes how you currently feel?</p>
  </div>","74","html-slider-response","63","1791338","0.0-10.0-4.4","274","1","2025-07-09 11:11:04","7701e855f2ef39aa3fd6c71abdc6918a","165.16.167.133","Mozilla/5.0 (X11; Linux x86_64) AppleWebKit/537.36 (KHTML, like Gecko) Chrome/138.0.0.0 Safari/537.36","WebKit","Chrome","138.0.0.0","Linux","","https://app.prolific.com/","en-GB,en-US;q=0.9,en;q=0.8,ar;q=0.7","667b1ca693a1d52a0447f22f","686d226cabeef709c732f8e1","686e313d7eb80da74ad69479","667b1ca693a1d52a0447f22f","2025-07-09T11:42:53.796Z","","","","","","MotivationQ","","","","","","","","","","","","","","","","","","","","","","","","","","","","","","","","","","","","","","50"
"","","","","ctl-task-cpt","64","1835973","0.0-10.0-0.5","274","1","2025-07-09 11:11:04","7701e855f2ef39aa3fd6c71abdc6918a","165.16.167.133","Mozilla/5.0 (X11; Linux x86_64) AppleWebKit/537.36 (KHTML, like Gecko) Chrome/138.0.0.0 Safari/537.36","WebKit","Chrome","138.0.0.0","Linux","","https://app.prolific.com/","en-GB,en-US;q=0.9,en;q=0.8,ar;q=0.7","667b1ca693a1d52a0447f22f","686d226cabeef709c732f8e1","686e313d7eb80da74ad69479","667b1ca693a1d52a0447f22f","2025-07-09T11:43:38.431Z","","","","","","","","","","","","","","","","win-only","0","g1:NW,g2:SE","0.5","6","0","1774631.4","6839","11845.7","41606.1","1","4","4","6","2","4","4","7","3","0.05303030303030303","3055.7","3000","740","[""down"",""right""]","{""num_key_presses"":10,""num_perfect"":5,""num_errors"":0,""num_randdir"":5,""num_randdir_good_moves"":3,""num_whilered"":0,""num_whileblue"":0,""num_blue"":0,""num_good_moves"":8}","[464.536858286736,465.46587139137966,0.9,464.536858286736,465.46587139137966,104.1,464.536858286736,465.46587139137966,209.2,464.536858286736,465.46587139137966,312.2,464.536858286736,465.46587139137966,416.1,460.78563817965744,471.46782356270535,516.4,452.5329539440846,473.7185556269525,624.3,456.2841740511632,495.4756322480081,724.3,499.7983272932744,532.2375892973779,824.9,691.1105527542805,656.0278528309701,933.4,823.1535005234456,742.3059152937768,1044.4,835.157404866097,751.3088435507653,1149.8,811.1495961807942,727.3010348654626,1250.1,111.1719241999364,302.6629187441705,1357.4,57.154354658005246,263.65022963055355,1463.6,53.403134550926694,196.12826770313964,1573.6,53.403134550926694,172.1204590178369,1683.4,58.65484270083667,157.1155785895227,1791.9,63.15630682933093,133.10776990421996,1895.2,68.4080149792409,112.85118132599578,2000.9,77.41094323622943,109.09996121891723,2114.7,511.05198761451004,389.6912252283929,2222.5,997.2101134918904,775.3166522360681,2324.6,1002.4618216418004,791.071776685798,2431.3,987.4569412134862,806.0766571141122,2544.6,955.1964482926106,823.3322696066735,2651.3,923.6861993931508,830.8347098208307,2762.9,894.4266825579381,843.5888581848977,2863.6,876.420826043961,845.8395902491449,2964.8,876.420826043961,845.8395902491449,3066,876.420826043961,845.8395902491449,3177.6,995.709625449059,760.3117718077539,3282.8,1421.097985591767,558.4961300469278,3384.1,1421.097985591767,561.4971061325906,3495.5,1421.097985591767,561.4971061325906,3597.1,1421.097985591767,561.4971061325906,3704.2,1421.097985591767,561.4971061325906,3813.6,1421.097985591767,561.4971061325906,3917.9,1421.097985591767,561.4971061325906,4030.3,1421.097985591767,561.4971061325906,4141.6,1421.097985591767,561.4971061325906,4247.3,1421.097985591767,561.4971061325906,4356.8,1421.097985591767,561.4971061325906,4467.6,1421.097985591767,561.4971061325906,4571.3,1421.097985591767,561.4971061325906,4675.7,1421.097985591767,561.4971061325906,4786.8,1421.097985591767,561.4971061325906,4888.2,1421.097985591767,561.4971061325906,4993.3]","[1604.1,1604.1,1000,0,604.2,""oops"",""right"",""right"",""good_move"",5246.5,3641.7,3047,1604.8,594.7,""oops"",""right"",""left"",""bad_move"",8320.1,3072.5,2728.3,5247.6,344.2,""smooth"",""right"",""right"",""good_move"",11667.2,3346.6,2902.1,8320.6,444.5,""smooth"",""down"",""down"",""good_move"",14909.7,3241.9,2880.9,11667.9,360.9,""smooth"",""right"",""right"",""good_move"",17949.4,3039.1,2683.9,14910.3,355.2,""oops"",""down"",""left"",""bad_move"",20479,2529.2,1980.3,17949.9,548.9,""oops"",""right"",""down"",""good_move"",23620,3140.2,2270.5,20479.8,869.7,""smooth"",""right"",""right"",""good_move"",26252.9,2632.2,2170.3,23620.7,461.9,""oops"",""right"",""down"",""good_move"",29569.5,3316,2950.8,26253.5,365.2,""smooth"",""right"",""right"",""good_move""]","",""
"5898","","<div style=""width:500px;"">
  <p>What determined the result of this run?</p>
  </div>","99","html-slider-response","65","1841874","0.0-10.0-1.5","274","1","2025-07-09 11:11:04","7701e855f2ef39aa3fd6c71abdc6918a","165.16.167.133","Mozilla/5.0 (X11; Linux x86_64) AppleWebKit/537.36 (KHTML, like Gecko) Chrome/138.0.0.0 Safari/537.36","WebKit","Chrome","138.0.0.0","Linux","","https://app.prolific.com/","en-GB,en-US;q=0.9,en;q=0.8,ar;q=0.7","667b1ca693a1d52a0447f22f","686d226cabeef709c732f8e1","686e313d7eb80da74ad69479","667b1ca693a1d52a0447f22f","2025-07-09T11:43:44.332Z","","","","","","AttribQ","","","","","","","","","","","","","","","","","","","","","","","","","","","","","","","","","","","","","","50"
"10505","","<div style=""width:500px;"">
  <p>How much control did you have over the ball?</p>
  </div>","97","html-slider-response","66","1852382","0.0-10.0-2.5","274","1","2025-07-09 11:11:04","7701e855f2ef39aa3fd6c71abdc6918a","165.16.167.133","Mozilla/5.0 (X11; Linux x86_64) AppleWebKit/537.36 (KHTML, like Gecko) Chrome/138.0.0.0 Safari/537.36","WebKit","Chrome","138.0.0.0","Linux","","https://app.prolific.com/","en-GB,en-US;q=0.9,en;q=0.8,ar;q=0.7","667b1ca693a1d52a0447f22f","686d226cabeef709c732f8e1","686e313d7eb80da74ad69479","667b1ca693a1d52a0447f22f","2025-07-09T11:43:54.841Z","","","","","","ControlQ","","","","","","","","","","","","","","","","","","","","","","","","","","","","","","","","","","","","","","50"
"14419","","<div style=""width:500px;"">
  <p>How would you describe your current emotional state?</p>
  </div>","3","html-slider-response","67","1866804","0.0-10.0-3.5","274","1","2025-07-09 11:11:04","7701e855f2ef39aa3fd6c71abdc6918a","165.16.167.133","Mozilla/5.0 (X11; Linux x86_64) AppleWebKit/537.36 (KHTML, like Gecko) Chrome/138.0.0.0 Safari/537.36","WebKit","Chrome","138.0.0.0","Linux","","https://app.prolific.com/","en-GB,en-US;q=0.9,en;q=0.8,ar;q=0.7","667b1ca693a1d52a0447f22f","686d226cabeef709c732f8e1","686e313d7eb80da74ad69479","667b1ca693a1d52a0447f22f","2025-07-09T11:44:09.262Z","","","","","","StressQ","","","","","","","","","","","","","","","","","","","","","","","","","","","","","","","","","","","","","","50"
"28364","","<div style=""width:500px;"">
  <p>What best describes how you currently feel?</p>
  </div>","77","html-slider-response","68","1895172","0.0-10.0-4.5","274","1","2025-07-09 11:11:04","7701e855f2ef39aa3fd6c71abdc6918a","165.16.167.133","Mozilla/5.0 (X11; Linux x86_64) AppleWebKit/537.36 (KHTML, like Gecko) Chrome/138.0.0.0 Safari/537.36","WebKit","Chrome","138.0.0.0","Linux","","https://app.prolific.com/","en-GB,en-US;q=0.9,en;q=0.8,ar;q=0.7","667b1ca693a1d52a0447f22f","686d226cabeef709c732f8e1","686e313d7eb80da74ad69479","667b1ca693a1d52a0447f22f","2025-07-09T11:44:37.630Z","","","","","","MotivationQ","","","","","","","","","","","","","","","","","","","","","","","","","","","","","","","","","","","","","","50"
"","","","","ctl-task-cpt","69","1976128","0.0-10.0-0.6","274","1","2025-07-09 11:11:04","7701e855f2ef39aa3fd6c71abdc6918a","165.16.167.133","Mozilla/5.0 (X11; Linux x86_64) AppleWebKit/537.36 (KHTML, like Gecko) Chrome/138.0.0.0 Safari/537.36","WebKit","Chrome","138.0.0.0","Linux","","https://app.prolific.com/","en-GB,en-US;q=0.9,en;q=0.8,ar;q=0.7","667b1ca693a1d52a0447f22f","686d226cabeef709c732f8e1","686e313d7eb80da74ad69479","667b1ca693a1d52a0447f22f","2025-07-09T11:45:58.586Z","","","","","","","","","","","","","","","","win-only","1","g1:NE,g2:SW","0.4","7","0","1878463.8","4874.3","9884.6","77932.5","1","4","8","6","2","8","5","12","7","0.09090909090909091","1663.7","3000","45","[""down"",""left""]","{""num_key_presses"":18,""num_perfect"":6,""num_errors"":3,""num_randdir"":9,""num_randdir_good_moves"":5,""num_whilered"":0,""num_whileblue"":3,""num_blue"":7,""num_good_moves"":12}","[450.2822218798375,461.7146512843011,0.6,450.2822218798375,461.7146512843011,109.4,450.2822218798375,459.463919220054,213.4,450.2822218798375,459.463919220054,318.4,452.5329539440846,459.463919220054,418.8,476.54076262938736,445.9595268345712,531.6,493.7963751219487,422.70196217068417,632.5,493.7963751219487,420.45123010643704,744.5,496.04710718619583,442.20830672749264,859.5,470.5388104580617,601.2600392676233,967,-53.13151649010419,957.6259494400857,1078.9,-107.14908603203534,965.8786336756585,1184.9,-66.63590887558698,874.3488630629419,1295.5,-8.867119226577273,856.3430065489648,1399.2,6.888005223152646,856.3430065489648,1505.7,6.888005223152646,856.3430065489648,1613.3,11.389469351646909,860.8444706774591,1721.3,13.64020141589404,860.8444706774591,1825.8,32.3963019512868,853.342030463302,1932.8,274.72512086856125,805.3264130926965,2035.3,1421.097985591767,271.15266984471066,2139.3,1415.0960334204412,271.15266984471066,2243.7,1415.0960334204412,271.15266984471066,2345.6,1415.0960334204412,271.15266984471066,2446.1,1415.0960334204412,271.15266984471066,2546.3,1415.0960334204412,271.15266984471066,2652.6,1415.0960334204412,271.15266984471066,2760.8,1415.0960334204412,271.15266984471066,2865,1415.0960334204412,271.15266984471066,2966.8,1415.0960334204412,271.15266984471066,3075.7,1415.0960334204412,271.15266984471066,3179.7,1415.0960334204412,271.15266984471066,3280.8,1415.0960334204412,271.15266984471066,3389.8,1415.0960334204412,271.15266984471066,3492.1,1415.0960334204412,271.15266984471066,3593.8,1415.0960334204412,271.15266984471066,3700.6,1415.0960334204412,271.15266984471066,3804,1415.0960334204412,271.15266984471066,3908.9,1415.0960334204412,271.15266984471066,4017.7,1415.0960334204412,271.15266984471066,4126.2,1415.0960334204412,271.15266984471066,4232.5,1415.0960334204412,271.15266984471066,4336.9,1415.0960334204412,271.15266984471066,4442.5,1415.0960334204412,271.15266984471066,4553.6,1415.0960334204412,271.15266984471066,4657.4,1415.0960334204412,271.15266984471066,4760,1415.0960334204412,271.15266984471066,4871.9,1415.0960334204412,271.15266984471066,4976.6]","[5244.1,5244.1,2609.8,2001,633.3,""while_blue"",""left"",""left"",""good_move"",12184.7,6939.8,2860.6,8895.1,429.1,""oops"",""down"",""right"",""bad_move"",15065.1,2879.6,2319.9,12185.6,559.7,""smooth"",""down"",""down"",""good_move"",17909.4,2843.6,2407.4,15065.8,436.2,""smooth"",""left"",""left"",""good_move"",21149.6,3239.6,2715.9,17910,523.7,""smooth"",""down"",""down"",""good_move"",23389.1,2238.9,1753.6,21150.2,485.3,""while_blue"",""left"",""right"",""bad_move"",30983.7,7594,3000.4,27586.2,397.1,""oops"",""down"",""left"",""good_move"",36271.8,5287.6,1671.1,34126.7,474,""oops"",""left"",""up"",""bad_move"",39819.2,3546.7,2537.3,36272.5,1009.4,""oops"",""left"",""right"",""bad_move"",42760.7,2941,2582.1,39819.7,358.9,""oops"",""left"",""up"",""bad_move"",45508.1,2746.9,2018.3,42761.3,728.6,""smooth"",""left"",""left"",""good_move"",48719,3210.1,2694.2,45508.9,515.9,""oops"",""left"",""left"",""good_move"",51887,3167.3,2775.3,48719.7,392,""smooth"",""down"",""down"",""good_move"",55125.4,3237.8,2629.7,51887.6,608.1,""oops"",""left"",""down"",""good_move"",58563.5,3437.5,3049.4,55126,388.1,""smooth"",""left"",""left"",""good_move"",61561.1,2997.1,2662.6,58564,334.5,""while_blue"",""down"",""up"",""bad_move"",64641.8,3079.7,2733.1,61562.1,346.6,""oops"",""down"",""down"",""good_move"",67867.5,3225.3,2870.2,64642.2,355.1,""oops"",""down"",""down"",""good_move""]","",""
"5612","","<div style=""width:500px;"">
  <p>What determined the result of this run?</p>
  </div>","96","html-slider-response","70","1981743","0.0-10.0-1.6","274","1","2025-07-09 11:11:04","7701e855f2ef39aa3fd6c71abdc6918a","165.16.167.133","Mozilla/5.0 (X11; Linux x86_64) AppleWebKit/537.36 (KHTML, like Gecko) Chrome/138.0.0.0 Safari/537.36","WebKit","Chrome","138.0.0.0","Linux","","https://app.prolific.com/","en-GB,en-US;q=0.9,en;q=0.8,ar;q=0.7","667b1ca693a1d52a0447f22f","686d226cabeef709c732f8e1","686e313d7eb80da74ad69479","667b1ca693a1d52a0447f22f","2025-07-09T11:46:04.201Z","","","","","","AttribQ","","","","","","","","","","","","","","","","","","","","","","","","","","","","","","","","","","","","","","50"
"11662","","<div style=""width:500px;"">
  <p>How much control did you have over the ball?</p>
  </div>","84","html-slider-response","71","1993408","0.0-10.0-2.6","274","1","2025-07-09 11:11:04","7701e855f2ef39aa3fd6c71abdc6918a","165.16.167.133","Mozilla/5.0 (X11; Linux x86_64) AppleWebKit/537.36 (KHTML, like Gecko) Chrome/138.0.0.0 Safari/537.36","WebKit","Chrome","138.0.0.0","Linux","","https://app.prolific.com/","en-GB,en-US;q=0.9,en;q=0.8,ar;q=0.7","667b1ca693a1d52a0447f22f","686d226cabeef709c732f8e1","686e313d7eb80da74ad69479","667b1ca693a1d52a0447f22f","2025-07-09T11:46:15.866Z","","","","","","ControlQ","","","","","","","","","","","","","","","","","","","","","","","","","","","","","","","","","","","","","","50"
"7005","","<div style=""width:500px;"">
  <p>How would you describe your current emotional state?</p>
  </div>","36","html-slider-response","72","2000416","0.0-10.0-3.6","274","1","2025-07-09 11:11:04","7701e855f2ef39aa3fd6c71abdc6918a","165.16.167.133","Mozilla/5.0 (X11; Linux x86_64) AppleWebKit/537.36 (KHTML, like Gecko) Chrome/138.0.0.0 Safari/537.36","WebKit","Chrome","138.0.0.0","Linux","","https://app.prolific.com/","en-GB,en-US;q=0.9,en;q=0.8,ar;q=0.7","667b1ca693a1d52a0447f22f","686d226cabeef709c732f8e1","686e313d7eb80da74ad69479","667b1ca693a1d52a0447f22f","2025-07-09T11:46:22.875Z","","","","","","StressQ","","","","","","","","","","","","","","","","","","","","","","","","","","","","","","","","","","","","","","50"
"14446","","<div style=""width:500px;"">
  <p>What best describes how you currently feel?</p>
  </div>","82","html-slider-response","73","2014864","0.0-10.0-4.6","274","1","2025-07-09 11:11:04","7701e855f2ef39aa3fd6c71abdc6918a","165.16.167.133","Mozilla/5.0 (X11; Linux x86_64) AppleWebKit/537.36 (KHTML, like Gecko) Chrome/138.0.0.0 Safari/537.36","WebKit","Chrome","138.0.0.0","Linux","","https://app.prolific.com/","en-GB,en-US;q=0.9,en;q=0.8,ar;q=0.7","667b1ca693a1d52a0447f22f","686d226cabeef709c732f8e1","686e313d7eb80da74ad69479","667b1ca693a1d52a0447f22f","2025-07-09T11:46:37.322Z","","","","","","MotivationQ","","","","","","","","","","","","","","","","","","","","","","","","","","","","","","","","","","","","","","50"
"","","","","ctl-task-cpt","74","2051754","0.0-10.0-0.7","274","1","2025-07-09 11:11:04","7701e855f2ef39aa3fd6c71abdc6918a","165.16.167.133","Mozilla/5.0 (X11; Linux x86_64) AppleWebKit/537.36 (KHTML, like Gecko) Chrome/138.0.0.0 Safari/537.36","WebKit","Chrome","138.0.0.0","Linux","","https://app.prolific.com/","en-GB,en-US;q=0.9,en;q=0.8,ar;q=0.7","667b1ca693a1d52a0447f22f","686d226cabeef709c732f8e1","686e313d7eb80da74ad69479","667b1ca693a1d52a0447f22f","2025-07-09T11:47:14.212Z","","","","","","","","","","","","","","","","win-only","2","g1:SE,g2:NW","0.3","8","0","1998156.2","12431","17444.4","33873.7","1","4","4","6","1","1","1","13","12","0.09848484848484848","2375.2","3000","1825","[""down"",""right""]","{""num_key_presses"":6,""num_perfect"":2,""num_errors"":0,""num_randdir"":4,""num_randdir_good_moves"":3,""num_whilered"":0,""num_whileblue"":0,""num_blue"":0,""num_good_moves"":5}","[475.79051860797165,457.96343117722256,0.5,475.79051860797165,457.96343117722256,114.7,475.79051860797165,457.96343117722256,216.1,475.79051860797165,457.96343117722256,320.4,475.79051860797165,457.96343117722256,424.9,475.79051860797165,457.96343117722256,535.5,475.79051860797165,457.96343117722256,639.9,802.1466679238057,710.0454223729013,756.3,760.1330027245259,533.7380773402093,868.9,240.2138958834386,19.070678649031976,984.4,211.7046230696416,19.070678649031976,1096.8,-69.63688496124982,-2.6863979720236273,1202,-30.624195847632876,59.58385580548034,1304.9,327.9924463890767,273.4034019089578,1404.9,670.1037201546407,553.9946659184335,1510.8,673.1046962403035,567.4990583039163,1632.1,726.3720217608189,694.2902979231714,1733.1,784.1408114098286,790.3215326643823,1834.8,784.1408114098286,790.3215326643823,1944.8,799.8959358595586,799.3244609213708,2054.3,827.6549646519398,827.0834897137521,2157.7,827.6549646519398,824.832757649505,2269.8,827.6549646519398,824.832757649505,2389.8,827.6549646519398,818.8308054781793,2496.3,849.4120412729955,787.3205565787194,2602.3,1145.7584297322012,490.9741681195138,2715.3,1145.7584297322012,490.9741681195138,2833.3,1145.7584297322012,490.9741681195138,2949.4,1145.7584297322012,490.9741681195138,3050.5,1145.7584297322012,490.9741681195138,3151.7,1145.7584297322012,490.9741681195138,3266.5,1145.7584297322012,490.9741681195138,3384.2,1145.7584297322012,490.9741681195138,3502.2,1145.7584297322012,490.9741681195138,3621.8,1145.7584297322012,490.9741681195138,3741.2,1145.7584297322012,490.9741681195138,3855.9,1145.7584297322012,490.9741681195138,3958.2,1145.7584297322012,490.9741681195138,4078.9,1145.7584297322012,490.9741681195138,4199,1145.7584297322012,490.9741681195138,4300.6,1145.7584297322012,490.9741681195138,4401.2,1145.7584297322012,490.9741681195138,4504.3,1145.7584297322012,490.9741681195138,4606.4,1145.7584297322012,490.9741681195138,4710.4,1145.7584297322012,490.9741681195138,4810.4,1145.7584297322012,490.9741681195138,4911.5]","[1529.1,1529.1,1000,0,529.1,""oops"",""right"",""right"",""good_move"",4680.4,3150.5,2712.5,1529.9,438,""smooth"",""down"",""down"",""good_move"",7652.7,2971.6,2366.4,4681.2,605.2,""smooth"",""right"",""right"",""good_move"",10461.4,2808.2,2335.9,7653.3,472.2,""oops"",""down"",""left"",""bad_move"",14027.5,3565.1,2586.5,10462.5,978.6,""oops"",""down"",""right"",""good_move"",16220.3,2192.2,1663,14028.1,529.2,""oops"",""down"",""down"",""good_move""]","",""
"4609","","<div style=""width:500px;"">
  <p>What determined the result of this run?</p>
  </div>","99","html-slider-response","75","2056366","0.0-10.0-1.7","274","1","2025-07-09 11:11:04","7701e855f2ef39aa3fd6c71abdc6918a","165.16.167.133","Mozilla/5.0 (X11; Linux x86_64) AppleWebKit/537.36 (KHTML, like Gecko) Chrome/138.0.0.0 Safari/537.36","WebKit","Chrome","138.0.0.0","Linux","","https://app.prolific.com/","en-GB,en-US;q=0.9,en;q=0.8,ar;q=0.7","667b1ca693a1d52a0447f22f","686d226cabeef709c732f8e1","686e313d7eb80da74ad69479","667b1ca693a1d52a0447f22f","2025-07-09T11:47:18.824Z","","","","","","AttribQ","","","","","","","","","","","","","","","","","","","","","","","","","","","","","","","","","","","","","","50"
"25634","","<div style=""width:500px;"">
  <p>How much control did you have over the ball?</p>
  </div>","95","html-slider-response","76","2082003","0.0-10.0-2.7","274","1","2025-07-09 11:11:04","7701e855f2ef39aa3fd6c71abdc6918a","165.16.167.133","Mozilla/5.0 (X11; Linux x86_64) AppleWebKit/537.36 (KHTML, like Gecko) Chrome/138.0.0.0 Safari/537.36","WebKit","Chrome","138.0.0.0","Linux","","https://app.prolific.com/","en-GB,en-US;q=0.9,en;q=0.8,ar;q=0.7","667b1ca693a1d52a0447f22f","686d226cabeef709c732f8e1","686e313d7eb80da74ad69479","667b1ca693a1d52a0447f22f","2025-07-09T11:47:44.461Z","","","","","","ControlQ","","","","","","","","","","","","","","","","","","","","","","","","","","","","","","","","","","","","","","50"
"12764","","<div style=""width:500px;"">
  <p>How would you describe your current emotional state?</p>
  </div>","22","html-slider-response","77","2094771","0.0-10.0-3.7","274","1","2025-07-09 11:11:04","7701e855f2ef39aa3fd6c71abdc6918a","165.16.167.133","Mozilla/5.0 (X11; Linux x86_64) AppleWebKit/537.36 (KHTML, like Gecko) Chrome/138.0.0.0 Safari/537.36","WebKit","Chrome","138.0.0.0","Linux","","https://app.prolific.com/","en-GB,en-US;q=0.9,en;q=0.8,ar;q=0.7","667b1ca693a1d52a0447f22f","686d226cabeef709c732f8e1","686e313d7eb80da74ad69479","667b1ca693a1d52a0447f22f","2025-07-09T11:47:57.229Z","","","","","","StressQ","","","","","","","","","","","","","","","","","","","","","","","","","","","","","","","","","","","","","","50"
"10448","","<div style=""width:500px;"">
  <p>What best describes how you currently feel?</p>
  </div>","87","html-slider-response","78","2105222","0.0-10.0-4.7","274","1","2025-07-09 11:11:04","7701e855f2ef39aa3fd6c71abdc6918a","165.16.167.133","Mozilla/5.0 (X11; Linux x86_64) AppleWebKit/537.36 (KHTML, like Gecko) Chrome/138.0.0.0 Safari/537.36","WebKit","Chrome","138.0.0.0","Linux","","https://app.prolific.com/","en-GB,en-US;q=0.9,en;q=0.8,ar;q=0.7","667b1ca693a1d52a0447f22f","686d226cabeef709c732f8e1","686e313d7eb80da74ad69479","667b1ca693a1d52a0447f22f","2025-07-09T11:48:07.680Z","","","","","","MotivationQ","","","","","","","","","","","","","","","","","","","","","","","","","","","","","","","","","","","","","","50"
"","","","","ctl-task-cpt","79","2177046","0.0-10.0-0.8","274","1","2025-07-09 11:11:04","7701e855f2ef39aa3fd6c71abdc6918a","165.16.167.133","Mozilla/5.0 (X11; Linux x86_64) AppleWebKit/537.36 (KHTML, like Gecko) Chrome/138.0.0.0 Safari/537.36","WebKit","Chrome","138.0.0.0","Linux","","https://app.prolific.com/","en-GB,en-US;q=0.9,en;q=0.8,ar;q=0.7","667b1ca693a1d52a0447f22f","686d226cabeef709c732f8e1","686e313d7eb80da74ad69479","667b1ca693a1d52a0447f22f","2025-07-09T11:49:19.504Z","","","","","","","","","","","","","","","","win-only","1","g1:NE,g2:SW","0.2","9","0","2088514","9023.1","14040.6","68794.3","1","4","8","6","2","8","5","18","13","0.13636363636363635","1407.1","3000","650","[""down"",""left""]","{""num_key_presses"":17,""num_perfect"":3,""num_errors"":3,""num_randdir"":11,""num_randdir_good_moves"":6,""num_whilered"":0,""num_whileblue"":2,""num_blue"":4,""num_good_moves"":11}","[464.536858286736,461.7146512843011,0.4,466.7875903509831,461.7146512843011,104.2,466.7875903509831,461.7146512843011,218.2,466.7875903509831,461.7146512843011,318.5,466.7875903509831,461.7146512843011,427.6,468.28807839381454,463.96538334854824,530.4,470.5388104580617,469.9673355198739,639.8,468.28807839381454,479.72050779827816,745.1,360.25293930995224,650.7761446810601,860.9,229.71047958361865,774.5664082146524,963.7,151.68510135638476,818.0805614567636,1080,78.16118725764514,827.8337337351678,1182.6,78.16118725764514,827.8337337351678,1282.9,78.16118725764514,827.8337337351678,1395.1,78.91143127906085,823.3322696066735,1499.3,656.5993277691579,550.243445811355,1616.4,1241.0394204519964,397.19366544255,1724.1,1241.0394204519964,397.19366544255,1835.3,1241.0394204519964,397.19366544255,1943.7,1241.0394204519964,397.19366544255,2047.6,1241.0394204519964,397.19366544255,2155.3,1241.0394204519964,397.19366544255,2270,1241.0394204519964,397.19366544255,2380,1241.0394204519964,397.19366544255,2497.3,1241.0394204519964,397.19366544255,2606.9,1241.0394204519964,397.19366544255,2719,1241.0394204519964,397.19366544255,2835.7,1238.7886883877493,397.19366544255,2949.8,1238.7886883877493,397.19366544255,3064.5,1238.7886883877493,397.19366544255,3168.7,1238.7886883877493,397.19366544255,3275.2,1238.7886883877493,397.19366544255,3388,1238.7886883877493,397.19366544255,3496.8,1238.7886883877493,397.19366544255,3614.5,1238.7886883877493,397.19366544255,3728.6,1238.7886883877493,397.19366544255,3842,1238.7886883877493,397.19366544255,3952.1,1238.7886883877493,397.19366544255,4065.6,1238.7886883877493,397.19366544255,4180.4,1238.7886883877493,397.19366544255,4292.3,1238.7886883877493,397.19366544255,4404.1,1238.7886883877493,397.19366544255,4514.9,1238.7886883877493,397.19366544255,4627.6,1238.7886883877493,397.19366544255,4740.6,1238.7886883877493,397.19366544255,4849.4,1238.7886883877493,397.19366544255,4960.7]","[1472.2,1472.2,1000,0,472.2,""smooth"",""down"",""down"",""good_move"",4385.7,2912.7,2473.5,1473,439.2,""oops"",""left"",""up"",""bad_move"",7380.5,2993.8,2275.7,4386.7,718.1,""while_blue"",""down"",""down"",""good_move"",10211.6,2830.2,2344.3,7381.4,485.9,""oops"",""down"",""down"",""good_move"",13112.1,2900,2451.4,10212.1,448.6,""smooth"",""left"",""left"",""good_move"",19187.8,6074.8,1634.7,16630.8,922.3,""while_blue"",""left"",""left"",""good_move"",19566.4,378.1,2326.5,19188.3,-1948.4,""error"",""-"",""-"",""no_move"",23551.8,3985.3,2599.5,20569.8,382.5,""oops"",""down"",""right"",""bad_move"",26583.6,3031.2,2624.2,23552.5,407,""oops"",""left"",""left"",""good_move"",29864.6,3280.1,2839.9,26584.5,440.2,""oops"",""down"",""up"",""bad_move"",33507,3641.7,3100.2,29865.3,541.5,""oops"",""down"",""down"",""good_move"",39543.5,6035.8,1961.3,37244,338.2,""oops"",""left"",""left"",""good_move"",42652.7,3108.7,2738.8,39544,369.9,""oops"",""down"",""up"",""bad_move"",45917,3263.6,2497.2,42653.4,766.4,""oops"",""down"",""right"",""bad_move"",48715.9,2798.3,2309.3,45917.6,489.1,""oops"",""down"",""left"",""good_move"",52104.6,3388.3,2433.7,48716.3,954.6,""oops"",""down"",""down"",""good_move"",54560.1,2454.9,2090.5,52105.2,364.4,""smooth"",""down"",""down"",""good_move""]","",""
"6145","","<div style=""width:500px;"">
  <p>What determined the result of this run?</p>
  </div>","88","html-slider-response","80","2183196","0.0-10.0-1.8","274","1","2025-07-09 11:11:04","7701e855f2ef39aa3fd6c71abdc6918a","165.16.167.133","Mozilla/5.0 (X11; Linux x86_64) AppleWebKit/537.36 (KHTML, like Gecko) Chrome/138.0.0.0 Safari/537.36","WebKit","Chrome","138.0.0.0","Linux","","https://app.prolific.com/","en-GB,en-US;q=0.9,en;q=0.8,ar;q=0.7","667b1ca693a1d52a0447f22f","686d226cabeef709c732f8e1","686e313d7eb80da74ad69479","667b1ca693a1d52a0447f22f","2025-07-09T11:49:25.655Z","","","","","","AttribQ","","","","","","","","","","","","","","","","","","","","","","","","","","","","","","","","","","","","","","50"
"11969","","<div style=""width:500px;"">
  <p>How much control did you have over the ball?</p>
  </div>","82","html-slider-response","81","2195168","0.0-10.0-2.8","274","1","2025-07-09 11:11:04","7701e855f2ef39aa3fd6c71abdc6918a","165.16.167.133","Mozilla/5.0 (X11; Linux x86_64) AppleWebKit/537.36 (KHTML, like Gecko) Chrome/138.0.0.0 Safari/537.36","WebKit","Chrome","138.0.0.0","Linux","","https://app.prolific.com/","en-GB,en-US;q=0.9,en;q=0.8,ar;q=0.7","667b1ca693a1d52a0447f22f","686d226cabeef709c732f8e1","686e313d7eb80da74ad69479","667b1ca693a1d52a0447f22f","2025-07-09T11:49:37.627Z","","","","","","ControlQ","","","","","","","","","","","","","","","","","","","","","","","","","","","","","","","","","","","","","","50"
"7422","","<div style=""width:500px;"">
  <p>How would you describe your current emotional state?</p>
  </div>","28","html-slider-response","82","2202593","0.0-10.0-3.8","274","1","2025-07-09 11:11:04","7701e855f2ef39aa3fd6c71abdc6918a","165.16.167.133","Mozilla/5.0 (X11; Linux x86_64) AppleWebKit/537.36 (KHTML, like Gecko) Chrome/138.0.0.0 Safari/537.36","WebKit","Chrome","138.0.0.0","Linux","","https://app.prolific.com/","en-GB,en-US;q=0.9,en;q=0.8,ar;q=0.7","667b1ca693a1d52a0447f22f","686d226cabeef709c732f8e1","686e313d7eb80da74ad69479","667b1ca693a1d52a0447f22f","2025-07-09T11:49:45.051Z","","","","","","StressQ","","","","","","","","","","","","","","","","","","","","","","","","","","","","","","","","","","","","","","50"
"28595","","<div style=""width:500px;"">
  <p>What best describes how you currently feel?</p>
  </div>","75","html-slider-response","83","2231190","0.0-10.0-4.8","274","1","2025-07-09 11:11:04","7701e855f2ef39aa3fd6c71abdc6918a","165.16.167.133","Mozilla/5.0 (X11; Linux x86_64) AppleWebKit/537.36 (KHTML, like Gecko) Chrome/138.0.0.0 Safari/537.36","WebKit","Chrome","138.0.0.0","Linux","","https://app.prolific.com/","en-GB,en-US;q=0.9,en;q=0.8,ar;q=0.7","667b1ca693a1d52a0447f22f","686d226cabeef709c732f8e1","686e313d7eb80da74ad69479","667b1ca693a1d52a0447f22f","2025-07-09T11:50:13.648Z","","","","","","MotivationQ","","","","","","","","","","","","","","","","","","","","","","","","","","","","","","","","","","","","","","50"
