"rt","response_timestamp","stimulus","response","trial_type","trial_index","time_elapsed","internal_node_id","run_id","condition","recorded_at","source_code_version","ip","user_agent","device","browser","browser_version","platform","platform_version","referer","accept_language","PROLIFIC_PID","STUDY_ID","SESSION_ID","prolific_id","realtime","view_history","question_order","consent","success","question_id","eventType","responses","item_order","radio_event_ids","radio_event_times","key_event_times","mouse_event_times","straightlining","zigzagging","honeypot","which_type","canvas_config","goals_layout","control_level","trial_number","tutorial_trial_number","trial_start_time","phase1_start_time","phase2_start_time","phase3_start_time","goal_1_value","goal_1_distance","goal_2_value","goal_2_distance","goal_selected","outcome","outcome_total","participant_final_score","participant_initial_score","participant_final_score_prop","goal_choice_rt","allocated_time","allocated_time_remaining","goal_direction","counts","mouse_movements","key_presses","correct","slider_start"
"21050","1752052057683","<p style='font-size:40px;line-height:1.25'><strong>Welcome to the experiment!</strong></p><p style='font-size:1.1em;line-height:1.25'>Thank you for your interest in our experiment! Before you begin, it is important that we obtain your informed consent to participate in the study.</p><p style='font-size:1.1em;line-height:1.25'>On the next screen will be an <strong>information sheet</strong> for you to read. To participate in the study we need you to read this information sheet and the following consent form carefully. If you agree with all the statements, please click the <strong>I agree</strong> button.</p><p style='font-size:1.1em;line-height:1.25'>Press <strong>Next</strong> to read the information sheet.</p>","0","custom-html-button-response","0","21054","0.0-0.0","45","1","2025-07-09 09:07:12","7701e855f2ef39aa3fd6c71abdc6918a","41.13.102.179","Mozilla/5.0 (Windows NT 10.0; Win64; x64) AppleWebKit/537.36 (KHTML, like Gecko) Chrome/138.0.0.0 Safari/537.36","WebKit","Chrome","138.0.0.0","Windows","10.0","https://app.prolific.com/","en-US,en;q=0.9,zh-CN;q=0.8,zh;q=0.7","669149873799bbea50733fe0","686d226cabeef709c732f8e1","686e313593b4d97f1f160b7f","669149873799bbea50733fe0","2025-07-09T09:07:37.685Z","","","","","","","","","","","","","","","","","","","","","","","","","","","","","","","","","","","","","","","","","","","",""
"205424","","","","instructions","1","226480","0.0-1.0","45","1","2025-07-09 09:07:12","7701e855f2ef39aa3fd6c71abdc6918a","41.13.102.179","Mozilla/5.0 (Windows NT 10.0; Win64; x64) AppleWebKit/537.36 (KHTML, like Gecko) Chrome/138.0.0.0 Safari/537.36","WebKit","Chrome","138.0.0.0","Windows","10.0","https://app.prolific.com/","en-US,en;q=0.9,zh-CN;q=0.8,zh;q=0.7","669149873799bbea50733fe0","686d226cabeef709c732f8e1","686e313593b4d97f1f160b7f","669149873799bbea50733fe0","","[{""page_index"":0,""viewing_time"":7691},{""page_index"":1,""viewing_time"":2961},{""page_index"":0,""viewing_time"":49490},{""page_index"":1,""viewing_time"":145281}]","","","","","","","","","","","","","","","","","","","","","","","","","","","","","","","","","","","","","","","","","","",""
"9921","","","{""Q0"":"""",""Q1"":"""",""Q2"":"""",""Q3"":"""",""Q4"":"""",""Q5"":"""",""Q6"":""I agree""}","survey-multi-choice","2","236405","0.0-2.0","45","1","2025-07-09 09:07:12","7701e855f2ef39aa3fd6c71abdc6918a","41.13.102.179","Mozilla/5.0 (Windows NT 10.0; Win64; x64) AppleWebKit/537.36 (KHTML, like Gecko) Chrome/138.0.0.0 Safari/537.36","WebKit","Chrome","138.0.0.0","Windows","10.0","https://app.prolific.com/","en-US,en;q=0.9,zh-CN;q=0.8,zh;q=0.7","669149873799bbea50733fe0","686d226cabeef709c732f8e1","686e313593b4d97f1f160b7f","669149873799bbea50733fe0","","","[0,1,2,3,4,5,6]","true","","","","","","","","","","","","","","","","","","","","","","","","","","","","","","","","","","","","","","","","",""
"2027","","","","fullscreen","3","239448","0.0-4.0","45","1","2025-07-09 09:07:12","7701e855f2ef39aa3fd6c71abdc6918a","41.13.102.179","Mozilla/5.0 (Windows NT 10.0; Win64; x64) AppleWebKit/537.36 (KHTML, like Gecko) Chrome/138.0.0.0 Safari/537.36","WebKit","Chrome","138.0.0.0","Windows","10.0","https://app.prolific.com/","en-US,en;q=0.9,zh-CN;q=0.8,zh;q=0.7","669149873799bbea50733fe0","686d226cabeef709c732f8e1","686e313593b4d97f1f160b7f","669149873799bbea50733fe0","","","","","true","","","","","","","","","","","","","","","","","","","","","","","","","","","","","","","","","","","","","","","",""
"4980","1752052281060"," <p style='font-size:1.1em;line-height:1.25'>Thank you for completing the consent form and closing all other tabs.</p><p style='font-size:1.1em;line-height:1.25'>We will now invite you to fill in some demographic information and questionnaires, before starting the game.<br>This will take about 5 minutes.<br></p><p style='font-size:1.1em;line-height:1.25'>Press the <strong>Next</strong> button to continue.</p>","0","custom-html-button-response","4","244431","0.0-5.0","45","1","2025-07-09 09:07:12","7701e855f2ef39aa3fd6c71abdc6918a","41.13.102.179","Mozilla/5.0 (Windows NT 10.0; Win64; x64) AppleWebKit/537.36 (KHTML, like Gecko) Chrome/138.0.0.0 Safari/537.36","WebKit","Chrome","138.0.0.0","Windows","10.0","https://app.prolific.com/","en-US,en;q=0.9,zh-CN;q=0.8,zh;q=0.7","669149873799bbea50733fe0","686d226cabeef709c732f8e1","686e313593b4d97f1f160b7f","669149873799bbea50733fe0","2025-07-09T09:11:21.061Z","","","","","","","","","","","","","","","","","","","","","","","","","","","","","","","","","","","","","","","","","","","",""
"4735","","","{""age"":""34""}","survey-text","5","249174","0.0-6.0-0.0","45","1","2025-07-09 09:07:12","7701e855f2ef39aa3fd6c71abdc6918a","41.13.102.179","Mozilla/5.0 (Windows NT 10.0; Win64; x64) AppleWebKit/537.36 (KHTML, like Gecko) Chrome/138.0.0.0 Safari/537.36","WebKit","Chrome","138.0.0.0","Windows","10.0","https://app.prolific.com/","en-US,en;q=0.9,zh-CN;q=0.8,zh;q=0.7","669149873799bbea50733fe0","686d226cabeef709c732f8e1","686e313593b4d97f1f160b7f","669149873799bbea50733fe0","","","","","","0","demographics","","","","","","","","","","","","","","","","","","","","","","","","","","","","","","","","","","","","","",""
"3977","","","{""gender_identity"":""female/woman""}","survey-multi-choice","6","253153","0.0-6.0-1.0","45","1","2025-07-09 09:07:12","7701e855f2ef39aa3fd6c71abdc6918a","41.13.102.179","Mozilla/5.0 (Windows NT 10.0; Win64; x64) AppleWebKit/537.36 (KHTML, like Gecko) Chrome/138.0.0.0 Safari/537.36","WebKit","Chrome","138.0.0.0","Windows","10.0","https://app.prolific.com/","en-US,en;q=0.9,zh-CN;q=0.8,zh;q=0.7","669149873799bbea50733fe0","686d226cabeef709c732f8e1","686e313593b4d97f1f160b7f","669149873799bbea50733fe0","","","[0]","","","1","demographics","","","","","","","","","","","","","","","","","","","","","","","","","","","","","","","","","","","","","",""
"4364","","","{""assigned_sex"":""female""}","survey-multi-choice","7","257520","0.0-6.0-2.0","45","1","2025-07-09 09:07:12","7701e855f2ef39aa3fd6c71abdc6918a","41.13.102.179","Mozilla/5.0 (Windows NT 10.0; Win64; x64) AppleWebKit/537.36 (KHTML, like Gecko) Chrome/138.0.0.0 Safari/537.36","WebKit","Chrome","138.0.0.0","Windows","10.0","https://app.prolific.com/","en-US,en;q=0.9,zh-CN;q=0.8,zh;q=0.7","669149873799bbea50733fe0","686d226cabeef709c732f8e1","686e313593b4d97f1f160b7f","669149873799bbea50733fe0","","","[0]","","","2","demographics","","","","","","","","","","","","","","","","","","","","","","","","","","","","","","","","","","","","","",""
"5707","","","{""menstrual_cycle"":""Yes""}","survey-multi-choice","8","263228","0.0-6.0-3.0","45","1","2025-07-09 09:07:12","7701e855f2ef39aa3fd6c71abdc6918a","41.13.102.179","Mozilla/5.0 (Windows NT 10.0; Win64; x64) AppleWebKit/537.36 (KHTML, like Gecko) Chrome/138.0.0.0 Safari/537.36","WebKit","Chrome","138.0.0.0","Windows","10.0","https://app.prolific.com/","en-US,en;q=0.9,zh-CN;q=0.8,zh;q=0.7","669149873799bbea50733fe0","686d226cabeef709c732f8e1","686e313593b4d97f1f160b7f","669149873799bbea50733fe0","","","[0]","","","4","demographics","","","","","","","","","","","","","","","","","","","","","","","","","","","","","","","","","","","","","",""
"5794","","","{""education"":""Bachelor's Degree (e.g., BA)""}","survey-multi-choice","9","269024","0.0-6.0-4.0","45","1","2025-07-09 09:07:12","7701e855f2ef39aa3fd6c71abdc6918a","41.13.102.179","Mozilla/5.0 (Windows NT 10.0; Win64; x64) AppleWebKit/537.36 (KHTML, like Gecko) Chrome/138.0.0.0 Safari/537.36","WebKit","Chrome","138.0.0.0","Windows","10.0","https://app.prolific.com/","en-US,en;q=0.9,zh-CN;q=0.8,zh;q=0.7","669149873799bbea50733fe0","686d226cabeef709c732f8e1","686e313593b4d97f1f160b7f","669149873799bbea50733fe0","","","[0]","","","5","demographics","","","","","","","","","","","","","","","","","","","","","","","","","","","","","","","","","","","","","",""
"7709","","","{""education"":""Master's Degree (e.g., MSc)""}","survey-multi-choice","10","276735","0.0-6.0-5.0","45","1","2025-07-09 09:07:12","7701e855f2ef39aa3fd6c71abdc6918a","41.13.102.179","Mozilla/5.0 (Windows NT 10.0; Win64; x64) AppleWebKit/537.36 (KHTML, like Gecko) Chrome/138.0.0.0 Safari/537.36","WebKit","Chrome","138.0.0.0","Windows","10.0","https://app.prolific.com/","en-US,en;q=0.9,zh-CN;q=0.8,zh;q=0.7","669149873799bbea50733fe0","686d226cabeef709c732f8e1","686e313593b4d97f1f160b7f","669149873799bbea50733fe0","2025-07-09T09:11:53.365Z","","[0]","","","6","demographics","","","","","","","","","","","","","","","","","","","","","","","","","","","","","","","","","","","","","",""
"135849","","","{""mental_health_condition"":""Depression"",""mental_health_treatment"":""No"",""psychiatric_medication"":""No""}","survey-text","11","412589","0.0-7.0-0.0","45","1","2025-07-09 09:07:12","7701e855f2ef39aa3fd6c71abdc6918a","41.13.102.179","Mozilla/5.0 (Windows NT 10.0; Win64; x64) AppleWebKit/537.36 (KHTML, like Gecko) Chrome/138.0.0.0 Safari/537.36","WebKit","Chrome","138.0.0.0","Windows","10.0","https://app.prolific.com/","en-US,en;q=0.9,zh-CN;q=0.8,zh;q=0.7","669149873799bbea50733fe0","686d226cabeef709c732f8e1","686e313593b4d97f1f160b7f","669149873799bbea50733fe0","2025-07-09T09:14:09.219Z","","","","","1","mental_health","","","","","","","","","","","","","","","","","","","","","","","","","","","","","","","","","","","","","",""
"16380","","","{""depression_history"":[""Yes""]}","survey-multi-select","12","428974","0.0-7.0-1.0","45","1","2025-07-09 09:07:12","7701e855f2ef39aa3fd6c71abdc6918a","41.13.102.179","Mozilla/5.0 (Windows NT 10.0; Win64; x64) AppleWebKit/537.36 (KHTML, like Gecko) Chrome/138.0.0.0 Safari/537.36","WebKit","Chrome","138.0.0.0","Windows","10.0","https://app.prolific.com/","en-US,en;q=0.9,zh-CN;q=0.8,zh;q=0.7","669149873799bbea50733fe0","686d226cabeef709c732f8e1","686e313593b4d97f1f160b7f","669149873799bbea50733fe0","","","[0]","","","","mental_health","","","","","","","","","","","","","","","","","","","","","","","","","","","","","","","","","","","","","",""
"10903","","","{""depression_episodes"":""3-5"",""depression_recent"":""Within the past year""}","survey-multi-choice","13","439879","0.0-7.0-2.0-0.0","45","1","2025-07-09 09:07:12","7701e855f2ef39aa3fd6c71abdc6918a","41.13.102.179","Mozilla/5.0 (Windows NT 10.0; Win64; x64) AppleWebKit/537.36 (KHTML, like Gecko) Chrome/138.0.0.0 Safari/537.36","WebKit","Chrome","138.0.0.0","Windows","10.0","https://app.prolific.com/","en-US,en;q=0.9,zh-CN;q=0.8,zh;q=0.7","669149873799bbea50733fe0","686d226cabeef709c732f8e1","686e313593b4d97f1f160b7f","669149873799bbea50733fe0","2025-07-09T09:14:36.509Z","","[0,1]","","","3","mental_health","","","","","","","","","","","","","","","","","","","","","","","","","","","","","","","","","","","","","",""
"122030.79999995232","","","","survey-template","14","561934","0.0-7.0-3.0","45","1","2025-07-09 09:07:12","7701e855f2ef39aa3fd6c71abdc6918a","41.13.102.179","Mozilla/5.0 (Windows NT 10.0; Win64; x64) AppleWebKit/537.36 (KHTML, like Gecko) Chrome/138.0.0.0 Safari/537.36","WebKit","Chrome","138.0.0.0","Windows","10.0","https://app.prolific.com/","en-US,en;q=0.9,zh-CN;q=0.8,zh;q=0.7","669149873799bbea50733fe0","686d226cabeef709c732f8e1","686e313593b4d97f1f160b7f","669149873799bbea50733fe0","2025-07-09T09:16:38.565Z","","","","","","ius","{""Q01"":""0"",""Q02"":""1"",""Q03"":""1"",""Q04"":""4"",""Q05"":""2"",""Q06"":""0"",""Q07"":""0"",""Q08"":""0"",""Q09"":""4"",""Q10"":""2"",""Q11"":""2"",""Q12"":""4"",""Q13"":""2""}","[0,1,2,3,4,5,6,7,8,9,10,11,12]","[""Q01"",""Q02"",""Q03"",""Q04"",""Q05"",""Q06"",""Q07"",""Q08"",""Q09"",""Q10"",""Q11"",""Q12"",""Q13""]","[14583.699999809265,16749,19712.699999809265,30252.799999952316,39293.5,48518.39999985695,75478.09999990463,80205.89999985695,90114,100857.09999990463,102340.89999985695,114495.89999985695,120173.59999990463]","[]","[14583.699999809265,16749,19712.699999809265,30252.799999952316,39293.5,48518.39999985695,75478.09999990463,80205.89999985695,90114,99276.69999980927,100857.09999990463,102340.89999985695,114495.89999985695,120173.59999990463,122022.89999985695]","0.3076923076923077","0.16666666666666666","0","","","","","","","","","","","","","","","","","","","","","","","","","","","","",""
"2363","1752052600931","<p style='font-size:1.1em;line-height:1.25'>In the following, we will ask you a few questions relating to your experiences over the past month.<br></p><p style='font-size:1.1em;line-height:1.25'>Press the <strong>Next</strong> button to continue.</p>","0","custom-html-button-response","15","564303","0.0-7.0-4.0","45","1","2025-07-09 09:07:12","7701e855f2ef39aa3fd6c71abdc6918a","41.13.102.179","Mozilla/5.0 (Windows NT 10.0; Win64; x64) AppleWebKit/537.36 (KHTML, like Gecko) Chrome/138.0.0.0 Safari/537.36","WebKit","Chrome","138.0.0.0","Windows","10.0","https://app.prolific.com/","en-US,en;q=0.9,zh-CN;q=0.8,zh;q=0.7","669149873799bbea50733fe0","686d226cabeef709c732f8e1","686e313593b4d97f1f160b7f","669149873799bbea50733fe0","2025-07-09T09:16:40.933Z","","","","","","","","","","","","","","","","","","","","","","","","","","","","","","","","","","","","","","","","","","","",""
"433677.2999999523","","","","survey-template","16","997990","0.0-7.0-5.0","45","1","2025-07-09 09:07:12","7701e855f2ef39aa3fd6c71abdc6918a","41.13.102.179","Mozilla/5.0 (Windows NT 10.0; Win64; x64) AppleWebKit/537.36 (KHTML, like Gecko) Chrome/138.0.0.0 Safari/537.36","WebKit","Chrome","138.0.0.0","Windows","10.0","https://app.prolific.com/","en-US,en;q=0.9,zh-CN;q=0.8,zh;q=0.7","669149873799bbea50733fe0","686d226cabeef709c732f8e1","686e313593b4d97f1f160b7f","669149873799bbea50733fe0","2025-07-09T09:23:54.620Z","","","","","","pss","{""Q01"":""2"",""Q02"":""1"",""Q03"":""3"",""Q04"":""2"",""Q05"":""2"",""Q06"":""1"",""Q07"":""1"",""Q08"":""0"",""Q09"":""1"",""Q10"":""2""}","[0,1,2,3,4,5,6,7,8,9]","[""Q01"",""Q02"",""Q03"",""Q04"",""Q05"",""Q06"",""Q07"",""Q08"",""Q09"",""Q10""]","[117432.29999995232,270288.7999999523,281092.69999980927,306805,349849.39999985695,354494.09999990463,412324.09999990463,425079.19999980927,430121.89999985695,431840.39999985695]","[]","[0.19999980926513672,117432.29999995232,270288.7999999523,281092.69999980927,306805,348035.39999985695,349849.39999985695,354494.09999990463,412324.09999990463,423580.19999980927,425079.19999980927,430121.89999985695,431840.39999985695,433670.19999980927]","0.4","0.5555555555555556","0","","","","","","","","","","","","","","","","","","","","","","","","","","","","",""
"2513","1752053037136","<p style='font-size:1.1em;line-height:1.25'>Thank you for your answers! Now we will ask you a few more questions relating to your feelings in the last 24 hours.<br></p><p style='font-size:1.1em;line-height:1.25'>Press the <strong>Next</strong> button to continue.</p>","0","custom-html-button-response","17","1000507","0.0-7.0-6.0","45","1","2025-07-09 09:07:12","7701e855f2ef39aa3fd6c71abdc6918a","41.13.102.179","Mozilla/5.0 (Windows NT 10.0; Win64; x64) AppleWebKit/537.36 (KHTML, like Gecko) Chrome/138.0.0.0 Safari/537.36","WebKit","Chrome","138.0.0.0","Windows","10.0","https://app.prolific.com/","en-US,en;q=0.9,zh-CN;q=0.8,zh;q=0.7","669149873799bbea50733fe0","686d226cabeef709c732f8e1","686e313593b4d97f1f160b7f","669149873799bbea50733fe0","2025-07-09T09:23:57.137Z","","","","","","","","","","","","","","","","","","","","","","","","","","","","","","","","","","","","","","","","","","","",""
"98456.20000004768","","","","survey-template","18","1098973","0.0-7.0-7.0","45","1","2025-07-09 09:07:12","7701e855f2ef39aa3fd6c71abdc6918a","41.13.102.179","Mozilla/5.0 (Windows NT 10.0; Win64; x64) AppleWebKit/537.36 (KHTML, like Gecko) Chrome/138.0.0.0 Safari/537.36","WebKit","Chrome","138.0.0.0","Windows","10.0","https://app.prolific.com/","en-US,en;q=0.9,zh-CN;q=0.8,zh;q=0.7","669149873799bbea50733fe0","686d226cabeef709c732f8e1","686e313593b4d97f1f160b7f","669149873799bbea50733fe0","2025-07-09T09:25:35.603Z","","","","","","drsp","{""Q01"":""1"",""Q02"":""0"",""Q03"":""1"",""Q04"":""0"",""Q05"":""0"",""Q06"":""2"",""Q07"":""0"",""Q08"":""0"",""Q09"":""1"",""Q10"":""1"",""Q11"":""2"",""Q12"":""0"",""Q13"":""4"",""Q14"":""1"",""Q15"":""0"",""Q16"":""1"",""Q17"":""0"",""Q18"":""1"",""Q19"":""1"",""Q20"":""1"",""Q21"":""1""}","[0,1,2,3,4,5,6,7,8,9,10,11,12,13,14,15,16,17,18,19,20]","[""Q01"",""Q02"",""Q03"",""Q04"",""Q05"",""Q06"",""Q07"",""Q08"",""Q09"",""Q10"",""Q11"",""Q12"",""Q13"",""Q14"",""Q15"",""Q16"",""Q17"",""Q18"",""Q19"",""Q20"",""Q20"",""Q21""]","[3915.100000143051,5841,9206,10774.400000095367,12739.100000143051,14504.700000047684,17368.700000047684,20531.60000014305,28859.300000190735,30507.400000095367,60377.300000190735,63941.5,67503,70668,72317.90000009537,77310.90000009537,79060.60000014305,83040.5,89056.30000019073,94261.80000019073,95428.20000004768,96993.30000019073]","[]","[0,3915.100000143051,5841,8010.400000095367,9206,10774.400000095367,12739.100000143051,14504.700000047684,17368.700000047684,20531.60000014305,28859.300000190735,30507.400000095367,51884,60377.300000190735,62676.200000047684,63941.5,67503,70668,72317.90000009537,75129.10000014305,77310.90000009537,79060.60000014305,83040.5,89056.30000019073,94261.80000019073,95428.20000004768,96993.30000019073,98443.40000009537]","0.47619047619047616","0.45","0","","","","","","","","","","","","","","","","","","","","","","","","","","","","",""
"15429.400000095367","","","","survey-template","19","1114409","0.0-7.0-8.0","45","1","2025-07-09 09:07:12","7701e855f2ef39aa3fd6c71abdc6918a","41.13.102.179","Mozilla/5.0 (Windows NT 10.0; Win64; x64) AppleWebKit/537.36 (KHTML, like Gecko) Chrome/138.0.0.0 Safari/537.36","WebKit","Chrome","138.0.0.0","Windows","10.0","https://app.prolific.com/","en-US,en;q=0.9,zh-CN;q=0.8,zh;q=0.7","669149873799bbea50733fe0","686d226cabeef709c732f8e1","686e313593b4d97f1f160b7f","669149873799bbea50733fe0","2025-07-09T09:25:51.040Z","","","","","","stress","{""Q01"":""2"",""Q02"":""2"",""Q03"":""2""}","[0,1,2]","[""Q01"",""Q02"",""Q03""]","[5235.400000095367,12628.900000095367,14092.099999904633]","[]","[5235.400000095367,12628.900000095367,14092.099999904633,15425.400000095367]","0.6666666666666666","1","0","","","","","","","","","","","","","","","","","","","","","","","","","","","","",""
"56251","","","","instructions","20","1170664","0.0-8.0-0.0","45","1","2025-07-09 09:07:12","7701e855f2ef39aa3fd6c71abdc6918a","41.13.102.179","Mozilla/5.0 (Windows NT 10.0; Win64; x64) AppleWebKit/537.36 (KHTML, like Gecko) Chrome/138.0.0.0 Safari/537.36","WebKit","Chrome","138.0.0.0","Windows","10.0","https://app.prolific.com/","en-US,en;q=0.9,zh-CN;q=0.8,zh;q=0.7","669149873799bbea50733fe0","686d226cabeef709c732f8e1","686e313593b4d97f1f160b7f","669149873799bbea50733fe0","","[{""page_index"":0,""viewing_time"":14707},{""page_index"":1,""viewing_time"":18953},{""page_index"":2,""viewing_time"":7573},{""page_index"":3,""viewing_time"":15017}]","","","","","","","","","","","","","","","","","","","","","","","","","","","","","","","","","","","","","","","","","","",""
"","","","","ctl-task-cpt","21","1200392","0.0-8.0-1.0","45","1","2025-07-09 09:07:12","7701e855f2ef39aa3fd6c71abdc6918a","41.13.102.179","Mozilla/5.0 (Windows NT 10.0; Win64; x64) AppleWebKit/537.36 (KHTML, like Gecko) Chrome/138.0.0.0 Safari/537.36","WebKit","Chrome","138.0.0.0","Windows","10.0","https://app.prolific.com/","en-US,en;q=0.9,zh-CN;q=0.8,zh;q=0.7","669149873799bbea50733fe0","686d226cabeef709c732f8e1","686e313593b4d97f1f160b7f","669149873799bbea50733fe0","","","","","","","","","","","","","","","","","win-only","3","g1:SW,g2:NE","1","0","1","1174760.5","1658.5","5661.6","26717.4","2","4","4","6","1","-2","-6","0","0","0","4003.1","4000","-3005","[""down"",""left""]","{""num_key_presses"":7,""num_perfect"":0,""num_errors"":4,""num_randdir"":0,""num_randdir_good_moves"":0,""num_whilered"":3,""num_whileblue"":0,""num_blue"":2,""num_good_moves"":0}","[409.0714133126395,410.32142761775424,0.4,409.0714133126395,410.32142761775424,102.8,409.0714133126395,410.32142761775424,203,409.0714133126395,410.32142761775424,303.6,409.0714133126395,410.32142761775424,407.6,409.0714133126395,410.32142761775424,507.7,409.0714133126395,410.32142761775424,609.1,409.0714133126395,410.32142761775424,709.5,409.0714133126395,410.32142761775424,813.2,409.0714133126395,410.32142761775424,915.5,409.0714133126395,410.32142761775424,1015.6,409.0714133126395,410.32142761775424,1117.3,409.0714133126395,410.32142761775424,1217.3,409.0714133126395,410.32142761775424,1317.3,409.0714133126395,410.32142761775424,1417.4,409.0714133126395,410.32142761775424,1517.4,409.0714133126395,410.32142761775424,1617.6,409.0714133126395,410.32142761775424,1722.1,400.3214133126395,422.82142761775424,1823.7,391.5714133126395,435.32142761775424,1924.8,377.8214133126395,456.57142761775424,2025.7,366.5714133126395,492.82142761775424,2133,370.3214133126395,501.57142761775424,2233.4,370.3214133126395,501.57142761775424,2337.9,370.3214133126395,501.57142761775424,2438.5,370.3214133126395,501.57142761775424,2544,370.3214133126395,501.57142761775424,2647.8,370.3214133126395,501.57142761775424,2749,370.3214133126395,501.57142761775424,2854.9,370.3214133126395,501.57142761775424,2965.2,370.3214133126395,501.57142761775424,3068.3,370.3214133126395,501.57142761775424,3173.2,370.3214133126395,501.57142761775424,3277.5,370.3214133126395,501.57142761775424,3383.8,370.3214133126395,501.57142761775424,3490.8,370.3214133126395,501.57142761775424,3597.4,370.3214133126395,501.57142761775424,3697.4,370.3214133126395,501.57142761775424,3802.4,370.3214133126395,501.57142761775424,3902.8]","[7462,7462,2758.6,5295,-591.6,""error"",""-"",""-"",""no_move"",8092.3,629,2758.6,5295,38.8,""while_red"",""-"",""-"",""no_move"",9616.8,2153.5,3306.6,8464.4,-2154.2,""error"",""-"",""-"",""no_move"",9966.5,349,3306.6,8464.4,-1804.4,""while_red"",""-"",""-"",""no_move"",11500.7,1883.2,2937,10618.8,-2055.1,""error"",""-"",""-"",""no_move"",12494.2,992.4,2937,10618.8,-1061.6,""while_red"",""-"",""-"",""no_move"",13411,1909.2,2246.5,12504.5,-1340,""error"",""-"",""-"",""no_move""]","",""
"11816","","","","instructions","22","1212209","0.0-8.0-2.0","45","1","2025-07-09 09:07:12","7701e855f2ef39aa3fd6c71abdc6918a","41.13.102.179","Mozilla/5.0 (Windows NT 10.0; Win64; x64) AppleWebKit/537.36 (KHTML, like Gecko) Chrome/138.0.0.0 Safari/537.36","WebKit","Chrome","138.0.0.0","Windows","10.0","https://app.prolific.com/","en-US,en;q=0.9,zh-CN;q=0.8,zh;q=0.7","669149873799bbea50733fe0","686d226cabeef709c732f8e1","686e313593b4d97f1f160b7f","669149873799bbea50733fe0","","[{""page_index"":0,""viewing_time"":11816}]","","","","","","","","","","","","","","","","","","","","","","","","","","","","","","","","","","","","","","","","","","",""
"","","","","ctl-task-cpt","23","1246297","0.0-8.0-3.0","45","1","2025-07-09 09:07:12","7701e855f2ef39aa3fd6c71abdc6918a","41.13.102.179","Mozilla/5.0 (Windows NT 10.0; Win64; x64) AppleWebKit/537.36 (KHTML, like Gecko) Chrome/138.0.0.0 Safari/537.36","WebKit","Chrome","138.0.0.0","Windows","10.0","https://app.prolific.com/","en-US,en;q=0.9,zh-CN;q=0.8,zh;q=0.7","669149873799bbea50733fe0","686d226cabeef709c732f8e1","686e313593b4d97f1f160b7f","669149873799bbea50733fe0","","","","","","","","","","","","","","","","","win-only","3","g1:SW,g2:NE","0.35","0","3","1216303.4","8872","12880.1","31056.4","2","4","8","6","2","-8","-11","0","0","0","2364.9","4000","-2305","[""up"",""right""]","{""num_key_presses"":5,""num_perfect"":1,""num_errors"":3,""num_randdir"":0,""num_randdir_good_moves"":0,""num_whilered"":1,""num_whileblue"":0,""num_blue"":1,""num_good_moves"":0}","[421.5714133126395,417.82142761775424,0.9,421.5714133126395,417.82142761775424,101.5,421.5714133126395,417.82142761775424,201.6,421.5714133126395,417.82142761775424,317.9,421.5714133126395,417.82142761775424,420.6,421.5714133126395,417.82142761775424,523.7,421.5714133126395,417.82142761775424,623.7,411.5714133126395,420.32142761775424,723.9,371.5714133126395,461.57142761775424,830,354.0714133126395,481.57142761775424,933.6,349.0714133126395,489.07142761775424,1036.5,349.0714133126395,491.57142761775424,1139.9,349.0714133126395,491.57142761775424,1243.7,349.0714133126395,491.57142761775424,1350.5,349.0714133126395,491.57142761775424,1450.8,502.8214133126395,351.57142761775424,1552.1,706.5714133126395,102.82142761775425,1653.3,720.3214133126395,81.57142761775425,1755.6,724.0714133126395,84.07142761775425,1860.3,726.5714133126395,90.32142761775425,1961.4,727.8214133126395,97.82142761775425,2067.2,729.0714133126395,99.07142761775425,2167.3,729.0714133126395,99.07142761775425,2269.3,729.0714133126395,99.07142761775425,2371.2,729.0714133126395,99.07142761775425,2475.1,729.0714133126395,99.07142761775425,2577.7,729.0714133126395,99.07142761775425,2679.6,729.0714133126395,99.07142761775425,2780,729.0714133126395,99.07142761775425,2891.3,729.0714133126395,99.07142761775425,2999,729.0714133126395,99.07142761775425,3104.9,729.0714133126395,99.07142761775425,3209.3,729.0714133126395,99.07142761775425,3313.4,729.0714133126395,99.07142761775425,3415.2,729.0714133126395,99.07142761775425,3518.6,729.0714133126395,99.07142761775425,3626.1,729.0714133126395,99.07142761775425,3726.4,729.0714133126395,99.07142761775425,3828.5,729.0714133126395,99.07142761775425,3930.3]","[5215,5215,1000,0,4215,""smooth"",""down"",""down"",""bad_move"",5552.2,336.2,2557.1,5216,-2220.9,""error"",""-"",""-"",""no_move"",6192.4,639.5,2557.1,5216,-1580.7,""while_red"",""-"",""-"",""no_move"",7189.6,1636.7,3194.5,6562.7,-2567.6,""error"",""-"",""-"",""no_move"",9534.7,2344.4,2607.6,8193.2,-1266.1,""error"",""-"",""-"",""no_move""]","",""
"195942","","","","instructions","24","1442240","0.0-8.0-4.0","45","1","2025-07-09 09:07:12","7701e855f2ef39aa3fd6c71abdc6918a","41.13.102.179","Mozilla/5.0 (Windows NT 10.0; Win64; x64) AppleWebKit/537.36 (KHTML, like Gecko) Chrome/138.0.0.0 Safari/537.36","WebKit","Chrome","138.0.0.0","Windows","10.0","https://app.prolific.com/","en-US,en;q=0.9,zh-CN;q=0.8,zh;q=0.7","669149873799bbea50733fe0","686d226cabeef709c732f8e1","686e313593b4d97f1f160b7f","669149873799bbea50733fe0","","[{""page_index"":0,""viewing_time"":9961},{""page_index"":1,""viewing_time"":185981}]","","","","","","","","","","","","","","","","","","","","","","","","","","","","","","","","","","","","","","","","","","",""
"20395","","","{""green_ball"":[""Ball doesn‘t move and I get -1 penalty point""]}","survey-multi-select","25","1462641","0.0-8.0-5.0-0.0","45","1","2025-07-09 09:07:12","7701e855f2ef39aa3fd6c71abdc6918a","41.13.102.179","Mozilla/5.0 (Windows NT 10.0; Win64; x64) AppleWebKit/537.36 (KHTML, like Gecko) Chrome/138.0.0.0 Safari/537.36","WebKit","Chrome","138.0.0.0","Windows","10.0","https://app.prolific.com/","en-US,en;q=0.9,zh-CN;q=0.8,zh;q=0.7","669149873799bbea50733fe0","686d226cabeef709c732f8e1","686e313593b4d97f1f160b7f","669149873799bbea50733fe0","","","[0]","","","","quiz","","","","","","","","","","","","","","","","","","","","","","","","","","","","","","","","","","","","","false",""
"2685","","<p align='center'><b>INCORRECT.</b> Usually the green ball moves in the indicated direction, but sometimes it shakes and moves randomly. </p>","0","html-button-response","26","1465336","0.0-8.0-5.0-1.0","45","1","2025-07-09 09:07:12","7701e855f2ef39aa3fd6c71abdc6918a","41.13.102.179","Mozilla/5.0 (Windows NT 10.0; Win64; x64) AppleWebKit/537.36 (KHTML, like Gecko) Chrome/138.0.0.0 Safari/537.36","WebKit","Chrome","138.0.0.0","Windows","10.0","https://app.prolific.com/","en-US,en;q=0.9,zh-CN;q=0.8,zh;q=0.7","669149873799bbea50733fe0","686d226cabeef709c732f8e1","686e313593b4d97f1f160b7f","669149873799bbea50733fe0","","","","","","","","","","","","","","","","","","","","","","","","","","","","","","","","","","","","","","","","","","","","",""
"12248","","","{""green_ball"":[""Ball sometimes shakes and moves in a random direction""]}","survey-multi-select","27","1477588","0.0-8.0-5.1-0.1","45","1","2025-07-09 09:07:12","7701e855f2ef39aa3fd6c71abdc6918a","41.13.102.179","Mozilla/5.0 (Windows NT 10.0; Win64; x64) AppleWebKit/537.36 (KHTML, like Gecko) Chrome/138.0.0.0 Safari/537.36","WebKit","Chrome","138.0.0.0","Windows","10.0","https://app.prolific.com/","en-US,en;q=0.9,zh-CN;q=0.8,zh;q=0.7","669149873799bbea50733fe0","686d226cabeef709c732f8e1","686e313593b4d97f1f160b7f","669149873799bbea50733fe0","","","[0]","","","","quiz","","","","","","","","","","","","","","","","","","","","","","","","","","","","","","","","","","","","","true",""
"1784","","<p align='center'><b>CORRECT!</b> Indeed, the green ball may sometimes shake and move in a random direction.</p>","0","html-button-response","28","1479374","0.0-8.0-5.1-1.1","45","1","2025-07-09 09:07:12","7701e855f2ef39aa3fd6c71abdc6918a","41.13.102.179","Mozilla/5.0 (Windows NT 10.0; Win64; x64) AppleWebKit/537.36 (KHTML, like Gecko) Chrome/138.0.0.0 Safari/537.36","WebKit","Chrome","138.0.0.0","Windows","10.0","https://app.prolific.com/","en-US,en;q=0.9,zh-CN;q=0.8,zh;q=0.7","669149873799bbea50733fe0","686d226cabeef709c732f8e1","686e313593b4d97f1f160b7f","669149873799bbea50733fe0","","","","","","","","","","","","","","","","","","","","","","","","","","","","","","","","","","","","","","","","","","","","",""
"6091","","","{""yellow_ball"":[""Ball doesn‘t move and I get -1 penalty point""]}","survey-multi-select","29","1485467","0.0-8.0-6.0-0.0","45","1","2025-07-09 09:07:12","7701e855f2ef39aa3fd6c71abdc6918a","41.13.102.179","Mozilla/5.0 (Windows NT 10.0; Win64; x64) AppleWebKit/537.36 (KHTML, like Gecko) Chrome/138.0.0.0 Safari/537.36","WebKit","Chrome","138.0.0.0","Windows","10.0","https://app.prolific.com/","en-US,en;q=0.9,zh-CN;q=0.8,zh;q=0.7","669149873799bbea50733fe0","686d226cabeef709c732f8e1","686e313593b4d97f1f160b7f","669149873799bbea50733fe0","","","[0]","","","","quiz","","","","","","","","","","","","","","","","","","","","","","","","","","","","","","","","","","","","","true",""
"1742","","<p align='center'><b>CORRECT!</b> Indeed, the yellow ball never moves and you receive a penalty.</p>","0","html-button-response","30","1487212","0.0-8.0-6.0-1.0","45","1","2025-07-09 09:07:12","7701e855f2ef39aa3fd6c71abdc6918a","41.13.102.179","Mozilla/5.0 (Windows NT 10.0; Win64; x64) AppleWebKit/537.36 (KHTML, like Gecko) Chrome/138.0.0.0 Safari/537.36","WebKit","Chrome","138.0.0.0","Windows","10.0","https://app.prolific.com/","en-US,en;q=0.9,zh-CN;q=0.8,zh;q=0.7","669149873799bbea50733fe0","686d226cabeef709c732f8e1","686e313593b4d97f1f160b7f","669149873799bbea50733fe0","","","","","","","","","","","","","","","","","","","","","","","","","","","","","","","","","","","","","","","","","","","","",""
"6200","","","{""blue_ball"":[""Ball always moves in the direction I press""]}","survey-multi-select","31","1493415","0.0-8.0-7.0-0.0","45","1","2025-07-09 09:07:12","7701e855f2ef39aa3fd6c71abdc6918a","41.13.102.179","Mozilla/5.0 (Windows NT 10.0; Win64; x64) AppleWebKit/537.36 (KHTML, like Gecko) Chrome/138.0.0.0 Safari/537.36","WebKit","Chrome","138.0.0.0","Windows","10.0","https://app.prolific.com/","en-US,en;q=0.9,zh-CN;q=0.8,zh;q=0.7","669149873799bbea50733fe0","686d226cabeef709c732f8e1","686e313593b4d97f1f160b7f","669149873799bbea50733fe0","","","[0]","","","","quiz","","","","","","","","","","","","","","","","","","","","","","","","","","","","","","","","","","","","","false",""
"2034","","<p align='center'><b>INCORRECT.</b> The blue ball always shakes and moves randomly.</p>","0","html-button-response","32","1495451","0.0-8.0-7.0-1.0","45","1","2025-07-09 09:07:12","7701e855f2ef39aa3fd6c71abdc6918a","41.13.102.179","Mozilla/5.0 (Windows NT 10.0; Win64; x64) AppleWebKit/537.36 (KHTML, like Gecko) Chrome/138.0.0.0 Safari/537.36","WebKit","Chrome","138.0.0.0","Windows","10.0","https://app.prolific.com/","en-US,en;q=0.9,zh-CN;q=0.8,zh;q=0.7","669149873799bbea50733fe0","686d226cabeef709c732f8e1","686e313593b4d97f1f160b7f","669149873799bbea50733fe0","","","","","","","","","","","","","","","","","","","","","","","","","","","","","","","","","","","","","","","","","","","","",""
"4593","","","{""blue_ball"":[""Ball always shakes and moves in a random direction""]}","survey-multi-select","33","1500047","0.0-8.0-7.1-0.1","45","1","2025-07-09 09:07:12","7701e855f2ef39aa3fd6c71abdc6918a","41.13.102.179","Mozilla/5.0 (Windows NT 10.0; Win64; x64) AppleWebKit/537.36 (KHTML, like Gecko) Chrome/138.0.0.0 Safari/537.36","WebKit","Chrome","138.0.0.0","Windows","10.0","https://app.prolific.com/","en-US,en;q=0.9,zh-CN;q=0.8,zh;q=0.7","669149873799bbea50733fe0","686d226cabeef709c732f8e1","686e313593b4d97f1f160b7f","669149873799bbea50733fe0","","","[0]","","","","quiz","","","","","","","","","","","","","","","","","","","","","","","","","","","","","","","","","","","","","true",""
"2133","","<p align='center'><b>CORRECT!</b> Indeed, the blue ball always shakes and moves in a random direction. Also there is a penalty of -1 point.</p>","0","html-button-response","34","1502182","0.0-8.0-7.1-1.1","45","1","2025-07-09 09:07:12","7701e855f2ef39aa3fd6c71abdc6918a","41.13.102.179","Mozilla/5.0 (Windows NT 10.0; Win64; x64) AppleWebKit/537.36 (KHTML, like Gecko) Chrome/138.0.0.0 Safari/537.36","WebKit","Chrome","138.0.0.0","Windows","10.0","https://app.prolific.com/","en-US,en;q=0.9,zh-CN;q=0.8,zh;q=0.7","669149873799bbea50733fe0","686d226cabeef709c732f8e1","686e313593b4d97f1f160b7f","669149873799bbea50733fe0","","","","","","","","","","","","","","","","","","","","","","","","","","","","","","","","","","","","","","","","","","","","",""
"9224","","","{""bonus"":[""When I reach all possible points""]}","survey-multi-select","35","1511409","0.0-8.0-8.0-0.0","45","1","2025-07-09 09:07:12","7701e855f2ef39aa3fd6c71abdc6918a","41.13.102.179","Mozilla/5.0 (Windows NT 10.0; Win64; x64) AppleWebKit/537.36 (KHTML, like Gecko) Chrome/138.0.0.0 Safari/537.36","WebKit","Chrome","138.0.0.0","Windows","10.0","https://app.prolific.com/","en-US,en;q=0.9,zh-CN;q=0.8,zh;q=0.7","669149873799bbea50733fe0","686d226cabeef709c732f8e1","686e313593b4d97f1f160b7f","669149873799bbea50733fe0","","","[0]","","","","quiz","","","","","","","","","","","","","","","","","","","","","","","","","","","","","","","","","","","","","false",""
"2157","","<p align='center'><b>INCORRECT.</b> You receive 2 pounds extra when you reach 50% of points </p>","0","html-button-response","36","1513568","0.0-8.0-8.0-1.0","45","1","2025-07-09 09:07:12","7701e855f2ef39aa3fd6c71abdc6918a","41.13.102.179","Mozilla/5.0 (Windows NT 10.0; Win64; x64) AppleWebKit/537.36 (KHTML, like Gecko) Chrome/138.0.0.0 Safari/537.36","WebKit","Chrome","138.0.0.0","Windows","10.0","https://app.prolific.com/","en-US,en;q=0.9,zh-CN;q=0.8,zh;q=0.7","669149873799bbea50733fe0","686d226cabeef709c732f8e1","686e313593b4d97f1f160b7f","669149873799bbea50733fe0","","","","","","","","","","","","","","","","","","","","","","","","","","","","","","","","","","","","","","","","","","","","",""
"3047","","","{""bonus"":[""When I reach 50% of points""]}","survey-multi-select","37","1516619","0.0-8.0-8.1-0.1","45","1","2025-07-09 09:07:12","7701e855f2ef39aa3fd6c71abdc6918a","41.13.102.179","Mozilla/5.0 (Windows NT 10.0; Win64; x64) AppleWebKit/537.36 (KHTML, like Gecko) Chrome/138.0.0.0 Safari/537.36","WebKit","Chrome","138.0.0.0","Windows","10.0","https://app.prolific.com/","en-US,en;q=0.9,zh-CN;q=0.8,zh;q=0.7","669149873799bbea50733fe0","686d226cabeef709c732f8e1","686e313593b4d97f1f160b7f","669149873799bbea50733fe0","","","[0]","","","","quiz","","","","","","","","","","","","","","","","","","","","","","","","","","","","","","","","","","","","","true",""
"1600","","<p align='center'><b>CORRECT!</b> Indeed, you receive 2 pounds extra when you reach 50% of points.</p>","0","html-button-response","38","1518222","0.0-8.0-8.1-1.1","45","1","2025-07-09 09:07:12","7701e855f2ef39aa3fd6c71abdc6918a","41.13.102.179","Mozilla/5.0 (Windows NT 10.0; Win64; x64) AppleWebKit/537.36 (KHTML, like Gecko) Chrome/138.0.0.0 Safari/537.36","WebKit","Chrome","138.0.0.0","Windows","10.0","https://app.prolific.com/","en-US,en;q=0.9,zh-CN;q=0.8,zh;q=0.7","669149873799bbea50733fe0","686d226cabeef709c732f8e1","686e313593b4d97f1f160b7f","669149873799bbea50733fe0","","","","","","","","","","","","","","","","","","","","","","","","","","","","","","","","","","","","","","","","","","","","",""
"1756","","","","instructions","39","1519980","0.0-8.0-9.0","45","1","2025-07-09 09:07:12","7701e855f2ef39aa3fd6c71abdc6918a","41.13.102.179","Mozilla/5.0 (Windows NT 10.0; Win64; x64) AppleWebKit/537.36 (KHTML, like Gecko) Chrome/138.0.0.0 Safari/537.36","WebKit","Chrome","138.0.0.0","Windows","10.0","https://app.prolific.com/","en-US,en;q=0.9,zh-CN;q=0.8,zh;q=0.7","669149873799bbea50733fe0","686d226cabeef709c732f8e1","686e313593b4d97f1f160b7f","669149873799bbea50733fe0","","[{""page_index"":0,""viewing_time"":1756}]","","","","","","","","","","","","","","","","","","","","","","","","","","","","","","","","","","","","","","","","","","",""
"8624","","<p>Before you start with this game please answer the following three questions yourself. </p>
  <p>Through this game, we measure several aspects of your cognitive performance, such as reaction times, multi-tasking capabilities </p>
  <p>and the ability to assess the situation you are in.</p>
  <p></p>
  <p><b>How good do you usually are in such tasks?</b></p>","50","html-slider-response","40","1528608","0.0-9.0-0.0","45","1","2025-07-09 09:07:12","7701e855f2ef39aa3fd6c71abdc6918a","41.13.102.179","Mozilla/5.0 (Windows NT 10.0; Win64; x64) AppleWebKit/537.36 (KHTML, like Gecko) Chrome/138.0.0.0 Safari/537.36","WebKit","Chrome","138.0.0.0","Windows","10.0","https://app.prolific.com/","en-US,en;q=0.9,zh-CN;q=0.8,zh;q=0.7","669149873799bbea50733fe0","686d226cabeef709c732f8e1","686e313593b4d97f1f160b7f","669149873799bbea50733fe0","2025-07-09T09:32:45.238Z","","","","","","PreSkillQ","","","","","","","","","","","","","","","","","","","","","","","","","","","","","","","","","","","","","","50"
"5323","","<div style=""width:500px;"">
  <p>How well do you think you will perform in this task compared to other participants?</p>
  </div>","55","html-slider-response","41","1533934","0.0-9.0-1.0","45","1","2025-07-09 09:07:12","7701e855f2ef39aa3fd6c71abdc6918a","41.13.102.179","Mozilla/5.0 (Windows NT 10.0; Win64; x64) AppleWebKit/537.36 (KHTML, like Gecko) Chrome/138.0.0.0 Safari/537.36","WebKit","Chrome","138.0.0.0","Windows","10.0","https://app.prolific.com/","en-US,en;q=0.9,zh-CN;q=0.8,zh;q=0.7","669149873799bbea50733fe0","686d226cabeef709c732f8e1","686e313593b4d97f1f160b7f","669149873799bbea50733fe0","2025-07-09T09:32:50.564Z","","","","","","PrePerfQ","","","","","","","","","","","","","","","","","","","","","","","","","","","","","","","","","","","","","","50"
"3116","","<div style=""width:500px;"">
  <p>What best describes how you currently feel?</p>
  </div>","50","html-slider-response","42","1537052","0.0-9.0-2.0","45","1","2025-07-09 09:07:12","7701e855f2ef39aa3fd6c71abdc6918a","41.13.102.179","Mozilla/5.0 (Windows NT 10.0; Win64; x64) AppleWebKit/537.36 (KHTML, like Gecko) Chrome/138.0.0.0 Safari/537.36","WebKit","Chrome","138.0.0.0","Windows","10.0","https://app.prolific.com/","en-US,en;q=0.9,zh-CN;q=0.8,zh;q=0.7","669149873799bbea50733fe0","686d226cabeef709c732f8e1","686e313593b4d97f1f160b7f","669149873799bbea50733fe0","2025-07-09T09:32:53.683Z","","","","","","PreMotivationQ","","","","","","","","","","","","","","","","","","","","","","","","","","","","","","","","","","","","","","50"
"","","","","ctl-task-cpt","43","1577973","0.0-10.0-0.0","45","1","2025-07-09 09:07:12","7701e855f2ef39aa3fd6c71abdc6918a","41.13.102.179","Mozilla/5.0 (Windows NT 10.0; Win64; x64) AppleWebKit/537.36 (KHTML, like Gecko) Chrome/138.0.0.0 Safari/537.36","WebKit","Chrome","138.0.0.0","Windows","10.0","https://app.prolific.com/","en-US,en;q=0.9,zh-CN;q=0.8,zh;q=0.7","669149873799bbea50733fe0","686d226cabeef709c732f8e1","686e313593b4d97f1f160b7f","669149873799bbea50733fe0","2025-07-09T09:33:34.603Z","","","","","","","","","","","","","","","","win-only","2","g1:SE,g2:NW","1","1","0","1541148.7","7023.7","12026.3","37901.7","1","4","4","6","1","1","-4","0","0","0","5002.6","3000","1015","[""down"",""right""]","{""num_key_presses"":10,""num_perfect"":4,""num_errors"":5,""num_randdir"":0,""num_randdir_good_moves"":0,""num_whilered"":1,""num_whileblue"":0,""num_blue"":2,""num_good_moves"":4}","[411.5714133126395,407.82142761775424,0.9,411.5714133126395,407.82142761775424,103.7,411.5714133126395,407.82142761775424,220.6,411.5714133126395,407.82142761775424,321.4,411.5714133126395,407.82142761775424,430,411.5714133126395,407.82142761775424,533.2,411.5714133126395,407.82142761775424,638.4,411.5714133126395,407.82142761775424,747.8,411.5714133126395,407.82142761775424,860.3,411.5714133126395,407.82142761775424,962.7,411.5714133126395,407.82142761775424,1068.4,411.5714133126395,407.82142761775424,1171.9,411.5714133126395,407.82142761775424,1273,411.5714133126395,407.82142761775424,1375.3,411.5714133126395,407.82142761775424,1486,411.5714133126395,407.82142761775424,1588.1,411.5714133126395,407.82142761775424,1688.6,411.5714133126395,407.82142761775424,1802.1,411.5714133126395,407.82142761775424,1909,411.5714133126395,407.82142761775424,2010.1,411.5714133126395,407.82142761775424,2110.1,411.5714133126395,407.82142761775424,2213.6,411.5714133126395,407.82142761775424,2324.4,411.5714133126395,407.82142761775424,2429.3,411.5714133126395,407.82142761775424,2529.4,411.5714133126395,407.82142761775424,2632.7,411.5714133126395,407.82142761775424,2734,479.0714133126395,491.57142761775424,2850.4,480.3214133126395,492.82142761775424,2957.6,481.5714133126395,492.82142761775424,3058.4,481.5714133126395,492.82142761775424,3173.7,481.5714133126395,492.82142761775424,3278.5,481.5714133126395,492.82142761775424,3379.2,481.5714133126395,492.82142761775424,3483.6,481.5714133126395,492.82142761775424,3587.2,481.5714133126395,492.82142761775424,3687.2,481.5714133126395,492.82142761775424,3806,481.5714133126395,492.82142761775424,3909.9,481.5714133126395,492.82142761775424,4012.8,481.5714133126395,492.82142761775424,4116.8,481.5714133126395,492.82142761775424,4219.4,481.5714133126395,492.82142761775424,4321.7,481.5714133126395,492.82142761775424,4438.4,481.5714133126395,492.82142761775424,4543.4,481.5714133126395,492.82142761775424,4646.6,481.5714133126395,492.82142761775424,4752.6,481.5714133126395,492.82142761775424,4879.1,481.5714133126395,492.82142761775424,4981.9]","[158.3,158.3,1000,0,-841.7,""error"",""-"",""-"",""no_move"",1847.2,1688.2,2992.4,1160.4,-2305.5,""error"",""-"",""-"",""no_move"",3142.7,1294.6,2692.1,2849.8,-2399.2,""error"",""-"",""-"",""no_move"",7167.3,4023.8,1628.2,4146.2,1392.9,""smooth"",""right"",""right"",""good_move"",10117.2,2948.1,2604.1,7169.1,344,""smooth"",""right"",""right"",""good_move"",10385.1,267,2523.2,10118.1,-2256.2,""error"",""-"",""-"",""no_move"",21319.2,10933.5,2458.7,18138.6,721.9,""smooth"",""down"",""down"",""good_move"",21720.2,400.2,1627.3,21320.1,-1227.1,""error"",""-"",""-"",""no_move"",21931.3,210.3,1627.3,21320.1,-1016.1,""while_red"",""-"",""-"",""no_move"",25727,4006,2111.1,22731.5,884.4,""smooth"",""down"",""down"",""good_move""]","",""
"4047","","<div style=""width:500px;"">
  <p>What determined the result of this run?</p>
  </div>","50","html-slider-response","44","1582024","0.0-10.0-1.0","45","1","2025-07-09 09:07:12","7701e855f2ef39aa3fd6c71abdc6918a","41.13.102.179","Mozilla/5.0 (Windows NT 10.0; Win64; x64) AppleWebKit/537.36 (KHTML, like Gecko) Chrome/138.0.0.0 Safari/537.36","WebKit","Chrome","138.0.0.0","Windows","10.0","https://app.prolific.com/","en-US,en;q=0.9,zh-CN;q=0.8,zh;q=0.7","669149873799bbea50733fe0","686d226cabeef709c732f8e1","686e313593b4d97f1f160b7f","669149873799bbea50733fe0","2025-07-09T09:33:38.654Z","","","","","","AttribQ","","","","","","","","","","","","","","","","","","","","","","","","","","","","","","","","","","","","","","50"
"5367","","<div style=""width:500px;"">
  <p>How much control did you have over the ball?</p>
  </div>","50","html-slider-response","45","1587393","0.0-10.0-2.0","45","1","2025-07-09 09:07:12","7701e855f2ef39aa3fd6c71abdc6918a","41.13.102.179","Mozilla/5.0 (Windows NT 10.0; Win64; x64) AppleWebKit/537.36 (KHTML, like Gecko) Chrome/138.0.0.0 Safari/537.36","WebKit","Chrome","138.0.0.0","Windows","10.0","https://app.prolific.com/","en-US,en;q=0.9,zh-CN;q=0.8,zh;q=0.7","669149873799bbea50733fe0","686d226cabeef709c732f8e1","686e313593b4d97f1f160b7f","669149873799bbea50733fe0","2025-07-09T09:33:44.023Z","","","","","","ControlQ","","","","","","","","","","","","","","","","","","","","","","","","","","","","","","","","","","","","","","50"
"6686","","<div style=""width:500px;"">
  <p>How would you describe your current emotional state?</p>
  </div>","51","html-slider-response","46","1594082","0.0-10.0-3.0","45","1","2025-07-09 09:07:12","7701e855f2ef39aa3fd6c71abdc6918a","41.13.102.179","Mozilla/5.0 (Windows NT 10.0; Win64; x64) AppleWebKit/537.36 (KHTML, like Gecko) Chrome/138.0.0.0 Safari/537.36","WebKit","Chrome","138.0.0.0","Windows","10.0","https://app.prolific.com/","en-US,en;q=0.9,zh-CN;q=0.8,zh;q=0.7","669149873799bbea50733fe0","686d226cabeef709c732f8e1","686e313593b4d97f1f160b7f","669149873799bbea50733fe0","2025-07-09T09:33:50.712Z","","","","","","StressQ","","","","","","","","","","","","","","","","","","","","","","","","","","","","","","","","","","","","","","50"
"3562","","<div style=""width:500px;"">
  <p>What best describes how you currently feel?</p>
  </div>","47","html-slider-response","47","1597646","0.0-10.0-4.0","45","1","2025-07-09 09:07:12","7701e855f2ef39aa3fd6c71abdc6918a","41.13.102.179","Mozilla/5.0 (Windows NT 10.0; Win64; x64) AppleWebKit/537.36 (KHTML, like Gecko) Chrome/138.0.0.0 Safari/537.36","WebKit","Chrome","138.0.0.0","Windows","10.0","https://app.prolific.com/","en-US,en;q=0.9,zh-CN;q=0.8,zh;q=0.7","669149873799bbea50733fe0","686d226cabeef709c732f8e1","686e313593b4d97f1f160b7f","669149873799bbea50733fe0","2025-07-09T09:33:54.276Z","","","","","","MotivationQ","","","","","","","","","","","","","","","","","","","","","","","","","","","","","","","","","","","","","","50"
"","","","","ctl-task-cpt","48","1627647","0.0-10.0-0.1","45","1","2025-07-09 09:07:12","7701e855f2ef39aa3fd6c71abdc6918a","41.13.102.179","Mozilla/5.0 (Windows NT 10.0; Win64; x64) AppleWebKit/537.36 (KHTML, like Gecko) Chrome/138.0.0.0 Safari/537.36","WebKit","Chrome","138.0.0.0","Windows","10.0","https://app.prolific.com/","en-US,en;q=0.9,zh-CN;q=0.8,zh;q=0.7","669149873799bbea50733fe0","686d226cabeef709c732f8e1","686e313593b4d97f1f160b7f","669149873799bbea50733fe0","2025-07-09T09:34:24.277Z","","","","","","","","","","","","","","","","win-only","3","g1:SW,g2:NE","0.9","2","0","1601742.5","2562.5","7575.8","26977.1","1","4","8","6","2","-8","-8","0","0","0","5013.2","3000","-1730","[""up"",""right""]","{""num_key_presses"":5,""num_perfect"":5,""num_errors"":0,""num_randdir"":0,""num_randdir_good_moves"":0,""num_whilered"":0,""num_whileblue"":0,""num_blue"":0,""num_good_moves"":1}","[415.3214133126395,415.32142761775424,1.4,415.3214133126395,415.32142761775424,103.8,415.3214133126395,415.32142761775424,221.3,415.3214133126395,415.32142761775424,324.8,415.3214133126395,415.32142761775424,428.6,415.3214133126395,415.32142761775424,534.1,415.3214133126395,415.32142761775424,661.7,415.3214133126395,415.32142761775424,764.6,415.3214133126395,415.32142761775424,868.3,415.3214133126395,415.32142761775424,968.9,415.3214133126395,415.32142761775424,1075.5,415.3214133126395,415.32142761775424,1194.1,415.3214133126395,415.32142761775424,1302.9,381.5714133126395,427.82142761775424,1415.2,345.3214133126395,447.82142761775424,1517.1,336.5714133126395,454.07142761775424,1632.1,336.5714133126395,456.57142761775424,1736.5,339.0714133126395,464.07142761775424,1843.6,341.5714133126395,466.57142761775424,1947.3,342.8214133126395,467.82142761775424,2048.2,342.8214133126395,467.82142761775424,2149.3,342.8214133126395,467.82142761775424,2249.3,342.8214133126395,467.82142761775424,2349.8,342.8214133126395,467.82142761775424,2454.4,342.8214133126395,467.82142761775424,2574.9,342.8214133126395,467.82142761775424,2678.4,342.8214133126395,467.82142761775424,2792.4,342.8214133126395,467.82142761775424,2894.5,342.8214133126395,467.82142761775424,3005.2,342.8214133126395,467.82142761775424,3126.7,342.8214133126395,467.82142761775424,3249.3,342.8214133126395,467.82142761775424,3353.8,342.8214133126395,467.82142761775424,3454.5,342.8214133126395,467.82142761775424,3555.3,546.5714133126395,179.07142761775424,3663.3,661.5714133126395,36.57142761775425,3764.8,669.0714133126395,29.071427617754253,3865.2,674.0714133126395,37.82142761775425,3971.1,695.3214133126395,106.57142761775425,4075.4,724.0714133126395,85.32142761775425,4197.2,566.5714133126395,262.82142761775424,4307.7,354.0714133126395,666.5714276177542,4413.9,221.5714133126395,806.5714276177542,4514.4,171.5714133126395,840.3214276177542,4626.5,142.8214133126395,859.0714276177542,4751.6,127.8214133126395,851.5714276177542,4862.7,101.5714133126395,821.5714276177542,4968.2]","[3586.7,3586.7,1000,0,2586.7,""smooth"",""left"",""left"",""bad_move"",7530.9,3942.6,3325.5,3588.3,617.1,""smooth"",""left"",""left"",""bad_move"",10569,3036.9,2423.1,7532.1,613.8,""smooth"",""down"",""down"",""bad_move"",13836,3266,2935,10570.1,331,""smooth"",""down"",""down"",""bad_move"",16775.4,2938.5,1637.3,13837,1301.2,""smooth"",""down"",""right"",""good_move""]","",""
"4199","","<div style=""width:500px;"">
  <p>What determined the result of this run?</p>
  </div>","50","html-slider-response","49","1631848","0.0-10.0-1.1","45","1","2025-07-09 09:07:12","7701e855f2ef39aa3fd6c71abdc6918a","41.13.102.179","Mozilla/5.0 (Windows NT 10.0; Win64; x64) AppleWebKit/537.36 (KHTML, like Gecko) Chrome/138.0.0.0 Safari/537.36","WebKit","Chrome","138.0.0.0","Windows","10.0","https://app.prolific.com/","en-US,en;q=0.9,zh-CN;q=0.8,zh;q=0.7","669149873799bbea50733fe0","686d226cabeef709c732f8e1","686e313593b4d97f1f160b7f","669149873799bbea50733fe0","2025-07-09T09:34:28.478Z","","","","","","AttribQ","","","","","","","","","","","","","","","","","","","","","","","","","","","","","","","","","","","","","","50"
"3433","","<div style=""width:500px;"">
  <p>How much control did you have over the ball?</p>
  </div>","50","html-slider-response","50","1635283","0.0-10.0-2.1","45","1","2025-07-09 09:07:12","7701e855f2ef39aa3fd6c71abdc6918a","41.13.102.179","Mozilla/5.0 (Windows NT 10.0; Win64; x64) AppleWebKit/537.36 (KHTML, like Gecko) Chrome/138.0.0.0 Safari/537.36","WebKit","Chrome","138.0.0.0","Windows","10.0","https://app.prolific.com/","en-US,en;q=0.9,zh-CN;q=0.8,zh;q=0.7","669149873799bbea50733fe0","686d226cabeef709c732f8e1","686e313593b4d97f1f160b7f","669149873799bbea50733fe0","2025-07-09T09:34:31.914Z","","","","","","ControlQ","","","","","","","","","","","","","","","","","","","","","","","","","","","","","","","","","","","","","","50"
"5314","","<div style=""width:500px;"">
  <p>How would you describe your current emotional state?</p>
  </div>","52","html-slider-response","51","1640599","0.0-10.0-3.1","45","1","2025-07-09 09:07:12","7701e855f2ef39aa3fd6c71abdc6918a","41.13.102.179","Mozilla/5.0 (Windows NT 10.0; Win64; x64) AppleWebKit/537.36 (KHTML, like Gecko) Chrome/138.0.0.0 Safari/537.36","WebKit","Chrome","138.0.0.0","Windows","10.0","https://app.prolific.com/","en-US,en;q=0.9,zh-CN;q=0.8,zh;q=0.7","669149873799bbea50733fe0","686d226cabeef709c732f8e1","686e313593b4d97f1f160b7f","669149873799bbea50733fe0","2025-07-09T09:34:37.229Z","","","","","","StressQ","","","","","","","","","","","","","","","","","","","","","","","","","","","","","","","","","","","","","","50"
"6744","","<div style=""width:500px;"">
  <p>What best describes how you currently feel?</p>
  </div>","50","html-slider-response","52","1647345","0.0-10.0-4.1","45","1","2025-07-09 09:07:12","7701e855f2ef39aa3fd6c71abdc6918a","41.13.102.179","Mozilla/5.0 (Windows NT 10.0; Win64; x64) AppleWebKit/537.36 (KHTML, like Gecko) Chrome/138.0.0.0 Safari/537.36","WebKit","Chrome","138.0.0.0","Windows","10.0","https://app.prolific.com/","en-US,en;q=0.9,zh-CN;q=0.8,zh;q=0.7","669149873799bbea50733fe0","686d226cabeef709c732f8e1","686e313593b4d97f1f160b7f","669149873799bbea50733fe0","2025-07-09T09:34:43.976Z","","","","","","MotivationQ","","","","","","","","","","","","","","","","","","","","","","","","","","","","","","","","","","","","","","50"
"","","","","ctl-task-cpt","53","1682652","0.0-10.0-0.2","45","1","2025-07-09 09:07:12","7701e855f2ef39aa3fd6c71abdc6918a","41.13.102.179","Mozilla/5.0 (Windows NT 10.0; Win64; x64) AppleWebKit/537.36 (KHTML, like Gecko) Chrome/138.0.0.0 Safari/537.36","WebKit","Chrome","138.0.0.0","Windows","10.0","https://app.prolific.com/","en-US,en;q=0.9,zh-CN;q=0.8,zh;q=0.7","669149873799bbea50733fe0","686d226cabeef709c732f8e1","686e313593b4d97f1f160b7f","669149873799bbea50733fe0","2025-07-09T09:35:19.283Z","","","","","","","","","","","","","","","","win-only","1","g1:NE,g2:SW","0.8","3","0","1651444","4874.9","9886.4","32283.5","1","4","8","6","1","1","0","0","0","0","1517.1","3000","1735","[""up"",""right""]","{""num_key_presses"":7,""num_perfect"":4,""num_errors"":1,""num_randdir"":2,""num_randdir_good_moves"":1,""num_whilered"":0,""num_whileblue"":0,""num_blue"":1,""num_good_moves"":5}","[422.8214133126395,409.07142761775424,0.7,422.8214133126395,409.07142761775424,121,422.8214133126395,409.07142761775424,247,422.8214133126395,409.07142761775424,352.7,422.8214133126395,409.07142761775424,465.2,461.5714133126395,387.82142761775424,579.2,575.3214133126395,327.82142761775424,702.6,589.0714133126395,331.57142761775424,806.7,630.3214133126395,237.82142761775424,941.9,736.5714133126395,126.57142761775425,1045.7,751.5714133126395,115.32142761775425,1191.8,770.3214133126395,92.82142761775425,1321.3,770.3214133126395,92.82142761775425,1431.1,770.3214133126395,92.82142761775425,1535.2,770.3214133126395,92.82142761775425,1662.5,770.3214133126395,92.82142761775425,1764.9,770.3214133126395,92.82142761775425,1866.6,770.3214133126395,92.82142761775425,1967.1,770.3214133126395,92.82142761775425,2070.6,770.3214133126395,92.82142761775425,2170.7,770.3214133126395,92.82142761775425,2272.8,770.3214133126395,92.82142761775425,2372.8,695.3214133126395,216.57142761775424,2481.2,586.5714133126395,319.07142761775424,2604.8,571.5714133126395,330.32142761775424,2725.6,571.5714133126395,330.32142761775424,2828.1,522.8214133126395,367.82142761775424,2939.6,469.0714133126395,376.57142761775424,3047,469.0714133126395,376.57142761775424,3147.8,469.0714133126395,376.57142761775424,3265,469.0714133126395,376.57142761775424,3380.3,469.0714133126395,376.57142761775424,3481.9,469.0714133126395,376.57142761775424,3582,469.0714133126395,376.57142761775424,3686.5,469.0714133126395,376.57142761775424,3786.7,469.0714133126395,376.57142761775424,3893.6,469.0714133126395,376.57142761775424,3997.5,469.0714133126395,376.57142761775424,4123.6,469.0714133126395,376.57142761775424,4226.7,469.0714133126395,376.57142761775424,4327.4,469.0714133126395,376.57142761775424,4447.4,469.0714133126395,376.57142761775424,4549.3,469.0714133126395,376.57142761775424,4651.4,469.0714133126395,376.57142761775424,4781.4,469.0714133126395,376.57142761775424,4886.3,469.0714133126395,376.57142761775424,4986.7]","[1455.4,1455.4,1000,0,455.4,""oops"",""up"",""up"",""good_move"",7743.2,6286.7,2633.6,4454.3,655.3,""smooth"",""up"",""up"",""good_move"",10727.5,2983.9,2522.7,7743.8,461.1,""smooth"",""right"",""right"",""good_move"",13724.4,2995.7,2676.9,10728.7,318.8,""oops"",""right"",""left"",""bad_move"",14802.4,1076.9,2558.6,13725.6,-1481.7,""error"",""-"",""-"",""no_move"",19177,4373.6,2916.3,15809,451.7,""smooth"",""right"",""right"",""good_move"",22213.4,3035.4,2524.2,19178.1,511.1,""smooth"",""right"",""right"",""good_move""]","",""
"4710","","<div style=""width:500px;"">
  <p>What determined the result of this run?</p>
  </div>","43","html-slider-response","54","1687365","0.0-10.0-1.2","45","1","2025-07-09 09:07:12","7701e855f2ef39aa3fd6c71abdc6918a","41.13.102.179","Mozilla/5.0 (Windows NT 10.0; Win64; x64) AppleWebKit/537.36 (KHTML, like Gecko) Chrome/138.0.0.0 Safari/537.36","WebKit","Chrome","138.0.0.0","Windows","10.0","https://app.prolific.com/","en-US,en;q=0.9,zh-CN;q=0.8,zh;q=0.7","669149873799bbea50733fe0","686d226cabeef709c732f8e1","686e313593b4d97f1f160b7f","669149873799bbea50733fe0","2025-07-09T09:35:23.995Z","","","","","","AttribQ","","","","","","","","","","","","","","","","","","","","","","","","","","","","","","","","","","","","","","50"
"5971","","<div style=""width:500px;"">
  <p>How much control did you have over the ball?</p>
  </div>","52","html-slider-response","55","1693339","0.0-10.0-2.2","45","1","2025-07-09 09:07:12","7701e855f2ef39aa3fd6c71abdc6918a","41.13.102.179","Mozilla/5.0 (Windows NT 10.0; Win64; x64) AppleWebKit/537.36 (KHTML, like Gecko) Chrome/138.0.0.0 Safari/537.36","WebKit","Chrome","138.0.0.0","Windows","10.0","https://app.prolific.com/","en-US,en;q=0.9,zh-CN;q=0.8,zh;q=0.7","669149873799bbea50733fe0","686d226cabeef709c732f8e1","686e313593b4d97f1f160b7f","669149873799bbea50733fe0","2025-07-09T09:35:29.969Z","","","","","","ControlQ","","","","","","","","","","","","","","","","","","","","","","","","","","","","","","","","","","","","","","50"
"5605","","<div style=""width:500px;"">
  <p>How would you describe your current emotional state?</p>
  </div>","44","html-slider-response","56","1698947","0.0-10.0-3.2","45","1","2025-07-09 09:07:12","7701e855f2ef39aa3fd6c71abdc6918a","41.13.102.179","Mozilla/5.0 (Windows NT 10.0; Win64; x64) AppleWebKit/537.36 (KHTML, like Gecko) Chrome/138.0.0.0 Safari/537.36","WebKit","Chrome","138.0.0.0","Windows","10.0","https://app.prolific.com/","en-US,en;q=0.9,zh-CN;q=0.8,zh;q=0.7","669149873799bbea50733fe0","686d226cabeef709c732f8e1","686e313593b4d97f1f160b7f","669149873799bbea50733fe0","2025-07-09T09:35:35.577Z","","","","","","StressQ","","","","","","","","","","","","","","","","","","","","","","","","","","","","","","","","","","","","","","50"
"5314","","<div style=""width:500px;"">
  <p>What best describes how you currently feel?</p>
  </div>","50","html-slider-response","57","1704265","0.0-10.0-4.2","45","1","2025-07-09 09:07:12","7701e855f2ef39aa3fd6c71abdc6918a","41.13.102.179","Mozilla/5.0 (Windows NT 10.0; Win64; x64) AppleWebKit/537.36 (KHTML, like Gecko) Chrome/138.0.0.0 Safari/537.36","WebKit","Chrome","138.0.0.0","Windows","10.0","https://app.prolific.com/","en-US,en;q=0.9,zh-CN;q=0.8,zh;q=0.7","669149873799bbea50733fe0","686d226cabeef709c732f8e1","686e313593b4d97f1f160b7f","669149873799bbea50733fe0","2025-07-09T09:35:40.895Z","","","","","","MotivationQ","","","","","","","","","","","","","","","","","","","","","","","","","","","","","","","","","","","","","","50"
"","","","","ctl-task-cpt","58","1734129","0.0-10.0-0.3","45","1","2025-07-09 09:07:12","7701e855f2ef39aa3fd6c71abdc6918a","41.13.102.179","Mozilla/5.0 (Windows NT 10.0; Win64; x64) AppleWebKit/537.36 (KHTML, like Gecko) Chrome/138.0.0.0 Safari/537.36","WebKit","Chrome","138.0.0.0","Windows","10.0","https://app.prolific.com/","en-US,en;q=0.9,zh-CN;q=0.8,zh;q=0.7","669149873799bbea50733fe0","686d226cabeef709c732f8e1","686e313593b4d97f1f160b7f","669149873799bbea50733fe0","2025-07-09T09:36:10.759Z","","","","","","","","","","","","","","","","win-only","2","g1:SE,g2:NW","0.7","4","0","1708363.2","10268.6","15320.8","26821","1","4","4","6","1","1","1","1","0","0.007575757575757576","1332.9","3000","2070","[""down"",""right""]","{""num_key_presses"":4,""num_perfect"":4,""num_errors"":0,""num_randdir"":0,""num_randdir_good_moves"":0,""num_whilered"":0,""num_whileblue"":0,""num_blue"":0,""num_good_moves"":4}","[416.5714133126395,409.07142761775424,1,416.5714133126395,409.07142761775424,114.3,416.5714133126395,409.07142761775424,218.1,416.5714133126395,409.07142761775424,318.1,416.5714133126395,409.07142761775424,450.8,416.5714133126395,409.07142761775424,558.4,372.8214133126395,391.57142761775424,660.9,706.5714133126395,707.8214276177542,797.7,744.0714133126395,766.5714276177542,935.9,744.0714133126395,769.0714276177542,1040.4,744.0714133126395,769.0714276177542,1140.5,744.0714133126395,769.0714276177542,1248.1,744.0714133126395,769.0714276177542,1350.8,744.0714133126395,769.0714276177542,1466.3,744.0714133126395,769.0714276177542,1568.1,744.0714133126395,769.0714276177542,1669.2,744.0714133126395,769.0714276177542,1786.7,744.0714133126395,769.0714276177542,1896.4,744.0714133126395,769.0714276177542,1998.2,744.0714133126395,769.0714276177542,2127.9,744.0714133126395,769.0714276177542,2228.8,744.0714133126395,769.0714276177542,2332.5,744.0714133126395,769.0714276177542,2465.1,617.8214133126395,669.0714276177542,2567.4,545.3214133126395,604.0714276177542,2695.7,540.3214133126395,601.5714276177542,2813.1,522.8214133126395,556.5714276177542,2927.3,495.3214133126395,512.8214276177542,3032.7,481.5714133126395,496.57142761775424,3135.9,481.5714133126395,496.57142761775424,3241.1,481.5714133126395,496.57142761775424,3345.3,481.5714133126395,496.57142761775424,3449.4,481.5714133126395,496.57142761775424,3552.9,481.5714133126395,496.57142761775424,3668.3,481.5714133126395,496.57142761775424,3768.6,481.5714133126395,496.57142761775424,3870,481.5714133126395,496.57142761775424,3995.4,481.5714133126395,496.57142761775424,4098.7,481.5714133126395,496.57142761775424,4200.2,481.5714133126395,496.57142761775424,4303.2,481.5714133126395,496.57142761775424,4425.2,481.5714133126395,496.57142761775424,4528.6,481.5714133126395,496.57142761775424,4633.8,481.5714133126395,496.57142761775424,4736.7,481.5714133126395,496.57142761775424,4840.9,481.5714133126395,496.57142761775424,4944.8]","[1560.4,1560.4,1000,0,560.4,""smooth"",""right"",""right"",""good_move"",4900.2,3338.6,2443.2,1561.6,895.4,""smooth"",""down"",""down"",""good_move"",7985.6,3084.2,2677.1,4901.4,407.1,""smooth"",""down"",""down"",""good_move"",11310.7,3324.1,2932.8,7986.6,391.3,""smooth"",""right"",""right"",""good_move""]","",""
"8751","","<div style=""width:500px;"">
  <p>What determined the result of this run?</p>
  </div>","49","html-slider-response","59","1742884","0.0-10.0-1.3","45","1","2025-07-09 09:07:12","7701e855f2ef39aa3fd6c71abdc6918a","41.13.102.179","Mozilla/5.0 (Windows NT 10.0; Win64; x64) AppleWebKit/537.36 (KHTML, like Gecko) Chrome/138.0.0.0 Safari/537.36","WebKit","Chrome","138.0.0.0","Windows","10.0","https://app.prolific.com/","en-US,en;q=0.9,zh-CN;q=0.8,zh;q=0.7","669149873799bbea50733fe0","686d226cabeef709c732f8e1","686e313593b4d97f1f160b7f","669149873799bbea50733fe0","2025-07-09T09:36:19.514Z","","","","","","AttribQ","","","","","","","","","","","","","","","","","","","","","","","","","","","","","","","","","","","","","","50"
"7568","","<div style=""width:500px;"">
  <p>How much control did you have over the ball?</p>
  </div>","57","html-slider-response","60","1750460","0.0-10.0-2.3","45","1","2025-07-09 09:07:12","7701e855f2ef39aa3fd6c71abdc6918a","41.13.102.179","Mozilla/5.0 (Windows NT 10.0; Win64; x64) AppleWebKit/537.36 (KHTML, like Gecko) Chrome/138.0.0.0 Safari/537.36","WebKit","Chrome","138.0.0.0","Windows","10.0","https://app.prolific.com/","en-US,en;q=0.9,zh-CN;q=0.8,zh;q=0.7","669149873799bbea50733fe0","686d226cabeef709c732f8e1","686e313593b4d97f1f160b7f","669149873799bbea50733fe0","2025-07-09T09:36:27.090Z","","","","","","ControlQ","","","","","","","","","","","","","","","","","","","","","","","","","","","","","","","","","","","","","","50"
"136381","","<div style=""width:500px;"">
  <p>How would you describe your current emotional state?</p>
  </div>","51","html-slider-response","61","1886847","0.0-10.0-3.3","45","1","2025-07-09 09:07:12","7701e855f2ef39aa3fd6c71abdc6918a","41.13.102.179","Mozilla/5.0 (Windows NT 10.0; Win64; x64) AppleWebKit/537.36 (KHTML, like Gecko) Chrome/138.0.0.0 Safari/537.36","WebKit","Chrome","138.0.0.0","Windows","10.0","https://app.prolific.com/","en-US,en;q=0.9,zh-CN;q=0.8,zh;q=0.7","669149873799bbea50733fe0","686d226cabeef709c732f8e1","686e313593b4d97f1f160b7f","669149873799bbea50733fe0","2025-07-09T09:38:43.477Z","","","","","","StressQ","","","","","","","","","","","","","","","","","","","","","","","","","","","","","","","","","","","","","","50"
"13925","","<div style=""width:500px;"">
  <p>What best describes how you currently feel?</p>
  </div>","52","html-slider-response","62","1900777","0.0-10.0-4.3","45","1","2025-07-09 09:07:12","7701e855f2ef39aa3fd6c71abdc6918a","41.13.102.179","Mozilla/5.0 (Windows NT 10.0; Win64; x64) AppleWebKit/537.36 (KHTML, like Gecko) Chrome/138.0.0.0 Safari/537.36","WebKit","Chrome","138.0.0.0","Windows","10.0","https://app.prolific.com/","en-US,en;q=0.9,zh-CN;q=0.8,zh;q=0.7","669149873799bbea50733fe0","686d226cabeef709c732f8e1","686e313593b4d97f1f160b7f","669149873799bbea50733fe0","2025-07-09T09:38:57.407Z","","","","","","MotivationQ","","","","","","","","","","","","","","","","","","","","","","","","","","","","","","","","","","","","","","50"
"","","","","ctl-task-cpt","63","1972602","0.0-10.0-0.4","45","1","2025-07-09 09:07:12","7701e855f2ef39aa3fd6c71abdc6918a","41.13.102.179","Mozilla/5.0 (Windows NT 10.0; Win64; x64) AppleWebKit/537.36 (KHTML, like Gecko) Chrome/138.0.0.0 Safari/537.36","WebKit","Chrome","138.0.0.0","Windows","10.0","https://app.prolific.com/","en-US,en;q=0.9,zh-CN;q=0.8,zh;q=0.7","669149873799bbea50733fe0","686d226cabeef709c732f8e1","686e313593b4d97f1f160b7f","669149873799bbea50733fe0","2025-07-09T09:40:09.233Z","","","","","","","","","","","","","","","","win-only","3","g1:SW,g2:NE","0.6","5","0","1904875.3","29755.1","34798.5","68802.7","1","4","8","6","1","1","0","1","1","0.007575757575757576","1865.2","3000","1855","[""down"",""left""]","{""num_key_presses"":8,""num_perfect"":5,""num_errors"":1,""num_randdir"":2,""num_randdir_good_moves"":1,""num_whilered"":0,""num_whileblue"":1,""num_blue"":4,""num_good_moves"":6}","[416.5714133126395,416.57142761775424,1,416.5714133126395,416.57142761775424,131.8,416.5714133126395,416.57142761775424,261,416.5714133126395,416.57142761775424,392.5,416.5714133126395,416.57142761775424,497,416.5714133126395,416.57142761775424,626.4,416.5714133126395,416.57142761775424,728.6,397.8214133126395,442.82142761775424,840.9,359.0714133126395,490.32142761775424,942.8,355.3214133126395,501.57142761775424,1066.3,255.3214133126395,579.0714276177542,1174.7,16.571413312639507,756.5714276177542,1356.5,20.321413312639507,760.3214276177542,1486.7,35.32141331263951,770.3214276177542,1586.9,55.32141331263951,776.5714276177542,1687.1,55.32141331263951,776.5714276177542,1796.3,55.32141331263951,776.5714276177542,1926.4,55.32141331263951,776.5714276177542,2033.4,55.32141331263951,776.5714276177542,2136.3,55.32141331263951,776.5714276177542,2258.6,55.32141331263951,776.5714276177542,2362.8,55.32141331263951,776.5714276177542,2467.3,55.32141331263951,776.5714276177542,2568.9,251.5714133126395,700.3214276177542,2688.8,324.0714133126395,650.3214276177542,2878,295.3214133126395,586.5714276177542,3002.3,300.3214133126395,581.5714276177542,3107.5,311.5714133126395,571.5714276177542,3209.7,341.5714133126395,540.3214276177542,3315.7,345.3214133126395,536.5714276177542,3418.7,345.3214133126395,536.5714276177542,3559.6,345.3214133126395,536.5714276177542,3683,345.3214133126395,536.5714276177542,3783.3,345.3214133126395,536.5714276177542,3888.8,345.3214133126395,536.5714276177542,4021.2,350.3214133126395,526.5714276177542,4125.2,354.0714133126395,521.5714276177542,4228.3,356.5714133126395,521.5714276177542,4386.9,361.5714133126395,521.5714276177542,4510.5,361.5714133126395,521.5714276177542,4613,354.0714133126395,477.82142761775424,4771.4,354.0714133126395,477.82142761775424,4876.1]","[1438.7,1438.8,1000,0,438.8,""smooth"",""down"",""down"",""good_move"",4017.7,2577.4,2059.9,1440.3,517.5,""smooth"",""left"",""left"",""good_move"",6850.4,2831.7,2452.4,4018.7,379.3,""smooth"",""down"",""down"",""good_move"",20439.5,13587.6,2756.1,17310.5,372.9,""oops"",""left"",""up"",""bad_move"",23846.6,3406.4,2676.3,20440.3,730,""oops"",""left"",""down"",""good_move"",27322,3474.5,3104.7,23847.6,369.7,""while_blue"",""left"",""up"",""bad_move"",30697.2,3373.7,2871.9,27323.6,501.8,""smooth"",""left"",""left"",""good_move"",33714.8,3014.4,2620.1,30700.4,394.3,""smooth"",""down"",""down"",""good_move""]","",""
"9016","","<div style=""width:500px;"">
  <p>What determined the result of this run?</p>
  </div>","67","html-slider-response","64","1981621","0.0-10.0-1.4","45","1","2025-07-09 09:07:12","7701e855f2ef39aa3fd6c71abdc6918a","41.13.102.179","Mozilla/5.0 (Windows NT 10.0; Win64; x64) AppleWebKit/537.36 (KHTML, like Gecko) Chrome/138.0.0.0 Safari/537.36","WebKit","Chrome","138.0.0.0","Windows","10.0","https://app.prolific.com/","en-US,en;q=0.9,zh-CN;q=0.8,zh;q=0.7","669149873799bbea50733fe0","686d226cabeef709c732f8e1","686e313593b4d97f1f160b7f","669149873799bbea50733fe0","2025-07-09T09:40:18.251Z","","","","","","AttribQ","","","","","","","","","","","","","","","","","","","","","","","","","","","","","","","","","","","","","","50"
"5644","","<div style=""width:500px;"">
  <p>How much control did you have over the ball?</p>
  </div>","69","html-slider-response","65","1987268","0.0-10.0-2.4","45","1","2025-07-09 09:07:12","7701e855f2ef39aa3fd6c71abdc6918a","41.13.102.179","Mozilla/5.0 (Windows NT 10.0; Win64; x64) AppleWebKit/537.36 (KHTML, like Gecko) Chrome/138.0.0.0 Safari/537.36","WebKit","Chrome","138.0.0.0","Windows","10.0","https://app.prolific.com/","en-US,en;q=0.9,zh-CN;q=0.8,zh;q=0.7","669149873799bbea50733fe0","686d226cabeef709c732f8e1","686e313593b4d97f1f160b7f","669149873799bbea50733fe0","2025-07-09T09:40:23.898Z","","","","","","ControlQ","","","","","","","","","","","","","","","","","","","","","","","","","","","","","","","","","","","","","","50"
"12540","","<div style=""width:500px;"">
  <p>How would you describe your current emotional state?</p>
  </div>","65","html-slider-response","66","1999810","0.0-10.0-3.4","45","1","2025-07-09 09:07:12","7701e855f2ef39aa3fd6c71abdc6918a","41.13.102.179","Mozilla/5.0 (Windows NT 10.0; Win64; x64) AppleWebKit/537.36 (KHTML, like Gecko) Chrome/138.0.0.0 Safari/537.36","WebKit","Chrome","138.0.0.0","Windows","10.0","https://app.prolific.com/","en-US,en;q=0.9,zh-CN;q=0.8,zh;q=0.7","669149873799bbea50733fe0","686d226cabeef709c732f8e1","686e313593b4d97f1f160b7f","669149873799bbea50733fe0","2025-07-09T09:40:36.441Z","","","","","","StressQ","","","","","","","","","","","","","","","","","","","","","","","","","","","","","","","","","","","","","","50"
"7234","","<div style=""width:500px;"">
  <p>What best describes how you currently feel?</p>
  </div>","50","html-slider-response","67","2007048","0.0-10.0-4.4","45","1","2025-07-09 09:07:12","7701e855f2ef39aa3fd6c71abdc6918a","41.13.102.179","Mozilla/5.0 (Windows NT 10.0; Win64; x64) AppleWebKit/537.36 (KHTML, like Gecko) Chrome/138.0.0.0 Safari/537.36","WebKit","Chrome","138.0.0.0","Windows","10.0","https://app.prolific.com/","en-US,en;q=0.9,zh-CN;q=0.8,zh;q=0.7","669149873799bbea50733fe0","686d226cabeef709c732f8e1","686e313593b4d97f1f160b7f","669149873799bbea50733fe0","2025-07-09T09:40:43.679Z","","","","","","MotivationQ","","","","","","","","","","","","","","","","","","","","","","","","","","","","","","","","","","","","","","50"
"","","","","ctl-task-cpt","68","2065991","0.0-10.0-0.5","45","1","2025-07-09 09:07:12","7701e855f2ef39aa3fd6c71abdc6918a","41.13.102.179","Mozilla/5.0 (Windows NT 10.0; Win64; x64) AppleWebKit/537.36 (KHTML, like Gecko) Chrome/138.0.0.0 Safari/537.36","WebKit","Chrome","138.0.0.0","Windows","10.0","https://app.prolific.com/","en-US,en;q=0.9,zh-CN;q=0.8,zh;q=0.7","669149873799bbea50733fe0","686d226cabeef709c732f8e1","686e313593b4d97f1f160b7f","669149873799bbea50733fe0","2025-07-09T09:41:42.622Z","","","","","","","","","","","","","","","","win-only","0","g1:NW,g2:SE","0.5","6","0","2011145.5","16911.3","21916.1","55875.9","1","4","4","6","1","1","1","2","1","0.015151515151515152","1504","3000","1910","[""left"",""up""]","{""num_key_presses"":8,""num_perfect"":5,""num_errors"":0,""num_randdir"":3,""num_randdir_good_moves"":1,""num_whilered"":0,""num_whileblue"":0,""num_blue"":3,""num_good_moves"":6}","[410.3214133126395,411.57142761775424,2.8,410.3214133126395,411.57142761775424,105.4,410.3214133126395,411.57142761775424,296.9,410.3214133126395,411.57142761775424,493.9,410.3214133126395,411.57142761775424,598.3,359.0714133126395,366.57142761775424,770,226.5714133126395,184.07142761775424,876.8,191.5714133126395,146.57142761775424,992.6,146.5714133126395,145.32142761775424,1145.3,91.5714133126395,87.82142761775425,1259,91.5714133126395,86.57142761775425,1465.6,91.5714133126395,86.57142761775425,1568,91.5714133126395,86.57142761775425,1737.5,91.5714133126395,86.57142761775425,1842.9,91.5714133126395,86.57142761775425,1946,91.5714133126395,86.57142761775425,2073.6,91.5714133126395,86.57142761775425,2178.7,91.5714133126395,86.57142761775425,2375.9,91.5714133126395,86.57142761775425,2483,121.5714133126395,107.82142761775425,2654.2,190.3214133126395,186.57142761775424,2764.4,281.5714133126395,327.82142761775424,2888.1,321.5714133126395,379.07142761775424,2997.9,330.3214133126395,380.32142761775424,3099.9,336.5714133126395,377.82142761775424,3223.6,337.8214133126395,377.82142761775424,3326.5,337.8214133126395,377.82142761775424,3513.7,337.8214133126395,377.82142761775424,3620,347.8214133126395,369.07142761775424,3720.3,347.8214133126395,369.07142761775424,3832.2,347.8214133126395,369.07142761775424,3937.6,347.8214133126395,369.07142761775424,4096.2,347.8214133126395,369.07142761775424,4202.1,347.8214133126395,369.07142761775424,4361.1,347.8214133126395,369.07142761775424,4466,347.8214133126395,369.07142761775424,4633.3,347.8214133126395,369.07142761775424,4736.8,347.8214133126395,369.07142761775424,4919.2]","[1394,1394,1000,0,394,""smooth"",""up"",""up"",""good_move"",7998.5,6602.4,2382.9,5181,434.6,""smooth"",""up"",""up"",""good_move"",15012.3,7012.2,2422.4,12137.2,452.7,""oops"",""left"",""right"",""bad_move"",20283.6,5269.7,1989.7,17928.9,365,""oops"",""left"",""down"",""bad_move"",23670.5,3385.9,2843.8,20284.6,542.1,""smooth"",""left"",""left"",""good_move"",26753.1,3080.1,2193.1,23673,887,""smooth"",""left"",""left"",""good_move"",30527.3,3770.2,3365.2,26757.1,405,""smooth"",""left"",""left"",""good_move"",33754.4,3225.6,2766,30528.8,459.6,""oops"",""up"",""up"",""good_move""]","",""
"5399","","<div style=""width:500px;"">
  <p>What determined the result of this run?</p>
  </div>","34","html-slider-response","69","2071395","0.0-10.0-1.5","45","1","2025-07-09 09:07:12","7701e855f2ef39aa3fd6c71abdc6918a","41.13.102.179","Mozilla/5.0 (Windows NT 10.0; Win64; x64) AppleWebKit/537.36 (KHTML, like Gecko) Chrome/138.0.0.0 Safari/537.36","WebKit","Chrome","138.0.0.0","Windows","10.0","https://app.prolific.com/","en-US,en;q=0.9,zh-CN;q=0.8,zh;q=0.7","669149873799bbea50733fe0","686d226cabeef709c732f8e1","686e313593b4d97f1f160b7f","669149873799bbea50733fe0","2025-07-09T09:41:48.025Z","","","","","","AttribQ","","","","","","","","","","","","","","","","","","","","","","","","","","","","","","","","","","","","","","50"
"5429","","<div style=""width:500px;"">
  <p>How much control did you have over the ball?</p>
  </div>","37","html-slider-response","70","2076828","0.0-10.0-2.5","45","1","2025-07-09 09:07:12","7701e855f2ef39aa3fd6c71abdc6918a","41.13.102.179","Mozilla/5.0 (Windows NT 10.0; Win64; x64) AppleWebKit/537.36 (KHTML, like Gecko) Chrome/138.0.0.0 Safari/537.36","WebKit","Chrome","138.0.0.0","Windows","10.0","https://app.prolific.com/","en-US,en;q=0.9,zh-CN;q=0.8,zh;q=0.7","669149873799bbea50733fe0","686d226cabeef709c732f8e1","686e313593b4d97f1f160b7f","669149873799bbea50733fe0","2025-07-09T09:41:53.458Z","","","","","","ControlQ","","","","","","","","","","","","","","","","","","","","","","","","","","","","","","","","","","","","","","50"
"6841","","<div style=""width:500px;"">
  <p>How would you describe your current emotional state?</p>
  </div>","65","html-slider-response","71","2083672","0.0-10.0-3.5","45","1","2025-07-09 09:07:12","7701e855f2ef39aa3fd6c71abdc6918a","41.13.102.179","Mozilla/5.0 (Windows NT 10.0; Win64; x64) AppleWebKit/537.36 (KHTML, like Gecko) Chrome/138.0.0.0 Safari/537.36","WebKit","Chrome","138.0.0.0","Windows","10.0","https://app.prolific.com/","en-US,en;q=0.9,zh-CN;q=0.8,zh;q=0.7","669149873799bbea50733fe0","686d226cabeef709c732f8e1","686e313593b4d97f1f160b7f","669149873799bbea50733fe0","2025-07-09T09:42:00.302Z","","","","","","StressQ","","","","","","","","","","","","","","","","","","","","","","","","","","","","","","","","","","","","","","50"
"5591","","<div style=""width:500px;"">
  <p>What best describes how you currently feel?</p>
  </div>","46","html-slider-response","72","2089265","0.0-10.0-4.5","45","1","2025-07-09 09:07:12","7701e855f2ef39aa3fd6c71abdc6918a","41.13.102.179","Mozilla/5.0 (Windows NT 10.0; Win64; x64) AppleWebKit/537.36 (KHTML, like Gecko) Chrome/138.0.0.0 Safari/537.36","WebKit","Chrome","138.0.0.0","Windows","10.0","https://app.prolific.com/","en-US,en;q=0.9,zh-CN;q=0.8,zh;q=0.7","669149873799bbea50733fe0","686d226cabeef709c732f8e1","686e313593b4d97f1f160b7f","669149873799bbea50733fe0","2025-07-09T09:42:05.896Z","","","","","","MotivationQ","","","","","","","","","","","","","","","","","","","","","","","","","","","","","","","","","","","","","","50"
"","","","","ctl-task-cpt","73","2149669","0.0-10.0-0.6","45","1","2025-07-09 09:07:12","7701e855f2ef39aa3fd6c71abdc6918a","41.13.102.179","Mozilla/5.0 (Windows NT 10.0; Win64; x64) AppleWebKit/537.36 (KHTML, like Gecko) Chrome/138.0.0.0 Safari/537.36","WebKit","Chrome","138.0.0.0","Windows","10.0","https://app.prolific.com/","en-US,en;q=0.9,zh-CN;q=0.8,zh;q=0.7","669149873799bbea50733fe0","686d226cabeef709c732f8e1","686e313593b4d97f1f160b7f","669149873799bbea50733fe0","2025-07-09T09:43:06.299Z","","","","","","","","","","","","","","","","win-only","2","g1:SE,g2:NW","0.4","7","0","2093364.1","16352.3","21360","57378.5","1","4","4","6","1","1","1","3","2","0.022727272727272728","1323.6","3000","1220","[""down"",""right""]","{""num_key_presses"":12,""num_perfect"":6,""num_errors"":0,""num_randdir"":6,""num_randdir_good_moves"":2,""num_whilered"":0,""num_whileblue"":0,""num_blue"":0,""num_good_moves"":8}","[412.8214133126395,415.32142761775424,1.5,412.8214133126395,415.32142761775424,103.6,412.8214133126395,415.32142761775424,316.2,412.8214133126395,415.32142761775424,418.9,451.5714133126395,464.07142761775424,594.5,592.8214133126395,651.5714276177542,695.6,719.0714133126395,759.0714276177542,944.1,739.0714133126395,780.3214276177542,1051,741.5714133126395,780.3214276177542,1252.4,741.5714133126395,780.3214276177542,1356.8,741.5714133126395,780.3214276177542,1497.8,741.5714133126395,780.3214276177542,1602.5,741.5714133126395,780.3214276177542,1709,741.5714133126395,780.3214276177542,1866.4,741.5714133126395,780.3214276177542,1967.9,741.5714133126395,780.3214276177542,2166.1,739.0714133126395,777.8214276177542,2272.7,637.8214133126395,679.0714276177542,2503.4,536.5714133126395,634.0714276177542,2608.1,492.8214133126395,612.8214276177542,2799.1,532.8214133126395,582.8214276177542,2902.5,574.0714133126395,596.5714276177542,3047.4,525.3214133126395,514.0714276177542,3199.6,506.5714133126395,501.57142761775424,3301.7,492.8214133126395,492.82142761775424,3498.4,491.5714133126395,492.82142761775424,3600.5,491.5714133126395,492.82142761775424,3741.2,491.5714133126395,492.82142761775424,3841.8,491.5714133126395,492.82142761775424,3993.2,491.5714133126395,492.82142761775424,4096.4,491.5714133126395,492.82142761775424,4252.6,491.5714133126395,492.82142761775424,4420.3,491.5714133126395,492.82142761775424,4554.2,491.5714133126395,492.82142761775424,4661.1,491.5714133126395,492.82142761775424,4817.9,491.5714133126395,492.82142761775424,4963.6]","[1449.1,1449.1,1000,0,449.1,""smooth"",""right"",""right"",""good_move"",5098.5,3648.1,3252.8,1450.4,395.3,""smooth"",""right"",""right"",""good_move"",7499.8,2400.2,1739.9,5099.7,660.2,""oops"",""down"",""left"",""bad_move"",10935.9,3434.9,2515.5,7501,919.4,""oops"",""down"",""right"",""good_move"",14042.6,3105.1,2098.2,10937.5,1006.9,""smooth"",""down"",""down"",""good_move"",17208.6,3161.9,2610.2,14046.7,551.7,""oops"",""down"",""up"",""bad_move"",20595.3,3385.7,2940.7,17209.6,445,""oops"",""down"",""up"",""bad_move"",23815.2,3217.5,2703.7,20597.7,513.8,""oops"",""down"",""down"",""good_move"",26755.5,2939.2,2473.1,23816.3,466.1,""oops"",""down"",""left"",""bad_move"",30128.8,3372,2497.2,26756.8,874.8,""smooth"",""right"",""right"",""good_move"",32849.3,2719.3,2260.2,30130,459.1,""smooth"",""down"",""down"",""good_move"",35741.2,2890.8,2392.2,32850.5,498.6,""smooth"",""down"",""down"",""good_move""]","",""
"5126","","<div style=""width:500px;"">
  <p>What determined the result of this run?</p>
  </div>","42","html-slider-response","74","2154796","0.0-10.0-1.6","45","1","2025-07-09 09:07:12","7701e855f2ef39aa3fd6c71abdc6918a","41.13.102.179","Mozilla/5.0 (Windows NT 10.0; Win64; x64) AppleWebKit/537.36 (KHTML, like Gecko) Chrome/138.0.0.0 Safari/537.36","WebKit","Chrome","138.0.0.0","Windows","10.0","https://app.prolific.com/","en-US,en;q=0.9,zh-CN;q=0.8,zh;q=0.7","669149873799bbea50733fe0","686d226cabeef709c732f8e1","686e313593b4d97f1f160b7f","669149873799bbea50733fe0","2025-07-09T09:43:11.427Z","","","","","","AttribQ","","","","","","","","","","","","","","","","","","","","","","","","","","","","","","","","","","","","","","50"
"93011","","<div style=""width:500px;"">
  <p>How much control did you have over the ball?</p>
  </div>","63","html-slider-response","75","2247810","0.0-10.0-2.6","45","1","2025-07-09 09:07:12","7701e855f2ef39aa3fd6c71abdc6918a","41.13.102.179","Mozilla/5.0 (Windows NT 10.0; Win64; x64) AppleWebKit/537.36 (KHTML, like Gecko) Chrome/138.0.0.0 Safari/537.36","WebKit","Chrome","138.0.0.0","Windows","10.0","https://app.prolific.com/","en-US,en;q=0.9,zh-CN;q=0.8,zh;q=0.7","669149873799bbea50733fe0","686d226cabeef709c732f8e1","686e313593b4d97f1f160b7f","669149873799bbea50733fe0","2025-07-09T09:44:44.440Z","","","","","","ControlQ","","","","","","","","","","","","","","","","","","","","","","","","","","","","","","","","","","","","","","50"
"7178","","<div style=""width:500px;"">
  <p>How would you describe your current emotional state?</p>
  </div>","30","html-slider-response","76","2254996","0.0-10.0-3.6","45","1","2025-07-09 09:07:12","7701e855f2ef39aa3fd6c71abdc6918a","41.13.102.179","Mozilla/5.0 (Windows NT 10.0; Win64; x64) AppleWebKit/537.36 (KHTML, like Gecko) Chrome/138.0.0.0 Safari/537.36","WebKit","Chrome","138.0.0.0","Windows","10.0","https://app.prolific.com/","en-US,en;q=0.9,zh-CN;q=0.8,zh;q=0.7","669149873799bbea50733fe0","686d226cabeef709c732f8e1","686e313593b4d97f1f160b7f","669149873799bbea50733fe0","2025-07-09T09:44:51.627Z","","","","","","StressQ","","","","","","","","","","","","","","","","","","","","","","","","","","","","","","","","","","","","","","50"
"18509","","<div style=""width:500px;"">
  <p>What best describes how you currently feel?</p>
  </div>","35","html-slider-response","77","2273511","0.0-10.0-4.6","45","1","2025-07-09 09:07:12","7701e855f2ef39aa3fd6c71abdc6918a","41.13.102.179","Mozilla/5.0 (Windows NT 10.0; Win64; x64) AppleWebKit/537.36 (KHTML, like Gecko) Chrome/138.0.0.0 Safari/537.36","WebKit","Chrome","138.0.0.0","Windows","10.0","https://app.prolific.com/","en-US,en;q=0.9,zh-CN;q=0.8,zh;q=0.7","669149873799bbea50733fe0","686d226cabeef709c732f8e1","686e313593b4d97f1f160b7f","669149873799bbea50733fe0","2025-07-09T09:45:10.141Z","","","","","","MotivationQ","","","","","","","","","","","","","","","","","","","","","","","","","","","","","","","","","","","","","","50"
"","","","","ctl-task-cpt","78","2395754","0.0-10.0-0.7","45","1","2025-07-09 09:07:12","7701e855f2ef39aa3fd6c71abdc6918a","41.13.102.179","Mozilla/5.0 (Windows NT 10.0; Win64; x64) AppleWebKit/537.36 (KHTML, like Gecko) Chrome/138.0.0.0 Safari/537.36","WebKit","Chrome","138.0.0.0","Windows","10.0","https://app.prolific.com/","en-US,en;q=0.9,zh-CN;q=0.8,zh;q=0.7","669149873799bbea50733fe0","686d226cabeef709c732f8e1","686e313593b4d97f1f160b7f","669149873799bbea50733fe0","2025-07-09T09:47:12.384Z","","","","","","","","","","","","","","","","win-only","3","g1:SW,g2:NE","0.3","8","0","2277609","10673.8","15678.7","119193.4","1","4","8","6","1","1","0","3","3","0.022727272727272728","1724.6","3000","800","[""down"",""left""]","{""num_key_presses"":20,""num_perfect"":6,""num_errors"":1,""num_randdir"":13,""num_randdir_good_moves"":6,""num_whilered"":0,""num_whileblue"":1,""num_blue"":8,""num_good_moves"":12}","[420.3214133126395,416.57142761775424,1.7,420.3214133126395,416.57142761775424,101.2,420.3214133126395,416.57142761775424,205.1,420.3214133126395,416.57142761775424,393.5,425.3214133126395,406.57142761775424,493.8,76.5714133126395,812.8214276177542,690.9,-0.9285866873604931,922.8214276177542,794,-13.428586687360493,894.0714276177542,1035,26.571413312639507,831.5714276177542,1138.3,71.5714133126395,754.0714276177542,1246.5,71.5714133126395,754.0714276177542,1430.7,71.5714133126395,754.0714276177542,1532.8,71.5714133126395,754.0714276177542,1747.2,71.5714133126395,754.0714276177542,1849.3,71.5714133126395,754.0714276177542,1980.3,71.5714133126395,754.0714276177542,2085,71.5714133126395,754.0714276177542,2318.1,71.5714133126395,754.0714276177542,2429.6,71.5714133126395,754.0714276177542,2644.1,84.0714133126395,746.5714276177542,2751.4,217.8214133126395,691.5714276177542,2856,276.5714133126395,649.0714276177542,3031.5,296.5714133126395,635.3214276177542,3144.6,336.5714133126395,592.8214276177542,3323,336.5714133126395,592.8214276177542,3430.9,336.5714133126395,592.8214276177542,3533.6,347.8214133126395,566.5714276177542,3707.6,366.5714133126395,526.5714276177542,3814.8,364.0714133126395,520.3214276177542,3923,361.5714133126395,496.57142761775424,4224.4,361.5714133126395,496.57142761775424,4325,361.5714133126395,496.57142761775424,4559.1,361.5714133126395,496.57142761775424,4659.2,361.5714133126395,496.57142761775424,4763.1,361.5714133126395,496.57142761775424,4896.7]","[1739.2,1739.2,1000,0,739.2,""oops"",""left"",""right"",""bad_move"",4550.1,2808.8,2222.3,1741.3,586.5,""smooth"",""left"",""left"",""good_move"",8624.4,4073,2854.7,4551.4,1218.3,""oops"",""left"",""down"",""good_move"",11263.9,2638.1,1805.5,8625.9,832.5,""smooth"",""left"",""left"",""good_move"",20037.9,8769.3,2667.5,16901.9,468.6,""oops"",""left"",""up"",""bad_move"",24081.3,4042.4,2158,20038.9,1884.4,""oops"",""left"",""right"",""bad_move"",26354.8,2270.4,1783.2,24084.4,487.2,""oops"",""down"",""up"",""bad_move"",30419.1,4057.1,3645.7,26362.1,411.4,""while_blue"",""left"",""right"",""bad_move"",33629,3208.8,2650.8,30420.2,558,""oops"",""left"",""down"",""good_move"",36756.1,3126.5,2494.4,33629.7,632,""oops"",""left"",""down"",""good_move"",40070.3,3313.1,2718.9,36757.2,594.2,""smooth"",""down"",""down"",""good_move"",50877.5,10806.3,2938.8,47510.3,428.4,""oops"",""left"",""right"",""bad_move"",54338.1,3459.9,2953.4,50878.2,506.5,""oops"",""right"",""up"",""bad_move"",60297.6,5958.5,2046.8,54339.1,3911.7,""oops"",""left"",""up"",""bad_move"",66388.2,6090.1,2649.1,60298.2,3441,""oops"",""down"",""left"",""good_move"",75506.9,9117.1,2063.6,73043.9,399.4,""smooth"",""left"",""left"",""good_move"",79735,4227.4,1773.7,75507.6,2453.7,""oops"",""left"",""left"",""good_move"",87971.6,8235.6,3128.3,84416.8,426.5,""oops"",""left"",""down"",""good_move"",90830.6,2857.9,2180.1,87972.7,677.8,""smooth"",""left"",""left"",""good_move"",102858.6,12027,2555.4,99936.2,367,""smooth"",""down"",""down"",""good_move""]","",""
"6409","","<div style=""width:500px;"">
  <p>What determined the result of this run?</p>
  </div>","33","html-slider-response","79","2402170","0.0-10.0-1.7","45","1","2025-07-09 09:07:12","7701e855f2ef39aa3fd6c71abdc6918a","41.13.102.179","Mozilla/5.0 (Windows NT 10.0; Win64; x64) AppleWebKit/537.36 (KHTML, like Gecko) Chrome/138.0.0.0 Safari/537.36","WebKit","Chrome","138.0.0.0","Windows","10.0","https://app.prolific.com/","en-US,en;q=0.9,zh-CN;q=0.8,zh;q=0.7","669149873799bbea50733fe0","686d226cabeef709c732f8e1","686e313593b4d97f1f160b7f","669149873799bbea50733fe0","2025-07-09T09:47:18.801Z","","","","","","AttribQ","","","","","","","","","","","","","","","","","","","","","","","","","","","","","","","","","","","","","","50"
"3535","","<div style=""width:500px;"">
  <p>How much control did you have over the ball?</p>
  </div>","33","html-slider-response","80","2405709","0.0-10.0-2.7","45","1","2025-07-09 09:07:12","7701e855f2ef39aa3fd6c71abdc6918a","41.13.102.179","Mozilla/5.0 (Windows NT 10.0; Win64; x64) AppleWebKit/537.36 (KHTML, like Gecko) Chrome/138.0.0.0 Safari/537.36","WebKit","Chrome","138.0.0.0","Windows","10.0","https://app.prolific.com/","en-US,en;q=0.9,zh-CN;q=0.8,zh;q=0.7","669149873799bbea50733fe0","686d226cabeef709c732f8e1","686e313593b4d97f1f160b7f","669149873799bbea50733fe0","2025-07-09T09:47:22.339Z","","","","","","ControlQ","","","","","","","","","","","","","","","","","","","","","","","","","","","","","","","","","","","","","","50"
"4612","","<div style=""width:500px;"">
  <p>How would you describe your current emotional state?</p>
  </div>","43","html-slider-response","81","2410325","0.0-10.0-3.7","45","1","2025-07-09 09:07:12","7701e855f2ef39aa3fd6c71abdc6918a","41.13.102.179","Mozilla/5.0 (Windows NT 10.0; Win64; x64) AppleWebKit/537.36 (KHTML, like Gecko) Chrome/138.0.0.0 Safari/537.36","WebKit","Chrome","138.0.0.0","Windows","10.0","https://app.prolific.com/","en-US,en;q=0.9,zh-CN;q=0.8,zh;q=0.7","669149873799bbea50733fe0","686d226cabeef709c732f8e1","686e313593b4d97f1f160b7f","669149873799bbea50733fe0","2025-07-09T09:47:26.955Z","","","","","","StressQ","","","","","","","","","","","","","","","","","","","","","","","","","","","","","","","","","","","","","","50"
"8691","","<div style=""width:500px;"">
  <p>What best describes how you currently feel?</p>
  </div>","75","html-slider-response","82","2419022","0.0-10.0-4.7","45","1","2025-07-09 09:07:12","7701e855f2ef39aa3fd6c71abdc6918a","41.13.102.179","Mozilla/5.0 (Windows NT 10.0; Win64; x64) AppleWebKit/537.36 (KHTML, like Gecko) Chrome/138.0.0.0 Safari/537.36","WebKit","Chrome","138.0.0.0","Windows","10.0","https://app.prolific.com/","en-US,en;q=0.9,zh-CN;q=0.8,zh;q=0.7","669149873799bbea50733fe0","686d226cabeef709c732f8e1","686e313593b4d97f1f160b7f","669149873799bbea50733fe0","2025-07-09T09:47:35.652Z","","","","","","MotivationQ","","","","","","","","","","","","","","","","","","","","","","","","","","","","","","","","","","","","","","50"
"","","","","ctl-task-cpt","83","2535163","0.0-10.0-0.8","45","1","2025-07-09 09:07:12","7701e855f2ef39aa3fd6c71abdc6918a","41.13.102.179","Mozilla/5.0 (Windows NT 10.0; Win64; x64) AppleWebKit/537.36 (KHTML, like Gecko) Chrome/138.0.0.0 Safari/537.36","WebKit","Chrome","138.0.0.0","Windows","10.0","https://app.prolific.com/","en-US,en;q=0.9,zh-CN;q=0.8,zh;q=0.7","669149873799bbea50733fe0","686d226cabeef709c732f8e1","686e313593b4d97f1f160b7f","669149873799bbea50733fe0","2025-07-09T09:49:31.794Z","","","","","","","","","","","","","","","","win-only","3","g1:SW,g2:NE","0.2","9","0","2423121.2","1478.2","6502","113100.6","1","4","4","6","2","-4","-4","0","3","0","1259.7","3000","-580","[""up"",""right""]","{""num_key_presses"":23,""num_perfect"":6,""num_errors"":0,""num_randdir"":17,""num_randdir_good_moves"":6,""num_whilered"":0,""num_whileblue"":0,""num_blue"":3,""num_good_moves"":12}","[410.3214133126395,410.32142761775424,1.1,410.3214133126395,410.32142761775424,147.9,410.3214133126395,410.32142761775424,261.4,410.3214133126395,410.32142761775424,373.4,410.3214133126395,410.32142761775424,486.8,410.3214133126395,410.32142761775424,599.3,707.8214133126395,185.32142761775424,728.9,774.0714133126395,126.57142761775425,853.2,797.8214133126395,67.82142761775425,975.6,796.5714133126395,52.82142761775425,1096.7,794.0714133126395,54.07142761775425,1203.3,794.0714133126395,54.07142761775425,1322,794.0714133126395,54.07142761775425,1431.2,794.0714133126395,54.07142761775425,1542.4,794.0714133126395,54.07142761775425,1654.2,794.0714133126395,54.07142761775425,1762.2,794.0714133126395,54.07142761775425,1870.3,794.0714133126395,54.07142761775425,1981.4,794.0714133126395,54.07142761775425,2097.6,794.0714133126395,54.07142761775425,2206.3,794.0714133126395,54.07142761775425,2323.7,657.8214133126395,322.82142761775424,2453.2,532.8214133126395,476.57142761775424,2581,467.8214133126395,437.82142761775424,2707.2,346.5714133126395,467.82142761775424,2834.1,326.5714133126395,504.07142761775424,2955.9,342.8214133126395,509.07142761775424,3075.3,346.5714133126395,509.07142761775424,3198.2,346.5714133126395,509.07142761775424,3307.1,346.5714133126395,509.07142761775424,3422.3,346.5714133126395,509.07142761775424,3537.4,346.5714133126395,509.07142761775424,3646.4,346.5714133126395,509.07142761775424,3755.6,346.5714133126395,509.07142761775424,3864.2,346.5714133126395,509.07142761775424,3968.7,346.5714133126395,509.07142761775424,4080.8,346.5714133126395,509.07142761775424,4197.3,346.5714133126395,509.07142761775424,4304.6,346.5714133126395,509.07142761775424,4414.7,346.5714133126395,509.07142761775424,4523.2,346.5714133126395,509.07142761775424,4635.6,346.5714133126395,509.07142761775424,4743.6,346.5714133126395,509.07142761775424,4853.9,346.5714133126395,509.07142761775424,4966.2]","[1537.8,1537.8,1000,0,537.8,""oops"",""right"",""right"",""good_move"",5366.4,3827.7,3057.1,1538.7,770.6,""oops"",""up"",""down"",""bad_move"",11360.5,5992.7,2396.3,8443,521.2,""oops"",""right"",""down"",""bad_move"",15868.1,4495.5,3555.2,11372.6,940.3,""oops"",""right"",""up"",""good_move"",21838.3,5968.3,2339.9,15870,3628.4,""oops"",""right"",""down"",""bad_move"",24958.2,3118.5,2345.8,21839.7,772.7,""oops"",""right"",""left"",""bad_move"",29345.7,4386.2,2597.6,24959.5,1788.6,""oops"",""up"",""right"",""good_move"",33220.5,3873.7,1933.1,29346.8,1940.7,""smooth"",""up"",""up"",""good_move"",38119.1,4897.6,2498.2,33221.5,2399.4,""smooth"",""up"",""up"",""good_move"",44328.3,6208.2,1927.2,38120.1,4281,""oops"",""up"",""left"",""bad_move"",50904.7,6569,2287.7,44335.7,4281.3,""oops"",""right"",""left"",""bad_move"",60021.3,9115.5,2369.4,57141,510.9,""oops"",""up"",""left"",""bad_move"",64214.7,4192.1,2602.7,60022.6,1589.4,""smooth"",""right"",""right"",""good_move"",68175.8,3959.7,2567.7,64216.1,1392,""oops"",""right"",""down"",""bad_move"",71823.4,3645.8,3138.4,68177.6,507.4,""oops"",""right"",""up"",""good_move"",76011.2,4186.1,3015.9,71825.2,1170.2,""smooth"",""right"",""right"",""good_move"",78858.5,2842.7,2335.4,76015.9,507.2,""oops"",""right"",""right"",""good_move"",81805.1,2945.6,2288.4,78859.5,657.2,""oops"",""right"",""up"",""good_move"",85927.5,4120.3,2963.5,81807.9,1156.1,""oops"",""right"",""left"",""bad_move"",90351.8,4422.7,3611.2,85929.1,811.5,""oops"",""right"",""down"",""bad_move"",93654.8,3301.7,2519.3,90353.1,782.4,""smooth"",""right"",""right"",""good_move"",97143.6,3487.9,2955.6,93655.7,532.3,""smooth"",""right"",""right"",""good_move"",103341.2,6194.2,1999.3,100789.5,552.4,""oops"",""right"",""down"",""bad_move""]","",""
"5721","","<div style=""width:500px;"">
  <p>What determined the result of this run?</p>
  </div>","20","html-slider-response","84","2540893","0.0-10.0-1.8","45","1","2025-07-09 09:07:12","7701e855f2ef39aa3fd6c71abdc6918a","41.13.102.179","Mozilla/5.0 (Windows NT 10.0; Win64; x64) AppleWebKit/537.36 (KHTML, like Gecko) Chrome/138.0.0.0 Safari/537.36","WebKit","Chrome","138.0.0.0","Windows","10.0","https://app.prolific.com/","en-US,en;q=0.9,zh-CN;q=0.8,zh;q=0.7","669149873799bbea50733fe0","686d226cabeef709c732f8e1","686e313593b4d97f1f160b7f","669149873799bbea50733fe0","2025-07-09T09:49:37.523Z","","","","","","AttribQ","","","","","","","","","","","","","","","","","","","","","","","","","","","","","","","","","","","","","","50"
"13620","","<div style=""width:500px;"">
  <p>How much control did you have over the ball?</p>
  </div>","67","html-slider-response","85","2554517","0.0-10.0-2.8","45","1","2025-07-09 09:07:12","7701e855f2ef39aa3fd6c71abdc6918a","41.13.102.179","Mozilla/5.0 (Windows NT 10.0; Win64; x64) AppleWebKit/537.36 (KHTML, like Gecko) Chrome/138.0.0.0 Safari/537.36","WebKit","Chrome","138.0.0.0","Windows","10.0","https://app.prolific.com/","en-US,en;q=0.9,zh-CN;q=0.8,zh;q=0.7","669149873799bbea50733fe0","686d226cabeef709c732f8e1","686e313593b4d97f1f160b7f","669149873799bbea50733fe0","2025-07-09T09:49:51.148Z","","","","","","ControlQ","","","","","","","","","","","","","","","","","","","","","","","","","","","","","","","","","","","","","","50"
"7933","","<div style=""width:500px;"">
  <p>How would you describe your current emotional state?</p>
  </div>","63","html-slider-response","86","2562455","0.0-10.0-3.8","45","1","2025-07-09 09:07:12","7701e855f2ef39aa3fd6c71abdc6918a","41.13.102.179","Mozilla/5.0 (Windows NT 10.0; Win64; x64) AppleWebKit/537.36 (KHTML, like Gecko) Chrome/138.0.0.0 Safari/537.36","WebKit","Chrome","138.0.0.0","Windows","10.0","https://app.prolific.com/","en-US,en;q=0.9,zh-CN;q=0.8,zh;q=0.7","669149873799bbea50733fe0","686d226cabeef709c732f8e1","686e313593b4d97f1f160b7f","669149873799bbea50733fe0","2025-07-09T09:49:59.086Z","","","","","","StressQ","","","","","","","","","","","","","","","","","","","","","","","","","","","","","","","","","","","","","","50"
"7810","","<div style=""width:500px;"">
  <p>What best describes how you currently feel?</p>
  </div>","57","html-slider-response","87","2570270","0.0-10.0-4.8","45","1","2025-07-09 09:07:12","7701e855f2ef39aa3fd6c71abdc6918a","41.13.102.179","Mozilla/5.0 (Windows NT 10.0; Win64; x64) AppleWebKit/537.36 (KHTML, like Gecko) Chrome/138.0.0.0 Safari/537.36","WebKit","Chrome","138.0.0.0","Windows","10.0","https://app.prolific.com/","en-US,en;q=0.9,zh-CN;q=0.8,zh;q=0.7","669149873799bbea50733fe0","686d226cabeef709c732f8e1","686e313593b4d97f1f160b7f","669149873799bbea50733fe0","2025-07-09T09:50:06.900Z","","","","","","MotivationQ","","","","","","","","","","","","","","","","","","","","","","","","","","","","","","","","","","","","","","50"
