"rt","response_timestamp","stimulus","response","trial_type","trial_index","time_elapsed","internal_node_id","run_id","condition","recorded_at","source_code_version","ip","user_agent","device","browser","browser_version","platform","platform_version","referer","accept_language","PROLIFIC_PID","STUDY_ID","SESSION_ID","prolific_id","realtime","view_history","question_order","consent","success","question_id","eventType","responses","item_order","radio_event_ids","radio_event_times","key_event_times","mouse_event_times","straightlining","zigzagging","honeypot","which_type","canvas_config","goals_layout","control_level","trial_number","tutorial_trial_number","trial_start_time","phase1_start_time","phase2_start_time","phase3_start_time","goal_1_value","goal_1_distance","goal_2_value","goal_2_distance","goal_selected","outcome","outcome_total","participant_final_score","participant_initial_score","participant_final_score_prop","goal_choice_rt","allocated_time","allocated_time_remaining","goal_direction","counts","mouse_movements","key_presses","correct","slider_start","sub_question"
"112034","1752052412188","<p style='font-size:40px;line-height:1.25'><strong>Welcome to the experiment!</strong></p><p style='font-size:1.1em;line-height:1.25'>Thank you for your interest in our experiment! Before you begin, it is important that we obtain your informed consent to participate in the study.</p><p style='font-size:1.1em;line-height:1.25'>On the next screen will be an <strong>information sheet</strong> for you to read. To participate in the study we need you to read this information sheet and the following consent form carefully. If you agree with all the statements, please click the <strong>I agree</strong> button.</p><p style='font-size:1.1em;line-height:1.25'>Press <strong>Next</strong> to read the information sheet.</p>","0","custom-html-button-response","0","112036","0.0-0.0","166","1","2025-07-09 09:11:36","7701e855f2ef39aa3fd6c71abdc6918a","212.32.120.38","Mozilla/5.0 (Windows NT 10.0; Win64; x64) AppleWebKit/537.36 (KHTML, like Gecko) Chrome/131.0.0.0 Safari/537.36","WebKit","Chrome","131.0.0.0","Windows","10.0","https://app.prolific.com/","en-US,en;q=0.9","678c1a86da262715257f3150","686d226cabeef709c732f8e1","686e312bb703a3f17ec73b52","678c1a86da262715257f3150","2025-07-09T09:13:32.189Z","","","","","","","","","","","","","","","","","","","","","","","","","","","","","","","","","","","","","","","","","","","","",""
"11275","","","","instructions","1","123313","0.0-1.0","166","1","2025-07-09 09:11:36","7701e855f2ef39aa3fd6c71abdc6918a","212.32.120.38","Mozilla/5.0 (Windows NT 10.0; Win64; x64) AppleWebKit/537.36 (KHTML, like Gecko) Chrome/131.0.0.0 Safari/537.36","WebKit","Chrome","131.0.0.0","Windows","10.0","https://app.prolific.com/","en-US,en;q=0.9","678c1a86da262715257f3150","686d226cabeef709c732f8e1","686e312bb703a3f17ec73b52","678c1a86da262715257f3150","","[{""page_index"":0,""viewing_time"":9829},{""page_index"":1,""viewing_time"":1446}]","","","","","","","","","","","","","","","","","","","","","","","","","","","","","","","","","","","","","","","","","","","",""
"9269","","","{""Q0"":"""",""Q1"":"""",""Q2"":"""",""Q3"":"""",""Q4"":"""",""Q5"":"""",""Q6"":""I agree""}","survey-multi-choice","2","132585","0.0-2.0","166","1","2025-07-09 09:11:36","7701e855f2ef39aa3fd6c71abdc6918a","212.32.120.38","Mozilla/5.0 (Windows NT 10.0; Win64; x64) AppleWebKit/537.36 (KHTML, like Gecko) Chrome/131.0.0.0 Safari/537.36","WebKit","Chrome","131.0.0.0","Windows","10.0","https://app.prolific.com/","en-US,en;q=0.9","678c1a86da262715257f3150","686d226cabeef709c732f8e1","686e312bb703a3f17ec73b52","678c1a86da262715257f3150","","","[0,1,2,3,4,5,6]","true","","","","","","","","","","","","","","","","","","","","","","","","","","","","","","","","","","","","","","","","","",""
"14747","","","","fullscreen","3","148338","0.0-4.0","166","1","2025-07-09 09:11:36","7701e855f2ef39aa3fd6c71abdc6918a","212.32.120.38","Mozilla/5.0 (Windows NT 10.0; Win64; x64) AppleWebKit/537.36 (KHTML, like Gecko) Chrome/131.0.0.0 Safari/537.36","WebKit","Chrome","131.0.0.0","Windows","10.0","https://app.prolific.com/","en-US,en;q=0.9","678c1a86da262715257f3150","686d226cabeef709c732f8e1","686e312bb703a3f17ec73b52","678c1a86da262715257f3150","","","","","true","","","","","","","","","","","","","","","","","","","","","","","","","","","","","","","","","","","","","","","","",""
"10894","1752052459386"," <p style='font-size:1.1em;line-height:1.25'>Thank you for completing the consent form and closing all other tabs.</p><p style='font-size:1.1em;line-height:1.25'>We will now invite you to fill in some demographic information and questionnaires, before starting the game.<br>This will take about 5 minutes.<br></p><p style='font-size:1.1em;line-height:1.25'>Press the <strong>Next</strong> button to continue.</p>","0","custom-html-button-response","4","159233","0.0-5.0","166","1","2025-07-09 09:11:36","7701e855f2ef39aa3fd6c71abdc6918a","212.32.120.38","Mozilla/5.0 (Windows NT 10.0; Win64; x64) AppleWebKit/537.36 (KHTML, like Gecko) Chrome/131.0.0.0 Safari/537.36","WebKit","Chrome","131.0.0.0","Windows","10.0","https://app.prolific.com/","en-US,en;q=0.9","678c1a86da262715257f3150","686d226cabeef709c732f8e1","686e312bb703a3f17ec73b52","678c1a86da262715257f3150","2025-07-09T09:14:19.386Z","","","","","","","","","","","","","","","","","","","","","","","","","","","","","","","","","","","","","","","","","","","","",""
"44696","","","{""age"":""38""}","survey-text","5","203932","0.0-6.0-0.0","166","1","2025-07-09 09:11:36","7701e855f2ef39aa3fd6c71abdc6918a","212.32.120.38","Mozilla/5.0 (Windows NT 10.0; Win64; x64) AppleWebKit/537.36 (KHTML, like Gecko) Chrome/131.0.0.0 Safari/537.36","WebKit","Chrome","131.0.0.0","Windows","10.0","https://app.prolific.com/","en-US,en;q=0.9","678c1a86da262715257f3150","686d226cabeef709c732f8e1","686e312bb703a3f17ec73b52","678c1a86da262715257f3150","","","","","","0","demographics","","","","","","","","","","","","","","","","","","","","","","","","","","","","","","","","","","","","","","",""
"4600","","","{""gender_identity"":""female/woman""}","survey-multi-choice","6","208534","0.0-6.0-1.0","166","1","2025-07-09 09:11:36","7701e855f2ef39aa3fd6c71abdc6918a","212.32.120.38","Mozilla/5.0 (Windows NT 10.0; Win64; x64) AppleWebKit/537.36 (KHTML, like Gecko) Chrome/131.0.0.0 Safari/537.36","WebKit","Chrome","131.0.0.0","Windows","10.0","https://app.prolific.com/","en-US,en;q=0.9","678c1a86da262715257f3150","686d226cabeef709c732f8e1","686e312bb703a3f17ec73b52","678c1a86da262715257f3150","","","[0]","","","1","demographics","","","","","","","","","","","","","","","","","","","","","","","","","","","","","","","","","","","","","","",""
"7381","","","{""assigned_sex"":""female""}","survey-multi-choice","7","215917","0.0-6.0-2.0","166","1","2025-07-09 09:11:36","7701e855f2ef39aa3fd6c71abdc6918a","212.32.120.38","Mozilla/5.0 (Windows NT 10.0; Win64; x64) AppleWebKit/537.36 (KHTML, like Gecko) Chrome/131.0.0.0 Safari/537.36","WebKit","Chrome","131.0.0.0","Windows","10.0","https://app.prolific.com/","en-US,en;q=0.9","678c1a86da262715257f3150","686d226cabeef709c732f8e1","686e312bb703a3f17ec73b52","678c1a86da262715257f3150","","","[0]","","","2","demographics","","","","","","","","","","","","","","","","","","","","","","","","","","","","","","","","","","","","","","",""
"17549","","","{""menstrual_cycle"":""Yes""}","survey-multi-choice","8","233467","0.0-6.0-3.0","166","1","2025-07-09 09:11:36","7701e855f2ef39aa3fd6c71abdc6918a","212.32.120.38","Mozilla/5.0 (Windows NT 10.0; Win64; x64) AppleWebKit/537.36 (KHTML, like Gecko) Chrome/131.0.0.0 Safari/537.36","WebKit","Chrome","131.0.0.0","Windows","10.0","https://app.prolific.com/","en-US,en;q=0.9","678c1a86da262715257f3150","686d226cabeef709c732f8e1","686e312bb703a3f17ec73b52","678c1a86da262715257f3150","","","[0]","","","4","demographics","","","","","","","","","","","","","","","","","","","","","","","","","","","","","","","","","","","","","","",""
"13749","","","{""education"":""Master's Degree (e.g., MSc)""}","survey-multi-choice","9","247217","0.0-6.0-4.0","166","1","2025-07-09 09:11:36","7701e855f2ef39aa3fd6c71abdc6918a","212.32.120.38","Mozilla/5.0 (Windows NT 10.0; Win64; x64) AppleWebKit/537.36 (KHTML, like Gecko) Chrome/131.0.0.0 Safari/537.36","WebKit","Chrome","131.0.0.0","Windows","10.0","https://app.prolific.com/","en-US,en;q=0.9","678c1a86da262715257f3150","686d226cabeef709c732f8e1","686e312bb703a3f17ec73b52","678c1a86da262715257f3150","","","[0]","","","5","demographics","","","","","","","","","","","","","","","","","","","","","","","","","","","","","","","","","","","","","","",""
"18131","","","{""education"":""Higher National Certificate""}","survey-multi-choice","10","265350","0.0-6.0-5.0","166","1","2025-07-09 09:11:36","7701e855f2ef39aa3fd6c71abdc6918a","212.32.120.38","Mozilla/5.0 (Windows NT 10.0; Win64; x64) AppleWebKit/537.36 (KHTML, like Gecko) Chrome/131.0.0.0 Safari/537.36","WebKit","Chrome","131.0.0.0","Windows","10.0","https://app.prolific.com/","en-US,en;q=0.9","678c1a86da262715257f3150","686d226cabeef709c732f8e1","686e312bb703a3f17ec73b52","678c1a86da262715257f3150","2025-07-09T09:16:05.503Z","","[0]","","","6","demographics","","","","","","","","","","","","","","","","","","","","","","","","","","","","","","","","","","","","","","",""
"57212","","","{""mental_health_condition"":""no"",""mental_health_treatment"":""no"",""psychiatric_medication"":""no""}","survey-text","11","322564","0.0-7.0-0.0","166","1","2025-07-09 09:11:36","7701e855f2ef39aa3fd6c71abdc6918a","212.32.120.38","Mozilla/5.0 (Windows NT 10.0; Win64; x64) AppleWebKit/537.36 (KHTML, like Gecko) Chrome/131.0.0.0 Safari/537.36","WebKit","Chrome","131.0.0.0","Windows","10.0","https://app.prolific.com/","en-US,en;q=0.9","678c1a86da262715257f3150","686d226cabeef709c732f8e1","686e312bb703a3f17ec73b52","678c1a86da262715257f3150","2025-07-09T09:17:02.717Z","","","","","1","mental_health","","","","","","","","","","","","","","","","","","","","","","","","","","","","","","","","","","","","","","",""
"67233","","","{""depression_history"":[""No""]}","survey-multi-select","12","389799","0.0-7.0-1.0","166","1","2025-07-09 09:11:36","7701e855f2ef39aa3fd6c71abdc6918a","212.32.120.38","Mozilla/5.0 (Windows NT 10.0; Win64; x64) AppleWebKit/537.36 (KHTML, like Gecko) Chrome/131.0.0.0 Safari/537.36","WebKit","Chrome","131.0.0.0","Windows","10.0","https://app.prolific.com/","en-US,en;q=0.9","678c1a86da262715257f3150","686d226cabeef709c732f8e1","686e312bb703a3f17ec73b52","678c1a86da262715257f3150","","","[0]","","","","mental_health","","","","","","","","","","","","","","","","","","","","","","","","","","","","","","","","","","","","","","",""
"186080.2999999998","","","","survey-template","13","575883","0.0-7.0-3.0","166","1","2025-07-09 09:11:36","7701e855f2ef39aa3fd6c71abdc6918a","212.32.120.38","Mozilla/5.0 (Windows NT 10.0; Win64; x64) AppleWebKit/537.36 (KHTML, like Gecko) Chrome/131.0.0.0 Safari/537.36","WebKit","Chrome","131.0.0.0","Windows","10.0","https://app.prolific.com/","en-US,en;q=0.9","678c1a86da262715257f3150","686d226cabeef709c732f8e1","686e312bb703a3f17ec73b52","678c1a86da262715257f3150","2025-07-09T09:21:16.036Z","","","","","","ius","{""Q01"":""1"",""Q02"":""3"",""Q03"":""3"",""Q04"":""4"",""Q05"":""4"",""Q06"":""0"",""Q07"":""0"",""Q08"":""0"",""Q09"":""4"",""Q10"":""0"",""Q11"":""0"",""Q12"":""4"",""Q13"":""4""}","[0,1,2,3,4,5,6,7,8,9,10,11,12]","[""Q01"",""Q02"",""Q03"",""Q04"",""Q05"",""Q06"",""Q07"",""Q08"",""Q09"",""Q10"",""Q11"",""Q12"",""Q13""]","[16979,28258,37116.60000000056,48223.5,88805.5,97845.40000000037,113196.29999999981,118492.70000000019,130623.79999999981,136573.2000000002,167852.2000000002,173711.2000000002,184909.40000000037]","[]","[15403.200000000186,16979,28258,37116.60000000056,48223.5,88805.5,97845.40000000037,113196.29999999981,118492.70000000019,130623.79999999981,136573.2000000002,167852.2000000002,173711.2000000002,184909.40000000037,186078.90000000037]","0.38461538461538464","0.4166666666666667","0","","","","","","","","","","","","","","","","","","","","","","","","","","","","","",""
"4213","1752052880250","<p style='font-size:1.1em;line-height:1.25'>In the following, we will ask you a few questions relating to your experiences over the past month.<br></p><p style='font-size:1.1em;line-height:1.25'>Press the <strong>Next</strong> button to continue.</p>","0","custom-html-button-response","14","580098","0.0-7.0-4.0","166","1","2025-07-09 09:11:36","7701e855f2ef39aa3fd6c71abdc6918a","212.32.120.38","Mozilla/5.0 (Windows NT 10.0; Win64; x64) AppleWebKit/537.36 (KHTML, like Gecko) Chrome/131.0.0.0 Safari/537.36","WebKit","Chrome","131.0.0.0","Windows","10.0","https://app.prolific.com/","en-US,en;q=0.9","678c1a86da262715257f3150","686d226cabeef709c732f8e1","686e312bb703a3f17ec73b52","678c1a86da262715257f3150","2025-07-09T09:21:20.251Z","","","","","","","","","","","","","","","","","","","","","","","","","","","","","","","","","","","","","","","","","","","","",""
"88749.59999999963","","","","survey-template","15","668850","0.0-7.0-5.0","166","1","2025-07-09 09:11:36","7701e855f2ef39aa3fd6c71abdc6918a","212.32.120.38","Mozilla/5.0 (Windows NT 10.0; Win64; x64) AppleWebKit/537.36 (KHTML, like Gecko) Chrome/131.0.0.0 Safari/537.36","WebKit","Chrome","131.0.0.0","Windows","10.0","https://app.prolific.com/","en-US,en;q=0.9","678c1a86da262715257f3150","686d226cabeef709c732f8e1","686e312bb703a3f17ec73b52","678c1a86da262715257f3150","2025-07-09T09:22:49.003Z","","","","","","pss","{""Q01"":""0"",""Q02"":""0"",""Q03"":""0"",""Q04"":""0"",""Q05"":""0"",""Q06"":""0"",""Q07"":""0"",""Q08"":""1"",""Q09"":""0"",""Q10"":""0""}","[0,1,2,3,4,5,6,7,8,9]","[""Q01"",""Q02"",""Q03"",""Q04"",""Q05"",""Q06"",""Q07"",""Q08"",""Q09"",""Q10""]","[8541,13697.799999999814,19543.099999999627,28510.099999999627,33952.40000000037,42782.700000000186,55326,64950.700000000186,75550.09999999963,87461.59999999963]","[]","[0,8541,13697.799999999814,17036.599999999627,17892.700000000186,19543.099999999627,28510.099999999627,33952.40000000037,42782.700000000186,55326,64950.700000000186,75550.09999999963,87461.59999999963,88747.70000000019]","0.6","0.4444444444444444","0","","","","","","","","","","","","","","","","","","","","","","","","","","","","","",""
"2138","1752052971142","<p style='font-size:1.1em;line-height:1.25'>Thank you for your answers! Now we will ask you a few more questions relating to your feelings in the last 24 hours.<br></p><p style='font-size:1.1em;line-height:1.25'>Press the <strong>Next</strong> button to continue.</p>","0","custom-html-button-response","16","670990","0.0-7.0-6.0","166","1","2025-07-09 09:11:36","7701e855f2ef39aa3fd6c71abdc6918a","212.32.120.38","Mozilla/5.0 (Windows NT 10.0; Win64; x64) AppleWebKit/537.36 (KHTML, like Gecko) Chrome/131.0.0.0 Safari/537.36","WebKit","Chrome","131.0.0.0","Windows","10.0","https://app.prolific.com/","en-US,en;q=0.9","678c1a86da262715257f3150","686d226cabeef709c732f8e1","686e312bb703a3f17ec73b52","678c1a86da262715257f3150","2025-07-09T09:22:51.143Z","","","","","","","","","","","","","","","","","","","","","","","","","","","","","","","","","","","","","","","","","","","","",""
"98524.70000000019","","","","survey-template","17","769519","0.0-7.0-7.0","166","1","2025-07-09 09:11:36","7701e855f2ef39aa3fd6c71abdc6918a","212.32.120.38","Mozilla/5.0 (Windows NT 10.0; Win64; x64) AppleWebKit/537.36 (KHTML, like Gecko) Chrome/131.0.0.0 Safari/537.36","WebKit","Chrome","131.0.0.0","Windows","10.0","https://app.prolific.com/","en-US,en;q=0.9","678c1a86da262715257f3150","686d226cabeef709c732f8e1","686e312bb703a3f17ec73b52","678c1a86da262715257f3150","2025-07-09T09:24:29.672Z","","","","","","drsp","{""Q01"":""0"",""Q02"":""0"",""Q03"":""0"",""Q04"":""0"",""Q05"":""0"",""Q06"":""0"",""Q07"":""0"",""Q08"":""0"",""Q09"":""0"",""Q10"":""0"",""Q11"":""0"",""Q12"":""0"",""Q13"":""2"",""Q14"":""0"",""Q15"":""0"",""Q16"":""3"",""Q17"":""0"",""Q18"":""0"",""Q19"":""0"",""Q20"":""0"",""Q21"":""0""}","[0,1,2,3,4,5,6,7,8,9,10,11,12,13,14,15,16,17,18,19,20]","[""Q01"",""Q02"",""Q03"",""Q04"",""Q05"",""Q06"",""Q07"",""Q08"",""Q09"",""Q10"",""Q11"",""Q12"",""Q13"",""Q14"",""Q16"",""Q15"",""Q17"",""Q18"",""Q19"",""Q21"",""Q20""]","[5754.9000000003725,8441.400000000373,11257.300000000745,14921.5,17151.60000000056,22165.300000000745,25584,28199.60000000056,31317.900000000373,33775.800000000745,35737.200000000186,36811.5,46569.5,52234.90000000037,55883.700000000186,59876.800000000745,65750.80000000075,73198.30000000075,78289.20000000019,90971.70000000019,91690.10000000056]","[]","[0.10000000055879354,3773.800000000745,5754.9000000003725,8441.400000000373,11257.300000000745,14921.5,17151.60000000056,22165.300000000745,25584,28199.60000000056,31317.900000000373,33775.800000000745,35737.200000000186,36811.5,45455.800000000745,46569.5,51365.300000000745,52234.90000000037,55883.700000000186,58917,59876.800000000745,65750.80000000075,72363.20000000019,73198.30000000075,78289.20000000019,90075.10000000056,90971.70000000019,91690.10000000056,95078.20000000019,98520.10000000056]","0.9047619047619048","0","0","","","","","","","","","","","","","","","","","","","","","","","","","","","","","",""
"16247.900000000373","","","","survey-template","18","785769","0.0-7.0-8.0","166","1","2025-07-09 09:11:36","7701e855f2ef39aa3fd6c71abdc6918a","212.32.120.38","Mozilla/5.0 (Windows NT 10.0; Win64; x64) AppleWebKit/537.36 (KHTML, like Gecko) Chrome/131.0.0.0 Safari/537.36","WebKit","Chrome","131.0.0.0","Windows","10.0","https://app.prolific.com/","en-US,en;q=0.9","678c1a86da262715257f3150","686d226cabeef709c732f8e1","686e312bb703a3f17ec73b52","678c1a86da262715257f3150","2025-07-09T09:24:45.922Z","","","","","","stress","{""Q01"":""0"",""Q02"":""0"",""Q03"":""0""}","[0,1,2]","[""Q01"",""Q02"",""Q03""]","[3558.100000000559,8717.200000000186,15015.400000000373]","[]","[3558.100000000559,8717.200000000186,15015.400000000373,16247.200000000186]","0.6666666666666666","1","0","","","","","","","","","","","","","","","","","","","","","","","","","","","","","",""
"65486","","","","instructions","19","851256","0.0-8.0-0.0","166","1","2025-07-09 09:11:36","7701e855f2ef39aa3fd6c71abdc6918a","212.32.120.38","Mozilla/5.0 (Windows NT 10.0; Win64; x64) AppleWebKit/537.36 (KHTML, like Gecko) Chrome/131.0.0.0 Safari/537.36","WebKit","Chrome","131.0.0.0","Windows","10.0","https://app.prolific.com/","en-US,en;q=0.9","678c1a86da262715257f3150","686d226cabeef709c732f8e1","686e312bb703a3f17ec73b52","678c1a86da262715257f3150","","[{""page_index"":0,""viewing_time"":42127},{""page_index"":1,""viewing_time"":14941},{""page_index"":2,""viewing_time"":1150},{""page_index"":3,""viewing_time"":7268}]","","","","","","","","","","","","","","","","","","","","","","","","","","","","","","","","","","","","","","","","","","","",""
"","","","","ctl-task-cpt","20","875321","0.0-8.0-1.0","166","1","2025-07-09 09:11:36","7701e855f2ef39aa3fd6c71abdc6918a","212.32.120.38","Mozilla/5.0 (Windows NT 10.0; Win64; x64) AppleWebKit/537.36 (KHTML, like Gecko) Chrome/131.0.0.0 Safari/537.36","WebKit","Chrome","131.0.0.0","Windows","10.0","https://app.prolific.com/","en-US,en;q=0.9","678c1a86da262715257f3150","686d226cabeef709c732f8e1","686e312bb703a3f17ec73b52","678c1a86da262715257f3150","","","","","","","","","","","","","","","","","win-only","1","g1:NE,g2:SW","1","0","1","857494.5","3145.3","7147.5","21059.8","2","4","4","6","2","-4","-5","0","0","0","4002.2","4000","-3000","[""down"",""left""]","{""num_key_presses"":2,""num_perfect"":1,""num_errors"":1,""num_randdir"":0,""num_randdir_good_moves"":0,""num_whilered"":0,""num_whileblue"":0,""num_blue"":1,""num_good_moves"":0}","[355.4683035714286,362.8745535714286,0.2,355.4683035714286,362.8745535714286,101.7,355.4683035714286,362.8745535714286,201.7,355.4683035714286,362.8745535714286,306.3,355.4683035714286,362.8745535714286,411.8,355.4683035714286,362.8745535714286,515.8,355.4683035714286,362.8745535714286,621.9,355.4683035714286,362.8745535714286,726.7,355.4683035714286,362.8745535714286,830.4,355.4683035714286,362.8745535714286,930.7,355.4683035714286,362.8745535714286,1032.3,355.4683035714286,362.8745535714286,1136,355.4683035714286,362.8745535714286,1240.7,355.4683035714286,362.8745535714286,1346.9,355.4683035714286,362.8745535714286,1451.9,355.4683035714286,362.8745535714286,1556.3,355.4683035714286,362.8745535714286,1661.2,355.4683035714286,362.8745535714286,1762.9,355.4683035714286,362.8745535714286,1866.3,355.4683035714286,362.8745535714286,1971.7,355.4683035714286,362.8745535714286,2071.7,355.4683035714286,362.8745535714286,2171.7,355.4683035714286,362.8745535714286,2271.7,355.4683035714286,362.8745535714286,2371.7,355.4683035714286,362.8745535714286,2475.8,355.4683035714286,362.8745535714286,2581.9,355.4683035714286,362.8745535714286,2686.3,355.4683035714286,362.8745535714286,2790.8,355.4683035714286,362.8745535714286,2895.8,355.4683035714286,362.8745535714286,3001.8,355.4683035714286,362.8745535714286,3105.4,355.4683035714286,362.8745535714286,3205.6,355.4683035714286,362.8745535714286,3311.9,355.4683035714286,362.8745535714286,3412.2,355.4683035714286,362.8745535714286,3515.4,355.4683035714286,362.8745535714286,3616.2,355.4683035714286,362.8745535714286,3716.3,355.4683035714286,362.8745535714286,3816.4,355.4683035714286,362.8745535714286,3920.6]","[992,992,1000,0,-8,""error"",""-"",""-"",""no_move"",7945.1,6953,2838.8,1993.7,3112.7,""smooth"",""right"",""right"",""bad_move""]","","",""
"4767","","","","instructions","21","880088","0.0-8.0-2.0","166","1","2025-07-09 09:11:36","7701e855f2ef39aa3fd6c71abdc6918a","212.32.120.38","Mozilla/5.0 (Windows NT 10.0; Win64; x64) AppleWebKit/537.36 (KHTML, like Gecko) Chrome/131.0.0.0 Safari/537.36","WebKit","Chrome","131.0.0.0","Windows","10.0","https://app.prolific.com/","en-US,en;q=0.9","678c1a86da262715257f3150","686d226cabeef709c732f8e1","686e312bb703a3f17ec73b52","678c1a86da262715257f3150","","[{""page_index"":0,""viewing_time"":4767}]","","","","","","","","","","","","","","","","","","","","","","","","","","","","","","","","","","","","","","","","","","","",""
"","","","","ctl-task-cpt","22","903214","0.0-8.0-3.0","166","1","2025-07-09 09:11:36","7701e855f2ef39aa3fd6c71abdc6918a","212.32.120.38","Mozilla/5.0 (Windows NT 10.0; Win64; x64) AppleWebKit/537.36 (KHTML, like Gecko) Chrome/131.0.0.0 Safari/537.36","WebKit","Chrome","131.0.0.0","Windows","10.0","https://app.prolific.com/","en-US,en;q=0.9","678c1a86da262715257f3150","686d226cabeef709c732f8e1","686e312bb703a3f17ec73b52","678c1a86da262715257f3150","","","","","","","","","","","","","","","","","win-only","1","g1:NE,g2:SW","0.35","0","3","886324.3","1794.7","5797.4","20116.8","2","4","8","6","1","-2","-3","0","0","0","4002.7","4000","-3005","[""up"",""right""]","{""num_key_presses"":3,""num_perfect"":0,""num_errors"":1,""num_randdir"":1,""num_randdir_good_moves"":0,""num_whilered"":1,""num_whileblue"":0,""num_blue"":1,""num_good_moves"":0}","[357.4683035714286,352.8745535714286,0.1,357.4683035714286,352.8745535714286,101.1,357.4683035714286,352.8745535714286,201.7,357.4683035714286,352.8745535714286,306.4,357.4683035714286,352.8745535714286,406.9,357.4683035714286,352.8745535714286,511,357.4683035714286,352.8745535714286,611.2,357.4683035714286,352.8745535714286,711.6,357.4683035714286,352.8745535714286,811.7,357.4683035714286,353.8745535714286,916.9,356.4683035714286,366.8745535714286,1017.6,349.4683035714286,388.8745535714286,1121.7,347.4683035714286,419.8745535714286,1221.9,352.4683035714286,454.8745535714286,1326.2,357.4683035714286,483.8745535714286,1426.8,350.4683035714286,525.8745535714286,1531.8,356.4683035714286,556.8745535714286,1636.3,381.4683035714286,587.8745535714286,1740.6,392.4683035714286,604.8745535714286,1841.7,407.4683035714286,624.8745535714286,1941.7,407.4683035714286,624.8745535714286,2046.2,407.4683035714286,624.8745535714286,2146.7,407.4683035714286,624.8745535714286,2251.1,407.4683035714286,624.8745535714286,2351.5,407.4683035714286,624.8745535714286,2451.5,407.4683035714286,624.8745535714286,2556.3,407.4683035714286,624.8745535714286,2656.7,407.4683035714286,624.8745535714286,2756.7,407.4683035714286,624.8745535714286,2861.7,407.4683035714286,624.8745535714286,2966.3,407.4683035714286,624.8745535714286,3066.6,407.4683035714286,624.8745535714286,3171.1,407.4683035714286,624.8745535714286,3271.6,407.4683035714286,624.8745535714286,3376.5,407.4683035714286,624.8745535714286,3482.5,407.4683035714286,624.8745535714286,3586.3,407.4683035714286,624.8745535714286,3687.6,407.4683035714286,624.8745535714286,3791.3,407.4683035714286,624.8745535714286,3891.7,407.4683035714286,624.8745535714286,3995.9]","[1511.3,1511.3,1000,0,511.3,""oops"",""right"",""left"",""bad_move"",3581.8,2069.8,2873.9,1512.1,-804.2,""error"",""-"",""-"",""no_move"",3981.4,399.3,2873.9,1512.1,-404.6,""while_red"",""-"",""-"",""no_move""]","","",""
"36346","","","","instructions","23","939562","0.0-8.0-4.0","166","1","2025-07-09 09:11:36","7701e855f2ef39aa3fd6c71abdc6918a","212.32.120.38","Mozilla/5.0 (Windows NT 10.0; Win64; x64) AppleWebKit/537.36 (KHTML, like Gecko) Chrome/131.0.0.0 Safari/537.36","WebKit","Chrome","131.0.0.0","Windows","10.0","https://app.prolific.com/","en-US,en;q=0.9","678c1a86da262715257f3150","686d226cabeef709c732f8e1","686e312bb703a3f17ec73b52","678c1a86da262715257f3150","","[{""page_index"":0,""viewing_time"":11761},{""page_index"":1,""viewing_time"":24586}]","","","","","","","","","","","","","","","","","","","","","","","","","","","","","","","","","","","","","","","","","","","",""
"31078","","","{""green_ball"":[""Ball doesn‘t move and I get -1 penalty point""]}","survey-multi-select","24","970642","0.0-8.0-5.0-0.0","166","1","2025-07-09 09:11:36","7701e855f2ef39aa3fd6c71abdc6918a","212.32.120.38","Mozilla/5.0 (Windows NT 10.0; Win64; x64) AppleWebKit/537.36 (KHTML, like Gecko) Chrome/131.0.0.0 Safari/537.36","WebKit","Chrome","131.0.0.0","Windows","10.0","https://app.prolific.com/","en-US,en;q=0.9","678c1a86da262715257f3150","686d226cabeef709c732f8e1","686e312bb703a3f17ec73b52","678c1a86da262715257f3150","","","[0]","","","","quiz","","","","","","","","","","","","","","","","","","","","","","","","","","","","","","","","","","","","","false","",""
"8555","","<p align='center'><b>INCORRECT.</b> Usually the green ball moves in the indicated direction, but sometimes it shakes and moves randomly. </p>","0","html-button-response","25","979200","0.0-8.0-5.0-1.0","166","1","2025-07-09 09:11:36","7701e855f2ef39aa3fd6c71abdc6918a","212.32.120.38","Mozilla/5.0 (Windows NT 10.0; Win64; x64) AppleWebKit/537.36 (KHTML, like Gecko) Chrome/131.0.0.0 Safari/537.36","WebKit","Chrome","131.0.0.0","Windows","10.0","https://app.prolific.com/","en-US,en;q=0.9","678c1a86da262715257f3150","686d226cabeef709c732f8e1","686e312bb703a3f17ec73b52","678c1a86da262715257f3150","","","","","","","","","","","","","","","","","","","","","","","","","","","","","","","","","","","","","","","","","","","","","",""
"4558","","","{""green_ball"":[""Ball sometimes shakes and moves in a random direction""]}","survey-multi-select","26","983760","0.0-8.0-5.1-0.1","166","1","2025-07-09 09:11:36","7701e855f2ef39aa3fd6c71abdc6918a","212.32.120.38","Mozilla/5.0 (Windows NT 10.0; Win64; x64) AppleWebKit/537.36 (KHTML, like Gecko) Chrome/131.0.0.0 Safari/537.36","WebKit","Chrome","131.0.0.0","Windows","10.0","https://app.prolific.com/","en-US,en;q=0.9","678c1a86da262715257f3150","686d226cabeef709c732f8e1","686e312bb703a3f17ec73b52","678c1a86da262715257f3150","","","[0]","","","","quiz","","","","","","","","","","","","","","","","","","","","","","","","","","","","","","","","","","","","","true","",""
"2391","","<p align='center'><b>CORRECT!</b> Indeed, the green ball may sometimes shake and move in a random direction.</p>","0","html-button-response","27","986152","0.0-8.0-5.1-1.1","166","1","2025-07-09 09:11:36","7701e855f2ef39aa3fd6c71abdc6918a","212.32.120.38","Mozilla/5.0 (Windows NT 10.0; Win64; x64) AppleWebKit/537.36 (KHTML, like Gecko) Chrome/131.0.0.0 Safari/537.36","WebKit","Chrome","131.0.0.0","Windows","10.0","https://app.prolific.com/","en-US,en;q=0.9","678c1a86da262715257f3150","686d226cabeef709c732f8e1","686e312bb703a3f17ec73b52","678c1a86da262715257f3150","","","","","","","","","","","","","","","","","","","","","","","","","","","","","","","","","","","","","","","","","","","","","",""
"12465","","","{""yellow_ball"":[""Ball always moves in the direction I press""]}","survey-multi-select","28","998619","0.0-8.0-6.0-0.0","166","1","2025-07-09 09:11:36","7701e855f2ef39aa3fd6c71abdc6918a","212.32.120.38","Mozilla/5.0 (Windows NT 10.0; Win64; x64) AppleWebKit/537.36 (KHTML, like Gecko) Chrome/131.0.0.0 Safari/537.36","WebKit","Chrome","131.0.0.0","Windows","10.0","https://app.prolific.com/","en-US,en;q=0.9","678c1a86da262715257f3150","686d226cabeef709c732f8e1","686e312bb703a3f17ec73b52","678c1a86da262715257f3150","","","[0]","","","","quiz","","","","","","","","","","","","","","","","","","","","","","","","","","","","","","","","","","","","","false","",""
"4177","","<p align='center'><b>INCORRECT.</b> The yellow ball never moves and you reveice a penalty if you press anyways. </p>","0","html-button-response","29","1002797","0.0-8.0-6.0-1.0","166","1","2025-07-09 09:11:36","7701e855f2ef39aa3fd6c71abdc6918a","212.32.120.38","Mozilla/5.0 (Windows NT 10.0; Win64; x64) AppleWebKit/537.36 (KHTML, like Gecko) Chrome/131.0.0.0 Safari/537.36","WebKit","Chrome","131.0.0.0","Windows","10.0","https://app.prolific.com/","en-US,en;q=0.9","678c1a86da262715257f3150","686d226cabeef709c732f8e1","686e312bb703a3f17ec73b52","678c1a86da262715257f3150","","","","","","","","","","","","","","","","","","","","","","","","","","","","","","","","","","","","","","","","","","","","","",""
"17466","","","{""yellow_ball"":[""Ball doesn‘t move and I get -1 penalty point""]}","survey-multi-select","30","1020264","0.0-8.0-6.1-0.1","166","1","2025-07-09 09:11:36","7701e855f2ef39aa3fd6c71abdc6918a","212.32.120.38","Mozilla/5.0 (Windows NT 10.0; Win64; x64) AppleWebKit/537.36 (KHTML, like Gecko) Chrome/131.0.0.0 Safari/537.36","WebKit","Chrome","131.0.0.0","Windows","10.0","https://app.prolific.com/","en-US,en;q=0.9","678c1a86da262715257f3150","686d226cabeef709c732f8e1","686e312bb703a3f17ec73b52","678c1a86da262715257f3150","","","[0]","","","","quiz","","","","","","","","","","","","","","","","","","","","","","","","","","","","","","","","","","","","","true","",""
"3667","","<p align='center'><b>CORRECT!</b> Indeed, the yellow ball never moves and you receive a penalty.</p>","0","html-button-response","31","1023933","0.0-8.0-6.1-1.1","166","1","2025-07-09 09:11:36","7701e855f2ef39aa3fd6c71abdc6918a","212.32.120.38","Mozilla/5.0 (Windows NT 10.0; Win64; x64) AppleWebKit/537.36 (KHTML, like Gecko) Chrome/131.0.0.0 Safari/537.36","WebKit","Chrome","131.0.0.0","Windows","10.0","https://app.prolific.com/","en-US,en;q=0.9","678c1a86da262715257f3150","686d226cabeef709c732f8e1","686e312bb703a3f17ec73b52","678c1a86da262715257f3150","","","","","","","","","","","","","","","","","","","","","","","","","","","","","","","","","","","","","","","","","","","","","",""
"13907","","","{""blue_ball"":[""Ball always moves in the direction I press""]}","survey-multi-select","32","1037842","0.0-8.0-7.0-0.0","166","1","2025-07-09 09:11:36","7701e855f2ef39aa3fd6c71abdc6918a","212.32.120.38","Mozilla/5.0 (Windows NT 10.0; Win64; x64) AppleWebKit/537.36 (KHTML, like Gecko) Chrome/131.0.0.0 Safari/537.36","WebKit","Chrome","131.0.0.0","Windows","10.0","https://app.prolific.com/","en-US,en;q=0.9","678c1a86da262715257f3150","686d226cabeef709c732f8e1","686e312bb703a3f17ec73b52","678c1a86da262715257f3150","","","[0]","","","","quiz","","","","","","","","","","","","","","","","","","","","","","","","","","","","","","","","","","","","","false","",""
"2672","","<p align='center'><b>INCORRECT.</b> The blue ball always shakes and moves randomly.</p>","0","html-button-response","33","1040515","0.0-8.0-7.0-1.0","166","1","2025-07-09 09:11:36","7701e855f2ef39aa3fd6c71abdc6918a","212.32.120.38","Mozilla/5.0 (Windows NT 10.0; Win64; x64) AppleWebKit/537.36 (KHTML, like Gecko) Chrome/131.0.0.0 Safari/537.36","WebKit","Chrome","131.0.0.0","Windows","10.0","https://app.prolific.com/","en-US,en;q=0.9","678c1a86da262715257f3150","686d226cabeef709c732f8e1","686e312bb703a3f17ec73b52","678c1a86da262715257f3150","","","","","","","","","","","","","","","","","","","","","","","","","","","","","","","","","","","","","","","","","","","","","",""
"8138","","","{""blue_ball"":[""Ball always shakes and moves in a random direction""]}","survey-multi-select","34","1048654","0.0-8.0-7.1-0.1","166","1","2025-07-09 09:11:36","7701e855f2ef39aa3fd6c71abdc6918a","212.32.120.38","Mozilla/5.0 (Windows NT 10.0; Win64; x64) AppleWebKit/537.36 (KHTML, like Gecko) Chrome/131.0.0.0 Safari/537.36","WebKit","Chrome","131.0.0.0","Windows","10.0","https://app.prolific.com/","en-US,en;q=0.9","678c1a86da262715257f3150","686d226cabeef709c732f8e1","686e312bb703a3f17ec73b52","678c1a86da262715257f3150","","","[0]","","","","quiz","","","","","","","","","","","","","","","","","","","","","","","","","","","","","","","","","","","","","true","",""
"4276","","<p align='center'><b>CORRECT!</b> Indeed, the blue ball always shakes and moves in a random direction. Also there is a penalty of -1 point.</p>","0","html-button-response","35","1052932","0.0-8.0-7.1-1.1","166","1","2025-07-09 09:11:36","7701e855f2ef39aa3fd6c71abdc6918a","212.32.120.38","Mozilla/5.0 (Windows NT 10.0; Win64; x64) AppleWebKit/537.36 (KHTML, like Gecko) Chrome/131.0.0.0 Safari/537.36","WebKit","Chrome","131.0.0.0","Windows","10.0","https://app.prolific.com/","en-US,en;q=0.9","678c1a86da262715257f3150","686d226cabeef709c732f8e1","686e312bb703a3f17ec73b52","678c1a86da262715257f3150","","","","","","","","","","","","","","","","","","","","","","","","","","","","","","","","","","","","","","","","","","","","","",""
"11573","","","{""bonus"":[""When I don‘t get penalty points""]}","survey-multi-select","36","1064506","0.0-8.0-8.0-0.0","166","1","2025-07-09 09:11:36","7701e855f2ef39aa3fd6c71abdc6918a","212.32.120.38","Mozilla/5.0 (Windows NT 10.0; Win64; x64) AppleWebKit/537.36 (KHTML, like Gecko) Chrome/131.0.0.0 Safari/537.36","WebKit","Chrome","131.0.0.0","Windows","10.0","https://app.prolific.com/","en-US,en;q=0.9","678c1a86da262715257f3150","686d226cabeef709c732f8e1","686e312bb703a3f17ec73b52","678c1a86da262715257f3150","","","[0]","","","","quiz","","","","","","","","","","","","","","","","","","","","","","","","","","","","","","","","","","","","","false","",""
"3103","","<p align='center'><b>INCORRECT.</b> You receive 2 pounds extra when you reach 50% of points </p>","0","html-button-response","37","1067610","0.0-8.0-8.0-1.0","166","1","2025-07-09 09:11:36","7701e855f2ef39aa3fd6c71abdc6918a","212.32.120.38","Mozilla/5.0 (Windows NT 10.0; Win64; x64) AppleWebKit/537.36 (KHTML, like Gecko) Chrome/131.0.0.0 Safari/537.36","WebKit","Chrome","131.0.0.0","Windows","10.0","https://app.prolific.com/","en-US,en;q=0.9","678c1a86da262715257f3150","686d226cabeef709c732f8e1","686e312bb703a3f17ec73b52","678c1a86da262715257f3150","","","","","","","","","","","","","","","","","","","","","","","","","","","","","","","","","","","","","","","","","","","","","",""
"3455","","","{""bonus"":[""When I reach 50% of points""]}","survey-multi-select","38","1071066","0.0-8.0-8.1-0.1","166","1","2025-07-09 09:11:36","7701e855f2ef39aa3fd6c71abdc6918a","212.32.120.38","Mozilla/5.0 (Windows NT 10.0; Win64; x64) AppleWebKit/537.36 (KHTML, like Gecko) Chrome/131.0.0.0 Safari/537.36","WebKit","Chrome","131.0.0.0","Windows","10.0","https://app.prolific.com/","en-US,en;q=0.9","678c1a86da262715257f3150","686d226cabeef709c732f8e1","686e312bb703a3f17ec73b52","678c1a86da262715257f3150","","","[0]","","","","quiz","","","","","","","","","","","","","","","","","","","","","","","","","","","","","","","","","","","","","true","",""
"4051","","<p align='center'><b>CORRECT!</b> Indeed, you receive 2 pounds extra when you reach 50% of points.</p>","0","html-button-response","39","1075118","0.0-8.0-8.1-1.1","166","1","2025-07-09 09:11:36","7701e855f2ef39aa3fd6c71abdc6918a","212.32.120.38","Mozilla/5.0 (Windows NT 10.0; Win64; x64) AppleWebKit/537.36 (KHTML, like Gecko) Chrome/131.0.0.0 Safari/537.36","WebKit","Chrome","131.0.0.0","Windows","10.0","https://app.prolific.com/","en-US,en;q=0.9","678c1a86da262715257f3150","686d226cabeef709c732f8e1","686e312bb703a3f17ec73b52","678c1a86da262715257f3150","","","","","","","","","","","","","","","","","","","","","","","","","","","","","","","","","","","","","","","","","","","","","",""
"7430","","","","instructions","40","1082549","0.0-8.0-9.0","166","1","2025-07-09 09:11:36","7701e855f2ef39aa3fd6c71abdc6918a","212.32.120.38","Mozilla/5.0 (Windows NT 10.0; Win64; x64) AppleWebKit/537.36 (KHTML, like Gecko) Chrome/131.0.0.0 Safari/537.36","WebKit","Chrome","131.0.0.0","Windows","10.0","https://app.prolific.com/","en-US,en;q=0.9","678c1a86da262715257f3150","686d226cabeef709c732f8e1","686e312bb703a3f17ec73b52","678c1a86da262715257f3150","","[{""page_index"":0,""viewing_time"":7430}]","","","","","","","","","","","","","","","","","","","","","","","","","","","","","","","","","","","","","","","","","","","",""
"21049","","<p>Before you start with this game please answer the following three questions yourself. </p>
  <p>Through this game, we measure several aspects of your cognitive performance, such as reaction times, multi-tasking capabilities </p>
  <p>and the ability to assess the situation you are in.</p>
  <p></p>
  <p><b>How good do you usually are in such tasks?</b></p>","67","html-slider-response","41","1103600","0.0-9.0-0.0","166","1","2025-07-09 09:11:36","7701e855f2ef39aa3fd6c71abdc6918a","212.32.120.38","Mozilla/5.0 (Windows NT 10.0; Win64; x64) AppleWebKit/537.36 (KHTML, like Gecko) Chrome/131.0.0.0 Safari/537.36","WebKit","Chrome","131.0.0.0","Windows","10.0","https://app.prolific.com/","en-US,en;q=0.9","678c1a86da262715257f3150","686d226cabeef709c732f8e1","686e312bb703a3f17ec73b52","678c1a86da262715257f3150","2025-07-09T09:30:03.753Z","","","","","","PreSkillQ","","","","","","","","","","","","","","","","","","","","","","","","","","","","","","","","","","","","","","50",""
"5809","","<div style=""width:500px;"">
  <p>How well do you think you will perform in this task compared to other participants?</p>
  </div>","61","html-slider-response","42","1109410","0.0-9.0-1.0","166","1","2025-07-09 09:11:36","7701e855f2ef39aa3fd6c71abdc6918a","212.32.120.38","Mozilla/5.0 (Windows NT 10.0; Win64; x64) AppleWebKit/537.36 (KHTML, like Gecko) Chrome/131.0.0.0 Safari/537.36","WebKit","Chrome","131.0.0.0","Windows","10.0","https://app.prolific.com/","en-US,en;q=0.9","678c1a86da262715257f3150","686d226cabeef709c732f8e1","686e312bb703a3f17ec73b52","678c1a86da262715257f3150","2025-07-09T09:30:09.563Z","","","","","","PrePerfQ","","","","","","","","","","","","","","","","","","","","","","","","","","","","","","","","","","","","","","50",""
"7947","","<div style=""width:500px;"">
  <p>What best describes how you currently feel?</p>
  </div>","70","html-slider-response","43","1117358","0.0-9.0-2.0","166","1","2025-07-09 09:11:36","7701e855f2ef39aa3fd6c71abdc6918a","212.32.120.38","Mozilla/5.0 (Windows NT 10.0; Win64; x64) AppleWebKit/537.36 (KHTML, like Gecko) Chrome/131.0.0.0 Safari/537.36","WebKit","Chrome","131.0.0.0","Windows","10.0","https://app.prolific.com/","en-US,en;q=0.9","678c1a86da262715257f3150","686d226cabeef709c732f8e1","686e312bb703a3f17ec73b52","678c1a86da262715257f3150","2025-07-09T09:30:17.511Z","","","","","","PreMotivationQ","","","","","","","","","","","","","","","","","","","","","","","","","","","","","","","","","","","","","","50",""
"","","","","ctl-task-cpt","44","1134923","0.0-10.0-0.0","166","1","2025-07-09 09:11:36","7701e855f2ef39aa3fd6c71abdc6918a","212.32.120.38","Mozilla/5.0 (Windows NT 10.0; Win64; x64) AppleWebKit/537.36 (KHTML, like Gecko) Chrome/131.0.0.0 Safari/537.36","WebKit","Chrome","131.0.0.0","Windows","10.0","https://app.prolific.com/","en-US,en;q=0.9","678c1a86da262715257f3150","686d226cabeef709c732f8e1","686e312bb703a3f17ec73b52","678c1a86da262715257f3150","2025-07-09T09:30:35.076Z","","","","","","","","","","","","","","","","win-only","1","g1:NE,g2:SW","1","1","0","1123596.8","2936.9","7941.1","14551.6","1","4","8","6","2","-8","-9","0","0","0","1585.8","3000","-2990","[""down"",""left""]","{""num_key_presses"":1,""num_perfect"":0,""num_errors"":1,""num_randdir"":0,""num_randdir_good_moves"":0,""num_whilered"":0,""num_whileblue"":0,""num_blue"":0,""num_good_moves"":0}","[352.4683035714286,355.8745535714286,0.3,352.4683035714286,355.8745535714286,103.9,352.4683035714286,355.8745535714286,204,352.4683035714286,355.8745535714286,305.4,352.4683035714286,355.8745535714286,409.8,352.4683035714286,355.8745535714286,513.6,352.4683035714286,355.8745535714286,614.4,350.4683035714286,360.8745535714286,719.5,309.4683035714286,462.8745535714286,823.6,277.4683035714286,531.8745535714286,924.3,200.46830357142858,587.8745535714286,1024.4,110.46830357142858,637.8745535714286,1126.2,56.46830357142857,674.8745535714286,1230.8,43.46830357142857,681.8745535714286,1334.8,43.46830357142857,681.8745535714286,1438.8,43.46830357142857,681.8745535714286,1540,43.46830357142857,681.8745535714286,1647.2,43.46830357142857,681.8745535714286,1749.5,43.46830357142857,681.8745535714286,1849.7,43.46830357142857,681.8745535714286,1954.7,43.46830357142857,681.8745535714286,2055.3,43.46830357142857,681.8745535714286,2160.1,43.46830357142857,681.8745535714286,2263.5,43.46830357142857,681.8745535714286,2364,43.46830357142857,681.8745535714286,2469,43.46830357142857,681.8745535714286,2569.4,43.46830357142857,681.8745535714286,2673.5,43.46830357142857,681.8745535714286,2774,43.46830357142857,681.8745535714286,2879.3,43.46830357142857,681.8745535714286,2984.5,43.46830357142857,681.8745535714286,3089.5,43.46830357142857,681.8745535714286,3196.4,43.46830357142857,681.8745535714286,3297,43.46830357142857,681.8745535714286,3398.8,43.46830357142857,681.8745535714286,3499.1,43.46830357142857,681.8745535714286,3599.3,43.46830357142857,681.8745535714286,3700.6,43.46830357142857,681.8745535714286,3803.9,43.46830357142857,681.8745535714286,3904.1,43.46830357142857,681.8745535714286,4004.1,43.46830357142857,681.8745535714286,4108.7,43.46830357142857,681.8745535714286,4210.7,43.46830357142857,681.8745535714286,4314.1,43.46830357142857,681.8745535714286,4414.3,43.46830357142857,681.8745535714286,4514.8,43.46830357142857,681.8745535714286,4619.3,43.46830357142857,681.8745535714286,4723.9,43.46830357142857,681.8745535714286,4824.2,43.46830357142857,681.8745535714286,4924.2]","[192.1,192.1,1000,0,-807.9,""error"",""-"",""-"",""no_move""]","","",""
"4276","","<div style=""width:500px;"">
  <p>What determined the result of this run?</p>
  </div>","57","html-slider-response","45","1139201","0.0-10.0-1.0","166","1","2025-07-09 09:11:36","7701e855f2ef39aa3fd6c71abdc6918a","212.32.120.38","Mozilla/5.0 (Windows NT 10.0; Win64; x64) AppleWebKit/537.36 (KHTML, like Gecko) Chrome/131.0.0.0 Safari/537.36","WebKit","Chrome","131.0.0.0","Windows","10.0","https://app.prolific.com/","en-US,en;q=0.9","678c1a86da262715257f3150","686d226cabeef709c732f8e1","686e312bb703a3f17ec73b52","678c1a86da262715257f3150","2025-07-09T09:30:39.354Z","","","","","","AttribQ","","","","","","","","","","","","","","","","","","","","","","","","","","","","","","","","","","","","","","50",""
"11155","","<div style=""width:500px;"">
  <p>How much control did you have over the ball?</p>
  </div>","70","html-slider-response","46","1150356","0.0-10.0-2.0","166","1","2025-07-09 09:11:36","7701e855f2ef39aa3fd6c71abdc6918a","212.32.120.38","Mozilla/5.0 (Windows NT 10.0; Win64; x64) AppleWebKit/537.36 (KHTML, like Gecko) Chrome/131.0.0.0 Safari/537.36","WebKit","Chrome","131.0.0.0","Windows","10.0","https://app.prolific.com/","en-US,en;q=0.9","678c1a86da262715257f3150","686d226cabeef709c732f8e1","686e312bb703a3f17ec73b52","678c1a86da262715257f3150","2025-07-09T09:30:50.509Z","","","","","","ControlQ","","","","","","","","","","","","","","","","","","","","","","","","","","","","","","","","","","","","","","50",""
"8040","","<div style=""width:500px;"">
  <p>How would you describe your current emotional state?</p>
  </div>","65","html-slider-response","47","1158397","0.0-10.0-3.0","166","1","2025-07-09 09:11:36","7701e855f2ef39aa3fd6c71abdc6918a","212.32.120.38","Mozilla/5.0 (Windows NT 10.0; Win64; x64) AppleWebKit/537.36 (KHTML, like Gecko) Chrome/131.0.0.0 Safari/537.36","WebKit","Chrome","131.0.0.0","Windows","10.0","https://app.prolific.com/","en-US,en;q=0.9","678c1a86da262715257f3150","686d226cabeef709c732f8e1","686e312bb703a3f17ec73b52","678c1a86da262715257f3150","2025-07-09T09:30:58.550Z","","","","","","StressQ","","","","","","","","","","","","","","","","","","","","","","","","","","","","","","","","","","","","","","50",""
"5249","","<div style=""width:500px;"">
  <p>What best describes how you currently feel?</p>
  </div>","68","html-slider-response","48","1163647","0.0-10.0-4.0","166","1","2025-07-09 09:11:36","7701e855f2ef39aa3fd6c71abdc6918a","212.32.120.38","Mozilla/5.0 (Windows NT 10.0; Win64; x64) AppleWebKit/537.36 (KHTML, like Gecko) Chrome/131.0.0.0 Safari/537.36","WebKit","Chrome","131.0.0.0","Windows","10.0","https://app.prolific.com/","en-US,en;q=0.9","678c1a86da262715257f3150","686d226cabeef709c732f8e1","686e312bb703a3f17ec73b52","678c1a86da262715257f3150","2025-07-09T09:31:03.800Z","","","","","","MotivationQ","","","","","","","","","","","","","","","","","","","","","","","","","","","","","","","","","","","","","","50",""
"","","","","ctl-task-cpt","49","1185062","0.0-10.0-0.1","166","1","2025-07-09 09:11:36","7701e855f2ef39aa3fd6c71abdc6918a","212.32.120.38","Mozilla/5.0 (Windows NT 10.0; Win64; x64) AppleWebKit/537.36 (KHTML, like Gecko) Chrome/131.0.0.0 Safari/537.36","WebKit","Chrome","131.0.0.0","Windows","10.0","https://app.prolific.com/","en-US,en;q=0.9","678c1a86da262715257f3150","686d226cabeef709c732f8e1","686e312bb703a3f17ec73b52","678c1a86da262715257f3150","2025-07-09T09:31:25.216Z","","","","","","","","","","","","","","","","win-only","2","g1:SE,g2:NW","0.9","2","0","1169883.8","2151.9","7156.7","18393.7","1","4","4","6","2","-4","-6","0","0","0","2225.1","3000","-3010","[""left"",""up""]","{""num_key_presses"":3,""num_perfect"":1,""num_errors"":2,""num_randdir"":0,""num_randdir_good_moves"":0,""num_whilered"":0,""num_whileblue"":0,""num_blue"":0,""num_good_moves"":0}","[344.4683035714286,350.8745535714286,0.1,344.4683035714286,350.8745535714286,105,344.4683035714286,350.8745535714286,208.9,344.4683035714286,350.8745535714286,312.9,344.4683035714286,350.8745535714286,413.9,344.4683035714286,350.8745535714286,519.4,344.4683035714286,350.8745535714286,624.3,345.4683035714286,343.8745535714286,730.2,332.4683035714286,328.8745535714286,834.2,221.46830357142858,265.8745535714286,939.2,39.46830357142857,132.87455357142858,1044.8,39.46830357142857,132.87455357142858,1148.8,39.46830357142857,132.87455357142858,1248.9,39.46830357142857,132.87455357142858,1353.7,39.46830357142857,132.87455357142858,1459.7,39.46830357142857,132.87455357142858,1559.7,40.46830357142857,130.87455357142858,1661.9,41.46830357142857,110.87455357142858,1764.8,41.46830357142857,97.87455357142858,1864.9,41.46830357142857,97.87455357142858,1969.5,41.46830357142857,97.87455357142858,2074,41.46830357142857,97.87455357142858,2174.3,41.46830357142857,97.87455357142858,2279.1,41.46830357142857,97.87455357142858,2379.6,41.46830357142857,97.87455357142858,2484.5,41.46830357142857,97.87455357142858,2588.9,41.46830357142857,97.87455357142858,2690,41.46830357142857,97.87455357142858,2794.6,41.46830357142857,97.87455357142858,2899.3,41.46830357142857,97.87455357142858,3004.7,41.46830357142857,97.87455357142858,3109,41.46830357142857,97.87455357142858,3212.4,41.46830357142857,97.87455357142858,3314.9,41.46830357142857,97.87455357142858,3419.2,41.46830357142857,97.87455357142858,3520.1,41.46830357142857,97.87455357142858,3623.9,41.46830357142857,97.87455357142858,3724.1,41.46830357142857,97.87455357142858,3824.3,41.46830357142857,97.87455357142858,3928.9,41.46830357142857,97.87455357142858,4029.7,41.46830357142857,97.87455357142858,4133.6,41.46830357142857,97.87455357142858,4233.7,41.46830357142857,97.87455357142858,4335.2,41.46830357142857,97.87455357142858,4435.4,41.46830357142857,97.87455357142858,4539.4,41.46830357142857,97.87455357142858,4639.4,41.46830357142857,97.87455357142858,4743.6,41.46830357142857,97.87455357142858,4843.6,41.46830357142857,97.87455357142858,4944.9]","[890.1,890.2,1000,0,-109.8,""error"",""-"",""-"",""no_move"",6406.7,5516.4,2711.1,1891.6,1804,""smooth"",""right"",""right"",""bad_move"",7088.8,681.8,2666.5,6407,-1984.7,""error"",""-"",""-"",""no_move""]","","",""
"6180","","<div style=""width:500px;"">
  <p>What determined the result of this run?</p>
  </div>","66","html-slider-response","50","1191244","0.0-10.0-1.1","166","1","2025-07-09 09:11:36","7701e855f2ef39aa3fd6c71abdc6918a","212.32.120.38","Mozilla/5.0 (Windows NT 10.0; Win64; x64) AppleWebKit/537.36 (KHTML, like Gecko) Chrome/131.0.0.0 Safari/537.36","WebKit","Chrome","131.0.0.0","Windows","10.0","https://app.prolific.com/","en-US,en;q=0.9","678c1a86da262715257f3150","686d226cabeef709c732f8e1","686e312bb703a3f17ec73b52","678c1a86da262715257f3150","2025-07-09T09:31:31.397Z","","","","","","AttribQ","","","","","","","","","","","","","","","","","","","","","","","","","","","","","","","","","","","","","","50",""
"7082","","<div style=""width:500px;"">
  <p>How much control did you have over the ball?</p>
  </div>","71","html-slider-response","51","1198327","0.0-10.0-2.1","166","1","2025-07-09 09:11:36","7701e855f2ef39aa3fd6c71abdc6918a","212.32.120.38","Mozilla/5.0 (Windows NT 10.0; Win64; x64) AppleWebKit/537.36 (KHTML, like Gecko) Chrome/131.0.0.0 Safari/537.36","WebKit","Chrome","131.0.0.0","Windows","10.0","https://app.prolific.com/","en-US,en;q=0.9","678c1a86da262715257f3150","686d226cabeef709c732f8e1","686e312bb703a3f17ec73b52","678c1a86da262715257f3150","2025-07-09T09:31:38.480Z","","","","","","ControlQ","","","","","","","","","","","","","","","","","","","","","","","","","","","","","","","","","","","","","","50",""
"6703","","<div style=""width:500px;"">
  <p>How would you describe your current emotional state?</p>
  </div>","65","html-slider-response","52","1205031","0.0-10.0-3.1","166","1","2025-07-09 09:11:36","7701e855f2ef39aa3fd6c71abdc6918a","212.32.120.38","Mozilla/5.0 (Windows NT 10.0; Win64; x64) AppleWebKit/537.36 (KHTML, like Gecko) Chrome/131.0.0.0 Safari/537.36","WebKit","Chrome","131.0.0.0","Windows","10.0","https://app.prolific.com/","en-US,en;q=0.9","678c1a86da262715257f3150","686d226cabeef709c732f8e1","686e312bb703a3f17ec73b52","678c1a86da262715257f3150","2025-07-09T09:31:45.184Z","","","","","","StressQ","","","","","","","","","","","","","","","","","","","","","","","","","","","","","","","","","","","","","","50",""
"5937","","<div style=""width:500px;"">
  <p>What best describes how you currently feel?</p>
  </div>","59","html-slider-response","53","1210969","0.0-10.0-4.1","166","1","2025-07-09 09:11:36","7701e855f2ef39aa3fd6c71abdc6918a","212.32.120.38","Mozilla/5.0 (Windows NT 10.0; Win64; x64) AppleWebKit/537.36 (KHTML, like Gecko) Chrome/131.0.0.0 Safari/537.36","WebKit","Chrome","131.0.0.0","Windows","10.0","https://app.prolific.com/","en-US,en;q=0.9","678c1a86da262715257f3150","686d226cabeef709c732f8e1","686e312bb703a3f17ec73b52","678c1a86da262715257f3150","2025-07-09T09:31:51.122Z","","","","","","MotivationQ","","","","","","","","","","","","","","","","","","","","","","","","","","","","","","","","","","","","","","50",""
"","","","","ctl-task-cpt","54","1241911","0.0-10.0-0.2","166","1","2025-07-09 09:11:36","7701e855f2ef39aa3fd6c71abdc6918a","212.32.120.38","Mozilla/5.0 (Windows NT 10.0; Win64; x64) AppleWebKit/537.36 (KHTML, like Gecko) Chrome/131.0.0.0 Safari/537.36","WebKit","Chrome","131.0.0.0","Windows","10.0","https://app.prolific.com/","en-US,en;q=0.9","678c1a86da262715257f3150","686d226cabeef709c732f8e1","686e312bb703a3f17ec73b52","678c1a86da262715257f3150","2025-07-09T09:32:22.064Z","","","","","","","","","","","","","","","","win-only","2","g1:SE,g2:NW","0.8","3","0","1217205.8","4928.9","9931.1","27921.7","1","4","8","6","2","-8","-11","0","0","0","3304.1","3000","-2800","[""left"",""up""]","{""num_key_presses"":5,""num_perfect"":2,""num_errors"":3,""num_randdir"":0,""num_randdir_good_moves"":0,""num_whilered"":0,""num_whileblue"":0,""num_blue"":0,""num_good_moves"":2}","[355.4683035714286,346.8745535714286,0.2,355.4683035714286,346.8745535714286,102.1,355.4683035714286,346.8745535714286,202.3,355.4683035714286,346.8745535714286,306.6,355.4683035714286,346.8745535714286,411.9,355.4683035714286,346.8745535714286,517.5,355.4683035714286,346.8745535714286,622,355.4683035714286,346.8745535714286,722.6,342.4683035714286,341.8745535714286,823.5,305.4683035714286,318.8745535714286,926.3,280.4683035714286,298.8745535714286,1031.5,220.46830357142858,245.87455357142858,1133.4,194.46830357142858,216.87455357142858,1237.6,194.46830357142858,216.87455357142858,1342.4,194.46830357142858,216.87455357142858,1446.8,148.46830357142858,183.87455357142858,1547.4,68.46830357142858,111.87455357142858,1652,51.46830357142857,85.87455357142858,1756.6,51.46830357142857,76.87455357142858,1856.6,51.46830357142857,69.87455357142858,1959.2,51.46830357142857,65.87455357142858,2061.8,51.46830357142857,65.87455357142858,2162.4,51.46830357142857,65.87455357142858,2262.4,51.46830357142857,65.87455357142858,2362.8,51.46830357142857,65.87455357142858,2467.9,51.46830357142857,65.87455357142858,2572.9,51.46830357142857,65.87455357142858,2681.1,51.46830357142857,65.87455357142858,2787.6,51.46830357142857,65.87455357142858,2891.9,51.46830357142857,65.87455357142858,2997.3,51.46830357142857,65.87455357142858,3104.8,51.46830357142857,65.87455357142858,3208.4,51.46830357142857,65.87455357142858,3312.4,51.46830357142857,65.87455357142858,3416.7,51.46830357142857,65.87455357142858,3524.4,51.46830357142857,65.87455357142858,3628.4,51.46830357142857,65.87455357142858,3732.5,51.46830357142857,65.87455357142858,3832.7,51.46830357142857,65.87455357142858,3933.6,55.46830357142857,75.87455357142858,4038.2,153.46830357142858,161.87455357142858,4141.6,240.46830357142858,224.87455357142858,4247.1,240.46830357142858,224.87455357142858,4347.5,240.46830357142858,224.87455357142858,4452.5,240.46830357142858,224.87455357142858,4552.6,282.4683035714286,259.8745535714286,4653.5,323.4683035714286,297.8745535714286,4760.3,354.4683035714286,310.8745535714286,4860.3,354.4683035714286,310.8745535714286,4961.7]","[960.7,960.7,1000,0,-39.3,""error"",""-"",""-"",""no_move"",6513.7,5552.9,3223.1,1964.1,1326.5,""smooth"",""left"",""left"",""good_move"",7236.3,722.3,2306.9,6514,-1584.6,""error"",""-"",""-"",""no_move"",12480.4,5244,3109.8,8240.1,1130.5,""smooth"",""left"",""left"",""good_move"",13544.7,1064.2,1902.9,12480.5,-838.7,""error"",""-"",""-"",""no_move""]","","",""
"6147","","<div style=""width:500px;"">
  <p>What determined the result of this run?</p>
  </div>","58","html-slider-response","55","1248059","0.0-10.0-1.2","166","1","2025-07-09 09:11:36","7701e855f2ef39aa3fd6c71abdc6918a","212.32.120.38","Mozilla/5.0 (Windows NT 10.0; Win64; x64) AppleWebKit/537.36 (KHTML, like Gecko) Chrome/131.0.0.0 Safari/537.36","WebKit","Chrome","131.0.0.0","Windows","10.0","https://app.prolific.com/","en-US,en;q=0.9","678c1a86da262715257f3150","686d226cabeef709c732f8e1","686e312bb703a3f17ec73b52","678c1a86da262715257f3150","2025-07-09T09:32:28.212Z","","","","","","AttribQ","","","","","","","","","","","","","","","","","","","","","","","","","","","","","","","","","","","","","","50",""
"4202","","<div style=""width:500px;"">
  <p>How much control did you have over the ball?</p>
  </div>","61","html-slider-response","56","1252262","0.0-10.0-2.2","166","1","2025-07-09 09:11:36","7701e855f2ef39aa3fd6c71abdc6918a","212.32.120.38","Mozilla/5.0 (Windows NT 10.0; Win64; x64) AppleWebKit/537.36 (KHTML, like Gecko) Chrome/131.0.0.0 Safari/537.36","WebKit","Chrome","131.0.0.0","Windows","10.0","https://app.prolific.com/","en-US,en;q=0.9","678c1a86da262715257f3150","686d226cabeef709c732f8e1","686e312bb703a3f17ec73b52","678c1a86da262715257f3150","2025-07-09T09:32:32.415Z","","","","","","ControlQ","","","","","","","","","","","","","","","","","","","","","","","","","","","","","","","","","","","","","","50",""
"4037","","<div style=""width:500px;"">
  <p>How would you describe your current emotional state?</p>
  </div>","58","html-slider-response","57","1256300","0.0-10.0-3.2","166","1","2025-07-09 09:11:36","7701e855f2ef39aa3fd6c71abdc6918a","212.32.120.38","Mozilla/5.0 (Windows NT 10.0; Win64; x64) AppleWebKit/537.36 (KHTML, like Gecko) Chrome/131.0.0.0 Safari/537.36","WebKit","Chrome","131.0.0.0","Windows","10.0","https://app.prolific.com/","en-US,en;q=0.9","678c1a86da262715257f3150","686d226cabeef709c732f8e1","686e312bb703a3f17ec73b52","678c1a86da262715257f3150","2025-07-09T09:32:36.453Z","","","","","","StressQ","","","","","","","","","","","","","","","","","","","","","","","","","","","","","","","","","","","","","","50",""
"3283","","<div style=""width:500px;"">
  <p>What best describes how you currently feel?</p>
  </div>","59","html-slider-response","58","1259584","0.0-10.0-4.2","166","1","2025-07-09 09:11:36","7701e855f2ef39aa3fd6c71abdc6918a","212.32.120.38","Mozilla/5.0 (Windows NT 10.0; Win64; x64) AppleWebKit/537.36 (KHTML, like Gecko) Chrome/131.0.0.0 Safari/537.36","WebKit","Chrome","131.0.0.0","Windows","10.0","https://app.prolific.com/","en-US,en;q=0.9","678c1a86da262715257f3150","686d226cabeef709c732f8e1","686e312bb703a3f17ec73b52","678c1a86da262715257f3150","2025-07-09T09:32:39.737Z","","","","","","MotivationQ","","","","","","","","","","","","","","","","","","","","","","","","","","","","","","","","","","","","","","50",""
"","","","","ctl-task-cpt","59","1300927","0.0-10.0-0.3","166","1","2025-07-09 09:11:36","7701e855f2ef39aa3fd6c71abdc6918a","212.32.120.38","Mozilla/5.0 (Windows NT 10.0; Win64; x64) AppleWebKit/537.36 (KHTML, like Gecko) Chrome/131.0.0.0 Safari/537.36","WebKit","Chrome","131.0.0.0","Windows","10.0","https://app.prolific.com/","en-US,en;q=0.9","678c1a86da262715257f3150","686d226cabeef709c732f8e1","686e312bb703a3f17ec73b52","678c1a86da262715257f3150","2025-07-09T09:33:21.080Z","","","","","","","","","","","","","","","","win-only","0","g1:NW,g2:SE","0.7","4","0","1265820.7","2213.3","7217.4","38325.1","1","4","4","6","2","-4","-6","0","0","0","1880.9","3000","-2440","[""down"",""right""]","{""num_key_presses"":9,""num_perfect"":5,""num_errors"":2,""num_randdir"":2,""num_randdir_good_moves"":1,""num_whilered"":0,""num_whileblue"":1,""num_blue"":2,""num_good_moves"":6}","[354.4683035714286,349.8745535714286,0.2,354.4683035714286,349.8745535714286,102.8,354.4683035714286,349.8745535714286,207.4,354.4683035714286,349.8745535714286,313.6,354.4683035714286,349.8745535714286,413.9,354.4683035714286,349.8745535714286,517.9,369.4683035714286,358.8745535714286,628,497.4683035714286,460.8745535714286,730,502.4683035714286,464.8745535714286,832.9,502.4683035714286,464.8745535714286,937.8,519.4683035714286,486.8745535714286,1047.1,567.4683035714286,556.8745535714286,1147.7,580.4683035714286,580.8745535714286,1252.1,598.4683035714286,603.8745535714286,1354.1,626.4683035714286,631.8745535714286,1458,631.4683035714286,636.8745535714286,1559.7,631.4683035714286,636.8745535714286,1662.2,631.4683035714286,636.8745535714286,1764,631.4683035714286,636.8745535714286,1866.9,631.4683035714286,636.8745535714286,1967.8,631.4683035714286,636.8745535714286,2068.2,631.4683035714286,636.8745535714286,2173.3,631.4683035714286,636.8745535714286,2282.2,631.4683035714286,636.8745535714286,2382.9,631.4683035714286,636.8745535714286,2489.8,631.4683035714286,636.8745535714286,2598.5,631.4683035714286,636.8745535714286,2702.7,631.4683035714286,636.8745535714286,2807,631.4683035714286,636.8745535714286,2907.8,631.4683035714286,636.8745535714286,3012.6,631.4683035714286,636.8745535714286,3112.7,631.4683035714286,636.8745535714286,3217.5,631.4683035714286,636.8745535714286,3323.1,631.4683035714286,636.8745535714286,3427.3,631.4683035714286,636.8745535714286,3530.5,631.4683035714286,636.8745535714286,3632.5,631.4683035714286,636.8745535714286,3737.9,631.4683035714286,636.8745535714286,3849.1,631.4683035714286,636.8745535714286,3952.8,631.4683035714286,636.8745535714286,4053.1,631.4683035714286,636.8745535714286,4157.8,631.4683035714286,636.8745535714286,4262.3,631.4683035714286,636.8745535714286,4362.7,631.4683035714286,636.8745535714286,4463.8,631.4683035714286,636.8745535714286,4567.9,631.4683035714286,636.8745535714286,4675.2,631.4683035714286,636.8745535714286,4777.4,631.4683035714286,636.8745535714286,4877.4,631.4683035714286,636.8745535714286,4983]","[1734.1,1734.1,1000,0,734.1,""oops"",""right"",""left"",""bad_move"",2573.2,838.8,2516.2,1734.4,-1677.4,""error"",""-"",""-"",""no_move"",6875,4301.6,2423.4,3578.5,873.2,""smooth"",""right"",""right"",""good_move"",9638.4,2763,2330.2,6875.4,432.8,""smooth"",""right"",""right"",""good_move"",12241.7,2602.9,2242.9,9638.8,360,""oops"",""right"",""right"",""good_move"",15290.6,3048.7,2665.5,12241.9,383.2,""smooth"",""right"",""right"",""good_move"",18511.9,3221.1,2864,15290.8,357.1,""smooth"",""down"",""down"",""good_move"",21722.5,3210.4,2886.5,18512.1,323.9,""smooth"",""down"",""down"",""good_move"",24971.4,3248.7,2960.4,21722.7,288.4,""while_blue"",""down"",""left"",""bad_move""]","","",""
"6566","","<div style=""width:500px;"">
  <p>What determined the result of this run?</p>
  </div>","58","html-slider-response","60","1307493","0.0-10.0-1.3","166","1","2025-07-09 09:11:36","7701e855f2ef39aa3fd6c71abdc6918a","212.32.120.38","Mozilla/5.0 (Windows NT 10.0; Win64; x64) AppleWebKit/537.36 (KHTML, like Gecko) Chrome/131.0.0.0 Safari/537.36","WebKit","Chrome","131.0.0.0","Windows","10.0","https://app.prolific.com/","en-US,en;q=0.9","678c1a86da262715257f3150","686d226cabeef709c732f8e1","686e312bb703a3f17ec73b52","678c1a86da262715257f3150","2025-07-09T09:33:27.647Z","","","","","","AttribQ","","","","","","","","","","","","","","","","","","","","","","","","","","","","","","","","","","","","","","50",""
"4508","","<div style=""width:500px;"">
  <p>How much control did you have over the ball?</p>
  </div>","58","html-slider-response","61","1312003","0.0-10.0-2.3","166","1","2025-07-09 09:11:36","7701e855f2ef39aa3fd6c71abdc6918a","212.32.120.38","Mozilla/5.0 (Windows NT 10.0; Win64; x64) AppleWebKit/537.36 (KHTML, like Gecko) Chrome/131.0.0.0 Safari/537.36","WebKit","Chrome","131.0.0.0","Windows","10.0","https://app.prolific.com/","en-US,en;q=0.9","678c1a86da262715257f3150","686d226cabeef709c732f8e1","686e312bb703a3f17ec73b52","678c1a86da262715257f3150","2025-07-09T09:33:32.156Z","","","","","","ControlQ","","","","","","","","","","","","","","","","","","","","","","","","","","","","","","","","","","","","","","50",""
"4730","","<div style=""width:500px;"">
  <p>How would you describe your current emotional state?</p>
  </div>","51","html-slider-response","62","1316735","0.0-10.0-3.3","166","1","2025-07-09 09:11:36","7701e855f2ef39aa3fd6c71abdc6918a","212.32.120.38","Mozilla/5.0 (Windows NT 10.0; Win64; x64) AppleWebKit/537.36 (KHTML, like Gecko) Chrome/131.0.0.0 Safari/537.36","WebKit","Chrome","131.0.0.0","Windows","10.0","https://app.prolific.com/","en-US,en;q=0.9","678c1a86da262715257f3150","686d226cabeef709c732f8e1","686e312bb703a3f17ec73b52","678c1a86da262715257f3150","2025-07-09T09:33:36.888Z","","","","","","StressQ","","","","","","","","","","","","","","","","","","","","","","","","","","","","","","","","","","","","","","50",""
"7916","","<div style=""width:500px;"">
  <p>What best describes how you currently feel?</p>
  </div>","65","html-slider-response","63","1324652","0.0-10.0-4.3","166","1","2025-07-09 09:11:36","7701e855f2ef39aa3fd6c71abdc6918a","212.32.120.38","Mozilla/5.0 (Windows NT 10.0; Win64; x64) AppleWebKit/537.36 (KHTML, like Gecko) Chrome/131.0.0.0 Safari/537.36","WebKit","Chrome","131.0.0.0","Windows","10.0","https://app.prolific.com/","en-US,en;q=0.9","678c1a86da262715257f3150","686d226cabeef709c732f8e1","686e312bb703a3f17ec73b52","678c1a86da262715257f3150","2025-07-09T09:33:44.806Z","","","","","","MotivationQ","","","","","","","","","","","","","","","","","","","","","","","","","","","","","","","","","","","","","","50",""
"","","","","ctl-task-cpt","64","1391463","0.0-10.0-0.4","166","1","2025-07-09 09:11:36","7701e855f2ef39aa3fd6c71abdc6918a","212.32.120.38","Mozilla/5.0 (Windows NT 10.0; Win64; x64) AppleWebKit/537.36 (KHTML, like Gecko) Chrome/131.0.0.0 Safari/537.36","WebKit","Chrome","131.0.0.0","Windows","10.0","https://app.prolific.com/","en-US,en;q=0.9","678c1a86da262715257f3150","686d226cabeef709c732f8e1","686e312bb703a3f17ec73b52","678c1a86da262715257f3150","2025-07-09T09:34:51.616Z","","","","","","","","","","","","","","","","win-only","1","g1:NE,g2:SW","0.6","5","0","1330890.8","1719","6721.9","63791.7","1","4","4","6","2","4","-2","0","0","0","1754.2","3000","80","[""down"",""left""]","{""num_key_presses"":16,""num_perfect"":5,""num_errors"":6,""num_randdir"":4,""num_randdir_good_moves"":2,""num_whilered"":1,""num_whileblue"":1,""num_blue"":6,""num_good_moves"":8}","[353.4683035714286,355.8745535714286,0.1,353.4683035714286,355.8745535714286,101.6,353.4683035714286,355.8745535714286,201.6,353.4683035714286,355.8745535714286,302.2,353.4683035714286,355.8745535714286,403.9,353.4683035714286,355.8745535714286,506.5,353.4683035714286,355.8745535714286,606.9,283.4683035714286,425.8745535714286,706.9,177.46830357142858,539.8745535714286,807,140.46830357142858,575.8745535714286,911.8,134.46830357142858,580.8745535714286,1012.4,134.46830357142858,580.8745535714286,1112.8,125.46830357142858,588.8745535714286,1213.3,87.46830357142858,625.8745535714286,1317.3,69.46830357142858,643.8745535714286,1420.8,64.46830357142858,649.8745535714286,1521.6,64.46830357142858,649.8745535714286,1622,64.46830357142858,649.8745535714286,1722.6,64.46830357142858,649.8745535714286,1827.3,64.46830357142858,649.8745535714286,1927.7,64.46830357142858,649.8745535714286,2039,64.46830357142858,649.8745535714286,2143.6,64.46830357142858,649.8745535714286,2248.3,64.46830357142858,649.8745535714286,2353.4,64.46830357142858,649.8745535714286,2457.5,64.46830357142858,649.8745535714286,2557.5,64.46830357142858,649.8745535714286,2657.7,64.46830357142858,649.8745535714286,2762.7,64.46830357142858,649.8745535714286,2863.2,64.46830357142858,649.8745535714286,2969.8,64.46830357142858,649.8745535714286,3072.6,64.46830357142858,649.8745535714286,3176.1,64.46830357142858,649.8745535714286,3277.7,64.46830357142858,649.8745535714286,3385.8,64.46830357142858,649.8745535714286,3486.6,64.46830357142858,649.8745535714286,3593,64.46830357142858,649.8745535714286,3696.7,64.46830357142858,649.8745535714286,3800.6,64.46830357142858,649.8745535714286,3902.7,64.46830357142858,649.8745535714286,4007.3,64.46830357142858,649.8745535714286,4113.9,64.46830357142858,649.8745535714286,4218.8,64.46830357142858,649.8745535714286,4321.5,64.46830357142858,649.8745535714286,4421.8,64.46830357142858,649.8745535714286,4522.7,64.46830357142858,649.8745535714286,4627.5,64.46830357142858,649.8745535714286,4737.7,64.46830357142858,649.8745535714286,4842.5,64.46830357142858,649.8745535714286,4943.1]","[588.2,588.2,1000,0,-411.8,""error"",""-"",""-"",""no_move"",4348.5,3760.1,2227.3,1589.4,531.8,""oops"",""left"",""down"",""good_move"",5208,859,2312.1,4349,-1453.1,""error"",""-"",""-"",""no_move"",9519.2,4311.1,2915.9,6209.2,394.1,""oops"",""left"",""up"",""bad_move"",10916.3,1396.7,2273.1,9519.6,-876.4,""error"",""-"",""-"",""no_move"",11522.2,605.8,2273.1,9519.6,-270.5,""while_red"",""-"",""-"",""no_move"",12932.9,2016.5,2252.1,11916.8,-1236,""error"",""-"",""-"",""no_move"",17372,4439,3075.1,13934.6,362.3,""smooth"",""left"",""left"",""good_move"",17970.9,598.7,2358.1,17372.2,-1759.4,""error"",""-"",""-"",""no_move"",21955.2,3984.2,2569,18974.4,411.8,""smooth"",""left"",""left"",""good_move"",25080.3,3125.1,2742.2,21955.3,382.9,""smooth"",""left"",""left"",""good_move"",27756,2675.3,2277.7,25080.7,397.6,""smooth"",""down"",""down"",""good_move"",30822.8,3066.5,2656.1,27756.3,410.4,""oops"",""down"",""up"",""bad_move"",33517.2,2694.2,2316.5,30823,377.7,""while_blue"",""down"",""down"",""good_move"",44081.1,10563.8,3298.4,40389.5,393.2,""smooth"",""down"",""down"",""good_move"",56952.7,12871.2,2209.3,54369.8,373.6,""oops"",""down"",""down"",""good_move""]","","",""
"6977","","<div style=""width:500px;"">
  <p>What determined the result of this run?</p>
  </div>","59","html-slider-response","65","1398441","0.0-10.0-1.4","166","1","2025-07-09 09:11:36","7701e855f2ef39aa3fd6c71abdc6918a","212.32.120.38","Mozilla/5.0 (Windows NT 10.0; Win64; x64) AppleWebKit/537.36 (KHTML, like Gecko) Chrome/131.0.0.0 Safari/537.36","WebKit","Chrome","131.0.0.0","Windows","10.0","https://app.prolific.com/","en-US,en;q=0.9","678c1a86da262715257f3150","686d226cabeef709c732f8e1","686e312bb703a3f17ec73b52","678c1a86da262715257f3150","2025-07-09T09:34:58.594Z","","","","","","AttribQ","","","","","","","","","","","","","","","","","","","","","","","","","","","","","","","","","","","","","","50",""
"6702","","<div style=""width:500px;"">
  <p>How much control did you have over the ball?</p>
  </div>","63","html-slider-response","66","1405144","0.0-10.0-2.4","166","1","2025-07-09 09:11:36","7701e855f2ef39aa3fd6c71abdc6918a","212.32.120.38","Mozilla/5.0 (Windows NT 10.0; Win64; x64) AppleWebKit/537.36 (KHTML, like Gecko) Chrome/131.0.0.0 Safari/537.36","WebKit","Chrome","131.0.0.0","Windows","10.0","https://app.prolific.com/","en-US,en;q=0.9","678c1a86da262715257f3150","686d226cabeef709c732f8e1","686e312bb703a3f17ec73b52","678c1a86da262715257f3150","2025-07-09T09:35:05.297Z","","","","","","ControlQ","","","","","","","","","","","","","","","","","","","","","","","","","","","","","","","","","","","","","","50",""
"3065","","<div style=""width:500px;"">
  <p>How would you describe your current emotional state?</p>
  </div>","67","html-slider-response","67","1408211","0.0-10.0-3.4","166","1","2025-07-09 09:11:36","7701e855f2ef39aa3fd6c71abdc6918a","212.32.120.38","Mozilla/5.0 (Windows NT 10.0; Win64; x64) AppleWebKit/537.36 (KHTML, like Gecko) Chrome/131.0.0.0 Safari/537.36","WebKit","Chrome","131.0.0.0","Windows","10.0","https://app.prolific.com/","en-US,en;q=0.9","678c1a86da262715257f3150","686d226cabeef709c732f8e1","686e312bb703a3f17ec73b52","678c1a86da262715257f3150","2025-07-09T09:35:08.364Z","","","","","","StressQ","","","","","","","","","","","","","","","","","","","","","","","","","","","","","","","","","","","","","","50",""
"9111","","<div style=""width:500px;"">
  <p>What best describes how you currently feel?</p>
  </div>","66","html-slider-response","68","1417323","0.0-10.0-4.4","166","1","2025-07-09 09:11:36","7701e855f2ef39aa3fd6c71abdc6918a","212.32.120.38","Mozilla/5.0 (Windows NT 10.0; Win64; x64) AppleWebKit/537.36 (KHTML, like Gecko) Chrome/131.0.0.0 Safari/537.36","WebKit","Chrome","131.0.0.0","Windows","10.0","https://app.prolific.com/","en-US,en;q=0.9","678c1a86da262715257f3150","686d226cabeef709c732f8e1","686e312bb703a3f17ec73b52","678c1a86da262715257f3150","2025-07-09T09:35:17.476Z","","","","","","MotivationQ","","","","","","","","","","","","","","","","","","","","","","","","","","","","","","","","","","","","","","50",""
"","","","","ctl-task-cpt","69","1433930","0.0-10.0-0.5","166","1","2025-07-09 09:11:36","7701e855f2ef39aa3fd6c71abdc6918a","212.32.120.38","Mozilla/5.0 (Windows NT 10.0; Win64; x64) AppleWebKit/537.36 (KHTML, like Gecko) Chrome/131.0.0.0 Safari/537.36","WebKit","Chrome","131.0.0.0","Windows","10.0","https://app.prolific.com/","en-US,en;q=0.9","678c1a86da262715257f3150","686d226cabeef709c732f8e1","686e312bb703a3f17ec73b52","678c1a86da262715257f3150","2025-07-09T09:35:34.083Z","","","","","","","","","","","","","","","","win-only","1","g1:NE,g2:SW","0.5","6","0","1423560.8","2033.7","7039","13601.7","1","4","8","6","1","-1","-1","0","0","0","5005.3","3000","-2540","[""up"",""right""]","{""num_key_presses"":1,""num_perfect"":1,""num_errors"":0,""num_randdir"":0,""num_randdir_good_moves"":0,""num_whilered"":0,""num_whileblue"":0,""num_blue"":0,""num_good_moves"":1}","[359.4683035714286,362.8745535714286,0.2,359.4683035714286,362.8745535714286,103,359.4683035714286,362.8745535714286,203.1,359.4683035714286,362.8745535714286,303.6,359.4683035714286,362.8745535714286,407.5,359.4683035714286,362.8745535714286,509.3,359.4683035714286,362.8745535714286,621.6,359.4683035714286,362.8745535714286,723,359.4683035714286,362.8745535714286,824.8,359.4683035714286,362.8745535714286,936,359.4683035714286,362.8745535714286,1036.8,359.4683035714286,362.8745535714286,1137.5,359.4683035714286,362.8745535714286,1243.1,359.4683035714286,362.8745535714286,1353.5,359.4683035714286,362.8745535714286,1457.5,359.4683035714286,362.8745535714286,1569.9,359.4683035714286,362.8745535714286,1671.7,321.4683035714286,387.8745535714286,1772.7,229.46830357142858,469.8745535714286,1880.2,193.46830357142858,505.8745535714286,1984.3,164.46830357142858,532.8745535714286,2088.1,164.46830357142858,532.8745535714286,2188.2,164.46830357142858,532.8745535714286,2293.3,122.46830357142858,577.8745535714286,2401.2,73.46830357142858,631.8745535714286,2504.3,64.46830357142858,641.8745535714286,2610.6,64.46830357142858,644.8745535714286,2710.7,64.46830357142858,644.8745535714286,2813.8,64.46830357142858,644.8745535714286,2917.5,64.46830357142858,644.8745535714286,3020.1,64.46830357142858,644.8745535714286,3122.5,64.46830357142858,644.8745535714286,3223.2,64.46830357142858,644.8745535714286,3328.6,64.46830357142858,644.8745535714286,3429,64.46830357142858,644.8745535714286,3533.1,64.46830357142858,644.8745535714286,3638,64.46830357142858,644.8745535714286,3749.2,64.46830357142858,644.8745535714286,3854.4,64.46830357142858,644.8745535714286,3957.9,64.46830357142858,644.8745535714286,4067.9,126.46830357142858,552.8745535714286,4172.2,314.4683035714286,397.8745535714286,4272.4,314.4683035714286,397.8745535714286,4378.7,314.4683035714286,397.8745535714286,4479.5,384.4683035714286,314.8745535714286,4579.5,510.4683035714286,219.87455357142858,4682.3,510.4683035714286,219.87455357142858,4784.9,510.4683035714286,219.87455357142858,4887.7,549.4683035714286,181.87455357142858,4988.2]","[4328.7,4328.7,1000,0,3328.7,""smooth"",""up"",""up"",""good_move""]","","",""
"3773","","<div style=""width:500px;"">
  <p>What determined the result of this run?</p>
  </div>","66","html-slider-response","70","1437704","0.0-10.0-1.5","166","1","2025-07-09 09:11:36","7701e855f2ef39aa3fd6c71abdc6918a","212.32.120.38","Mozilla/5.0 (Windows NT 10.0; Win64; x64) AppleWebKit/537.36 (KHTML, like Gecko) Chrome/131.0.0.0 Safari/537.36","WebKit","Chrome","131.0.0.0","Windows","10.0","https://app.prolific.com/","en-US,en;q=0.9","678c1a86da262715257f3150","686d226cabeef709c732f8e1","686e312bb703a3f17ec73b52","678c1a86da262715257f3150","2025-07-09T09:35:37.857Z","","","","","","AttribQ","","","","","","","","","","","","","","","","","","","","","","","","","","","","","","","","","","","","","","50",""
"2090","","<div style=""width:500px;"">
  <p>How much control did you have over the ball?</p>
  </div>","73","html-slider-response","71","1439795","0.0-10.0-2.5","166","1","2025-07-09 09:11:36","7701e855f2ef39aa3fd6c71abdc6918a","212.32.120.38","Mozilla/5.0 (Windows NT 10.0; Win64; x64) AppleWebKit/537.36 (KHTML, like Gecko) Chrome/131.0.0.0 Safari/537.36","WebKit","Chrome","131.0.0.0","Windows","10.0","https://app.prolific.com/","en-US,en;q=0.9","678c1a86da262715257f3150","686d226cabeef709c732f8e1","686e312bb703a3f17ec73b52","678c1a86da262715257f3150","2025-07-09T09:35:39.948Z","","","","","","ControlQ","","","","","","","","","","","","","","","","","","","","","","","","","","","","","","","","","","","","","","50",""
"1117","","<div style=""width:500px;"">
  <p>How would you describe your current emotional state?</p>
  </div>","72","html-slider-response","72","1440913","0.0-10.0-3.5","166","1","2025-07-09 09:11:36","7701e855f2ef39aa3fd6c71abdc6918a","212.32.120.38","Mozilla/5.0 (Windows NT 10.0; Win64; x64) AppleWebKit/537.36 (KHTML, like Gecko) Chrome/131.0.0.0 Safari/537.36","WebKit","Chrome","131.0.0.0","Windows","10.0","https://app.prolific.com/","en-US,en;q=0.9","678c1a86da262715257f3150","686d226cabeef709c732f8e1","686e312bb703a3f17ec73b52","678c1a86da262715257f3150","2025-07-09T09:35:41.066Z","","","","","","StressQ","","","","","","","","","","","","","","","","","","","","","","","","","","","","","","","","","","","","","","50",""
"1228","","<div style=""width:500px;"">
  <p>What best describes how you currently feel?</p>
  </div>","67","html-slider-response","73","1442144","0.0-10.0-4.5","166","1","2025-07-09 09:11:36","7701e855f2ef39aa3fd6c71abdc6918a","212.32.120.38","Mozilla/5.0 (Windows NT 10.0; Win64; x64) AppleWebKit/537.36 (KHTML, like Gecko) Chrome/131.0.0.0 Safari/537.36","WebKit","Chrome","131.0.0.0","Windows","10.0","https://app.prolific.com/","en-US,en;q=0.9","678c1a86da262715257f3150","686d226cabeef709c732f8e1","686e312bb703a3f17ec73b52","678c1a86da262715257f3150","2025-07-09T09:35:42.297Z","","","","","","MotivationQ","","","","","","","","","","","","","","","","","","","","","","","","","","","","","","","","","","","","","","50",""
"","","","","ctl-task-cpt","74","1471692","0.0-10.0-0.6","166","1","2025-07-09 09:11:36","7701e855f2ef39aa3fd6c71abdc6918a","212.32.120.38","Mozilla/5.0 (Windows NT 10.0; Win64; x64) AppleWebKit/537.36 (KHTML, like Gecko) Chrome/131.0.0.0 Safari/537.36","WebKit","Chrome","131.0.0.0","Windows","10.0","https://app.prolific.com/","en-US,en;q=0.9","678c1a86da262715257f3150","686d226cabeef709c732f8e1","686e312bb703a3f17ec73b52","678c1a86da262715257f3150","2025-07-09T09:36:11.845Z","","","","","","","","","","","","","","","","win-only","3","g1:SW,g2:NE","0.4","7","0","1448380.8","4168.2","9170.8","26531.5","1","4","4","6","1","-1","-3","0","0","0","2195.6","3000","-2700","[""down"",""left""]","{""num_key_presses"":5,""num_perfect"":1,""num_errors"":2,""num_randdir"":2,""num_randdir_good_moves"":1,""num_whilered"":0,""num_whileblue"":2,""num_blue"":2,""num_good_moves"":4}","[362.4683035714286,353.8745535714286,0.2,362.4683035714286,353.8745535714286,105.2,362.4683035714286,353.8745535714286,207.7,362.4683035714286,353.8745535714286,312.4,362.4683035714286,353.8745535714286,415.1,362.4683035714286,353.8745535714286,518.1,362.4683035714286,353.8745535714286,624.2,362.4683035714286,353.8745535714286,729.6,362.4683035714286,353.8745535714286,834,362.4683035714286,353.8745535714286,937.9,362.4683035714286,353.8745535714286,1047.3,362.4683035714286,353.8745535714286,1152.2,362.4683035714286,353.8745535714286,1252.4,362.4683035714286,353.8745535714286,1352.5,362.4683035714286,353.8745535714286,1453.5,362.4683035714286,353.8745535714286,1563.8,362.4683035714286,353.8745535714286,1667.8,362.4683035714286,353.8745535714286,1767.8,362.4683035714286,353.8745535714286,1868.4,362.4683035714286,353.8745535714286,1973.4,362.4683035714286,353.8745535714286,2077.5,362.4683035714286,353.8745535714286,2177.5,63.46830357142857,650.8745535714286,2278.6,63.46830357142857,650.8745535714286,2383.6,63.46830357142857,650.8745535714286,2483.6,63.46830357142857,650.8745535714286,2592.5,63.46830357142857,650.8745535714286,2693.3,63.46830357142857,650.8745535714286,2797,63.46830357142857,650.8745535714286,2898,63.46830357142857,650.8745535714286,2998.2,63.46830357142857,650.8745535714286,3098.5,63.46830357142857,650.8745535714286,3203.2,63.46830357142857,650.8745535714286,3307.8,63.46830357142857,650.8745535714286,3410.1,63.46830357142857,650.8745535714286,3510.5,63.46830357142857,650.8745535714286,3615.4,63.46830357142857,650.8745535714286,3717.2,63.46830357142857,650.8745535714286,3817.3,63.46830357142857,650.8745535714286,3918,63.46830357142857,650.8745535714286,4029.4,63.46830357142857,650.8745535714286,4129.4,63.46830357142857,650.8745535714286,4232.1,63.46830357142857,650.8745535714286,4332.2,63.46830357142857,650.8745535714286,4432.9,63.46830357142857,650.8745535714286,4539.7,63.46830357142857,650.8745535714286,4642.5,63.46830357142857,650.8745535714286,4743.3,63.46830357142857,650.8745535714286,4843.3,63.46830357142857,650.8745535714286,4948.1]","[3054.4,3054.4,1000,0,2054.4,""oops"",""down"",""up"",""bad_move"",6100.7,3045.5,2705,3055.2,340.5,""smooth"",""down"",""down"",""good_move"",8856.4,2755.6,2387.6,6100.8,368,""oops"",""down"",""down"",""good_move"",11564.3,2707.7,2458.6,8856.6,249.1,""while_blue"",""down"",""left"",""good_move"",14665.9,3100.9,2330.6,11565,770.3,""while_blue"",""down"",""down"",""good_move""]","","",""
"3563","","<div style=""width:500px;"">
  <p>What determined the result of this run?</p>
  </div>","61","html-slider-response","75","1475256","0.0-10.0-1.6","166","1","2025-07-09 09:11:36","7701e855f2ef39aa3fd6c71abdc6918a","212.32.120.38","Mozilla/5.0 (Windows NT 10.0; Win64; x64) AppleWebKit/537.36 (KHTML, like Gecko) Chrome/131.0.0.0 Safari/537.36","WebKit","Chrome","131.0.0.0","Windows","10.0","https://app.prolific.com/","en-US,en;q=0.9","678c1a86da262715257f3150","686d226cabeef709c732f8e1","686e312bb703a3f17ec73b52","678c1a86da262715257f3150","2025-07-09T09:36:15.409Z","","","","","","AttribQ","","","","","","","","","","","","","","","","","","","","","","","","","","","","","","","","","","","","","","50",""
"1873","","<div style=""width:500px;"">
  <p>How much control did you have over the ball?</p>
  </div>","64","html-slider-response","76","1477129","0.0-10.0-2.6","166","1","2025-07-09 09:11:36","7701e855f2ef39aa3fd6c71abdc6918a","212.32.120.38","Mozilla/5.0 (Windows NT 10.0; Win64; x64) AppleWebKit/537.36 (KHTML, like Gecko) Chrome/131.0.0.0 Safari/537.36","WebKit","Chrome","131.0.0.0","Windows","10.0","https://app.prolific.com/","en-US,en;q=0.9","678c1a86da262715257f3150","686d226cabeef709c732f8e1","686e312bb703a3f17ec73b52","678c1a86da262715257f3150","2025-07-09T09:36:17.282Z","","","","","","ControlQ","","","","","","","","","","","","","","","","","","","","","","","","","","","","","","","","","","","","","","50",""
"1415","","<div style=""width:500px;"">
  <p>How would you describe your current emotional state?</p>
  </div>","60","html-slider-response","77","1478545","0.0-10.0-3.6","166","1","2025-07-09 09:11:36","7701e855f2ef39aa3fd6c71abdc6918a","212.32.120.38","Mozilla/5.0 (Windows NT 10.0; Win64; x64) AppleWebKit/537.36 (KHTML, like Gecko) Chrome/131.0.0.0 Safari/537.36","WebKit","Chrome","131.0.0.0","Windows","10.0","https://app.prolific.com/","en-US,en;q=0.9","678c1a86da262715257f3150","686d226cabeef709c732f8e1","686e312bb703a3f17ec73b52","678c1a86da262715257f3150","2025-07-09T09:36:18.698Z","","","","","","StressQ","","","","","","","","","","","","","","","","","","","","","","","","","","","","","","","","","","","","","","50",""
"3440","","<div style=""width:500px;"">
  <p>What best describes how you currently feel?</p>
  </div>","67","html-slider-response","78","1481986","0.0-10.0-4.6","166","1","2025-07-09 09:11:36","7701e855f2ef39aa3fd6c71abdc6918a","212.32.120.38","Mozilla/5.0 (Windows NT 10.0; Win64; x64) AppleWebKit/537.36 (KHTML, like Gecko) Chrome/131.0.0.0 Safari/537.36","WebKit","Chrome","131.0.0.0","Windows","10.0","https://app.prolific.com/","en-US,en;q=0.9","678c1a86da262715257f3150","686d226cabeef709c732f8e1","686e312bb703a3f17ec73b52","678c1a86da262715257f3150","2025-07-09T09:36:22.140Z","","","","","","MotivationQ","","","","","","","","","","","","","","","","","","","","","","","","","","","","","","","","","","","","","","50",""
"","","","","ctl-task-cpt","79","1520360","0.0-10.0-0.7","166","1","2025-07-09 09:11:36","7701e855f2ef39aa3fd6c71abdc6918a","212.32.120.38","Mozilla/5.0 (Windows NT 10.0; Win64; x64) AppleWebKit/537.36 (KHTML, like Gecko) Chrome/131.0.0.0 Safari/537.36","WebKit","Chrome","131.0.0.0","Windows","10.0","https://app.prolific.com/","en-US,en;q=0.9","678c1a86da262715257f3150","686d226cabeef709c732f8e1","686e312bb703a3f17ec73b52","678c1a86da262715257f3150","2025-07-09T09:37:00.513Z","","","","","","","","","","","","","","","","win-only","0","g1:NW,g2:SE","0.3","8","0","1488224.1","6480.9","11481.4","35353","1","4","8","6","1","1","-1","0","0","0","2027.1","3000","1125","[""left"",""up""]","{""num_key_presses"":7,""num_perfect"":2,""num_errors"":2,""num_randdir"":3,""num_randdir_good_moves"":3,""num_whilered"":0,""num_whileblue"":1,""num_blue"":2,""num_good_moves"":5}","[365.4683035714286,354.8745535714286,0.3,365.4683035714286,354.8745535714286,102.3,365.4683035714286,354.8745535714286,205.5,365.4683035714286,354.8745535714286,305.6,365.4683035714286,354.8745535714286,410.1,365.4683035714286,354.8745535714286,511,365.4683035714286,354.8745535714286,611.5,365.4683035714286,354.8745535714286,715.6,365.4683035714286,354.8745535714286,816,365.4683035714286,354.8745535714286,922.2,365.4683035714286,354.8745535714286,1024.7,365.4683035714286,354.8745535714286,1125.5,365.4683035714286,354.8745535714286,1234.1,365.4683035714286,354.8745535714286,1335.8,365.4683035714286,354.8745535714286,1439.6,365.4683035714286,354.8745535714286,1540.6,365.4683035714286,354.8745535714286,1644.8,365.4683035714286,354.8745535714286,1746.5,365.4683035714286,354.8745535714286,1850.1,60.46830357142857,63.87455357142857,2028.4,60.46830357142857,63.87455357142857,2131,60.46830357142857,63.87455357142857,2236,60.46830357142857,63.87455357142857,2339.8,60.46830357142857,63.87455357142857,2445.2,60.46830357142857,63.87455357142857,2545.4,60.46830357142857,63.87455357142857,2647.6,60.46830357142857,63.87455357142857,2749.5,60.46830357142857,63.87455357142857,2856.5,60.46830357142857,63.87455357142857,2960.3,60.46830357142857,63.87455357142857,3060.5,60.46830357142857,63.87455357142857,3160.8,60.46830357142857,63.87455357142857,3265.2,60.46830357142857,63.87455357142857,3370.1,60.46830357142857,63.87455357142857,3472,60.46830357142857,63.87455357142857,3575.5,60.46830357142857,63.87455357142857,3679.6,60.46830357142857,63.87455357142857,3785.9,60.46830357142857,63.87455357142857,3891.1,60.46830357142857,63.87455357142857,3995.6,60.46830357142857,63.87455357142857,4095.6,60.46830357142857,63.87455357142857,4199.8,60.46830357142857,63.87455357142857,4300.1,60.46830357142857,63.87455357142857,4405,60.46830357142857,63.87455357142857,4505.9,60.46830357142857,63.87455357142857,4606,60.46830357142857,63.87455357142857,4710.1,60.46830357142857,63.87455357142857,4815.7,60.46830357142857,63.87455357142857,4924.5]","[263.4,263.4,1000,0,-736.6,""error"",""-"",""-"",""no_move"",8803.6,8540,3034.8,5340.7,428.1,""oops"",""up"",""left"",""good_move"",11419.3,2615.3,2165.1,8804,450.2,""smooth"",""up"",""up"",""good_move"",15972.3,4552.6,3685.2,11419.8,867.3,""while_blue"",""up"",""down"",""bad_move"",18298,2325.5,1903.9,15972.6,421.5,""oops"",""up"",""up"",""good_move"",21045.8,2747.5,2326.2,18298.3,421.3,""smooth"",""up"",""up"",""good_move"",23766.9,2721,2321,21045.9,400,""oops"",""left"",""left"",""good_move""]","","",""
"6812","","<div style=""width:500px;"">
  <p>What determined the result of this run?</p>
  </div>","68","html-slider-response","80","1527173","0.0-10.0-1.7","166","1","2025-07-09 09:11:36","7701e855f2ef39aa3fd6c71abdc6918a","212.32.120.38","Mozilla/5.0 (Windows NT 10.0; Win64; x64) AppleWebKit/537.36 (KHTML, like Gecko) Chrome/131.0.0.0 Safari/537.36","WebKit","Chrome","131.0.0.0","Windows","10.0","https://app.prolific.com/","en-US,en;q=0.9","678c1a86da262715257f3150","686d226cabeef709c732f8e1","686e312bb703a3f17ec73b52","678c1a86da262715257f3150","2025-07-09T09:37:07.326Z","","","","","","AttribQ","","","","","","","","","","","","","","","","","","","","","","","","","","","","","","","","","","","","","","50",""
"3249","","<div style=""width:500px;"">
  <p>How much control did you have over the ball?</p>
  </div>","76","html-slider-response","81","1530424","0.0-10.0-2.7","166","1","2025-07-09 09:11:36","7701e855f2ef39aa3fd6c71abdc6918a","212.32.120.38","Mozilla/5.0 (Windows NT 10.0; Win64; x64) AppleWebKit/537.36 (KHTML, like Gecko) Chrome/131.0.0.0 Safari/537.36","WebKit","Chrome","131.0.0.0","Windows","10.0","https://app.prolific.com/","en-US,en;q=0.9","678c1a86da262715257f3150","686d226cabeef709c732f8e1","686e312bb703a3f17ec73b52","678c1a86da262715257f3150","2025-07-09T09:37:10.577Z","","","","","","ControlQ","","","","","","","","","","","","","","","","","","","","","","","","","","","","","","","","","","","","","","50",""
"1287","","<div style=""width:500px;"">
  <p>How would you describe your current emotional state?</p>
  </div>","76","html-slider-response","82","1531712","0.0-10.0-3.7","166","1","2025-07-09 09:11:36","7701e855f2ef39aa3fd6c71abdc6918a","212.32.120.38","Mozilla/5.0 (Windows NT 10.0; Win64; x64) AppleWebKit/537.36 (KHTML, like Gecko) Chrome/131.0.0.0 Safari/537.36","WebKit","Chrome","131.0.0.0","Windows","10.0","https://app.prolific.com/","en-US,en;q=0.9","678c1a86da262715257f3150","686d226cabeef709c732f8e1","686e312bb703a3f17ec73b52","678c1a86da262715257f3150","2025-07-09T09:37:11.865Z","","","","","","StressQ","","","","","","","","","","","","","","","","","","","","","","","","","","","","","","","","","","","","","","50",""
"2184","","<div style=""width:500px;"">
  <p>What best describes how you currently feel?</p>
  </div>","72","html-slider-response","83","1533896","0.0-10.0-4.7","166","1","2025-07-09 09:11:36","7701e855f2ef39aa3fd6c71abdc6918a","212.32.120.38","Mozilla/5.0 (Windows NT 10.0; Win64; x64) AppleWebKit/537.36 (KHTML, like Gecko) Chrome/131.0.0.0 Safari/537.36","WebKit","Chrome","131.0.0.0","Windows","10.0","https://app.prolific.com/","en-US,en;q=0.9","678c1a86da262715257f3150","686d226cabeef709c732f8e1","686e312bb703a3f17ec73b52","678c1a86da262715257f3150","2025-07-09T09:37:14.050Z","","","","","","MotivationQ","","","","","","","","","","","","","","","","","","","","","","","","","","","","","","","","","","","","","","50",""
"","","","","ctl-task-cpt","84","1594609","0.0-10.0-0.8","166","1","2025-07-09 09:11:36","7701e855f2ef39aa3fd6c71abdc6918a","212.32.120.38","Mozilla/5.0 (Windows NT 10.0; Win64; x64) AppleWebKit/537.36 (KHTML, like Gecko) Chrome/131.0.0.0 Safari/537.36","WebKit","Chrome","131.0.0.0","Windows","10.0","https://app.prolific.com/","en-US,en;q=0.9","678c1a86da262715257f3150","686d226cabeef709c732f8e1","686e312bb703a3f17ec73b52","678c1a86da262715257f3150","2025-07-09T09:38:14.762Z","","","","","","","","","","","","","","","","win-only","3","g1:SW,g2:NE","0.2","9","0","1540133.2","4073.9","9077.1","57681","1","4","4","6","2","-4","-11","0","0","0","1115.9","3000","-2105","[""up"",""right""]","{""num_key_presses"":18,""num_perfect"":2,""num_errors"":7,""num_randdir"":8,""num_randdir_good_moves"":3,""num_whilered"":1,""num_whileblue"":2,""num_blue"":3,""num_good_moves"":6}","[354.4683035714286,359.8745535714286,0.3,354.4683035714286,359.8745535714286,105.1,354.4683035714286,359.8745535714286,207.6,354.4683035714286,359.8745535714286,309.5,354.4683035714286,359.8745535714286,416.4,354.4683035714286,359.8745535714286,524.8,354.4683035714286,359.8745535714286,626.7,354.4683035714286,359.8745535714286,740.9,354.4683035714286,359.8745535714286,842.4,354.4683035714286,359.8745535714286,942.4,354.4683035714286,359.8745535714286,1050.7,627.4683035714286,98.87455357142858,1152.7,627.4683035714286,98.87455357142858,1258.3,627.4683035714286,98.87455357142858,1362.1,627.4683035714286,98.87455357142858,1467.9,627.4683035714286,98.87455357142858,1572.6,627.4683035714286,98.87455357142858,1672.7,627.4683035714286,98.87455357142858,1777,627.4683035714286,98.87455357142858,1881.3,627.4683035714286,98.87455357142858,1981.8,627.4683035714286,98.87455357142858,2087.1,627.4683035714286,98.87455357142858,2187.5,627.4683035714286,98.87455357142858,2289.4,627.4683035714286,98.87455357142858,2392.1,627.4683035714286,98.87455357142858,2492.4,627.4683035714286,98.87455357142858,2603.8,627.4683035714286,98.87455357142858,2708.3,627.4683035714286,98.87455357142858,2818.4,627.4683035714286,98.87455357142858,2922,627.4683035714286,98.87455357142858,3027,627.4683035714286,98.87455357142858,3128.3,627.4683035714286,98.87455357142858,3238.7,627.4683035714286,98.87455357142858,3343.3,627.4683035714286,98.87455357142858,3446.9,627.4683035714286,98.87455357142858,3552.5,627.4683035714286,98.87455357142858,3652.7,627.4683035714286,98.87455357142858,3757.4,627.4683035714286,98.87455357142858,3857.5,627.4683035714286,98.87455357142858,3961.9,627.4683035714286,98.87455357142858,4067.1,627.4683035714286,98.87455357142858,4167.1,627.4683035714286,98.87455357142858,4267.5,627.4683035714286,98.87455357142858,4371.5,627.4683035714286,98.87455357142858,4472.4,627.4683035714286,98.87455357142858,4578,627.4683035714286,98.87455357142858,4682.8,627.4683035714286,98.87455357142858,4789.9,627.4683035714286,98.87455357142858,4892.2]","[302.4,302.4,1000,0,-697.6,""error"",""-"",""-"",""no_move"",1720,1417.5,2396.6,1303.2,-1979.8,""error"",""-"",""-"",""no_move"",4906.2,3186,1789.4,2730.2,386.6,""oops"",""up"",""down"",""bad_move"",8823.2,3916.7,2650.9,8232.5,-2060.2,""error"",""-"",""-"",""no_move"",12809.9,3986.5,2620.6,9824.1,365.2,""smooth"",""up"",""up"",""good_move"",15844.5,3033.7,2638.7,12810.8,395,""smooth"",""up"",""up"",""good_move"",19048.4,3203.5,2803.2,15845,400.3,""while_blue"",""up"",""left"",""bad_move"",22483.5,3434.6,3023,19049,411.5,""oops"",""up"",""up"",""good_move"",25205.5,2721.8,2317.8,22483.7,404,""while_blue"",""up"",""right"",""good_move"",27703.6,2498,2004.1,25205.6,493.9,""oops"",""up"",""down"",""bad_move"",30549.6,2845.2,2438.4,27704.4,406.8,""oops"",""up"",""right"",""good_move"",33901.8,3352,3158.9,30549.8,193.1,""oops"",""up"",""left"",""bad_move"",36516.7,2614.7,2270.9,33902.1,343.8,""oops"",""up"",""left"",""bad_move"",39388.7,2871.7,2467.9,36517,403.8,""oops"",""up"",""up"",""good_move"",41932.8,2544,2256.5,39388.9,287.5,""oops"",""right"",""left"",""bad_move"",42748.7,815.7,1324.5,41933,-508.8,""error"",""-"",""-"",""no_move"",43671.7,922.8,1324.5,41933,414.2,""while_red"",""-"",""-"",""no_move"",44177,1428.1,2390.8,43749.2,-1963,""error"",""-"",""-"",""no_move""]","","",""
"2993","","<div style=""width:500px;"">
  <p>What determined the result of this run?</p>
  </div>","70","html-slider-response","85","1597603","0.0-10.0-1.8","166","1","2025-07-09 09:11:36","7701e855f2ef39aa3fd6c71abdc6918a","212.32.120.38","Mozilla/5.0 (Windows NT 10.0; Win64; x64) AppleWebKit/537.36 (KHTML, like Gecko) Chrome/131.0.0.0 Safari/537.36","WebKit","Chrome","131.0.0.0","Windows","10.0","https://app.prolific.com/","en-US,en;q=0.9","678c1a86da262715257f3150","686d226cabeef709c732f8e1","686e312bb703a3f17ec73b52","678c1a86da262715257f3150","2025-07-09T09:38:17.756Z","","","","","","AttribQ","","","","","","","","","","","","","","","","","","","","","","","","","","","","","","","","","","","","","","50",""
"1593","","<div style=""width:500px;"">
  <p>How much control did you have over the ball?</p>
  </div>","67","html-slider-response","86","1599197","0.0-10.0-2.8","166","1","2025-07-09 09:11:36","7701e855f2ef39aa3fd6c71abdc6918a","212.32.120.38","Mozilla/5.0 (Windows NT 10.0; Win64; x64) AppleWebKit/537.36 (KHTML, like Gecko) Chrome/131.0.0.0 Safari/537.36","WebKit","Chrome","131.0.0.0","Windows","10.0","https://app.prolific.com/","en-US,en;q=0.9","678c1a86da262715257f3150","686d226cabeef709c732f8e1","686e312bb703a3f17ec73b52","678c1a86da262715257f3150","2025-07-09T09:38:19.350Z","","","","","","ControlQ","","","","","","","","","","","","","","","","","","","","","","","","","","","","","","","","","","","","","","50",""
"1341","","<div style=""width:500px;"">
  <p>How would you describe your current emotional state?</p>
  </div>","68","html-slider-response","87","1600539","0.0-10.0-3.8","166","1","2025-07-09 09:11:36","7701e855f2ef39aa3fd6c71abdc6918a","212.32.120.38","Mozilla/5.0 (Windows NT 10.0; Win64; x64) AppleWebKit/537.36 (KHTML, like Gecko) Chrome/131.0.0.0 Safari/537.36","WebKit","Chrome","131.0.0.0","Windows","10.0","https://app.prolific.com/","en-US,en;q=0.9","678c1a86da262715257f3150","686d226cabeef709c732f8e1","686e312bb703a3f17ec73b52","678c1a86da262715257f3150","2025-07-09T09:38:20.692Z","","","","","","StressQ","","","","","","","","","","","","","","","","","","","","","","","","","","","","","","","","","","","","","","50",""
"1478","","<div style=""width:500px;"">
  <p>What best describes how you currently feel?</p>
  </div>","68","html-slider-response","88","1602019","0.0-10.0-4.8","166","1","2025-07-09 09:11:36","7701e855f2ef39aa3fd6c71abdc6918a","212.32.120.38","Mozilla/5.0 (Windows NT 10.0; Win64; x64) AppleWebKit/537.36 (KHTML, like Gecko) Chrome/131.0.0.0 Safari/537.36","WebKit","Chrome","131.0.0.0","Windows","10.0","https://app.prolific.com/","en-US,en;q=0.9","678c1a86da262715257f3150","686d226cabeef709c732f8e1","686e312bb703a3f17ec73b52","678c1a86da262715257f3150","2025-07-09T09:38:22.172Z","","","","","","MotivationQ","","","","","","","","","","","","","","","","","","","","","","","","","","","","","","","","","","","","","","50",""
