"rt","response_timestamp","stimulus","response","trial_type","trial_index","time_elapsed","internal_node_id","run_id","condition","recorded_at","source_code_version","ip","user_agent","device","browser","browser_version","platform","platform_version","referer","accept_language","PROLIFIC_PID","STUDY_ID","SESSION_ID","prolific_id","realtime","view_history","question_order","consent","success","question_id","eventType","responses","item_order","radio_event_ids","radio_event_times","key_event_times","mouse_event_times","straightlining","zigzagging","honeypot","which_type","canvas_config","goals_layout","control_level","trial_number","tutorial_trial_number","trial_start_time","phase1_start_time","phase2_start_time","phase3_start_time","goal_1_value","goal_1_distance","goal_2_value","goal_2_distance","goal_selected","outcome","outcome_total","participant_final_score","participant_initial_score","participant_final_score_prop","goal_choice_rt","allocated_time","allocated_time_remaining","goal_direction","counts","mouse_movements","key_presses","correct","slider_start","sub_question"
"2880","1752052008671","<p style='font-size:40px;line-height:1.25'><strong>Welcome to the experiment!</strong></p><p style='font-size:1.1em;line-height:1.25'>Thank you for your interest in our experiment! Before you begin, it is important that we obtain your informed consent to participate in the study.</p><p style='font-size:1.1em;line-height:1.25'>On the next screen will be an <strong>information sheet</strong> for you to read. To participate in the study we need you to read this information sheet and the following consent form carefully. If you agree with all the statements, please click the <strong>I agree</strong> button.</p><p style='font-size:1.1em;line-height:1.25'>Press <strong>Next</strong> to read the information sheet.</p>","0","custom-html-button-response","0","2882","0.0-0.0","21","1","2025-07-09 09:06:44","7701e855f2ef39aa3fd6c71abdc6918a","143.117.247.4","Mozilla/5.0 (Windows NT 10.0; Win64; x64) AppleWebKit/537.36 (KHTML, like Gecko) Chrome/138.0.0.0 Safari/537.36 Edg/138.0.0.0","WebKit","Edge","138.0.0.0","Windows","10.0","https://app.prolific.com/","en-GB,en;q=0.9","6658c1554c1d2a4e2d02e301","686d226cabeef709c732f8e1","686e3117babfd8847b5de8e6","6658c1554c1d2a4e2d02e301","2025-07-09T09:06:48.672Z","","","","","","","","","","","","","","","","","","","","","","","","","","","","","","","","","","","","","","","","","","","","",""
"3602","","","","instructions","1","6487","0.0-1.0","21","1","2025-07-09 09:06:44","7701e855f2ef39aa3fd6c71abdc6918a","143.117.247.4","Mozilla/5.0 (Windows NT 10.0; Win64; x64) AppleWebKit/537.36 (KHTML, like Gecko) Chrome/138.0.0.0 Safari/537.36 Edg/138.0.0.0","WebKit","Edge","138.0.0.0","Windows","10.0","https://app.prolific.com/","en-GB,en;q=0.9","6658c1554c1d2a4e2d02e301","686d226cabeef709c732f8e1","686e3117babfd8847b5de8e6","6658c1554c1d2a4e2d02e301","","[{""page_index"":0,""viewing_time"":2362},{""page_index"":1,""viewing_time"":1239}]","","","","","","","","","","","","","","","","","","","","","","","","","","","","","","","","","","","","","","","","","","","",""
"2132","","","{""Q0"":"""",""Q1"":"""",""Q2"":"""",""Q3"":"""",""Q4"":"""",""Q5"":"""",""Q6"":""I agree""}","survey-multi-choice","2","8621","0.0-2.0","21","1","2025-07-09 09:06:44","7701e855f2ef39aa3fd6c71abdc6918a","143.117.247.4","Mozilla/5.0 (Windows NT 10.0; Win64; x64) AppleWebKit/537.36 (KHTML, like Gecko) Chrome/138.0.0.0 Safari/537.36 Edg/138.0.0.0","WebKit","Edge","138.0.0.0","Windows","10.0","https://app.prolific.com/","en-GB,en;q=0.9","6658c1554c1d2a4e2d02e301","686d226cabeef709c732f8e1","686e3117babfd8847b5de8e6","6658c1554c1d2a4e2d02e301","","","[0,1,2,3,4,5,6]","true","","","","","","","","","","","","","","","","","","","","","","","","","","","","","","","","","","","","","","","","","",""
"4584","","","","fullscreen","3","14211","0.0-4.0","21","1","2025-07-09 09:06:44","7701e855f2ef39aa3fd6c71abdc6918a","143.117.247.4","Mozilla/5.0 (Windows NT 10.0; Win64; x64) AppleWebKit/537.36 (KHTML, like Gecko) Chrome/138.0.0.0 Safari/537.36 Edg/138.0.0.0","WebKit","Edge","138.0.0.0","Windows","10.0","https://app.prolific.com/","en-GB,en;q=0.9","6658c1554c1d2a4e2d02e301","686d226cabeef709c732f8e1","686e3117babfd8847b5de8e6","6658c1554c1d2a4e2d02e301","","","","","true","","","","","","","","","","","","","","","","","","","","","","","","","","","","","","","","","","","","","","","","",""
"1763","1752052021764"," <p style='font-size:1.1em;line-height:1.25'>Thank you for completing the consent form and closing all other tabs.</p><p style='font-size:1.1em;line-height:1.25'>We will now invite you to fill in some demographic information and questionnaires, before starting the game.<br>This will take about 5 minutes.<br></p><p style='font-size:1.1em;line-height:1.25'>Press the <strong>Next</strong> button to continue.</p>","0","custom-html-button-response","4","15975","0.0-5.0","21","1","2025-07-09 09:06:44","7701e855f2ef39aa3fd6c71abdc6918a","143.117.247.4","Mozilla/5.0 (Windows NT 10.0; Win64; x64) AppleWebKit/537.36 (KHTML, like Gecko) Chrome/138.0.0.0 Safari/537.36 Edg/138.0.0.0","WebKit","Edge","138.0.0.0","Windows","10.0","https://app.prolific.com/","en-GB,en;q=0.9","6658c1554c1d2a4e2d02e301","686d226cabeef709c732f8e1","686e3117babfd8847b5de8e6","6658c1554c1d2a4e2d02e301","2025-07-09T09:07:01.765Z","","","","","","","","","","","","","","","","","","","","","","","","","","","","","","","","","","","","","","","","","","","","",""
"2476","","","{""age"":""36""}","survey-text","5","18455","0.0-6.0-0.0","21","1","2025-07-09 09:06:44","7701e855f2ef39aa3fd6c71abdc6918a","143.117.247.4","Mozilla/5.0 (Windows NT 10.0; Win64; x64) AppleWebKit/537.36 (KHTML, like Gecko) Chrome/138.0.0.0 Safari/537.36 Edg/138.0.0.0","WebKit","Edge","138.0.0.0","Windows","10.0","https://app.prolific.com/","en-GB,en;q=0.9","6658c1554c1d2a4e2d02e301","686d226cabeef709c732f8e1","686e3117babfd8847b5de8e6","6658c1554c1d2a4e2d02e301","","","","","","0","demographics","","","","","","","","","","","","","","","","","","","","","","","","","","","","","","","","","","","","","","",""
"1814","","","{""gender_identity"":""female/woman""}","survey-multi-choice","6","20271","0.0-6.0-1.0","21","1","2025-07-09 09:06:44","7701e855f2ef39aa3fd6c71abdc6918a","143.117.247.4","Mozilla/5.0 (Windows NT 10.0; Win64; x64) AppleWebKit/537.36 (KHTML, like Gecko) Chrome/138.0.0.0 Safari/537.36 Edg/138.0.0.0","WebKit","Edge","138.0.0.0","Windows","10.0","https://app.prolific.com/","en-GB,en;q=0.9","6658c1554c1d2a4e2d02e301","686d226cabeef709c732f8e1","686e3117babfd8847b5de8e6","6658c1554c1d2a4e2d02e301","","","[0]","","","1","demographics","","","","","","","","","","","","","","","","","","","","","","","","","","","","","","","","","","","","","","",""
"1775","","","{""assigned_sex"":""female""}","survey-multi-choice","7","22047","0.0-6.0-2.0","21","1","2025-07-09 09:06:44","7701e855f2ef39aa3fd6c71abdc6918a","143.117.247.4","Mozilla/5.0 (Windows NT 10.0; Win64; x64) AppleWebKit/537.36 (KHTML, like Gecko) Chrome/138.0.0.0 Safari/537.36 Edg/138.0.0.0","WebKit","Edge","138.0.0.0","Windows","10.0","https://app.prolific.com/","en-GB,en;q=0.9","6658c1554c1d2a4e2d02e301","686d226cabeef709c732f8e1","686e3117babfd8847b5de8e6","6658c1554c1d2a4e2d02e301","","","[0]","","","2","demographics","","","","","","","","","","","","","","","","","","","","","","","","","","","","","","","","","","","","","","",""
"3183","","","{""menstrual_cycle"":""No""}","survey-multi-choice","8","25232","0.0-6.0-3.0","21","1","2025-07-09 09:06:44","7701e855f2ef39aa3fd6c71abdc6918a","143.117.247.4","Mozilla/5.0 (Windows NT 10.0; Win64; x64) AppleWebKit/537.36 (KHTML, like Gecko) Chrome/138.0.0.0 Safari/537.36 Edg/138.0.0.0","WebKit","Edge","138.0.0.0","Windows","10.0","https://app.prolific.com/","en-GB,en;q=0.9","6658c1554c1d2a4e2d02e301","686d226cabeef709c732f8e1","686e3117babfd8847b5de8e6","6658c1554c1d2a4e2d02e301","","","[0]","","","4","demographics","","","","","","","","","","","","","","","","","","","","","","","","","","","","","","","","","","","","","","",""
"4670","","","{""education"":""Bachelor's Degree (e.g., BA)""}","survey-multi-choice","9","29904","0.0-6.0-4.0","21","1","2025-07-09 09:06:44","7701e855f2ef39aa3fd6c71abdc6918a","143.117.247.4","Mozilla/5.0 (Windows NT 10.0; Win64; x64) AppleWebKit/537.36 (KHTML, like Gecko) Chrome/138.0.0.0 Safari/537.36 Edg/138.0.0.0","WebKit","Edge","138.0.0.0","Windows","10.0","https://app.prolific.com/","en-GB,en;q=0.9","6658c1554c1d2a4e2d02e301","686d226cabeef709c732f8e1","686e3117babfd8847b5de8e6","6658c1554c1d2a4e2d02e301","","","[0]","","","5","demographics","","","","","","","","","","","","","","","","","","","","","","","","","","","","","","","","","","","","","","",""
"6326","","","{""education"":""GCSE/Standard Grades""}","survey-multi-choice","10","36231","0.0-6.0-5.0","21","1","2025-07-09 09:06:44","7701e855f2ef39aa3fd6c71abdc6918a","143.117.247.4","Mozilla/5.0 (Windows NT 10.0; Win64; x64) AppleWebKit/537.36 (KHTML, like Gecko) Chrome/138.0.0.0 Safari/537.36 Edg/138.0.0.0","WebKit","Edge","138.0.0.0","Windows","10.0","https://app.prolific.com/","en-GB,en;q=0.9","6658c1554c1d2a4e2d02e301","686d226cabeef709c732f8e1","686e3117babfd8847b5de8e6","6658c1554c1d2a4e2d02e301","2025-07-09T09:07:22.021Z","","[0]","","","6","demographics","","","","","","","","","","","","","","","","","","","","","","","","","","","","","","","","","","","","","","",""
"17187","","","{""mental_health_condition"":""Depression"",""mental_health_treatment"":""No"",""psychiatric_medication"":""Citalopram 20g""}","survey-text","11","53421","0.0-7.0-0.0","21","1","2025-07-09 09:06:44","7701e855f2ef39aa3fd6c71abdc6918a","143.117.247.4","Mozilla/5.0 (Windows NT 10.0; Win64; x64) AppleWebKit/537.36 (KHTML, like Gecko) Chrome/138.0.0.0 Safari/537.36 Edg/138.0.0.0","WebKit","Edge","138.0.0.0","Windows","10.0","https://app.prolific.com/","en-GB,en;q=0.9","6658c1554c1d2a4e2d02e301","686d226cabeef709c732f8e1","686e3117babfd8847b5de8e6","6658c1554c1d2a4e2d02e301","2025-07-09T09:07:39.211Z","","","","","1","mental_health","","","","","","","","","","","","","","","","","","","","","","","","","","","","","","","","","","","","","","",""
"3370","","","{""depression_history"":[""Yes""]}","survey-multi-select","12","56793","0.0-7.0-1.0","21","1","2025-07-09 09:06:44","7701e855f2ef39aa3fd6c71abdc6918a","143.117.247.4","Mozilla/5.0 (Windows NT 10.0; Win64; x64) AppleWebKit/537.36 (KHTML, like Gecko) Chrome/138.0.0.0 Safari/537.36 Edg/138.0.0.0","WebKit","Edge","138.0.0.0","Windows","10.0","https://app.prolific.com/","en-GB,en;q=0.9","6658c1554c1d2a4e2d02e301","686d226cabeef709c732f8e1","686e3117babfd8847b5de8e6","6658c1554c1d2a4e2d02e301","","","[0]","","","","mental_health","","","","","","","","","","","","","","","","","","","","","","","","","","","","","","","","","","","","","","",""
"4749","","","{""depression_episodes"":""more than 5"",""depression_recent"":""Within the past year""}","survey-multi-choice","13","61544","0.0-7.0-2.0-0.0","21","1","2025-07-09 09:06:44","7701e855f2ef39aa3fd6c71abdc6918a","143.117.247.4","Mozilla/5.0 (Windows NT 10.0; Win64; x64) AppleWebKit/537.36 (KHTML, like Gecko) Chrome/138.0.0.0 Safari/537.36 Edg/138.0.0.0","WebKit","Edge","138.0.0.0","Windows","10.0","https://app.prolific.com/","en-GB,en;q=0.9","6658c1554c1d2a4e2d02e301","686d226cabeef709c732f8e1","686e3117babfd8847b5de8e6","6658c1554c1d2a4e2d02e301","2025-07-09T09:07:47.334Z","","[0,1]","","","3","mental_health","","","","","","","","","","","","","","","","","","","","","","","","","","","","","","","","","","","","","","",""
"22766","","","","survey-template","14","84315","0.0-7.0-3.0","21","1","2025-07-09 09:06:44","7701e855f2ef39aa3fd6c71abdc6918a","143.117.247.4","Mozilla/5.0 (Windows NT 10.0; Win64; x64) AppleWebKit/537.36 (KHTML, like Gecko) Chrome/138.0.0.0 Safari/537.36 Edg/138.0.0.0","WebKit","Edge","138.0.0.0","Windows","10.0","https://app.prolific.com/","en-GB,en;q=0.9","6658c1554c1d2a4e2d02e301","686d226cabeef709c732f8e1","686e3117babfd8847b5de8e6","6658c1554c1d2a4e2d02e301","2025-07-09T09:08:10.105Z","","","","","","ius","{""Q01"":""4"",""Q02"":""4"",""Q03"":""4"",""Q04"":""4"",""Q05"":""4"",""Q06"":""4"",""Q07"":""4"",""Q08"":""0"",""Q09"":""4"",""Q10"":""4"",""Q11"":""4"",""Q12"":""4"",""Q13"":""4""}","[0,1,2,3,4,5,6,7,8,9,10,11,12]","[""Q01"",""Q01"",""Q02"",""Q03"",""Q04"",""Q05"",""Q04"",""Q06"",""Q07"",""Q08"",""Q09"",""Q10"",""Q11"",""Q12"",""Q13""]","[3522.399999976158,4810.5,5507.299999982119,6602.899999976158,8243.5,10122.899999976158,11658.799999982119,12627.399999976158,14587.799999982119,16122.799999982119,17530.59999999404,18627,20154.59999999404,21530.69999998808,22418.399999976158]","[]","[3522.399999976158,4810.5,5507.299999982119,6602.899999976158,8243.5,10122.899999976158,10698.899999976158,11658.799999982119,12627.399999976158,14587.799999982119,16122.799999982119,17530.59999999404,18627,20154.59999999404,21530.69999998808,22418.399999976158,22763.09999999404]","0.9230769230769231","0.16666666666666666","0","","","","","","","","","","","","","","","","","","","","","","","","","","","","","",""
"1457","1752052091563","<p style='font-size:1.1em;line-height:1.25'>In the following, we will ask you a few questions relating to your experiences over the past month.<br></p><p style='font-size:1.1em;line-height:1.25'>Press the <strong>Next</strong> button to continue.</p>","0","custom-html-button-response","15","85773","0.0-7.0-4.0","21","1","2025-07-09 09:06:44","7701e855f2ef39aa3fd6c71abdc6918a","143.117.247.4","Mozilla/5.0 (Windows NT 10.0; Win64; x64) AppleWebKit/537.36 (KHTML, like Gecko) Chrome/138.0.0.0 Safari/537.36 Edg/138.0.0.0","WebKit","Edge","138.0.0.0","Windows","10.0","https://app.prolific.com/","en-GB,en;q=0.9","6658c1554c1d2a4e2d02e301","686d226cabeef709c732f8e1","686e3117babfd8847b5de8e6","6658c1554c1d2a4e2d02e301","2025-07-09T09:08:11.563Z","","","","","","","","","","","","","","","","","","","","","","","","","","","","","","","","","","","","","","","","","","","","",""
"28706.19999998808","","","","survey-template","16","114482","0.0-7.0-5.0","21","1","2025-07-09 09:06:44","7701e855f2ef39aa3fd6c71abdc6918a","143.117.247.4","Mozilla/5.0 (Windows NT 10.0; Win64; x64) AppleWebKit/537.36 (KHTML, like Gecko) Chrome/138.0.0.0 Safari/537.36 Edg/138.0.0.0","WebKit","Edge","138.0.0.0","Windows","10.0","https://app.prolific.com/","en-GB,en;q=0.9","6658c1554c1d2a4e2d02e301","686d226cabeef709c732f8e1","686e3117babfd8847b5de8e6","6658c1554c1d2a4e2d02e301","2025-07-09T09:08:40.272Z","","","","","","pss","{""Q01"":""1"",""Q02"":""4"",""Q03"":""2"",""Q04"":""3"",""Q05"":""4"",""Q06"":""0"",""Q07"":""3"",""Q08"":""3"",""Q09"":""3"",""Q10"":""2""}","[0,1,2,3,4,5,6,7,8,9]","[""Q01"",""Q02"",""Q03"",""Q04"",""Q05"",""Q06"",""Q07"",""Q08"",""Q09"",""Q10""]","[3319,6303.199999988079,8135.699999988079,12256.40000000596,16991.90000000596,19352.19999998808,23383.90000000596,24208.5,26544.19999998808,28040.09999999404]","[]","[2,3319,6303.199999988079,8135.699999988079,12256.40000000596,16991.90000000596,19352.19999998808,22320.5,23383.90000000596,24208.5,26544.19999998808,28040.09999999404,28704.09999999404]","0.4","0.4444444444444444","0","","","","","","","","","","","","","","","","","","","","","","","","","","","","","",""
"1475","1752052121748","<p style='font-size:1.1em;line-height:1.25'>Thank you for your answers! Now we will ask you a few more questions relating to your feelings in the last 24 hours.<br></p><p style='font-size:1.1em;line-height:1.25'>Press the <strong>Next</strong> button to continue.</p>","0","custom-html-button-response","17","115959","0.0-7.0-6.0","21","1","2025-07-09 09:06:44","7701e855f2ef39aa3fd6c71abdc6918a","143.117.247.4","Mozilla/5.0 (Windows NT 10.0; Win64; x64) AppleWebKit/537.36 (KHTML, like Gecko) Chrome/138.0.0.0 Safari/537.36 Edg/138.0.0.0","WebKit","Edge","138.0.0.0","Windows","10.0","https://app.prolific.com/","en-GB,en;q=0.9","6658c1554c1d2a4e2d02e301","686d226cabeef709c732f8e1","686e3117babfd8847b5de8e6","6658c1554c1d2a4e2d02e301","2025-07-09T09:08:41.749Z","","","","","","","","","","","","","","","","","","","","","","","","","","","","","","","","","","","","","","","","","","","","",""
"34249.70000001788","","","","survey-template","18","150214","0.0-7.0-7.0","21","1","2025-07-09 09:06:44","7701e855f2ef39aa3fd6c71abdc6918a","143.117.247.4","Mozilla/5.0 (Windows NT 10.0; Win64; x64) AppleWebKit/537.36 (KHTML, like Gecko) Chrome/138.0.0.0 Safari/537.36 Edg/138.0.0.0","WebKit","Edge","138.0.0.0","Windows","10.0","https://app.prolific.com/","en-GB,en;q=0.9","6658c1554c1d2a4e2d02e301","686d226cabeef709c732f8e1","686e3117babfd8847b5de8e6","6658c1554c1d2a4e2d02e301","2025-07-09T09:09:16.004Z","","","","","","drsp","{""Q01"":""2"",""Q02"":""2"",""Q03"":""3"",""Q04"":""3"",""Q05"":""3"",""Q06"":""2"",""Q07"":""3"",""Q08"":""1"",""Q09"":""2"",""Q10"":""1"",""Q11"":""4"",""Q12"":""5"",""Q13"":""5"",""Q14"":""0"",""Q15"":""0"",""Q16"":""2"",""Q17"":""3"",""Q18"":""2"",""Q19"":""0"",""Q20"":""0"",""Q21"":""0""}","[0,1,2,3,4,5,6,7,8,9,10,11,12,13,14,15,16,17,18,19,20]","[""Q01"",""Q02"",""Q03"",""Q04"",""Q05"",""Q06"",""Q07"",""Q08"",""Q09"",""Q10"",""Q11"",""Q12"",""Q13"",""Q12"",""Q14"",""Q15"",""Q16"",""Q17"",""Q18"",""Q19"",""Q20"",""Q21""]","[2964,3916.4000000059605,5012.5,6236.100000023842,7428.300000011921,8788,11507.5,12419.800000011921,13756.40000000596,14644.40000000596,15948.200000017881,17643.80000001192,19278.100000023842,19867.80000001192,21572.20000001788,22603.90000000596,23748.30000001192,25275.600000023842,28948.20000001788,30812.40000000596,32556.100000023842,33556]","[]","[4.200000017881393,2964,3916.4000000059605,5012.5,6236.100000023842,7428.300000011921,8788,10076.600000023842,11507.5,12419.800000011921,13756.40000000596,14644.40000000596,15948.200000017881,17643.80000001192,19278.100000023842,19867.80000001192,21572.20000001788,22603.90000000596,23748.30000001192,25275.600000023842,28948.20000001788,30812.40000000596,32556.100000023842,33556,34244.60000002384]","0.2857142857142857","0.45","0","","","","","","","","","","","","","","","","","","","","","","","","","","","","","",""
"6528.4000000059605","","","","survey-template","19","156745","0.0-7.0-8.0","21","1","2025-07-09 09:06:44","7701e855f2ef39aa3fd6c71abdc6918a","143.117.247.4","Mozilla/5.0 (Windows NT 10.0; Win64; x64) AppleWebKit/537.36 (KHTML, like Gecko) Chrome/138.0.0.0 Safari/537.36 Edg/138.0.0.0","WebKit","Edge","138.0.0.0","Windows","10.0","https://app.prolific.com/","en-GB,en;q=0.9","6658c1554c1d2a4e2d02e301","686d226cabeef709c732f8e1","686e3117babfd8847b5de8e6","6658c1554c1d2a4e2d02e301","2025-07-09T09:09:22.535Z","","","","","","stress","{""Q01"":""2"",""Q02"":""4"",""Q03"":""1""}","[0,1,2]","[""Q01"",""Q02"",""Q03""]","[3399,4807,6047]","[]","[2287.199999988079,3399,4807,6047,6527.199999988079]","0.6666666666666666","0.5","0","","","","","","","","","","","","","","","","","","","","","","","","","","","","","",""
"19828","","","","instructions","20","176574","0.0-8.0-0.0","21","1","2025-07-09 09:06:44","7701e855f2ef39aa3fd6c71abdc6918a","143.117.247.4","Mozilla/5.0 (Windows NT 10.0; Win64; x64) AppleWebKit/537.36 (KHTML, like Gecko) Chrome/138.0.0.0 Safari/537.36 Edg/138.0.0.0","WebKit","Edge","138.0.0.0","Windows","10.0","https://app.prolific.com/","en-GB,en;q=0.9","6658c1554c1d2a4e2d02e301","686d226cabeef709c732f8e1","686e3117babfd8847b5de8e6","6658c1554c1d2a4e2d02e301","","[{""page_index"":0,""viewing_time"":6052},{""page_index"":1,""viewing_time"":5960},{""page_index"":2,""viewing_time"":3487},{""page_index"":3,""viewing_time"":4328}]","","","","","","","","","","","","","","","","","","","","","","","","","","","","","","","","","","","","","","","","","","","",""
"","","","","ctl-task-cpt","21","204830","0.0-8.0-1.0","21","1","2025-07-09 09:06:44","7701e855f2ef39aa3fd6c71abdc6918a","143.117.247.4","Mozilla/5.0 (Windows NT 10.0; Win64; x64) AppleWebKit/537.36 (KHTML, like Gecko) Chrome/138.0.0.0 Safari/537.36 Edg/138.0.0.0","WebKit","Edge","138.0.0.0","Windows","10.0","https://app.prolific.com/","en-GB,en;q=0.9","6658c1554c1d2a4e2d02e301","686d226cabeef709c732f8e1","686e3117babfd8847b5de8e6","6658c1554c1d2a4e2d02e301","","","","","","","","","","","","","","","","","win-only","3","g1:SW,g2:NE","1","0","1","177985.1","2007.1","6012.7","25234.6","2","4","4","6","1","2","-2","0","0","0","4005.5","4000","190","[""down"",""left""]","{""num_key_presses"":9,""num_perfect"":4,""num_errors"":4,""num_randdir"":0,""num_randdir_good_moves"":0,""num_whilered"":1,""num_whileblue"":0,""num_blue"":0,""num_good_moves"":4}","[493.22253548013316,499.7669093245596,16.1,493.22253548013316,499.7669093245596,107.6,493.22253548013316,499.7669093245596,210.8,493.22253548013316,499.7669093245596,311.3,493.22253548013316,499.7669093245596,414.5,493.22253548013316,499.7669093245596,518.8,493.22253548013316,499.7669093245596,627.8,493.22253548013316,499.7669093245596,727.8,493.22253548013316,499.7669093245596,828.4,493.22253548013316,499.7669093245596,934.7,493.22253548013316,499.7669093245596,1038.7,493.22253548013316,499.7669093245596,1139.1,493.22253548013316,499.7669093245596,1240.6,493.22253548013316,499.7669093245596,1345.4,493.22253548013316,499.7669093245596,1445.7,493.22253548013316,499.7669093245596,1545.7,493.22253548013316,499.7669093245596,1648.8,711.6225274692689,578.8069064253897,1750.2,1346.0225041996155,819.046897613439,1854.5,1767.2224887500915,1111.2868868941396,1962.4,1767.2224887500915,1126.886886321935,2063.3,1767.2224887500915,1126.886886321935,2169.6,1767.2224887500915,1126.886886321935,2273.4,1767.2224887500915,1126.886886321935,2379.2,1767.2224887500915,1126.886886321935,2483.5,1767.2224887500915,1126.886886321935,2583.6,1767.2224887500915,1126.886886321935,2683.6,1767.2224887500915,1126.886886321935,2783.7,1767.2224887500915,1126.886886321935,2884,1767.2224887500915,1126.886886321935,2985,1767.2224887500915,1126.886886321935,3089.5,1767.2224887500915,1126.886886321935,3197.8,1767.2224887500915,1126.886886321935,3298.5,1767.2224887500915,1126.886886321935,3401,1767.2224887500915,1126.886886321935,3503.8,1767.2224887500915,1126.886886321935,3604.6,1767.2224887500915,1126.886886321935,3714.2,1767.2224887500915,1126.886886321935,3814.2,1767.2224887500915,1126.886886321935,3919.6]","[4138.8,4138.7,1000,0.1,3138.7,""smooth"",""down"",""down"",""good_move"",4562.8,423.8,2062.9,4139,-1639.1,""error"",""-"",""-"",""no_move"",4928.7,365.6,2062.9,4139,-1273.2,""while_red"",""-"",""-"",""no_move"",6163,1599.9,1999.6,5567.8,-1404.4,""error"",""-"",""-"",""no_move"",7531.2,1368,2925.3,7164,-2558.1,""error"",""-"",""-"",""no_move"",11067.9,3536.6,2120.2,8531.9,415.8,""smooth"",""down"",""down"",""good_move"",11402.1,334.1,2522.7,11068.1,-2188.7,""error"",""-"",""-"",""no_move"",16347.5,4945.3,3537.6,12402.7,407.2,""smooth"",""left"",""left"",""good_move"",19123.8,2776.1,2407.1,16347.7,369,""smooth"",""left"",""left"",""good_move""]","","",""
"3401","","","","instructions","22","208232","0.0-8.0-2.0","21","1","2025-07-09 09:06:44","7701e855f2ef39aa3fd6c71abdc6918a","143.117.247.4","Mozilla/5.0 (Windows NT 10.0; Win64; x64) AppleWebKit/537.36 (KHTML, like Gecko) Chrome/138.0.0.0 Safari/537.36 Edg/138.0.0.0","WebKit","Edge","138.0.0.0","Windows","10.0","https://app.prolific.com/","en-GB,en;q=0.9","6658c1554c1d2a4e2d02e301","686d226cabeef709c732f8e1","686e3117babfd8847b5de8e6","6658c1554c1d2a4e2d02e301","","[{""page_index"":0,""viewing_time"":3401}]","","","","","","","","","","","","","","","","","","","","","","","","","","","","","","","","","","","","","","","","","","","",""
"","","","","ctl-task-cpt","23","227215","0.0-8.0-3.0","21","1","2025-07-09 09:06:44","7701e855f2ef39aa3fd6c71abdc6918a","143.117.247.4","Mozilla/5.0 (Windows NT 10.0; Win64; x64) AppleWebKit/537.36 (KHTML, like Gecko) Chrome/138.0.0.0 Safari/537.36 Edg/138.0.0.0","WebKit","Edge","138.0.0.0","Windows","10.0","https://app.prolific.com/","en-GB,en;q=0.9","6658c1554c1d2a4e2d02e301","686d226cabeef709c732f8e1","686e3117babfd8847b5de8e6","6658c1554c1d2a4e2d02e301","","","","","","","","","","","","","","","","","win-only","3","g1:SW,g2:NE","0.35","0","3","209627.7","1404.4","5405.1","15956.1","2","4","8","6","1","2","2","2","0","0.015151515151515152","4000.7","4000","2785","[""down"",""left""]","{""num_key_presses"":4,""num_perfect"":3,""num_errors"":0,""num_randdir"":1,""num_randdir_good_moves"":1,""num_whilered"":0,""num_whileblue"":0,""num_blue"":0,""num_good_moves"":4}","[501.5425351749574,484.1669098967642,0.2,501.5425351749574,484.1669098967642,102,501.5425351749574,484.1669098967642,202.3,501.5425351749574,484.1669098967642,306.5,501.5425351749574,484.1669098967642,415.6,498.4225352893983,499.7669093245596,515.6,470.34253631936656,569.4469067687124,616.7,467.2225364338075,573.6069066161245,717.4,450.58253704415904,579.8469063872427,822.6,436.02253757821666,586.0869061583609,922.7,436.02253757821666,586.0869061583609,1031.2,436.02253757821666,586.0869061583609,1131.6,436.02253757821666,586.0869061583609,1232.9,436.02253757821666,586.0869061583609,1337.8,436.02253757821666,586.0869061583609,1441.4,436.02253757821666,586.0869061583609,1548.9,436.02253757821666,586.0869061583609,1651.8,436.02253757821666,586.0869061583609,1757.4,436.02253757821666,586.0869061583609,1857.7,436.02253757821666,586.0869061583609,1961.2,436.02253757821666,586.0869061583609,2065.7,436.02253757821666,586.0869061583609,2165.7,436.02253757821666,586.0869061583609,2265.8,436.02253757821666,586.0869061583609,2371.2,436.02253757821666,586.0869061583609,2476,436.02253757821666,586.0869061583609,2576.3,436.02253757821666,586.0869061583609,2677.4,436.02253757821666,586.0869061583609,2783.2,436.02253757821666,586.0869061583609,2883.2,436.02253757821666,586.0869061583609,2983.5,436.02253757821666,586.0869061583609,3084,436.02253757821666,586.0869061583609,3186.4,436.02253757821666,586.0869061583609,3291,436.02253757821666,586.0869061583609,3392.6,436.02253757821666,586.0869061583609,3500.2,436.02253757821666,586.0869061583609,3600.2,436.02253757821666,586.0869061583609,3700.5,436.02253757821666,586.0869061583609,3800.5,436.02253757821666,586.0869061583609,3900.9]","[1271.1,1271.2,1000,0,271.2,""smooth"",""down"",""down"",""good_move"",4423,3151.7,2756.2,1271.3,395.5,""smooth"",""down"",""down"",""good_move"",7505.9,3082.8,2727.2,4423.1,355.6,""oops"",""left"",""left"",""good_move"",10458.2,2952.1,2590.1,7506.1,362,""smooth"",""left"",""left"",""good_move""]","","",""
"62503","","","","instructions","24","289720","0.0-8.0-4.0","21","1","2025-07-09 09:06:44","7701e855f2ef39aa3fd6c71abdc6918a","143.117.247.4","Mozilla/5.0 (Windows NT 10.0; Win64; x64) AppleWebKit/537.36 (KHTML, like Gecko) Chrome/138.0.0.0 Safari/537.36 Edg/138.0.0.0","WebKit","Edge","138.0.0.0","Windows","10.0","https://app.prolific.com/","en-GB,en;q=0.9","6658c1554c1d2a4e2d02e301","686d226cabeef709c732f8e1","686e3117babfd8847b5de8e6","6658c1554c1d2a4e2d02e301","","[{""page_index"":0,""viewing_time"":2640},{""page_index"":1,""viewing_time"":59863}]","","","","","","","","","","","","","","","","","","","","","","","","","","","","","","","","","","","","","","","","","","","",""
"7396","","","{""green_ball"":[""Ball always moves in the direction I press""]}","survey-multi-select","25","297121","0.0-8.0-5.0-0.0","21","1","2025-07-09 09:06:44","7701e855f2ef39aa3fd6c71abdc6918a","143.117.247.4","Mozilla/5.0 (Windows NT 10.0; Win64; x64) AppleWebKit/537.36 (KHTML, like Gecko) Chrome/138.0.0.0 Safari/537.36 Edg/138.0.0.0","WebKit","Edge","138.0.0.0","Windows","10.0","https://app.prolific.com/","en-GB,en;q=0.9","6658c1554c1d2a4e2d02e301","686d226cabeef709c732f8e1","686e3117babfd8847b5de8e6","6658c1554c1d2a4e2d02e301","","","[0]","","","","quiz","","","","","","","","","","","","","","","","","","","","","","","","","","","","","","","","","","","","","false","",""
"1732","","<p align='center'><b>INCORRECT.</b> Usually the green ball moves in the indicated direction, but sometimes it shakes and moves randomly. </p>","0","html-button-response","26","298855","0.0-8.0-5.0-1.0","21","1","2025-07-09 09:06:44","7701e855f2ef39aa3fd6c71abdc6918a","143.117.247.4","Mozilla/5.0 (Windows NT 10.0; Win64; x64) AppleWebKit/537.36 (KHTML, like Gecko) Chrome/138.0.0.0 Safari/537.36 Edg/138.0.0.0","WebKit","Edge","138.0.0.0","Windows","10.0","https://app.prolific.com/","en-GB,en;q=0.9","6658c1554c1d2a4e2d02e301","686d226cabeef709c732f8e1","686e3117babfd8847b5de8e6","6658c1554c1d2a4e2d02e301","","","","","","","","","","","","","","","","","","","","","","","","","","","","","","","","","","","","","","","","","","","","","",""
"4247","","","{""green_ball"":[""Ball sometimes shakes and moves in a random direction""]}","survey-multi-select","27","303104","0.0-8.0-5.1-0.1","21","1","2025-07-09 09:06:44","7701e855f2ef39aa3fd6c71abdc6918a","143.117.247.4","Mozilla/5.0 (Windows NT 10.0; Win64; x64) AppleWebKit/537.36 (KHTML, like Gecko) Chrome/138.0.0.0 Safari/537.36 Edg/138.0.0.0","WebKit","Edge","138.0.0.0","Windows","10.0","https://app.prolific.com/","en-GB,en;q=0.9","6658c1554c1d2a4e2d02e301","686d226cabeef709c732f8e1","686e3117babfd8847b5de8e6","6658c1554c1d2a4e2d02e301","","","[0]","","","","quiz","","","","","","","","","","","","","","","","","","","","","","","","","","","","","","","","","","","","","true","",""
"1214","","<p align='center'><b>CORRECT!</b> Indeed, the green ball may sometimes shake and move in a random direction.</p>","0","html-button-response","28","304320","0.0-8.0-5.1-1.1","21","1","2025-07-09 09:06:44","7701e855f2ef39aa3fd6c71abdc6918a","143.117.247.4","Mozilla/5.0 (Windows NT 10.0; Win64; x64) AppleWebKit/537.36 (KHTML, like Gecko) Chrome/138.0.0.0 Safari/537.36 Edg/138.0.0.0","WebKit","Edge","138.0.0.0","Windows","10.0","https://app.prolific.com/","en-GB,en;q=0.9","6658c1554c1d2a4e2d02e301","686d226cabeef709c732f8e1","686e3117babfd8847b5de8e6","6658c1554c1d2a4e2d02e301","","","","","","","","","","","","","","","","","","","","","","","","","","","","","","","","","","","","","","","","","","","","","",""
"6415","","","{""yellow_ball"":[""Ball doesn‘t move and I get -1 penalty point""]}","survey-multi-select","29","310736","0.0-8.0-6.0-0.0","21","1","2025-07-09 09:06:44","7701e855f2ef39aa3fd6c71abdc6918a","143.117.247.4","Mozilla/5.0 (Windows NT 10.0; Win64; x64) AppleWebKit/537.36 (KHTML, like Gecko) Chrome/138.0.0.0 Safari/537.36 Edg/138.0.0.0","WebKit","Edge","138.0.0.0","Windows","10.0","https://app.prolific.com/","en-GB,en;q=0.9","6658c1554c1d2a4e2d02e301","686d226cabeef709c732f8e1","686e3117babfd8847b5de8e6","6658c1554c1d2a4e2d02e301","","","[0]","","","","quiz","","","","","","","","","","","","","","","","","","","","","","","","","","","","","","","","","","","","","true","",""
"957","","<p align='center'><b>CORRECT!</b> Indeed, the yellow ball never moves and you receive a penalty.</p>","0","html-button-response","30","311695","0.0-8.0-6.0-1.0","21","1","2025-07-09 09:06:44","7701e855f2ef39aa3fd6c71abdc6918a","143.117.247.4","Mozilla/5.0 (Windows NT 10.0; Win64; x64) AppleWebKit/537.36 (KHTML, like Gecko) Chrome/138.0.0.0 Safari/537.36 Edg/138.0.0.0","WebKit","Edge","138.0.0.0","Windows","10.0","https://app.prolific.com/","en-GB,en;q=0.9","6658c1554c1d2a4e2d02e301","686d226cabeef709c732f8e1","686e3117babfd8847b5de8e6","6658c1554c1d2a4e2d02e301","","","","","","","","","","","","","","","","","","","","","","","","","","","","","","","","","","","","","","","","","","","","","",""
"6200","","","{""blue_ball"":[""Ball doesn‘t move and I get -1 penalty point""]}","survey-multi-select","31","317896","0.0-8.0-7.0-0.0","21","1","2025-07-09 09:06:44","7701e855f2ef39aa3fd6c71abdc6918a","143.117.247.4","Mozilla/5.0 (Windows NT 10.0; Win64; x64) AppleWebKit/537.36 (KHTML, like Gecko) Chrome/138.0.0.0 Safari/537.36 Edg/138.0.0.0","WebKit","Edge","138.0.0.0","Windows","10.0","https://app.prolific.com/","en-GB,en;q=0.9","6658c1554c1d2a4e2d02e301","686d226cabeef709c732f8e1","686e3117babfd8847b5de8e6","6658c1554c1d2a4e2d02e301","","","[0]","","","","quiz","","","","","","","","","","","","","","","","","","","","","","","","","","","","","","","","","","","","","false","",""
"982","","<p align='center'><b>INCORRECT.</b> The blue ball always shakes and moves randomly.</p>","0","html-button-response","32","318879","0.0-8.0-7.0-1.0","21","1","2025-07-09 09:06:44","7701e855f2ef39aa3fd6c71abdc6918a","143.117.247.4","Mozilla/5.0 (Windows NT 10.0; Win64; x64) AppleWebKit/537.36 (KHTML, like Gecko) Chrome/138.0.0.0 Safari/537.36 Edg/138.0.0.0","WebKit","Edge","138.0.0.0","Windows","10.0","https://app.prolific.com/","en-GB,en;q=0.9","6658c1554c1d2a4e2d02e301","686d226cabeef709c732f8e1","686e3117babfd8847b5de8e6","6658c1554c1d2a4e2d02e301","","","","","","","","","","","","","","","","","","","","","","","","","","","","","","","","","","","","","","","","","","","","","",""
"3438","","","{""blue_ball"":[""Ball sometimes shakes and moves in a random direction""]}","survey-multi-select","33","322320","0.0-8.0-7.1-0.1","21","1","2025-07-09 09:06:44","7701e855f2ef39aa3fd6c71abdc6918a","143.117.247.4","Mozilla/5.0 (Windows NT 10.0; Win64; x64) AppleWebKit/537.36 (KHTML, like Gecko) Chrome/138.0.0.0 Safari/537.36 Edg/138.0.0.0","WebKit","Edge","138.0.0.0","Windows","10.0","https://app.prolific.com/","en-GB,en;q=0.9","6658c1554c1d2a4e2d02e301","686d226cabeef709c732f8e1","686e3117babfd8847b5de8e6","6658c1554c1d2a4e2d02e301","","","[0]","","","","quiz","","","","","","","","","","","","","","","","","","","","","","","","","","","","","","","","","","","","","false","",""
"862","","<p align='center'><b>INCORRECT.</b> The blue ball always shakes and moves randomly.</p>","0","html-button-response","34","323183","0.0-8.0-7.1-1.1","21","1","2025-07-09 09:06:44","7701e855f2ef39aa3fd6c71abdc6918a","143.117.247.4","Mozilla/5.0 (Windows NT 10.0; Win64; x64) AppleWebKit/537.36 (KHTML, like Gecko) Chrome/138.0.0.0 Safari/537.36 Edg/138.0.0.0","WebKit","Edge","138.0.0.0","Windows","10.0","https://app.prolific.com/","en-GB,en;q=0.9","6658c1554c1d2a4e2d02e301","686d226cabeef709c732f8e1","686e3117babfd8847b5de8e6","6658c1554c1d2a4e2d02e301","","","","","","","","","","","","","","","","","","","","","","","","","","","","","","","","","","","","","","","","","","","","","",""
"2927","","","{""blue_ball"":[""Ball always shakes and moves in a random direction""]}","survey-multi-select","35","326111","0.0-8.0-7.2-0.2","21","1","2025-07-09 09:06:44","7701e855f2ef39aa3fd6c71abdc6918a","143.117.247.4","Mozilla/5.0 (Windows NT 10.0; Win64; x64) AppleWebKit/537.36 (KHTML, like Gecko) Chrome/138.0.0.0 Safari/537.36 Edg/138.0.0.0","WebKit","Edge","138.0.0.0","Windows","10.0","https://app.prolific.com/","en-GB,en;q=0.9","6658c1554c1d2a4e2d02e301","686d226cabeef709c732f8e1","686e3117babfd8847b5de8e6","6658c1554c1d2a4e2d02e301","","","[0]","","","","quiz","","","","","","","","","","","","","","","","","","","","","","","","","","","","","","","","","","","","","true","",""
"1087","","<p align='center'><b>CORRECT!</b> Indeed, the blue ball always shakes and moves in a random direction. Also there is a penalty of -1 point.</p>","0","html-button-response","36","327199","0.0-8.0-7.2-1.2","21","1","2025-07-09 09:06:44","7701e855f2ef39aa3fd6c71abdc6918a","143.117.247.4","Mozilla/5.0 (Windows NT 10.0; Win64; x64) AppleWebKit/537.36 (KHTML, like Gecko) Chrome/138.0.0.0 Safari/537.36 Edg/138.0.0.0","WebKit","Edge","138.0.0.0","Windows","10.0","https://app.prolific.com/","en-GB,en;q=0.9","6658c1554c1d2a4e2d02e301","686d226cabeef709c732f8e1","686e3117babfd8847b5de8e6","6658c1554c1d2a4e2d02e301","","","","","","","","","","","","","","","","","","","","","","","","","","","","","","","","","","","","","","","","","","","","","",""
"5191","","","{""bonus"":[""When I don‘t get penalty points""]}","survey-multi-select","37","332392","0.0-8.0-8.0-0.0","21","1","2025-07-09 09:06:44","7701e855f2ef39aa3fd6c71abdc6918a","143.117.247.4","Mozilla/5.0 (Windows NT 10.0; Win64; x64) AppleWebKit/537.36 (KHTML, like Gecko) Chrome/138.0.0.0 Safari/537.36 Edg/138.0.0.0","WebKit","Edge","138.0.0.0","Windows","10.0","https://app.prolific.com/","en-GB,en;q=0.9","6658c1554c1d2a4e2d02e301","686d226cabeef709c732f8e1","686e3117babfd8847b5de8e6","6658c1554c1d2a4e2d02e301","","","[0]","","","","quiz","","","","","","","","","","","","","","","","","","","","","","","","","","","","","","","","","","","","","false","",""
"1166","","<p align='center'><b>INCORRECT.</b> You receive 2 pounds extra when you reach 50% of points </p>","0","html-button-response","38","333559","0.0-8.0-8.0-1.0","21","1","2025-07-09 09:06:44","7701e855f2ef39aa3fd6c71abdc6918a","143.117.247.4","Mozilla/5.0 (Windows NT 10.0; Win64; x64) AppleWebKit/537.36 (KHTML, like Gecko) Chrome/138.0.0.0 Safari/537.36 Edg/138.0.0.0","WebKit","Edge","138.0.0.0","Windows","10.0","https://app.prolific.com/","en-GB,en;q=0.9","6658c1554c1d2a4e2d02e301","686d226cabeef709c732f8e1","686e3117babfd8847b5de8e6","6658c1554c1d2a4e2d02e301","","","","","","","","","","","","","","","","","","","","","","","","","","","","","","","","","","","","","","","","","","","","","",""
"2120","","","{""bonus"":[""When I reach 50% of points""]}","survey-multi-select","39","335681","0.0-8.0-8.1-0.1","21","1","2025-07-09 09:06:44","7701e855f2ef39aa3fd6c71abdc6918a","143.117.247.4","Mozilla/5.0 (Windows NT 10.0; Win64; x64) AppleWebKit/537.36 (KHTML, like Gecko) Chrome/138.0.0.0 Safari/537.36 Edg/138.0.0.0","WebKit","Edge","138.0.0.0","Windows","10.0","https://app.prolific.com/","en-GB,en;q=0.9","6658c1554c1d2a4e2d02e301","686d226cabeef709c732f8e1","686e3117babfd8847b5de8e6","6658c1554c1d2a4e2d02e301","","","[0]","","","","quiz","","","","","","","","","","","","","","","","","","","","","","","","","","","","","","","","","","","","","true","",""
"1036","","<p align='center'><b>CORRECT!</b> Indeed, you receive 2 pounds extra when you reach 50% of points.</p>","0","html-button-response","40","336718","0.0-8.0-8.1-1.1","21","1","2025-07-09 09:06:44","7701e855f2ef39aa3fd6c71abdc6918a","143.117.247.4","Mozilla/5.0 (Windows NT 10.0; Win64; x64) AppleWebKit/537.36 (KHTML, like Gecko) Chrome/138.0.0.0 Safari/537.36 Edg/138.0.0.0","WebKit","Edge","138.0.0.0","Windows","10.0","https://app.prolific.com/","en-GB,en;q=0.9","6658c1554c1d2a4e2d02e301","686d226cabeef709c732f8e1","686e3117babfd8847b5de8e6","6658c1554c1d2a4e2d02e301","","","","","","","","","","","","","","","","","","","","","","","","","","","","","","","","","","","","","","","","","","","","","",""
"1169","","","","instructions","41","337887","0.0-8.0-9.0","21","1","2025-07-09 09:06:44","7701e855f2ef39aa3fd6c71abdc6918a","143.117.247.4","Mozilla/5.0 (Windows NT 10.0; Win64; x64) AppleWebKit/537.36 (KHTML, like Gecko) Chrome/138.0.0.0 Safari/537.36 Edg/138.0.0.0","WebKit","Edge","138.0.0.0","Windows","10.0","https://app.prolific.com/","en-GB,en;q=0.9","6658c1554c1d2a4e2d02e301","686d226cabeef709c732f8e1","686e3117babfd8847b5de8e6","6658c1554c1d2a4e2d02e301","","[{""page_index"":0,""viewing_time"":1169}]","","","","","","","","","","","","","","","","","","","","","","","","","","","","","","","","","","","","","","","","","","","",""
"3157","","<p>Before you start with this game please answer the following three questions yourself. </p>
  <p>Through this game, we measure several aspects of your cognitive performance, such as reaction times, multi-tasking capabilities </p>
  <p>and the ability to assess the situation you are in.</p>
  <p></p>
  <p><b>How good do you usually are in such tasks?</b></p>","31","html-slider-response","42","341066","0.0-9.0-0.0","21","1","2025-07-09 09:06:44","7701e855f2ef39aa3fd6c71abdc6918a","143.117.247.4","Mozilla/5.0 (Windows NT 10.0; Win64; x64) AppleWebKit/537.36 (KHTML, like Gecko) Chrome/138.0.0.0 Safari/537.36 Edg/138.0.0.0","WebKit","Edge","138.0.0.0","Windows","10.0","https://app.prolific.com/","en-GB,en;q=0.9","6658c1554c1d2a4e2d02e301","686d226cabeef709c732f8e1","686e3117babfd8847b5de8e6","6658c1554c1d2a4e2d02e301","2025-07-09T09:12:26.856Z","","","","","","PreSkillQ","","","","","","","","","","","","","","","","","","","","","","","","","","","","","","","","","","","","","","50",""
"2076","","<div style=""width:500px;"">
  <p>How well do you think you will perform in this task compared to other participants?</p>
  </div>","29","html-slider-response","43","343144","0.0-9.0-1.0","21","1","2025-07-09 09:06:44","7701e855f2ef39aa3fd6c71abdc6918a","143.117.247.4","Mozilla/5.0 (Windows NT 10.0; Win64; x64) AppleWebKit/537.36 (KHTML, like Gecko) Chrome/138.0.0.0 Safari/537.36 Edg/138.0.0.0","WebKit","Edge","138.0.0.0","Windows","10.0","https://app.prolific.com/","en-GB,en;q=0.9","6658c1554c1d2a4e2d02e301","686d226cabeef709c732f8e1","686e3117babfd8847b5de8e6","6658c1554c1d2a4e2d02e301","2025-07-09T09:12:28.934Z","","","","","","PrePerfQ","","","","","","","","","","","","","","","","","","","","","","","","","","","","","","","","","","","","","","50",""
"2462","","<div style=""width:500px;"">
  <p>What best describes how you currently feel?</p>
  </div>","43","html-slider-response","44","345607","0.0-9.0-2.0","21","1","2025-07-09 09:06:44","7701e855f2ef39aa3fd6c71abdc6918a","143.117.247.4","Mozilla/5.0 (Windows NT 10.0; Win64; x64) AppleWebKit/537.36 (KHTML, like Gecko) Chrome/138.0.0.0 Safari/537.36 Edg/138.0.0.0","WebKit","Edge","138.0.0.0","Windows","10.0","https://app.prolific.com/","en-GB,en;q=0.9","6658c1554c1d2a4e2d02e301","686d226cabeef709c732f8e1","686e3117babfd8847b5de8e6","6658c1554c1d2a4e2d02e301","2025-07-09T09:12:31.397Z","","","","","","PreMotivationQ","","","","","","","","","","","","","","","","","","","","","","","","","","","","","","","","","","","","","","50",""
"","","","","ctl-task-cpt","45","371867","0.0-10.0-0.0","21","1","2025-07-09 09:06:44","7701e855f2ef39aa3fd6c71abdc6918a","143.117.247.4","Mozilla/5.0 (Windows NT 10.0; Win64; x64) AppleWebKit/537.36 (KHTML, like Gecko) Chrome/138.0.0.0 Safari/537.36 Edg/138.0.0.0","WebKit","Edge","138.0.0.0","Windows","10.0","https://app.prolific.com/","en-GB,en;q=0.9","6658c1554c1d2a4e2d02e301","686d226cabeef709c732f8e1","686e3117babfd8847b5de8e6","6658c1554c1d2a4e2d02e301","2025-07-09T09:12:57.658Z","","","","","","","","","","","","","","","","win-only","2","g1:SE,g2:NW","1","1","0","347003.9","1104.8","6110.5","23237.1","1","4","4","6","2","4","4","4","0","0.030303030303030304","2203.5","3000","1355","[""left"",""up""]","{""num_key_presses"":6,""num_perfect"":6,""num_errors"":0,""num_randdir"":0,""num_randdir_good_moves"":0,""num_whilered"":0,""num_whileblue"":0,""num_blue"":0,""num_good_moves"":6}","[495.3025354038392,488.3269097441763,0.2,495.3025354038392,488.3269097441763,100.9,745.9425262104188,426.9669119948477,201.4,823.9425233493959,423.8469121092886,301.7,823.9425233493959,423.8469121092886,405.5,775.0625251423036,417.60691233817045,506.3,740.7425264011537,418.6469123000235,611.3,563.942532886139,378.0869137877554,719.2,479.7025359760438,358.3269145125479,820.8,472.4225362430726,469.6069104308218,926.4,511.94253479348765,517.4469086760611,1035.2,578.5025323520814,530.9669081801504,1135.5,592.0225318561708,546.5669076079458,1235.5,592.0225318561708,558.0069071883291,1336.1,592.0225318561708,559.0469071501822,1441,592.0225318561708,559.0469071501822,1542.8,592.0225318561708,559.0469071501822,1645.6,592.0225318561708,559.0469071501822,1753.1,522.3425344120179,471.68691035452787,1854,223.86254536019905,213.76691981497706,1956.6,170.82254730569466,158.6469218367666,2060.9,120.90254913674934,118.08692332449854,2161.3,120.90254913674934,117.04692336264551,2269.7,120.90254913674934,117.04692336264551,2370.8,120.90254913674934,117.04692336264551,2472,120.90254913674934,117.04692336264551,2575.8,120.90254913674934,117.04692336264551,2676.7,120.90254913674934,117.04692336264551,2776.9,120.90254913674934,117.04692336264551,2886.9,120.90254913674934,117.04692336264551,2986.9,120.90254913674934,117.04692336264551,3088.5,120.90254913674934,117.04692336264551,3190.6,120.90254913674934,117.04692336264551,3291.2,120.90254913674934,117.04692336264551,3391.9,120.90254913674934,117.04692336264551,3496.6,120.90254913674934,117.04692336264551,3604,120.90254913674934,117.04692336264551,3704.8,120.90254913674934,117.04692336264551,3804.8,120.90254913674934,117.04692336264551,3905,120.90254913674934,117.04692336264551,4006.5,120.90254913674934,117.04692336264551,4111,120.90254913674934,117.04692336264551,4211.5,120.90254913674934,117.04692336264551,4321.3,120.90254913674934,117.04692336264551,4422.6,120.90254913674934,117.04692336264551,4526.4,120.90254913674934,117.04692336264551,4630.7,120.90254913674934,117.04692336264551,4730.8,120.90254913674934,117.04692336264551,4838.7,120.90254913674934,117.04692336264551,4939.1]","[1350.2,1350.2,1000,0,350.2,""smooth"",""up"",""up"",""good_move"",4589.1,3238.6,2923.6,1350.5,315,""smooth"",""up"",""up"",""good_move"",7556.9,2967.6,2684.9,4589.3,282.7,""smooth"",""up"",""up"",""good_move"",11173.5,3616.5,3332.2,7557.1,284.2,""smooth"",""left"",""left"",""good_move"",14782,3608.3,3339.4,11173.7,268.9,""smooth"",""left"",""left"",""good_move"",17030.1,2248,1945.4,14782.2,302.5,""smooth"",""left"",""left"",""good_move""]","","",""
"3233","","<div style=""width:500px;"">
  <p>What determined the result of this run?</p>
  </div>","68","html-slider-response","46","375103","0.0-10.0-1.0","21","1","2025-07-09 09:06:44","7701e855f2ef39aa3fd6c71abdc6918a","143.117.247.4","Mozilla/5.0 (Windows NT 10.0; Win64; x64) AppleWebKit/537.36 (KHTML, like Gecko) Chrome/138.0.0.0 Safari/537.36 Edg/138.0.0.0","WebKit","Edge","138.0.0.0","Windows","10.0","https://app.prolific.com/","en-GB,en;q=0.9","6658c1554c1d2a4e2d02e301","686d226cabeef709c732f8e1","686e3117babfd8847b5de8e6","6658c1554c1d2a4e2d02e301","2025-07-09T09:13:00.893Z","","","","","","AttribQ","","","","","","","","","","","","","","","","","","","","","","","","","","","","","","","","","","","","","","50",""
"2966","","<div style=""width:500px;"">
  <p>How much control did you have over the ball?</p>
  </div>","69","html-slider-response","47","378070","0.0-10.0-2.0","21","1","2025-07-09 09:06:44","7701e855f2ef39aa3fd6c71abdc6918a","143.117.247.4","Mozilla/5.0 (Windows NT 10.0; Win64; x64) AppleWebKit/537.36 (KHTML, like Gecko) Chrome/138.0.0.0 Safari/537.36 Edg/138.0.0.0","WebKit","Edge","138.0.0.0","Windows","10.0","https://app.prolific.com/","en-GB,en;q=0.9","6658c1554c1d2a4e2d02e301","686d226cabeef709c732f8e1","686e3117babfd8847b5de8e6","6658c1554c1d2a4e2d02e301","2025-07-09T09:13:03.860Z","","","","","","ControlQ","","","","","","","","","","","","","","","","","","","","","","","","","","","","","","","","","","","","","","50",""
"2088","","<div style=""width:500px;"">
  <p>How would you describe your current emotional state?</p>
  </div>","60","html-slider-response","48","380159","0.0-10.0-3.0","21","1","2025-07-09 09:06:44","7701e855f2ef39aa3fd6c71abdc6918a","143.117.247.4","Mozilla/5.0 (Windows NT 10.0; Win64; x64) AppleWebKit/537.36 (KHTML, like Gecko) Chrome/138.0.0.0 Safari/537.36 Edg/138.0.0.0","WebKit","Edge","138.0.0.0","Windows","10.0","https://app.prolific.com/","en-GB,en;q=0.9","6658c1554c1d2a4e2d02e301","686d226cabeef709c732f8e1","686e3117babfd8847b5de8e6","6658c1554c1d2a4e2d02e301","2025-07-09T09:13:05.949Z","","","","","","StressQ","","","","","","","","","","","","","","","","","","","","","","","","","","","","","","","","","","","","","","50",""
"3120","","<div style=""width:500px;"">
  <p>What best describes how you currently feel?</p>
  </div>","47","html-slider-response","49","383279","0.0-10.0-4.0","21","1","2025-07-09 09:06:44","7701e855f2ef39aa3fd6c71abdc6918a","143.117.247.4","Mozilla/5.0 (Windows NT 10.0; Win64; x64) AppleWebKit/537.36 (KHTML, like Gecko) Chrome/138.0.0.0 Safari/537.36 Edg/138.0.0.0","WebKit","Edge","138.0.0.0","Windows","10.0","https://app.prolific.com/","en-GB,en;q=0.9","6658c1554c1d2a4e2d02e301","686d226cabeef709c732f8e1","686e3117babfd8847b5de8e6","6658c1554c1d2a4e2d02e301","2025-07-09T09:13:09.070Z","","","","","","MotivationQ","","","","","","","","","","","","","","","","","","","","","","","","","","","","","","","","","","","","","","50",""
"","","","","ctl-task-cpt","50","420964","0.0-10.0-0.1","21","1","2025-07-09 09:06:44","7701e855f2ef39aa3fd6c71abdc6918a","143.117.247.4","Mozilla/5.0 (Windows NT 10.0; Win64; x64) AppleWebKit/537.36 (KHTML, like Gecko) Chrome/138.0.0.0 Safari/537.36 Edg/138.0.0.0","WebKit","Edge","138.0.0.0","Windows","10.0","https://app.prolific.com/","en-GB,en;q=0.9","6658c1554c1d2a4e2d02e301","686d226cabeef709c732f8e1","686e3117babfd8847b5de8e6","6658c1554c1d2a4e2d02e301","2025-07-09T09:13:46.754Z","","","","","","","","","","","","","","","","win-only","2","g1:SE,g2:NW","0.9","2","0","384676.2","1075.3","6076.6","34665.4","1","4","8","6","2","8","7","11","4","0.08333333333333333","942.5","3000","1585","[""left"",""up""]","{""num_key_presses"":6,""num_perfect"":5,""num_errors"":1,""num_randdir"":0,""num_randdir_good_moves"":0,""num_whilered"":0,""num_whileblue"":1,""num_blue"":5,""num_good_moves"":6}","[481.78253589974986,496.6469094390005,0.2,480.74253593789683,496.6469094390005,100.3,480.74253593789683,496.6469094390005,200.4,480.74253593789683,495.6069094771475,301,442.2625373493348,411.3669125670523,408.2,249.86254440652473,190.88692065421046,508.3,222.82254539834602,140.96692248526514,609,193.70254646646126,110.80692359152735,710,148.98254810678108,106.64692374411524,810.5,130.2625487934266,100.40692397299708,915.1,130.2625487934266,100.40692397299708,1015.8,130.2625487934266,100.40692397299708,1116.5,214.5025457035218,133.68692275229395,1225.3,715.782527316681,338.56691523734037,1325.4,1134.902511943451,418.6469123000235,1430.4,1198.3425096164856,441.5269114607901,1535,1197.3025096546326,440.48691149893705,1635.3,1198.3425096164856,436.32691165152494,1735.7,1198.3425096164856,436.32691165152494,1840,1198.3425096164856,436.32691165152494,1942.8,1198.3425096164856,436.32691165152494,2045.4,1198.3425096164856,436.32691165152494,2151.7,1198.3425096164856,436.32691165152494,2259.2,1198.3425096164856,436.32691165152494,2360,1198.3425096164856,436.32691165152494,2465.4,1198.3425096164856,436.32691165152494,2575.6,1198.3425096164856,436.32691165152494,2676.1,1198.3425096164856,436.32691165152494,2780.1,1198.3425096164856,436.32691165152494,2880.2,1198.3425096164856,436.32691165152494,2980.6,1198.3425096164856,436.32691165152494,3085.4,1198.3425096164856,436.32691165152494,3186.5,1198.3425096164856,436.32691165152494,3294.4,1198.3425096164856,436.32691165152494,3395.7,1198.3425096164856,436.32691165152494,3500.8,1198.3425096164856,436.32691165152494,3609.9,1198.3425096164856,436.32691165152494,3715,1198.3425096164856,436.32691165152494,3815.1,1198.3425096164856,436.32691165152494,3915.2,1198.3425096164856,436.32691165152494,4020.7,1198.3425096164856,436.32691165152494,4127.9,1198.3425096164856,436.32691165152494,4228.3,1198.3425096164856,436.32691165152494,4330.6,1198.3425096164856,436.32691165152494,4435,1198.3425096164856,436.32691165152494,4535.1,1198.3425096164856,436.32691165152494,4635.4,1198.3425096164856,436.32691165152494,4743.8,1198.3425096164856,436.32691165152494,4844.3,1198.3425096164856,436.32691165152494,4944.4]","[1326.9,1326.9,1000,0,326.9,""smooth"",""up"",""up"",""good_move"",3334.5,2007.4,1661.8,1327.2,345.5,""while_blue"",""up"",""up"",""good_move"",12678.6,9343.9,2433.4,9917.8,327.4,""smooth"",""up"",""up"",""good_move"",18679,6000.3,2284.7,16044.5,349.8,""smooth"",""left"",""left"",""good_move"",21977.2,3298.1,2936.2,18679.2,361.8,""smooth"",""left"",""left"",""good_move"",28471.2,6493.9,3169.3,24949.3,352.7,""smooth"",""left"",""left"",""good_move""]","","",""
"3778","","<div style=""width:500px;"">
  <p>What determined the result of this run?</p>
  </div>","68","html-slider-response","51","424745","0.0-10.0-1.1","21","1","2025-07-09 09:06:44","7701e855f2ef39aa3fd6c71abdc6918a","143.117.247.4","Mozilla/5.0 (Windows NT 10.0; Win64; x64) AppleWebKit/537.36 (KHTML, like Gecko) Chrome/138.0.0.0 Safari/537.36 Edg/138.0.0.0","WebKit","Edge","138.0.0.0","Windows","10.0","https://app.prolific.com/","en-GB,en;q=0.9","6658c1554c1d2a4e2d02e301","686d226cabeef709c732f8e1","686e3117babfd8847b5de8e6","6658c1554c1d2a4e2d02e301","2025-07-09T09:13:50.535Z","","","","","","AttribQ","","","","","","","","","","","","","","","","","","","","","","","","","","","","","","","","","","","","","","50",""
"2125","","<div style=""width:500px;"">
  <p>How much control did you have over the ball?</p>
  </div>","65","html-slider-response","52","426872","0.0-10.0-2.1","21","1","2025-07-09 09:06:44","7701e855f2ef39aa3fd6c71abdc6918a","143.117.247.4","Mozilla/5.0 (Windows NT 10.0; Win64; x64) AppleWebKit/537.36 (KHTML, like Gecko) Chrome/138.0.0.0 Safari/537.36 Edg/138.0.0.0","WebKit","Edge","138.0.0.0","Windows","10.0","https://app.prolific.com/","en-GB,en;q=0.9","6658c1554c1d2a4e2d02e301","686d226cabeef709c732f8e1","686e3117babfd8847b5de8e6","6658c1554c1d2a4e2d02e301","2025-07-09T09:13:52.662Z","","","","","","ControlQ","","","","","","","","","","","","","","","","","","","","","","","","","","","","","","","","","","","","","","50",""
"2821","","<div style=""width:500px;"">
  <p>How would you describe your current emotional state?</p>
  </div>","50","html-slider-response","53","429695","0.0-10.0-3.1","21","1","2025-07-09 09:06:44","7701e855f2ef39aa3fd6c71abdc6918a","143.117.247.4","Mozilla/5.0 (Windows NT 10.0; Win64; x64) AppleWebKit/537.36 (KHTML, like Gecko) Chrome/138.0.0.0 Safari/537.36 Edg/138.0.0.0","WebKit","Edge","138.0.0.0","Windows","10.0","https://app.prolific.com/","en-GB,en;q=0.9","6658c1554c1d2a4e2d02e301","686d226cabeef709c732f8e1","686e3117babfd8847b5de8e6","6658c1554c1d2a4e2d02e301","2025-07-09T09:13:55.485Z","","","","","","StressQ","","","","","","","","","","","","","","","","","","","","","","","","","","","","","","","","","","","","","","50",""
"3120","","<div style=""width:500px;"">
  <p>What best describes how you currently feel?</p>
  </div>","46","html-slider-response","54","432816","0.0-10.0-4.1","21","1","2025-07-09 09:06:44","7701e855f2ef39aa3fd6c71abdc6918a","143.117.247.4","Mozilla/5.0 (Windows NT 10.0; Win64; x64) AppleWebKit/537.36 (KHTML, like Gecko) Chrome/138.0.0.0 Safari/537.36 Edg/138.0.0.0","WebKit","Edge","138.0.0.0","Windows","10.0","https://app.prolific.com/","en-GB,en;q=0.9","6658c1554c1d2a4e2d02e301","686d226cabeef709c732f8e1","686e3117babfd8847b5de8e6","6658c1554c1d2a4e2d02e301","2025-07-09T09:13:58.606Z","","","","","","MotivationQ","","","","","","","","","","","","","","","","","","","","","","","","","","","","","","","","","","","","","","50",""
"","","","","ctl-task-cpt","55","477911","0.0-10.0-0.2","21","1","2025-07-09 09:06:44","7701e855f2ef39aa3fd6c71abdc6918a","143.117.247.4","Mozilla/5.0 (Windows NT 10.0; Win64; x64) AppleWebKit/537.36 (KHTML, like Gecko) Chrome/138.0.0.0 Safari/537.36 Edg/138.0.0.0","WebKit","Edge","138.0.0.0","Windows","10.0","https://app.prolific.com/","en-GB,en;q=0.9","6658c1554c1d2a4e2d02e301","686d226cabeef709c732f8e1","686e3117babfd8847b5de8e6","6658c1554c1d2a4e2d02e301","2025-07-09T09:14:43.702Z","","","","","","","","","","","","","","","","win-only","0","g1:NW,g2:SE","0.8","3","0","434211.9","920.3","5925.9","42075.2","1","4","4","6","2","4","4","15","11","0.11363636363636363","967.3","3000","545","[""down"",""right""]","{""num_key_presses"":8,""num_perfect"":6,""num_errors"":0,""num_randdir"":2,""num_randdir_good_moves"":1,""num_whilered"":0,""num_whileblue"":0,""num_blue"":4,""num_good_moves"":7}","[490.1025355945741,495.6069094771475,0.2,490.1025355945741,495.6069094771475,101,490.1025355945741,495.6069094771475,205.5,490.1025355945741,495.6069094771475,306.2,563.942532886139,569.4469067687124,419.5,718.9025272022401,751.4469000929922,520.4,776.1025251041566,871.0468957060904,625.3,815.6225236545716,887.6868950957388,726.7,846.8225225101625,893.926894866857,835.8,857.2225221286927,892.8868949050039,940.2,857.2225221286927,892.8868949050039,1040.6,908.1825202594911,860.6468960875601,1141.4,1245.1425078998718,712.9669015044302,1245.1,1317.9425052295837,698.4069020384878,1345.3,1317.9425052295837,693.2069022292227,1445.4,1317.9425052295837,693.2069022292227,1550,1317.9425052295837,693.2069022292227,1654.6,1317.9425052295837,693.2069022292227,1755.1,1317.9425052295837,693.2069022292227,1855.4,1317.9425052295837,693.2069022292227,1956,1317.9425052295837,693.2069022292227,2060.7,1317.9425052295837,693.2069022292227,2169.4,1317.9425052295837,693.2069022292227,2270.5,1317.9425052295837,693.2069022292227,2370.8,1317.9425052295837,693.2069022292227,2476.3,1317.9425052295837,693.2069022292227,2581.6,1317.9425052295837,693.2069022292227,2685,1317.9425052295837,693.2069022292227,2785,1317.9425052295837,693.2069022292227,2885.5,1317.9425052295837,693.2069022292227,2990.1,1317.9425052295837,693.2069022292227,3090.4,1317.9425052295837,693.2069022292227,3192.2,1317.9425052295837,693.2069022292227,3295,1317.9425052295837,693.2069022292227,3404.4,1317.9425052295837,693.2069022292227,3505,1317.9425052295837,693.2069022292227,3605,1317.9425052295837,693.2069022292227,3710.8,1317.9425052295837,693.2069022292227,3810.8,1317.9425052295837,693.2069022292227,3915,1317.9425052295837,693.2069022292227,4015.3,1317.9425052295837,693.2069022292227,4120.8,1317.9425052295837,693.2069022292227,4225.1,1317.9425052295837,693.2069022292227,4325.3,1317.9425052295837,693.2069022292227,4425.6,1317.9425052295837,693.2069022292227,4538.4,1317.9425052295837,693.2069022292227,4638.6,1317.9425052295837,693.2069022292227,4738.8,1317.9425052295837,693.2069022292227,4840.4,1317.9425052295837,693.2069022292227,4940.6]","[1334.3,1334.3,1000,0,334.4,""oops"",""down"",""left"",""bad_move"",8072,6737.3,2698.9,5090,283.1,""smooth"",""down"",""down"",""good_move"",11209,3136.7,2773.7,8072.3,363,""smooth"",""down"",""down"",""good_move"",14430.1,3220.9,2739.8,11209.2,481.1,""oops"",""down"",""down"",""good_move"",23766,9335.8,2252.8,21144.8,368.4,""smooth"",""right"",""right"",""good_move"",26437.6,2671.3,2236.4,23766.3,434.9,""smooth"",""right"",""right"",""good_move"",32597.4,6159.7,2452.4,29729.4,415.6,""smooth"",""right"",""right"",""good_move"",36037.6,3440.1,3021.2,32597.5,418.9,""smooth"",""right"",""right"",""good_move""]","","",""
"2620","","<div style=""width:500px;"">
  <p>What determined the result of this run?</p>
  </div>","61","html-slider-response","56","480535","0.0-10.0-1.2","21","1","2025-07-09 09:06:44","7701e855f2ef39aa3fd6c71abdc6918a","143.117.247.4","Mozilla/5.0 (Windows NT 10.0; Win64; x64) AppleWebKit/537.36 (KHTML, like Gecko) Chrome/138.0.0.0 Safari/537.36 Edg/138.0.0.0","WebKit","Edge","138.0.0.0","Windows","10.0","https://app.prolific.com/","en-GB,en;q=0.9","6658c1554c1d2a4e2d02e301","686d226cabeef709c732f8e1","686e3117babfd8847b5de8e6","6658c1554c1d2a4e2d02e301","2025-07-09T09:14:46.325Z","","","","","","AttribQ","","","","","","","","","","","","","","","","","","","","","","","","","","","","","","","","","","","","","","50",""
"2239","","<div style=""width:500px;"">
  <p>How much control did you have over the ball?</p>
  </div>","68","html-slider-response","57","482775","0.0-10.0-2.2","21","1","2025-07-09 09:06:44","7701e855f2ef39aa3fd6c71abdc6918a","143.117.247.4","Mozilla/5.0 (Windows NT 10.0; Win64; x64) AppleWebKit/537.36 (KHTML, like Gecko) Chrome/138.0.0.0 Safari/537.36 Edg/138.0.0.0","WebKit","Edge","138.0.0.0","Windows","10.0","https://app.prolific.com/","en-GB,en;q=0.9","6658c1554c1d2a4e2d02e301","686d226cabeef709c732f8e1","686e3117babfd8847b5de8e6","6658c1554c1d2a4e2d02e301","2025-07-09T09:14:48.565Z","","","","","","ControlQ","","","","","","","","","","","","","","","","","","","","","","","","","","","","","","","","","","","","","","50",""
"1910","","<div style=""width:500px;"">
  <p>How would you describe your current emotional state?</p>
  </div>","60","html-slider-response","58","484687","0.0-10.0-3.2","21","1","2025-07-09 09:06:44","7701e855f2ef39aa3fd6c71abdc6918a","143.117.247.4","Mozilla/5.0 (Windows NT 10.0; Win64; x64) AppleWebKit/537.36 (KHTML, like Gecko) Chrome/138.0.0.0 Safari/537.36 Edg/138.0.0.0","WebKit","Edge","138.0.0.0","Windows","10.0","https://app.prolific.com/","en-GB,en;q=0.9","6658c1554c1d2a4e2d02e301","686d226cabeef709c732f8e1","686e3117babfd8847b5de8e6","6658c1554c1d2a4e2d02e301","2025-07-09T09:14:50.477Z","","","","","","StressQ","","","","","","","","","","","","","","","","","","","","","","","","","","","","","","","","","","","","","","50",""
"2872","","<div style=""width:500px;"">
  <p>What best describes how you currently feel?</p>
  </div>","54","html-slider-response","59","487561","0.0-10.0-4.2","21","1","2025-07-09 09:06:44","7701e855f2ef39aa3fd6c71abdc6918a","143.117.247.4","Mozilla/5.0 (Windows NT 10.0; Win64; x64) AppleWebKit/537.36 (KHTML, like Gecko) Chrome/138.0.0.0 Safari/537.36 Edg/138.0.0.0","WebKit","Edge","138.0.0.0","Windows","10.0","https://app.prolific.com/","en-GB,en;q=0.9","6658c1554c1d2a4e2d02e301","686d226cabeef709c732f8e1","686e3117babfd8847b5de8e6","6658c1554c1d2a4e2d02e301","2025-07-09T09:14:53.351Z","","","","","","MotivationQ","","","","","","","","","","","","","","","","","","","","","","","","","","","","","","","","","","","","","","50",""
"","","","","ctl-task-cpt","60","519746","0.0-10.0-0.3","21","1","2025-07-09 09:06:44","7701e855f2ef39aa3fd6c71abdc6918a","143.117.247.4","Mozilla/5.0 (Windows NT 10.0; Win64; x64) AppleWebKit/537.36 (KHTML, like Gecko) Chrome/138.0.0.0 Safari/537.36 Edg/138.0.0.0","WebKit","Edge","138.0.0.0","Windows","10.0","https://app.prolific.com/","en-GB,en;q=0.9","6658c1554c1d2a4e2d02e301","686d226cabeef709c732f8e1","686e3117babfd8847b5de8e6","6658c1554c1d2a4e2d02e301","2025-07-09T09:15:25.536Z","","","","","","","","","","","","","","","","win-only","1","g1:NE,g2:SW","0.7","4","0","488957","874.4","5875.7","29165.2","1","4","8","6","2","8","8","23","15","0.17424242424242425","1214.3","3000","1235","[""down"",""left""]","{""num_key_presses"":6,""num_perfect"":5,""num_errors"":0,""num_randdir"":1,""num_randdir_good_moves"":1,""num_whilered"":0,""num_whileblue"":0,""num_blue"":2,""num_good_moves"":6}","[492.18253551828013,480.0069100493521,0.2,492.18253551828013,480.0069100493521,101.2,492.18253551828013,480.0069100493521,201.2,492.18253551828013,480.0069100493521,306.4,495.3025354038392,480.0069100493521,415.3,526.50253425943,488.3269097441763,515.7,538.9825338016664,517.4469086760611,616.2,310.18254219400035,671.3669030303091,720.7,92.8225501667176,957.3668925398916,820.8,56.42255150186165,1003.1268908614248,921.6,76.18255077706917,942.8068930739493,1026.6,98.02254997598274,866.8868958586783,1126.7,98.02254997598274,866.8868958586783,1231.5,98.02254997598274,866.8868958586783,1335.9,246.74254452096565,859.6068961257071,1450,907.142520297638,748.3269002074331,1550.4,1190.0225099216614,674.4869029158682,1650.7,1190.0225099216614,674.4869029158682,1751.7,1198.3425096164856,671.3669030303091,1856.2,1198.3425096164856,671.3669030303091,1966.3,1198.3425096164856,671.3669030303091,2070.7,1198.3425096164856,671.3669030303091,2172.3,1198.3425096164856,671.3669030303091,2272.5,1198.3425096164856,671.3669030303091,2376,1198.3425096164856,671.3669030303091,2476.3,1198.3425096164856,671.3669030303091,2584.1,1198.3425096164856,671.3669030303091,2686.3,1198.3425096164856,671.3669030303091,2790.7,1198.3425096164856,671.3669030303091,2900.4,1198.3425096164856,671.3669030303091,3000.7,1198.3425096164856,671.3669030303091,3100.8,1198.3425096164856,671.3669030303091,3205.8,1198.3425096164856,671.3669030303091,3305.8,1198.3425096164856,671.3669030303091,3406.6,1198.3425096164856,671.3669030303091,3516.4,1198.3425096164856,671.3669030303091,3618.5,1198.3425096164856,671.3669030303091,3721,1198.3425096164856,671.3669030303091,3825.9,1198.3425096164856,671.3669030303091,3925.9,1198.3425096164856,671.3669030303091,4026.2,1198.3425096164856,671.3669030303091,4126.3,1198.3425096164856,671.3669030303091,4226.3,1198.3425096164856,671.3669030303091,4335.1,1198.3425096164856,671.3669030303091,4435.3,1198.3425096164856,671.3669030303091,4536,1198.3425096164856,671.3669030303091,4636.6,1198.3425096164856,671.3669030303091,4741.4,1198.3425096164856,671.3669030303091,4850.5,1198.3425096164856,671.3669030303091,4951]","[1375.4,1375.4,1000,0,375.4,""smooth"",""down"",""down"",""good_move"",4887.4,3511.7,3158.7,1375.8,352.9,""smooth"",""down"",""down"",""good_move"",10492.3,5604.7,1751.8,8375.2,365.3,""smooth"",""down"",""down"",""good_move"",17366.4,6874,2931.7,14064.9,369.8,""smooth"",""left"",""left"",""good_move"",20654.5,3287.9,2793.3,17366.6,494.6,""oops"",""left"",""left"",""good_move"",23184.2,2529.4,2190.2,20654.8,339.2,""smooth"",""left"",""left"",""good_move""]","","",""
"2690","","<div style=""width:500px;"">
  <p>What determined the result of this run?</p>
  </div>","66","html-slider-response","61","522439","0.0-10.0-1.3","21","1","2025-07-09 09:06:44","7701e855f2ef39aa3fd6c71abdc6918a","143.117.247.4","Mozilla/5.0 (Windows NT 10.0; Win64; x64) AppleWebKit/537.36 (KHTML, like Gecko) Chrome/138.0.0.0 Safari/537.36 Edg/138.0.0.0","WebKit","Edge","138.0.0.0","Windows","10.0","https://app.prolific.com/","en-GB,en;q=0.9","6658c1554c1d2a4e2d02e301","686d226cabeef709c732f8e1","686e3117babfd8847b5de8e6","6658c1554c1d2a4e2d02e301","2025-07-09T09:15:28.229Z","","","","","","AttribQ","","","","","","","","","","","","","","","","","","","","","","","","","","","","","","","","","","","","","","50",""
"2136","","<div style=""width:500px;"">
  <p>How much control did you have over the ball?</p>
  </div>","66","html-slider-response","62","524577","0.0-10.0-2.3","21","1","2025-07-09 09:06:44","7701e855f2ef39aa3fd6c71abdc6918a","143.117.247.4","Mozilla/5.0 (Windows NT 10.0; Win64; x64) AppleWebKit/537.36 (KHTML, like Gecko) Chrome/138.0.0.0 Safari/537.36 Edg/138.0.0.0","WebKit","Edge","138.0.0.0","Windows","10.0","https://app.prolific.com/","en-GB,en;q=0.9","6658c1554c1d2a4e2d02e301","686d226cabeef709c732f8e1","686e3117babfd8847b5de8e6","6658c1554c1d2a4e2d02e301","2025-07-09T09:15:30.367Z","","","","","","ControlQ","","","","","","","","","","","","","","","","","","","","","","","","","","","","","","","","","","","","","","50",""
"2060","","<div style=""width:500px;"">
  <p>How would you describe your current emotional state?</p>
  </div>","57","html-slider-response","63","526638","0.0-10.0-3.3","21","1","2025-07-09 09:06:44","7701e855f2ef39aa3fd6c71abdc6918a","143.117.247.4","Mozilla/5.0 (Windows NT 10.0; Win64; x64) AppleWebKit/537.36 (KHTML, like Gecko) Chrome/138.0.0.0 Safari/537.36 Edg/138.0.0.0","WebKit","Edge","138.0.0.0","Windows","10.0","https://app.prolific.com/","en-GB,en;q=0.9","6658c1554c1d2a4e2d02e301","686d226cabeef709c732f8e1","686e3117babfd8847b5de8e6","6658c1554c1d2a4e2d02e301","2025-07-09T09:15:32.429Z","","","","","","StressQ","","","","","","","","","","","","","","","","","","","","","","","","","","","","","","","","","","","","","","50",""
"1743","","<div style=""width:500px;"">
  <p>What best describes how you currently feel?</p>
  </div>","58","html-slider-response","64","528383","0.0-10.0-4.3","21","1","2025-07-09 09:06:44","7701e855f2ef39aa3fd6c71abdc6918a","143.117.247.4","Mozilla/5.0 (Windows NT 10.0; Win64; x64) AppleWebKit/537.36 (KHTML, like Gecko) Chrome/138.0.0.0 Safari/537.36 Edg/138.0.0.0","WebKit","Edge","138.0.0.0","Windows","10.0","https://app.prolific.com/","en-GB,en;q=0.9","6658c1554c1d2a4e2d02e301","686d226cabeef709c732f8e1","686e3117babfd8847b5de8e6","6658c1554c1d2a4e2d02e301","2025-07-09T09:15:34.173Z","","","","","","MotivationQ","","","","","","","","","","","","","","","","","","","","","","","","","","","","","","","","","","","","","","50",""
"","","","","ctl-task-cpt","65","562507","0.0-10.0-0.4","21","1","2025-07-09 09:06:44","7701e855f2ef39aa3fd6c71abdc6918a","143.117.247.4","Mozilla/5.0 (Windows NT 10.0; Win64; x64) AppleWebKit/537.36 (KHTML, like Gecko) Chrome/138.0.0.0 Safari/537.36 Edg/138.0.0.0","WebKit","Edge","138.0.0.0","Windows","10.0","https://app.prolific.com/","en-GB,en;q=0.9","6658c1554c1d2a4e2d02e301","686d226cabeef709c732f8e1","686e3117babfd8847b5de8e6","6658c1554c1d2a4e2d02e301","2025-07-09T09:16:08.297Z","","","","","","","","","","","","","","","","win-only","0","g1:NW,g2:SE","0.6","5","0","529778.1","1032","6040.6","31095.5","1","4","8","6","2","8","8","31","23","0.23484848484848486","989.1","3000","1030","[""down"",""right""]","{""num_key_presses"":8,""num_perfect"":6,""num_errors"":0,""num_randdir"":2,""num_randdir_good_moves"":1,""num_whilered"":0,""num_whileblue"":0,""num_blue"":1,""num_good_moves"":7}","[501.5425351749574,493.52690955344144,0.3,501.5425351749574,493.52690955344144,103.3,501.5425351749574,493.52690955344144,204,501.5425351749574,493.52690955344144,309.3,501.5425351749574,493.52690955344144,423.2,510.9025348316346,515.366908752355,524,794.8225244175111,868.9668957823843,629.1,849.9425223957215,929.2868935698599,733.5,884.2625211368714,942.8068930739493,834,896.7425206791078,910.5668942565054,938.3,896.7425206791078,910.5668942565054,1057.9,896.7425206791078,910.5668942565054,1158.1,1155.7025111805115,803.4468981856436,1258.4,1286.742506373993,750.4069001311392,1360,1287.782506335846,749.3669001692862,1460.2,1287.782506335846,749.3669001692862,1573.7,1287.782506335846,749.3669001692862,1679.1,1287.782506335846,749.3669001692862,1785,1287.782506335846,749.3669001692862,1888.6,1287.782506335846,749.3669001692862,1989.3,1287.782506335846,749.3669001692862,2094.2,1287.782506335846,749.3669001692862,2207.5,1287.782506335846,749.3669001692862,2308.4,1287.782506335846,749.3669001692862,2408.6,1287.782506335846,749.3669001692862,2509.3,1287.782506335846,749.3669001692862,2613.5,1287.782506335846,749.3669001692862,2713.7,1287.782506335846,749.3669001692862,2823.7,1287.782506335846,749.3669001692862,2923.7,1287.782506335846,749.3669001692862,3039.7,1287.782506335846,749.3669001692862,3142,1287.782506335846,749.3669001692862,3243.6,1287.782506335846,749.3669001692862,3358,1287.782506335846,749.3669001692862,3458.1,1287.782506335846,749.3669001692862,3559.2,1287.782506335846,749.3669001692862,3664.1,1287.782506335846,749.3669001692862,3769,1287.782506335846,749.3669001692862,3869.4,1287.782506335846,749.3669001692862,3973.5,1287.782506335846,749.3669001692862,4078.3,1287.782506335846,749.3669001692862,4179.6,1287.782506335846,749.3669001692862,4292.6,1287.782506335846,749.3669001692862,4392.6,1287.782506335846,749.3669001692862,4494.1,1287.782506335846,749.3669001692862,4598.4,1287.782506335846,749.3669001692862,4698.4,1287.782506335846,749.3669001692862,4798.8,1287.782506335846,749.3669001692862,4907.6]","[1341.5,1341.5,1000,0,341.5,""smooth"",""down"",""down"",""good_move"",4284.9,2943.2,2596,1341.7,347.2,""smooth"",""down"",""down"",""good_move"",6951.6,2666.5,2348.9,4285.1,317.6,""oops"",""down"",""left"",""bad_move"",9149.9,2198.1,1852.6,6951.8,345.5,""smooth"",""down"",""down"",""good_move"",11877.7,2727.7,2357.8,9150,369.9,""smooth"",""right"",""right"",""good_move"",15396.6,3518.7,3212.3,11877.9,306.4,""smooth"",""right"",""right"",""good_move"",22420.5,7023.5,2605,19450.8,364.7,""oops"",""right"",""right"",""good_move"",24940.5,2520,2204.3,22420.5,315.7,""smooth"",""right"",""right"",""good_move""]","","",""
"30978","","<div style=""width:500px;"">
  <p>What determined the result of this run?</p>
  </div>","58","html-slider-response","66","593494","0.0-10.0-1.4","21","1","2025-07-09 09:06:44","7701e855f2ef39aa3fd6c71abdc6918a","143.117.247.4","Mozilla/5.0 (Windows NT 10.0; Win64; x64) AppleWebKit/537.36 (KHTML, like Gecko) Chrome/138.0.0.0 Safari/537.36 Edg/138.0.0.0","WebKit","Edge","138.0.0.0","Windows","10.0","https://app.prolific.com/","en-GB,en;q=0.9","6658c1554c1d2a4e2d02e301","686d226cabeef709c732f8e1","686e3117babfd8847b5de8e6","6658c1554c1d2a4e2d02e301","2025-07-09T09:16:39.285Z","","","","","","AttribQ","","","","","","","","","","","","","","","","","","","","","","","","","","","","","","","","","","","","","","50",""
"1575","","<div style=""width:500px;"">
  <p>How much control did you have over the ball?</p>
  </div>","59","html-slider-response","67","595073","0.0-10.0-2.4","21","1","2025-07-09 09:06:44","7701e855f2ef39aa3fd6c71abdc6918a","143.117.247.4","Mozilla/5.0 (Windows NT 10.0; Win64; x64) AppleWebKit/537.36 (KHTML, like Gecko) Chrome/138.0.0.0 Safari/537.36 Edg/138.0.0.0","WebKit","Edge","138.0.0.0","Windows","10.0","https://app.prolific.com/","en-GB,en;q=0.9","6658c1554c1d2a4e2d02e301","686d226cabeef709c732f8e1","686e3117babfd8847b5de8e6","6658c1554c1d2a4e2d02e301","2025-07-09T09:16:40.863Z","","","","","","ControlQ","","","","","","","","","","","","","","","","","","","","","","","","","","","","","","","","","","","","","","50",""
"2061","","<div style=""width:500px;"">
  <p>How would you describe your current emotional state?</p>
  </div>","61","html-slider-response","68","597135","0.0-10.0-3.4","21","1","2025-07-09 09:06:44","7701e855f2ef39aa3fd6c71abdc6918a","143.117.247.4","Mozilla/5.0 (Windows NT 10.0; Win64; x64) AppleWebKit/537.36 (KHTML, like Gecko) Chrome/138.0.0.0 Safari/537.36 Edg/138.0.0.0","WebKit","Edge","138.0.0.0","Windows","10.0","https://app.prolific.com/","en-GB,en;q=0.9","6658c1554c1d2a4e2d02e301","686d226cabeef709c732f8e1","686e3117babfd8847b5de8e6","6658c1554c1d2a4e2d02e301","2025-07-09T09:16:42.925Z","","","","","","StressQ","","","","","","","","","","","","","","","","","","","","","","","","","","","","","","","","","","","","","","50",""
"1848","","<div style=""width:500px;"">
  <p>What best describes how you currently feel?</p>
  </div>","43","html-slider-response","69","598985","0.0-10.0-4.4","21","1","2025-07-09 09:06:44","7701e855f2ef39aa3fd6c71abdc6918a","143.117.247.4","Mozilla/5.0 (Windows NT 10.0; Win64; x64) AppleWebKit/537.36 (KHTML, like Gecko) Chrome/138.0.0.0 Safari/537.36 Edg/138.0.0.0","WebKit","Edge","138.0.0.0","Windows","10.0","https://app.prolific.com/","en-GB,en;q=0.9","6658c1554c1d2a4e2d02e301","686d226cabeef709c732f8e1","686e3117babfd8847b5de8e6","6658c1554c1d2a4e2d02e301","2025-07-09T09:16:44.776Z","","","","","","MotivationQ","","","","","","","","","","","","","","","","","","","","","","","","","","","","","","","","","","","","","","50",""
"","","","","ctl-task-cpt","70","650991","0.0-10.0-0.5","21","1","2025-07-09 09:06:44","7701e855f2ef39aa3fd6c71abdc6918a","143.117.247.4","Mozilla/5.0 (Windows NT 10.0; Win64; x64) AppleWebKit/537.36 (KHTML, like Gecko) Chrome/138.0.0.0 Safari/537.36 Edg/138.0.0.0","WebKit","Edge","138.0.0.0","Windows","10.0","https://app.prolific.com/","en-GB,en;q=0.9","6658c1554c1d2a4e2d02e301","686d226cabeef709c732f8e1","686e3117babfd8847b5de8e6","6658c1554c1d2a4e2d02e301","2025-07-09T09:17:36.781Z","","","","","","","","","","","","","","","","win-only","0","g1:NW,g2:SE","0.5","6","0","600383.4","851.8","5856.5","48981.3","1","4","4","6","2","-4","-4","27","31","0.20454545454545456","955.9","3000","-2095","[""down"",""right""]","{""num_key_presses"":13,""num_perfect"":6,""num_errors"":0,""num_randdir"":7,""num_randdir_good_moves"":3,""num_whilered"":0,""num_whileblue"":0,""num_blue"":2,""num_good_moves"":9}","[490.1025355945741,485.2069098586172,0.3,490.1025355945741,485.2069098586172,104.2,529.6225341449891,504.96690913382474,208.5,756.3425258289491,535.1269080275625,308.6,771.9425252567445,535.1269080275625,409.6,793.7825244556581,638.0869042510122,509.7,934.1825193058168,809.6868979567618,622.7,964.3425181995545,867.9268958205313,724.4,961.2225183139955,889.7668950194449,828.9,952.9025186191712,893.926894866857,933.6,952.9025186191712,893.926894866857,1034.8,966.4225181232606,887.6868950957388,1139.7,1237.8625081669006,808.6468979949087,1256.9,1237.8625081669006,808.6468979949087,1359.4,1237.8625081669006,808.6468979949087,1459.9,1237.8625081669006,808.6468979949087,1563.8,1237.8625081669006,808.6468979949087,1664.3,1237.8625081669006,808.6468979949087,1769.2,1237.8625081669006,808.6468979949087,1870,1237.8625081669006,808.6468979949087,1973.9,1237.8625081669006,808.6468979949087,2074.8,1237.8625081669006,808.6468979949087,2189.9,1237.8625081669006,808.6468979949087,2289.9,1237.8625081669006,808.6468979949087,2390.4,1237.8625081669006,808.6468979949087,2490.4,1237.8625081669006,808.6468979949087,2594.5,1237.8625081669006,808.6468979949087,2699.8,1237.8625081669006,808.6468979949087,2803.7,1237.8625081669006,808.6468979949087,2909.8,1237.8625081669006,808.6468979949087,3025,1237.8625081669006,808.6468979949087,3129.8,1237.8625081669006,808.6468979949087,3233.5,1237.8625081669006,808.6468979949087,3334.8,1237.8625081669006,808.6468979949087,3435.5,1237.8625081669006,808.6468979949087,3537.2,1237.8625081669006,808.6468979949087,3639.3,1237.8625081669006,808.6468979949087,3739.7,1237.8625081669006,808.6468979949087,3840.2,1237.8625081669006,808.6468979949087,3943.4,1237.8625081669006,808.6468979949087,4043.7,1237.8625081669006,808.6468979949087,4144,1237.8625081669006,808.6468979949087,4245.1,1237.8625081669006,808.6468979949087,4359.3,1237.8625081669006,808.6468979949087,4459.4,1237.8625081669006,808.6468979949087,4559.6,1237.8625081669006,808.6468979949087,4659.8,1237.8625081669006,808.6468979949087,4760.2,1237.8625081669006,808.6468979949087,4864.7,1237.8625081669006,808.6468979949087,4969.8]","[4823.2,4823.2,2471,2009.4,342.8,""smooth"",""down"",""down"",""good_move"",7077.5,2254.1,1870.3,4823.4,383.8,""oops"",""down"",""up"",""bad_move"",9729.7,2652,2301.8,7077.7,350.2,""smooth"",""down"",""down"",""good_move"",12311.3,2581.4,2271.9,9729.9,309.5,""oops"",""down"",""left"",""bad_move"",18469.1,6157.6,2594.6,15563.8,310.7,""oops"",""down"",""right"",""good_move"",21254.9,2785.6,2455.4,18469.3,330.2,""smooth"",""down"",""down"",""good_move"",24016.9,2761.9,2444.7,21255.1,317.2,""oops"",""down"",""up"",""bad_move"",26623.6,2605.7,2290.7,24017.9,315,""smooth"",""down"",""down"",""good_move"",29119.1,2495.3,2175,26623.8,320.3,""smooth"",""down"",""down"",""good_move"",31239.6,2120.3,1777.7,29119.3,342.6,""oops"",""right"",""up"",""bad_move"",34550.1,3310.3,2988,31239.8,322.3,""oops"",""right"",""down"",""good_move"",37536.8,2986.6,2697.9,34550.2,288.7,""smooth"",""right"",""right"",""good_move"",40053.9,2516.9,2208.5,37537,308.4,""oops"",""right"",""right"",""good_move""]","","",""
"3839","","<div style=""width:500px;"">
  <p>What determined the result of this run?</p>
  </div>","32","html-slider-response","71","654833","0.0-10.0-1.5","21","1","2025-07-09 09:06:44","7701e855f2ef39aa3fd6c71abdc6918a","143.117.247.4","Mozilla/5.0 (Windows NT 10.0; Win64; x64) AppleWebKit/537.36 (KHTML, like Gecko) Chrome/138.0.0.0 Safari/537.36 Edg/138.0.0.0","WebKit","Edge","138.0.0.0","Windows","10.0","https://app.prolific.com/","en-GB,en;q=0.9","6658c1554c1d2a4e2d02e301","686d226cabeef709c732f8e1","686e3117babfd8847b5de8e6","6658c1554c1d2a4e2d02e301","2025-07-09T09:17:40.623Z","","","","","","AttribQ","","","","","","","","","","","","","","","","","","","","","","","","","","","","","","","","","","","","","","50",""
"2572","","<div style=""width:500px;"">
  <p>How much control did you have over the ball?</p>
  </div>","22","html-slider-response","72","657406","0.0-10.0-2.5","21","1","2025-07-09 09:06:44","7701e855f2ef39aa3fd6c71abdc6918a","143.117.247.4","Mozilla/5.0 (Windows NT 10.0; Win64; x64) AppleWebKit/537.36 (KHTML, like Gecko) Chrome/138.0.0.0 Safari/537.36 Edg/138.0.0.0","WebKit","Edge","138.0.0.0","Windows","10.0","https://app.prolific.com/","en-GB,en;q=0.9","6658c1554c1d2a4e2d02e301","686d226cabeef709c732f8e1","686e3117babfd8847b5de8e6","6658c1554c1d2a4e2d02e301","2025-07-09T09:17:43.196Z","","","","","","ControlQ","","","","","","","","","","","","","","","","","","","","","","","","","","","","","","","","","","","","","","50",""
"2257","","<div style=""width:500px;"">
  <p>How would you describe your current emotional state?</p>
  </div>","66","html-slider-response","73","659664","0.0-10.0-3.5","21","1","2025-07-09 09:06:44","7701e855f2ef39aa3fd6c71abdc6918a","143.117.247.4","Mozilla/5.0 (Windows NT 10.0; Win64; x64) AppleWebKit/537.36 (KHTML, like Gecko) Chrome/138.0.0.0 Safari/537.36 Edg/138.0.0.0","WebKit","Edge","138.0.0.0","Windows","10.0","https://app.prolific.com/","en-GB,en;q=0.9","6658c1554c1d2a4e2d02e301","686d226cabeef709c732f8e1","686e3117babfd8847b5de8e6","6658c1554c1d2a4e2d02e301","2025-07-09T09:17:45.455Z","","","","","","StressQ","","","","","","","","","","","","","","","","","","","","","","","","","","","","","","","","","","","","","","50",""
"1566","","<div style=""width:500px;"">
  <p>What best describes how you currently feel?</p>
  </div>","37","html-slider-response","74","661234","0.0-10.0-4.5","21","1","2025-07-09 09:06:44","7701e855f2ef39aa3fd6c71abdc6918a","143.117.247.4","Mozilla/5.0 (Windows NT 10.0; Win64; x64) AppleWebKit/537.36 (KHTML, like Gecko) Chrome/138.0.0.0 Safari/537.36 Edg/138.0.0.0","WebKit","Edge","138.0.0.0","Windows","10.0","https://app.prolific.com/","en-GB,en;q=0.9","6658c1554c1d2a4e2d02e301","686d226cabeef709c732f8e1","686e3117babfd8847b5de8e6","6658c1554c1d2a4e2d02e301","2025-07-09T09:17:47.024Z","","","","","","MotivationQ","","","","","","","","","","","","","","","","","","","","","","","","","","","","","","","","","","","","","","50",""
"","","","","ctl-task-cpt","75","708455","0.0-10.0-0.6","21","1","2025-07-09 09:06:44","7701e855f2ef39aa3fd6c71abdc6918a","143.117.247.4","Mozilla/5.0 (Windows NT 10.0; Win64; x64) AppleWebKit/537.36 (KHTML, like Gecko) Chrome/138.0.0.0 Safari/537.36 Edg/138.0.0.0","WebKit","Edge","138.0.0.0","Windows","10.0","https://app.prolific.com/","en-GB,en;q=0.9","6658c1554c1d2a4e2d02e301","686d226cabeef709c732f8e1","686e3117babfd8847b5de8e6","6658c1554c1d2a4e2d02e301","2025-07-09T09:18:34.245Z","","","","","","","","","","","","","","","","win-only","2","g1:SE,g2:NW","0.4","7","0","662630.1","832.4","5832.9","44200.7","1","4","8","6","2","8","8","35","27","0.26515151515151514","1028.1","3000","275","[""left"",""up""]","{""num_key_presses"":12,""num_perfect"":6,""num_errors"":0,""num_randdir"":6,""num_randdir_good_moves"":3,""num_whilered"":0,""num_whileblue"":0,""num_blue"":2,""num_good_moves"":9}","[491.1425355564271,490.40690966788236,0.1,491.1425355564271,490.40690966788236,103.6,492.18253551828013,489.36690970602933,203.6,504.66253506051646,466.48691054526273,304.7,411.062538493744,386.4069134825796,408.2,107.38254963265999,256.4069182509512,514.4,80.34255062448128,162.80692168417872,615.3,60.58255134927376,75.44692488852442,731.1,60.58255134927376,74.4069249266714,833.5,60.58255134927376,74.4069249266714,938.6,60.58255134927376,74.4069249266714,1038.8,60.58255134927376,74.4069249266714,1140,60.58255134927376,74.4069249266714,1243.2,590.9825318943177,314.64691611472074,1344.1,1110.9825128208313,564.2469069594473,1448.1,1127.6225122104797,573.6069066161245,1548.7,1127.6225122104797,573.6069066161245,1666.2,1127.6225122104797,573.6069066161245,1768.5,1127.6225122104797,573.6069066161245,1876.5,1127.6225122104797,573.6069066161245,1977.9,1127.6225122104797,573.6069066161245,2078.7,1127.6225122104797,573.6069066161245,2183.1,1127.6225122104797,573.6069066161245,2283.1,1127.6225122104797,573.6069066161245,2398.8,1127.6225122104797,573.6069066161245,2499,1127.6225122104797,573.6069066161245,2599.2,1127.6225122104797,573.6069066161245,2699.4,1127.6225122104797,573.6069066161245,2799.6,1127.6225122104797,573.6069066161245,2903.2,1127.6225122104797,573.6069066161245,3003.4,1127.6225122104797,573.6069066161245,3108.2,1127.6225122104797,573.6069066161245,3208.2,1127.6225122104797,573.6069066161245,3313.3,1127.6225122104797,573.6069066161245,3419.2,1127.6225122104797,573.6069066161245,3519.6,1127.6225122104797,573.6069066161245,3635.4,1127.6225122104797,573.6069066161245,3738.3,1127.6225122104797,573.6069066161245,3838.5,1127.6225122104797,573.6069066161245,3943.2,1127.6225122104797,573.6069066161245,4043.4,1127.6225122104797,573.6069066161245,4143.7,1127.6225122104797,573.6069066161245,4245,1127.6225122104797,573.6069066161245,4349.6,1127.6225122104797,573.6069066161245,4465.8,1127.6225122104797,573.6069066161245,4568.1,1127.6225122104797,573.6069066161245,4668.6,1127.6225122104797,573.6069066161245,4773,1127.6225122104797,573.6069066161245,4873.1,1127.6225122104797,573.6069066161245,4973.3]","[4281.7,4281.7,1909.7,2003.8,368.2,""smooth"",""up"",""up"",""good_move"",7951.4,3669.4,3332.5,4282,336.9,""oops"",""up"",""down"",""bad_move"",10671.8,2720.1,2400.9,7951.7,319.2,""oops"",""up"",""up"",""good_move"",16392.6,5720.6,2031.5,14053.1,308,""oops"",""up"",""left"",""good_move"",19063.6,2670.8,2305.7,16392.9,365.1,""smooth"",""up"",""up"",""good_move"",22204.4,3140.6,2801.6,19063.8,339,""oops"",""up"",""down"",""bad_move"",25136.1,2931.4,2608.6,22204.7,322.8,""smooth"",""up"",""up"",""good_move"",27896.7,2760.5,2483,25136.2,277.5,""oops"",""up"",""left"",""good_move"",30575.7,2678.8,2352.2,27896.9,326.6,""smooth"",""up"",""up"",""good_move"",33159.6,2583.7,2261.4,30575.9,322.3,""oops"",""left"",""right"",""bad_move"",35487.8,2328,2005.2,33159.8,322.8,""smooth"",""left"",""left"",""good_move"",38262.8,2774.8,2362.4,35488,412.4,""smooth"",""left"",""left"",""good_move""]","","",""
"2958","","<div style=""width:500px;"">
  <p>What determined the result of this run?</p>
  </div>","31","html-slider-response","76","711414","0.0-10.0-1.6","21","1","2025-07-09 09:06:44","7701e855f2ef39aa3fd6c71abdc6918a","143.117.247.4","Mozilla/5.0 (Windows NT 10.0; Win64; x64) AppleWebKit/537.36 (KHTML, like Gecko) Chrome/138.0.0.0 Safari/537.36 Edg/138.0.0.0","WebKit","Edge","138.0.0.0","Windows","10.0","https://app.prolific.com/","en-GB,en;q=0.9","6658c1554c1d2a4e2d02e301","686d226cabeef709c732f8e1","686e3117babfd8847b5de8e6","6658c1554c1d2a4e2d02e301","2025-07-09T09:18:37.205Z","","","","","","AttribQ","","","","","","","","","","","","","","","","","","","","","","","","","","","","","","","","","","","","","","50",""
"1664","","<div style=""width:500px;"">
  <p>How much control did you have over the ball?</p>
  </div>","36","html-slider-response","77","713080","0.0-10.0-2.6","21","1","2025-07-09 09:06:44","7701e855f2ef39aa3fd6c71abdc6918a","143.117.247.4","Mozilla/5.0 (Windows NT 10.0; Win64; x64) AppleWebKit/537.36 (KHTML, like Gecko) Chrome/138.0.0.0 Safari/537.36 Edg/138.0.0.0","WebKit","Edge","138.0.0.0","Windows","10.0","https://app.prolific.com/","en-GB,en;q=0.9","6658c1554c1d2a4e2d02e301","686d226cabeef709c732f8e1","686e3117babfd8847b5de8e6","6658c1554c1d2a4e2d02e301","2025-07-09T09:18:38.870Z","","","","","","ControlQ","","","","","","","","","","","","","","","","","","","","","","","","","","","","","","","","","","","","","","50",""
"1654","","<div style=""width:500px;"">
  <p>How would you describe your current emotional state?</p>
  </div>","55","html-slider-response","78","714735","0.0-10.0-3.6","21","1","2025-07-09 09:06:44","7701e855f2ef39aa3fd6c71abdc6918a","143.117.247.4","Mozilla/5.0 (Windows NT 10.0; Win64; x64) AppleWebKit/537.36 (KHTML, like Gecko) Chrome/138.0.0.0 Safari/537.36 Edg/138.0.0.0","WebKit","Edge","138.0.0.0","Windows","10.0","https://app.prolific.com/","en-GB,en;q=0.9","6658c1554c1d2a4e2d02e301","686d226cabeef709c732f8e1","686e3117babfd8847b5de8e6","6658c1554c1d2a4e2d02e301","2025-07-09T09:18:40.525Z","","","","","","StressQ","","","","","","","","","","","","","","","","","","","","","","","","","","","","","","","","","","","","","","50",""
"2767","","<div style=""width:500px;"">
  <p>What best describes how you currently feel?</p>
  </div>","37","html-slider-response","79","717502","0.0-10.0-4.6","21","1","2025-07-09 09:06:44","7701e855f2ef39aa3fd6c71abdc6918a","143.117.247.4","Mozilla/5.0 (Windows NT 10.0; Win64; x64) AppleWebKit/537.36 (KHTML, like Gecko) Chrome/138.0.0.0 Safari/537.36 Edg/138.0.0.0","WebKit","Edge","138.0.0.0","Windows","10.0","https://app.prolific.com/","en-GB,en;q=0.9","6658c1554c1d2a4e2d02e301","686d226cabeef709c732f8e1","686e3117babfd8847b5de8e6","6658c1554c1d2a4e2d02e301","2025-07-09T09:18:43.292Z","","","","","","MotivationQ","","","","","","","","","","","","","","","","","","","","","","","","","","","","","","","","","","","","","","50",""
"","","","","ctl-task-cpt","80","754160","0.0-10.0-0.7","21","1","2025-07-09 09:06:44","7701e855f2ef39aa3fd6c71abdc6918a","143.117.247.4","Mozilla/5.0 (Windows NT 10.0; Win64; x64) AppleWebKit/537.36 (KHTML, like Gecko) Chrome/138.0.0.0 Safari/537.36 Edg/138.0.0.0","WebKit","Edge","138.0.0.0","Windows","10.0","https://app.prolific.com/","en-GB,en;q=0.9","6658c1554c1d2a4e2d02e301","686d226cabeef709c732f8e1","686e3117babfd8847b5de8e6","6658c1554c1d2a4e2d02e301","2025-07-09T09:19:19.951Z","","","","","","","","","","","","","","","","win-only","0","g1:NW,g2:SE","0.3","8","0","718896","960.1","5961.3","33630.5","1","4","4","6","1","-1","-1","34","35","0.25757575757575757","1302.9","3000","-2635","[""left"",""up""]","{""num_key_presses"":8,""num_perfect"":3,""num_errors"":0,""num_randdir"":5,""num_randdir_good_moves"":2,""num_whilered"":0,""num_whileblue"":0,""num_blue"":1,""num_good_moves"":5}","[501.5425351749574,489.36690970602933,0.1,501.5425351749574,489.36690970602933,100.4,501.5425351749574,489.36690970602933,202.3,501.5425351749574,489.36690970602933,302.6,501.5425351749574,489.36690970602933,408.1,501.5425351749574,489.36690970602933,508.6,501.5425351749574,489.36690970602933,611.4,501.5425351749574,489.36690970602933,716.3,501.5425351749574,489.36690970602933,833.2,362.1825402866517,380.16691371146146,934.2,188.50254665719612,242.88691874686182,1035.4,174.98254715310676,202.32692023459376,1135.4,133.38254867898567,124.3269230956167,1235.7,126.10254894601448,111.84692355338038,1336.9,150.0225480686341,125.36692305746973,1453.2,857.2225221286927,410.32691260519925,1553.5,1258.6625074039612,515.366908752355,1655.1,1258.6625074039612,515.366908752355,1755.8,1258.6625074039612,515.366908752355,1860.3,1258.6625074039612,515.366908752355,1961.9,1258.6625074039612,515.366908752355,2065.1,1258.6625074039612,515.366908752355,2166.2,1258.6625074039612,515.366908752355,2270.4,1258.6625074039612,515.366908752355,2370.8,1258.6625074039612,515.366908752355,2471.3,1258.6625074039612,515.366908752355,2587.6,1258.6625074039612,515.366908752355,2687.8,1258.6625074039612,515.366908752355,2790,1258.6625074039612,515.366908752355,2890.4,1258.6625074039612,515.366908752355,2997,1258.6625074039612,515.366908752355,3100.9,1258.6625074039612,515.366908752355,3220.2,1258.6625074039612,515.366908752355,3320.3,1258.6625074039612,515.366908752355,3426,1258.6625074039612,515.366908752355,3530.3,1258.6625074039612,515.366908752355,3631.4,1258.6625074039612,515.366908752355,3735.1,1258.6625074039612,515.366908752355,3835.4,1258.6625074039612,515.366908752355,3935.6,1258.6625074039612,515.366908752355,4054.1,1258.6625074039612,515.366908752355,4155,1258.6625074039612,515.366908752355,4255.7,1258.6625074039612,515.366908752355,4360.1,1258.6625074039612,515.366908752355,4465.1,1258.6625074039612,515.366908752355,4565.4,1258.6625074039612,515.366908752355,4666.1,1258.6625074039612,515.366908752355,4771.5,1258.6625074039612,515.366908752355,4888.2,1258.6625074039612,515.366908752355,4990.5]","[1385.2,1385.2,1000,0,385.2,""oops"",""left"",""right"",""bad_move"",3490,2104.5,1732.1,1385.5,372.4,""oops"",""left"",""left"",""good_move"",6212.7,2722.5,2408.1,3490.2,314.4,""smooth"",""left"",""left"",""good_move"",8990,2777,2462.2,6213,314.8,""oops"",""left"",""right"",""bad_move"",15501.5,6511.1,2829.4,12328.9,343.2,""smooth"",""left"",""left"",""good_move"",18655.9,3154.3,2874.5,15501.6,279.8,""oops"",""left"",""down"",""bad_move"",22173,3517,3189.7,18656,327.4,""smooth"",""left"",""left"",""good_move"",25750.5,3577.3,2428.8,22173.2,1148.5,""oops"",""up"",""up"",""good_move""]","","",""
"7816","","<div style=""width:500px;"">
  <p>What determined the result of this run?</p>
  </div>","20","html-slider-response","81","761987","0.0-10.0-1.7","21","1","2025-07-09 09:06:44","7701e855f2ef39aa3fd6c71abdc6918a","143.117.247.4","Mozilla/5.0 (Windows NT 10.0; Win64; x64) AppleWebKit/537.36 (KHTML, like Gecko) Chrome/138.0.0.0 Safari/537.36 Edg/138.0.0.0","WebKit","Edge","138.0.0.0","Windows","10.0","https://app.prolific.com/","en-GB,en;q=0.9","6658c1554c1d2a4e2d02e301","686d226cabeef709c732f8e1","686e3117babfd8847b5de8e6","6658c1554c1d2a4e2d02e301","2025-07-09T09:19:27.777Z","","","","","","AttribQ","","","","","","","","","","","","","","","","","","","","","","","","","","","","","","","","","","","","","","50",""
"5465","","<div style=""width:500px;"">
  <p>How much control did you have over the ball?</p>
  </div>","37","html-slider-response","82","767458","0.0-10.0-2.7","21","1","2025-07-09 09:06:44","7701e855f2ef39aa3fd6c71abdc6918a","143.117.247.4","Mozilla/5.0 (Windows NT 10.0; Win64; x64) AppleWebKit/537.36 (KHTML, like Gecko) Chrome/138.0.0.0 Safari/537.36 Edg/138.0.0.0","WebKit","Edge","138.0.0.0","Windows","10.0","https://app.prolific.com/","en-GB,en;q=0.9","6658c1554c1d2a4e2d02e301","686d226cabeef709c732f8e1","686e3117babfd8847b5de8e6","6658c1554c1d2a4e2d02e301","2025-07-09T09:19:33.249Z","","","","","","ControlQ","","","","","","","","","","","","","","","","","","","","","","","","","","","","","","","","","","","","","","50",""
"2506","","<div style=""width:500px;"">
  <p>How would you describe your current emotional state?</p>
  </div>","56","html-slider-response","83","769968","0.0-10.0-3.7","21","1","2025-07-09 09:06:44","7701e855f2ef39aa3fd6c71abdc6918a","143.117.247.4","Mozilla/5.0 (Windows NT 10.0; Win64; x64) AppleWebKit/537.36 (KHTML, like Gecko) Chrome/138.0.0.0 Safari/537.36 Edg/138.0.0.0","WebKit","Edge","138.0.0.0","Windows","10.0","https://app.prolific.com/","en-GB,en;q=0.9","6658c1554c1d2a4e2d02e301","686d226cabeef709c732f8e1","686e3117babfd8847b5de8e6","6658c1554c1d2a4e2d02e301","2025-07-09T09:19:35.758Z","","","","","","StressQ","","","","","","","","","","","","","","","","","","","","","","","","","","","","","","","","","","","","","","50",""
"3712","","<div style=""width:500px;"">
  <p>What best describes how you currently feel?</p>
  </div>","37","html-slider-response","84","773681","0.0-10.0-4.7","21","1","2025-07-09 09:06:44","7701e855f2ef39aa3fd6c71abdc6918a","143.117.247.4","Mozilla/5.0 (Windows NT 10.0; Win64; x64) AppleWebKit/537.36 (KHTML, like Gecko) Chrome/138.0.0.0 Safari/537.36 Edg/138.0.0.0","WebKit","Edge","138.0.0.0","Windows","10.0","https://app.prolific.com/","en-GB,en;q=0.9","6658c1554c1d2a4e2d02e301","686d226cabeef709c732f8e1","686e3117babfd8847b5de8e6","6658c1554c1d2a4e2d02e301","2025-07-09T09:19:39.471Z","","","","","","MotivationQ","","","","","","","","","","","","","","","","","","","","","","","","","","","","","","","","","","","","","","50",""
"","","","","ctl-task-cpt","85","807623","0.0-10.0-0.8","21","1","2025-07-09 09:06:44","7701e855f2ef39aa3fd6c71abdc6918a","143.117.247.4","Mozilla/5.0 (Windows NT 10.0; Win64; x64) AppleWebKit/537.36 (KHTML, like Gecko) Chrome/138.0.0.0 Safari/537.36 Edg/138.0.0.0","WebKit","Edge","138.0.0.0","Windows","10.0","https://app.prolific.com/","en-GB,en;q=0.9","6658c1554c1d2a4e2d02e301","686d226cabeef709c732f8e1","686e3117babfd8847b5de8e6","6658c1554c1d2a4e2d02e301","2025-07-09T09:20:13.413Z","","","","","","","","","","","","","","","","win-only","1","g1:NE,g2:SW","0.2","9","0","775073.4","861.4","5865.3","30921.2","1","4","8","6","1","1","1","35","34","0.26515151515151514","1442.2","3000","680","[""up"",""right""]","{""num_key_presses"":8,""num_perfect"":2,""num_errors"":0,""num_randdir"":6,""num_randdir_good_moves"":4,""num_whilered"":0,""num_whileblue"":0,""num_blue"":1,""num_good_moves"":6}","[495.3025354038392,496.6469094390005,0.2,495.3025354038392,496.6469094390005,100,495.3025354038392,496.6469094390005,205.7,495.3025354038392,496.6469094390005,309.7,495.3025354038392,496.6469094390005,414.4,495.3025354038392,496.6469094390005,515.3,495.3025354038392,496.6469094390005,619.7,495.3025354038392,496.6469094390005,728.3,495.3025354038392,496.6469094390005,828.8,514.0225347171937,458.1669108504385,928.8,786.5025247226869,252.24691840353907,1030.5,807.3025239597474,197.12692042532862,1135,832.2625230442201,129.52692290488184,1243.3,897.7825206409608,87.92692443076075,1345.7,899.8625205646669,86.88692446890772,1446.1,899.8625205646669,86.88692446890772,1550,1058.98251472818,261.60691806021634,1654.7,1173.382510532013,321.92691584769193,1755.1,1174.422510493866,321.92691584769193,1862.8,1174.422510493866,321.92691584769193,1964.3,1174.422510493866,321.92691584769193,2064.6,1174.422510493866,321.92691584769193,2170.3,1174.422510493866,321.92691584769193,2278.9,1174.422510493866,321.92691584769193,2379.6,1174.422510493866,321.92691584769193,2486.1,1174.422510493866,321.92691584769193,2588.8,1174.422510493866,321.92691584769193,2689.4,1174.422510493866,321.92691584769193,2791.7,1174.422510493866,321.92691584769193,2894.2,1174.422510493866,321.92691584769193,2999.3,1174.422510493866,321.92691584769193,3100.7,1174.422510493866,321.92691584769193,3205.7,1174.422510493866,321.92691584769193,3309.6,1174.422510493866,321.92691584769193,3416.7,1174.422510493866,321.92691584769193,3519.4,1174.422510493866,321.92691584769193,3619.5,1174.422510493866,321.92691584769193,3719.6,1174.422510493866,321.92691584769193,3820.1,1174.422510493866,321.92691584769193,3924.6,1174.422510493866,321.92691584769193,4025.6,1174.422510493866,321.92691584769193,4128.7,1174.422510493866,321.92691584769193,4228.8,1174.422510493866,321.92691584769193,4336,1174.422510493866,321.92691584769193,4439.6,1174.422510493866,321.92691584769193,4546.8,1174.422510493866,321.92691584769193,4647,1174.422510493866,321.92691584769193,4748.5,1174.422510493866,321.92691584769193,4850.3,1174.422510493866,321.92691584769193,4954.7]","[1349.1,1349.1,1000,0,349.1,""oops"",""up"",""left"",""bad_move"",8570.3,7220.8,3050.2,5200.9,319.2,""oops"",""up"",""left"",""bad_move"",11195.7,2625.2,2238.4,8570.5,386.8,""smooth"",""up"",""up"",""good_move"",14347.2,3151.3,2842.9,11195.9,308.4,""oops"",""up"",""right"",""good_move"",16579.6,2232.1,1913.8,14347.5,318.3,""oops"",""up"",""right"",""good_move"",19611.5,3031.8,2737.1,16579.7,294.7,""oops"",""up"",""right"",""good_move"",22300.1,2688.5,2366.1,19611.6,322.4,""smooth"",""up"",""up"",""good_move"",24950.4,2649.8,2330.7,22300.6,319.1,""oops"",""right"",""right"",""good_move""]","","",""
"2239","","<div style=""width:500px;"">
  <p>What determined the result of this run?</p>
  </div>","34","html-slider-response","86","809865","0.0-10.0-1.8","21","1","2025-07-09 09:06:44","7701e855f2ef39aa3fd6c71abdc6918a","143.117.247.4","Mozilla/5.0 (Windows NT 10.0; Win64; x64) AppleWebKit/537.36 (KHTML, like Gecko) Chrome/138.0.0.0 Safari/537.36 Edg/138.0.0.0","WebKit","Edge","138.0.0.0","Windows","10.0","https://app.prolific.com/","en-GB,en;q=0.9","6658c1554c1d2a4e2d02e301","686d226cabeef709c732f8e1","686e3117babfd8847b5de8e6","6658c1554c1d2a4e2d02e301","2025-07-09T09:20:15.655Z","","","","","","AttribQ","","","","","","","","","","","","","","","","","","","","","","","","","","","","","","","","","","","","","","50",""
"1704","","<div style=""width:500px;"">
  <p>How much control did you have over the ball?</p>
  </div>","40","html-slider-response","87","811569","0.0-10.0-2.8","21","1","2025-07-09 09:06:44","7701e855f2ef39aa3fd6c71abdc6918a","143.117.247.4","Mozilla/5.0 (Windows NT 10.0; Win64; x64) AppleWebKit/537.36 (KHTML, like Gecko) Chrome/138.0.0.0 Safari/537.36 Edg/138.0.0.0","WebKit","Edge","138.0.0.0","Windows","10.0","https://app.prolific.com/","en-GB,en;q=0.9","6658c1554c1d2a4e2d02e301","686d226cabeef709c732f8e1","686e3117babfd8847b5de8e6","6658c1554c1d2a4e2d02e301","2025-07-09T09:20:17.359Z","","","","","","ControlQ","","","","","","","","","","","","","","","","","","","","","","","","","","","","","","","","","","","","","","50",""
