"rt","response_timestamp","stimulus","response","trial_type","trial_index","time_elapsed","internal_node_id","run_id","condition","recorded_at","source_code_version","ip","user_agent","device","browser","browser_version","platform","platform_version","referer","accept_language","PROLIFIC_PID","STUDY_ID","SESSION_ID","prolific_id","realtime","view_history","question_order","consent","success","question_id","eventType","responses","item_order","radio_event_ids","radio_event_times","key_event_times","mouse_event_times","straightlining","zigzagging","honeypot","which_type","canvas_config","goals_layout","control_level","trial_number","tutorial_trial_number","trial_start_time","phase1_start_time","phase2_start_time","phase3_start_time","goal_1_value","goal_1_distance","goal_2_value","goal_2_distance","goal_selected","outcome","outcome_total","participant_final_score","participant_initial_score","participant_final_score_prop","goal_choice_rt","allocated_time","allocated_time_remaining","goal_direction","counts","mouse_movements","key_presses","correct","slider_start"
"3151","1752054917965","<p style='font-size:40px;line-height:1.25'><strong>Welcome to the experiment!</strong></p><p style='font-size:1.1em;line-height:1.25'>Thank you for your interest in our experiment! Before you begin, it is important that we obtain your informed consent to participate in the study.</p><p style='font-size:1.1em;line-height:1.25'>On the next screen will be an <strong>information sheet</strong> for you to read. To participate in the study we need you to read this information sheet and the following consent form carefully. If you agree with all the statements, please click the <strong>I agree</strong> button.</p><p style='font-size:1.1em;line-height:1.25'>Press <strong>Next</strong> to read the information sheet.</p>","0","custom-html-button-response","0","3178","0.0-0.0","204","1","2025-07-09 09:18:52","7701e855f2ef39aa3fd6c71abdc6918a","197.185.177.52","Mozilla/5.0 (Linux; Android 10; K) AppleWebKit/537.36 (KHTML, like Gecko) Chrome/138.0.0.0 Mobile Safari/537.36","WebKit","Chrome","138.0.0.0","AndroidOS","10","https://app.prolific.com/","en-ZA,en-GB;q=0.9,en-US;q=0.8,en;q=0.7,gl;q=0.6,zu;q=0.5","66897958f4e99d36b4091abe","686d226cabeef709c732f8e1","686e338c97cddf108604d1a2","66897958f4e99d36b4091abe","2025-07-09T09:55:17.978Z","","","","","","","","","","","","","","","","","","","","","","","","","","","","","","","","","","","","","","","","","","","",""
"3205","","","","instructions","1","6396","0.0-1.0","204","1","2025-07-09 09:18:52","7701e855f2ef39aa3fd6c71abdc6918a","197.185.177.52","Mozilla/5.0 (Linux; Android 10; K) AppleWebKit/537.36 (KHTML, like Gecko) Chrome/138.0.0.0 Mobile Safari/537.36","WebKit","Chrome","138.0.0.0","AndroidOS","10","https://app.prolific.com/","en-ZA,en-GB;q=0.9,en-US;q=0.8,en;q=0.7,gl;q=0.6,zu;q=0.5","66897958f4e99d36b4091abe","686d226cabeef709c732f8e1","686e338c97cddf108604d1a2","66897958f4e99d36b4091abe","","[{""page_index"":0,""viewing_time"":2472},{""page_index"":1,""viewing_time"":731}]","","","","","","","","","","","","","","","","","","","","","","","","","","","","","","","","","","","","","","","","","","",""
"4140","","","{""Q0"":"""",""Q1"":"""",""Q2"":"""",""Q3"":"""",""Q4"":"""",""Q5"":"""",""Q6"":""I agree""}","survey-multi-choice","2","10552","0.0-2.0","204","1","2025-07-09 09:18:52","7701e855f2ef39aa3fd6c71abdc6918a","197.185.177.52","Mozilla/5.0 (Linux; Android 10; K) AppleWebKit/537.36 (KHTML, like Gecko) Chrome/138.0.0.0 Mobile Safari/537.36","WebKit","Chrome","138.0.0.0","AndroidOS","10","https://app.prolific.com/","en-ZA,en-GB;q=0.9,en-US;q=0.8,en;q=0.7,gl;q=0.6,zu;q=0.5","66897958f4e99d36b4091abe","686d226cabeef709c732f8e1","686e338c97cddf108604d1a2","66897958f4e99d36b4091abe","","","[0,1,2,3,4,5,6]","true","","","","","","","","","","","","","","","","","","","","","","","","","","","","","","","","","","","","","","","","",""
"959","","","","fullscreen","3","12520","0.0-4.0","204","1","2025-07-09 09:18:52","7701e855f2ef39aa3fd6c71abdc6918a","197.185.177.52","Mozilla/5.0 (Linux; Android 10; K) AppleWebKit/537.36 (KHTML, like Gecko) Chrome/138.0.0.0 Mobile Safari/537.36","WebKit","Chrome","138.0.0.0","AndroidOS","10","https://app.prolific.com/","en-ZA,en-GB;q=0.9,en-US;q=0.8,en;q=0.7,gl;q=0.6,zu;q=0.5","66897958f4e99d36b4091abe","686d226cabeef709c732f8e1","686e338c97cddf108604d1a2","66897958f4e99d36b4091abe","","","","","true","","","","","","","","","","","","","","","","","","","","","","","","","","","","","","","","","","","","","","","",""
"992","1752054928315"," <p style='font-size:1.1em;line-height:1.25'>Thank you for completing the consent form and closing all other tabs.</p><p style='font-size:1.1em;line-height:1.25'>We will now invite you to fill in some demographic information and questionnaires, before starting the game.<br>This will take about 5 minutes.<br></p><p style='font-size:1.1em;line-height:1.25'>Press the <strong>Next</strong> button to continue.</p>","0","custom-html-button-response","4","13516","0.0-5.0","204","1","2025-07-09 09:18:52","7701e855f2ef39aa3fd6c71abdc6918a","197.185.177.52","Mozilla/5.0 (Linux; Android 10; K) AppleWebKit/537.36 (KHTML, like Gecko) Chrome/138.0.0.0 Mobile Safari/537.36","WebKit","Chrome","138.0.0.0","AndroidOS","10","https://app.prolific.com/","en-ZA,en-GB;q=0.9,en-US;q=0.8,en;q=0.7,gl;q=0.6,zu;q=0.5","66897958f4e99d36b4091abe","686d226cabeef709c732f8e1","686e338c97cddf108604d1a2","66897958f4e99d36b4091abe","2025-07-09T09:55:28.316Z","","","","","","","","","","","","","","","","","","","","","","","","","","","","","","","","","","","","","","","","","","","",""
"31353","","","{""age"":""26""}","survey-text","5","44879","0.0-6.0-0.0","204","1","2025-07-09 09:18:52","7701e855f2ef39aa3fd6c71abdc6918a","197.185.177.52","Mozilla/5.0 (Linux; Android 10; K) AppleWebKit/537.36 (KHTML, like Gecko) Chrome/138.0.0.0 Mobile Safari/537.36","WebKit","Chrome","138.0.0.0","AndroidOS","10","https://app.prolific.com/","en-ZA,en-GB;q=0.9,en-US;q=0.8,en;q=0.7,gl;q=0.6,zu;q=0.5","66897958f4e99d36b4091abe","686d226cabeef709c732f8e1","686e338c97cddf108604d1a2","66897958f4e99d36b4091abe","","","","","","0","demographics","","","","","","","","","","","","","","","","","","","","","","","","","","","","","","","","","","","","","",""
"1703","","","{""gender_identity"":""female/woman""}","survey-multi-choice","6","46587","0.0-6.0-1.0","204","1","2025-07-09 09:18:52","7701e855f2ef39aa3fd6c71abdc6918a","197.185.177.52","Mozilla/5.0 (Linux; Android 10; K) AppleWebKit/537.36 (KHTML, like Gecko) Chrome/138.0.0.0 Mobile Safari/537.36","WebKit","Chrome","138.0.0.0","AndroidOS","10","https://app.prolific.com/","en-ZA,en-GB;q=0.9,en-US;q=0.8,en;q=0.7,gl;q=0.6,zu;q=0.5","66897958f4e99d36b4091abe","686d226cabeef709c732f8e1","686e338c97cddf108604d1a2","66897958f4e99d36b4091abe","","","[0]","","","1","demographics","","","","","","","","","","","","","","","","","","","","","","","","","","","","","","","","","","","","","",""
"1687","","","{""assigned_sex"":""female""}","survey-multi-choice","7","48280","0.0-6.0-2.0","204","1","2025-07-09 09:18:52","7701e855f2ef39aa3fd6c71abdc6918a","197.185.177.52","Mozilla/5.0 (Linux; Android 10; K) AppleWebKit/537.36 (KHTML, like Gecko) Chrome/138.0.0.0 Mobile Safari/537.36","WebKit","Chrome","138.0.0.0","AndroidOS","10","https://app.prolific.com/","en-ZA,en-GB;q=0.9,en-US;q=0.8,en;q=0.7,gl;q=0.6,zu;q=0.5","66897958f4e99d36b4091abe","686d226cabeef709c732f8e1","686e338c97cddf108604d1a2","66897958f4e99d36b4091abe","","","[0]","","","2","demographics","","","","","","","","","","","","","","","","","","","","","","","","","","","","","","","","","","","","","",""
"1646","","","{""menstrual_cycle"":""Yes""}","survey-multi-choice","8","49930","0.0-6.0-3.0","204","1","2025-07-09 09:18:52","7701e855f2ef39aa3fd6c71abdc6918a","197.185.177.52","Mozilla/5.0 (Linux; Android 10; K) AppleWebKit/537.36 (KHTML, like Gecko) Chrome/138.0.0.0 Mobile Safari/537.36","WebKit","Chrome","138.0.0.0","AndroidOS","10","https://app.prolific.com/","en-ZA,en-GB;q=0.9,en-US;q=0.8,en;q=0.7,gl;q=0.6,zu;q=0.5","66897958f4e99d36b4091abe","686d226cabeef709c732f8e1","686e338c97cddf108604d1a2","66897958f4e99d36b4091abe","","","[0]","","","4","demographics","","","","","","","","","","","","","","","","","","","","","","","","","","","","","","","","","","","","","",""
"2442","","","{""education"":""Bachelor's Degree (e.g., BA)""}","survey-multi-choice","9","52377","0.0-6.0-4.0","204","1","2025-07-09 09:18:52","7701e855f2ef39aa3fd6c71abdc6918a","197.185.177.52","Mozilla/5.0 (Linux; Android 10; K) AppleWebKit/537.36 (KHTML, like Gecko) Chrome/138.0.0.0 Mobile Safari/537.36","WebKit","Chrome","138.0.0.0","AndroidOS","10","https://app.prolific.com/","en-ZA,en-GB;q=0.9,en-US;q=0.8,en;q=0.7,gl;q=0.6,zu;q=0.5","66897958f4e99d36b4091abe","686d226cabeef709c732f8e1","686e338c97cddf108604d1a2","66897958f4e99d36b4091abe","","","[0]","","","5","demographics","","","","","","","","","","","","","","","","","","","","","","","","","","","","","","","","","","","","","",""
"1903","","","{""education"":""Master's Degree (e.g., MSc)""}","survey-multi-choice","10","54290","0.0-6.0-5.0","204","1","2025-07-09 09:18:52","7701e855f2ef39aa3fd6c71abdc6918a","197.185.177.52","Mozilla/5.0 (Linux; Android 10; K) AppleWebKit/537.36 (KHTML, like Gecko) Chrome/138.0.0.0 Mobile Safari/537.36","WebKit","Chrome","138.0.0.0","AndroidOS","10","https://app.prolific.com/","en-ZA,en-GB;q=0.9,en-US;q=0.8,en;q=0.7,gl;q=0.6,zu;q=0.5","66897958f4e99d36b4091abe","686d226cabeef709c732f8e1","686e338c97cddf108604d1a2","66897958f4e99d36b4091abe","2025-07-09T09:56:09.090Z","","[0]","","","6","demographics","","","","","","","","","","","","","","","","","","","","","","","","","","","","","","","","","","","","","",""
"13205","","","{""mental_health_condition"":""No"",""mental_health_treatment"":""No "",""psychiatric_medication"":""No""}","survey-text","11","67510","0.0-7.0-0.0","204","1","2025-07-09 09:18:52","7701e855f2ef39aa3fd6c71abdc6918a","197.185.177.52","Mozilla/5.0 (Linux; Android 10; K) AppleWebKit/537.36 (KHTML, like Gecko) Chrome/138.0.0.0 Mobile Safari/537.36","WebKit","Chrome","138.0.0.0","AndroidOS","10","https://app.prolific.com/","en-ZA,en-GB;q=0.9,en-US;q=0.8,en;q=0.7,gl;q=0.6,zu;q=0.5","66897958f4e99d36b4091abe","686d226cabeef709c732f8e1","686e338c97cddf108604d1a2","66897958f4e99d36b4091abe","2025-07-09T09:56:22.310Z","","","","","1","mental_health","","","","","","","","","","","","","","","","","","","","","","","","","","","","","","","","","","","","","",""
"3289","","","{""depression_history"":[""Yes""]}","survey-multi-select","12","70820","0.0-7.0-1.0","204","1","2025-07-09 09:18:52","7701e855f2ef39aa3fd6c71abdc6918a","197.185.177.52","Mozilla/5.0 (Linux; Android 10; K) AppleWebKit/537.36 (KHTML, like Gecko) Chrome/138.0.0.0 Mobile Safari/537.36","WebKit","Chrome","138.0.0.0","AndroidOS","10","https://app.prolific.com/","en-ZA,en-GB;q=0.9,en-US;q=0.8,en;q=0.7,gl;q=0.6,zu;q=0.5","66897958f4e99d36b4091abe","686d226cabeef709c732f8e1","686e338c97cddf108604d1a2","66897958f4e99d36b4091abe","","","[0]","","","","mental_health","","","","","","","","","","","","","","","","","","","","","","","","","","","","","","","","","","","","","",""
"4116","","","{""depression_episodes"":""1-2"",""depression_recent"":""Currently experiencing an episode""}","survey-multi-choice","13","74941","0.0-7.0-2.0-0.0","204","1","2025-07-09 09:18:52","7701e855f2ef39aa3fd6c71abdc6918a","197.185.177.52","Mozilla/5.0 (Linux; Android 10; K) AppleWebKit/537.36 (KHTML, like Gecko) Chrome/138.0.0.0 Mobile Safari/537.36","WebKit","Chrome","138.0.0.0","AndroidOS","10","https://app.prolific.com/","en-ZA,en-GB;q=0.9,en-US;q=0.8,en;q=0.7,gl;q=0.6,zu;q=0.5","66897958f4e99d36b4091abe","686d226cabeef709c732f8e1","686e338c97cddf108604d1a2","66897958f4e99d36b4091abe","2025-07-09T09:56:29.741Z","","[0,1]","","","3","mental_health","","","","","","","","","","","","","","","","","","","","","","","","","","","","","","","","","","","","","",""
"62589.89999999851","","","","survey-template","14","137568","0.0-7.0-3.0","204","1","2025-07-09 09:18:52","7701e855f2ef39aa3fd6c71abdc6918a","197.185.177.52","Mozilla/5.0 (Linux; Android 10; K) AppleWebKit/537.36 (KHTML, like Gecko) Chrome/138.0.0.0 Mobile Safari/537.36","WebKit","Chrome","138.0.0.0","AndroidOS","10","https://app.prolific.com/","en-ZA,en-GB;q=0.9,en-US;q=0.8,en;q=0.7,gl;q=0.6,zu;q=0.5","66897958f4e99d36b4091abe","686d226cabeef709c732f8e1","686e338c97cddf108604d1a2","66897958f4e99d36b4091abe","2025-07-09T09:57:32.368Z","","","","","","ius","{""Q01"":""2"",""Q02"":""3"",""Q03"":""2"",""Q04"":""4"",""Q05"":""1"",""Q06"":""1"",""Q07"":""2"",""Q08"":""0"",""Q09"":""2"",""Q10"":""1"",""Q11"":""2"",""Q12"":""2"",""Q13"":""1""}","[0,1,2,3,4,5,6,7,8,9,10,11,12]","[""Q08"",""Q13"",""Q12"",""Q11"",""Q10"",""Q09"",""Q07"",""Q05"",""Q04"",""Q02"",""Q03"",""Q01"",""Q06""]","[24842.19999999553,28319,28755,29138.79999999702,29601.5,30949.79999999702,32541.79999999702,33287.89999999851,35429.59999999404,35900,37829.69999999553,51607.59999999404,60499.09999999404]","[]","[24842.19999999553,28319,28755,29138.79999999702,29601.5,30949.79999999702,32541.79999999702,32940.89999999851,33287.89999999851,34183.19999999553,35429.59999999404,35900,36665.59999999404,37829.69999999553,43585.89999999851,51607.59999999404,54958.69999999553,57821.29999999702,60499.09999999404,62574.89999999851]","0.46153846153846156","0.5","0","","","","","","","","","","","","","","","","","","","","","","","","","","","","",""
"846","1752055053220","<p style='font-size:1.1em;line-height:1.25'>In the following, we will ask you a few questions relating to your experiences over the past month.<br></p><p style='font-size:1.1em;line-height:1.25'>Press the <strong>Next</strong> button to continue.</p>","0","custom-html-button-response","15","138422","0.0-7.0-4.0","204","1","2025-07-09 09:18:52","7701e855f2ef39aa3fd6c71abdc6918a","197.185.177.52","Mozilla/5.0 (Linux; Android 10; K) AppleWebKit/537.36 (KHTML, like Gecko) Chrome/138.0.0.0 Mobile Safari/537.36","WebKit","Chrome","138.0.0.0","AndroidOS","10","https://app.prolific.com/","en-ZA,en-GB;q=0.9,en-US;q=0.8,en;q=0.7,gl;q=0.6,zu;q=0.5","66897958f4e99d36b4091abe","686d226cabeef709c732f8e1","686e338c97cddf108604d1a2","66897958f4e99d36b4091abe","2025-07-09T09:57:33.222Z","","","","","","","","","","","","","","","","","","","","","","","","","","","","","","","","","","","","","","","","","","","",""
"25533.5","","","","survey-template","16","163982","0.0-7.0-5.0","204","1","2025-07-09 09:18:52","7701e855f2ef39aa3fd6c71abdc6918a","197.185.177.52","Mozilla/5.0 (Linux; Android 10; K) AppleWebKit/537.36 (KHTML, like Gecko) Chrome/138.0.0.0 Mobile Safari/537.36","WebKit","Chrome","138.0.0.0","AndroidOS","10","https://app.prolific.com/","en-ZA,en-GB;q=0.9,en-US;q=0.8,en;q=0.7,gl;q=0.6,zu;q=0.5","66897958f4e99d36b4091abe","686d226cabeef709c732f8e1","686e338c97cddf108604d1a2","66897958f4e99d36b4091abe","2025-07-09T09:57:58.783Z","","","","","","pss","{""Q01"":""3"",""Q02"":""1"",""Q03"":""2"",""Q04"":""1"",""Q05"":""3"",""Q06"":""2"",""Q07"":""3"",""Q08"":""1"",""Q09"":""2"",""Q10"":""3""}","[0,1,2,3,4,5,6,7,8,9]","[""Q01"",""Q02"",""Q03"",""Q04"",""Q05"",""Q06"",""Q07"",""Q08"",""Q09"",""Q10""]","[7781.19999999553,8737.89999999851,9427.60000000149,10498.39999999851,11099.29999999702,11932.19999999553,19753.19999999553,20777.5,21535.10000000149,23332.89999999851]","[]","[0.10000000149011612,7781.19999999553,8737.89999999851,9427.60000000149,10498.39999999851,11099.29999999702,11932.19999999553,19753.19999999553,20777.5,21535.10000000149,23332.89999999851,25525.29999999702]","0.4","0.6666666666666666","0","","","","","","","","","","","","","","","","","","","","","","","","","","","","",""
"801","1752055079588","<p style='font-size:1.1em;line-height:1.25'>Thank you for your answers! Now we will ask you a few more questions relating to your feelings in the last 24 hours.<br></p><p style='font-size:1.1em;line-height:1.25'>Press the <strong>Next</strong> button to continue.</p>","0","custom-html-button-response","17","164789","0.0-7.0-6.0","204","1","2025-07-09 09:18:52","7701e855f2ef39aa3fd6c71abdc6918a","197.185.177.52","Mozilla/5.0 (Linux; Android 10; K) AppleWebKit/537.36 (KHTML, like Gecko) Chrome/138.0.0.0 Mobile Safari/537.36","WebKit","Chrome","138.0.0.0","AndroidOS","10","https://app.prolific.com/","en-ZA,en-GB;q=0.9,en-US;q=0.8,en;q=0.7,gl;q=0.6,zu;q=0.5","66897958f4e99d36b4091abe","686d226cabeef709c732f8e1","686e338c97cddf108604d1a2","66897958f4e99d36b4091abe","2025-07-09T09:57:59.590Z","","","","","","","","","","","","","","","","","","","","","","","","","","","","","","","","","","","","","","","","","","","",""
"38816.79999999702","","","","survey-template","18","203635","0.0-7.0-7.0","204","1","2025-07-09 09:18:52","7701e855f2ef39aa3fd6c71abdc6918a","197.185.177.52","Mozilla/5.0 (Linux; Android 10; K) AppleWebKit/537.36 (KHTML, like Gecko) Chrome/138.0.0.0 Mobile Safari/537.36","WebKit","Chrome","138.0.0.0","AndroidOS","10","https://app.prolific.com/","en-ZA,en-GB;q=0.9,en-US;q=0.8,en;q=0.7,gl;q=0.6,zu;q=0.5","66897958f4e99d36b4091abe","686d226cabeef709c732f8e1","686e338c97cddf108604d1a2","66897958f4e99d36b4091abe","2025-07-09T09:58:38.435Z","","","","","","drsp","{""Q01"":""2"",""Q02"":""2"",""Q03"":""1"",""Q04"":""2"",""Q05"":""4"",""Q06"":""2"",""Q07"":""3"",""Q08"":""2"",""Q09"":""4"",""Q10"":""3"",""Q11"":""1"",""Q12"":""3"",""Q13"":""2"",""Q14"":""3"",""Q15"":""2"",""Q16"":""3"",""Q17"":""1"",""Q18"":""2"",""Q19"":""1"",""Q20"":""2"",""Q21"":""2""}","[0,1,2,3,4,5,6,7,8,9,10,11,12,13,14,15,16,17,18,19,20]","[""Q01"",""Q03"",""Q02"",""Q04"",""Q05"",""Q06"",""Q07"",""Q08"",""Q09"",""Q10"",""Q11"",""Q12"",""Q13"",""Q14"",""Q15"",""Q16"",""Q18"",""Q17"",""Q19"",""Q20"",""Q21""]","[2597.89999999851,3947.1999999955297,4280.5999999940395,4936.69999999553,10814,11369.09999999404,12014.59999999404,12504.39999999851,13295.59999999404,17338.09999999404,18150,20711.79999999702,21861.09999999404,23283.39999999851,24589.19999999553,25789.59999999404,26560.69999999553,27183.29999999702,28352.5,29354.89999999851,29876.09999999404]","[]","[0.09999999403953552,2597.89999999851,3947.1999999955297,4280.5999999940395,4936.69999999553,10814,11369.09999999404,12014.59999999404,12504.39999999851,13295.59999999404,17338.09999999404,18150,19717.29999999702,20711.79999999702,21861.09999999404,22826.5,23283.39999999851,24589.19999999553,25789.59999999404,26560.69999999553,27183.29999999702,28352.5,29354.89999999851,29876.09999999404,38805.69999999553]","0.47619047619047616","0.6","0","","","","","","","","","","","","","","","","","","","","","","","","","","","","",""
"5232.29999999702","","","","survey-template","19","208880","0.0-7.0-8.0","204","1","2025-07-09 09:18:52","7701e855f2ef39aa3fd6c71abdc6918a","197.185.177.52","Mozilla/5.0 (Linux; Android 10; K) AppleWebKit/537.36 (KHTML, like Gecko) Chrome/138.0.0.0 Mobile Safari/537.36","WebKit","Chrome","138.0.0.0","AndroidOS","10","https://app.prolific.com/","en-ZA,en-GB;q=0.9,en-US;q=0.8,en;q=0.7,gl;q=0.6,zu;q=0.5","66897958f4e99d36b4091abe","686d226cabeef709c732f8e1","686e338c97cddf108604d1a2","66897958f4e99d36b4091abe","2025-07-09T09:58:43.680Z","","","","","","stress","{""Q01"":""4"",""Q02"":""3"",""Q03"":""3""}","[0,1,2]","[""Q01"",""Q02"",""Q03""]","[2864.1999999955297,3859.2999999970198,4451]","[]","[2864.1999999955297,3859.2999999970198,4451,5229.29999999702]","0.3333333333333333","0.5","0","","","","","","","","","","","","","","","","","","","","","","","","","","","","",""
"78106","","","","instructions","20","286999","0.0-8.0-0.0","204","1","2025-07-09 09:18:52","7701e855f2ef39aa3fd6c71abdc6918a","197.185.177.52","Mozilla/5.0 (Linux; Android 10; K) AppleWebKit/537.36 (KHTML, like Gecko) Chrome/138.0.0.0 Mobile Safari/537.36","WebKit","Chrome","138.0.0.0","AndroidOS","10","https://app.prolific.com/","en-ZA,en-GB;q=0.9,en-US;q=0.8,en;q=0.7,gl;q=0.6,zu;q=0.5","66897958f4e99d36b4091abe","686d226cabeef709c732f8e1","686e338c97cddf108604d1a2","66897958f4e99d36b4091abe","","[{""page_index"":0,""viewing_time"":23926},{""page_index"":1,""viewing_time"":31982},{""page_index"":2,""viewing_time"":7305},{""page_index"":3,""viewing_time"":14891}]","","","","","","","","","","","","","","","","","","","","","","","","","","","","","","","","","","","","","","","","","","",""
"","","","","ctl-task-cpt","21","303106","0.0-8.0-1.0","204","1","2025-07-09 09:18:52","7701e855f2ef39aa3fd6c71abdc6918a","197.185.177.52","Mozilla/5.0 (Linux; Android 10; K) AppleWebKit/537.36 (KHTML, like Gecko) Chrome/138.0.0.0 Mobile Safari/537.36","WebKit","Chrome","138.0.0.0","AndroidOS","10","https://app.prolific.com/","en-ZA,en-GB;q=0.9,en-US;q=0.8,en;q=0.7,gl;q=0.6,zu;q=0.5","66897958f4e99d36b4091abe","686d226cabeef709c732f8e1","686e338c97cddf108604d1a2","66897958f4e99d36b4091abe","","","","","","","","","","","","","","","","","win-only","1","g1:NE,g2:SW","1","0","1","292059.1","1166.7","5167.9","13058.1","2","4","4","6","2","-4","-4","0","0","0","1098.9","4000","-2880","[""down"",""left""]","{""num_key_presses"":0,""num_perfect"":0,""num_errors"":0,""num_randdir"":0,""num_randdir_good_moves"":0,""num_whilered"":0,""num_whileblue"":0,""num_blue"":0,""num_good_moves"":0}","[800.4374989271164,765.749997138977,1.8,800.4374989271164,765.749997138977,126.3,800.4374989271164,765.749997138977,230.6,800.4374989271164,765.749997138977,330.7,800.4374989271164,765.749997138977,471.4,800.4374989271164,765.749997138977,576.2,800.4374989271164,765.749997138977,696.1,800.4374989271164,765.749997138977,820.4,800.4374989271164,765.749997138977,920.6,800.4374989271164,765.749997138977,1021.7,88.8749989271164,1482.937497138977,1147.4,88.8749989271164,1482.937497138977,1250.5,88.8749989271164,1482.937497138977,1350.8,88.8749989271164,1482.937497138977,1469.3,88.8749989271164,1482.937497138977,1603.5,88.8749989271164,1482.937497138977,1705.9,88.8749989271164,1482.937497138977,1848.1,88.8749989271164,1482.937497138977,1968,88.8749989271164,1482.937497138977,2070.8,88.8749989271164,1482.937497138977,2211.1,88.8749989271164,1482.937497138977,2324.6,88.8749989271164,1482.937497138977,2425.6,88.8749989271164,1482.937497138977,2526.3,88.8749989271164,1482.937497138977,2630.3,88.8749989271164,1482.937497138977,2730.6,88.8749989271164,1482.937497138977,2835.8,88.8749989271164,1482.937497138977,2940.3,88.8749989271164,1482.937497138977,3066.3,88.8749989271164,1482.937497138977,3171.2,88.8749989271164,1482.937497138977,3271.3,88.8749989271164,1482.937497138977,3413,88.8749989271164,1482.937497138977,3515,88.8749989271164,1482.937497138977,3615.2,88.8749989271164,1482.937497138977,3720.4,88.8749989271164,1482.937497138977,3834.3,88.8749989271164,1482.937497138977,3943.9]","[]","",""
"1409","","","","instructions","22","304517","0.0-8.0-2.0","204","1","2025-07-09 09:18:52","7701e855f2ef39aa3fd6c71abdc6918a","197.185.177.52","Mozilla/5.0 (Linux; Android 10; K) AppleWebKit/537.36 (KHTML, like Gecko) Chrome/138.0.0.0 Mobile Safari/537.36","WebKit","Chrome","138.0.0.0","AndroidOS","10","https://app.prolific.com/","en-ZA,en-GB;q=0.9,en-US;q=0.8,en;q=0.7,gl;q=0.6,zu;q=0.5","66897958f4e99d36b4091abe","686d226cabeef709c732f8e1","686e338c97cddf108604d1a2","66897958f4e99d36b4091abe","","[{""page_index"":0,""viewing_time"":1409}]","","","","","","","","","","","","","","","","","","","","","","","","","","","","","","","","","","","","","","","","","","",""
"","","","","ctl-task-cpt","23","323397","0.0-8.0-3.0","204","1","2025-07-09 09:18:52","7701e855f2ef39aa3fd6c71abdc6918a","197.185.177.52","Mozilla/5.0 (Linux; Android 10; K) AppleWebKit/537.36 (KHTML, like Gecko) Chrome/138.0.0.0 Mobile Safari/537.36","WebKit","Chrome","138.0.0.0","AndroidOS","10","https://app.prolific.com/","en-ZA,en-GB;q=0.9,en-US;q=0.8,en;q=0.7,gl;q=0.6,zu;q=0.5","66897958f4e99d36b4091abe","686d226cabeef709c732f8e1","686e338c97cddf108604d1a2","66897958f4e99d36b4091abe","","","","","","","","","","","","","","","","","win-only","1","g1:NE,g2:SW","0.35","0","3","309542.3","3614","7621.1","15864.2","2","4","8","6","2","-8","-8","0","0","0","2995.6","4000","-2590","[""down"",""left""]","{""num_key_presses"":0,""num_perfect"":0,""num_errors"":0,""num_randdir"":0,""num_randdir_good_moves"":0,""num_whilered"":0,""num_whileblue"":0,""num_blue"":0,""num_good_moves"":0}","[789.1874989271164,776.999997138977,0.6,789.1874989271164,776.999997138977,102,789.1874989271164,776.999997138977,206.8,789.1874989271164,776.999997138977,307.1,789.1874989271164,776.999997138977,412.2,789.1874989271164,776.999997138977,545,789.1874989271164,776.999997138977,648.3,789.1874989271164,776.999997138977,752,789.1874989271164,776.999997138977,883.2,789.1874989271164,776.999997138977,987.1,789.1874989271164,776.999997138977,1088.2,789.1874989271164,776.999997138977,1225.6,789.1874989271164,776.999997138977,1335.6,789.1874989271164,776.999997138977,1436.9,789.1874989271164,776.999997138977,1537.4,789.1874989271164,776.999997138977,1642.2,789.1874989271164,776.999997138977,1746.9,789.1874989271164,776.999997138977,1852.2,789.1874989271164,776.999997138977,1969.1,789.1874989271164,776.999997138977,2070,789.1874989271164,776.999997138977,2172.2,789.1874989271164,776.999997138977,2278,789.1874989271164,776.999997138977,2382.1,789.1874989271164,776.999997138977,2520.5,789.1874989271164,776.999997138977,2646.8,789.1874989271164,776.999997138977,2746.8,789.1874989271164,776.999997138977,2847,789.1874989271164,776.999997138977,2976.3,145.1249989271164,1457.624997138977,3087.5,145.1249989271164,1457.624997138977,3192.1,145.1249989271164,1457.624997138977,3297.7,145.1249989271164,1457.624997138977,3434.7,145.1249989271164,1457.624997138977,3535.9,145.1249989271164,1457.624997138977,3637.4,145.1249989271164,1457.624997138977,3737.4,145.1249989271164,1457.624997138977,3842.3,145.1249989271164,1457.624997138977,3970.4]","[]","",""
"2635","","","","instructions","24","326034","0.0-8.0-4.0","204","1","2025-07-09 09:18:52","7701e855f2ef39aa3fd6c71abdc6918a","197.185.177.52","Mozilla/5.0 (Linux; Android 10; K) AppleWebKit/537.36 (KHTML, like Gecko) Chrome/138.0.0.0 Mobile Safari/537.36","WebKit","Chrome","138.0.0.0","AndroidOS","10","https://app.prolific.com/","en-ZA,en-GB;q=0.9,en-US;q=0.8,en;q=0.7,gl;q=0.6,zu;q=0.5","66897958f4e99d36b4091abe","686d226cabeef709c732f8e1","686e338c97cddf108604d1a2","66897958f4e99d36b4091abe","","[{""page_index"":0,""viewing_time"":1564},{""page_index"":1,""viewing_time"":1071}]","","","","","","","","","","","","","","","","","","","","","","","","","","","","","","","","","","","","","","","","","","",""
"31889","","","{""green_ball"":[""Ball sometimes shakes and moves in a random direction""]}","survey-multi-select","25","357944","0.0-8.0-5.0-0.0","204","1","2025-07-09 09:18:52","7701e855f2ef39aa3fd6c71abdc6918a","197.185.177.52","Mozilla/5.0 (Linux; Android 10; K) AppleWebKit/537.36 (KHTML, like Gecko) Chrome/138.0.0.0 Mobile Safari/537.36","WebKit","Chrome","138.0.0.0","AndroidOS","10","https://app.prolific.com/","en-ZA,en-GB;q=0.9,en-US;q=0.8,en;q=0.7,gl;q=0.6,zu;q=0.5","66897958f4e99d36b4091abe","686d226cabeef709c732f8e1","686e338c97cddf108604d1a2","66897958f4e99d36b4091abe","","","[0]","","","","quiz","","","","","","","","","","","","","","","","","","","","","","","","","","","","","","","","","","","","","true",""
"1072","","<p align='center'><b>CORRECT!</b> Indeed, the green ball may sometimes shake and move in a random direction.</p>","0","html-button-response","26","359030","0.0-8.0-5.0-1.0","204","1","2025-07-09 09:18:52","7701e855f2ef39aa3fd6c71abdc6918a","197.185.177.52","Mozilla/5.0 (Linux; Android 10; K) AppleWebKit/537.36 (KHTML, like Gecko) Chrome/138.0.0.0 Mobile Safari/537.36","WebKit","Chrome","138.0.0.0","AndroidOS","10","https://app.prolific.com/","en-ZA,en-GB;q=0.9,en-US;q=0.8,en;q=0.7,gl;q=0.6,zu;q=0.5","66897958f4e99d36b4091abe","686d226cabeef709c732f8e1","686e338c97cddf108604d1a2","66897958f4e99d36b4091abe","","","","","","","","","","","","","","","","","","","","","","","","","","","","","","","","","","","","","","","","","","","","",""
"4235","","","{""yellow_ball"":[""Ball doesn‘t move and I get -1 penalty point""]}","survey-multi-select","27","363273","0.0-8.0-6.0-0.0","204","1","2025-07-09 09:18:52","7701e855f2ef39aa3fd6c71abdc6918a","197.185.177.52","Mozilla/5.0 (Linux; Android 10; K) AppleWebKit/537.36 (KHTML, like Gecko) Chrome/138.0.0.0 Mobile Safari/537.36","WebKit","Chrome","138.0.0.0","AndroidOS","10","https://app.prolific.com/","en-ZA,en-GB;q=0.9,en-US;q=0.8,en;q=0.7,gl;q=0.6,zu;q=0.5","66897958f4e99d36b4091abe","686d226cabeef709c732f8e1","686e338c97cddf108604d1a2","66897958f4e99d36b4091abe","","","[0]","","","","quiz","","","","","","","","","","","","","","","","","","","","","","","","","","","","","","","","","","","","","true",""
"975","","<p align='center'><b>CORRECT!</b> Indeed, the yellow ball never moves and you receive a penalty.</p>","0","html-button-response","28","364251","0.0-8.0-6.0-1.0","204","1","2025-07-09 09:18:52","7701e855f2ef39aa3fd6c71abdc6918a","197.185.177.52","Mozilla/5.0 (Linux; Android 10; K) AppleWebKit/537.36 (KHTML, like Gecko) Chrome/138.0.0.0 Mobile Safari/537.36","WebKit","Chrome","138.0.0.0","AndroidOS","10","https://app.prolific.com/","en-ZA,en-GB;q=0.9,en-US;q=0.8,en;q=0.7,gl;q=0.6,zu;q=0.5","66897958f4e99d36b4091abe","686d226cabeef709c732f8e1","686e338c97cddf108604d1a2","66897958f4e99d36b4091abe","","","","","","","","","","","","","","","","","","","","","","","","","","","","","","","","","","","","","","","","","","","","",""
"7056","","","{""blue_ball"":[""Ball doesn‘t move and I get -1 penalty point""]}","survey-multi-select","29","371314","0.0-8.0-7.0-0.0","204","1","2025-07-09 09:18:52","7701e855f2ef39aa3fd6c71abdc6918a","197.185.177.52","Mozilla/5.0 (Linux; Android 10; K) AppleWebKit/537.36 (KHTML, like Gecko) Chrome/138.0.0.0 Mobile Safari/537.36","WebKit","Chrome","138.0.0.0","AndroidOS","10","https://app.prolific.com/","en-ZA,en-GB;q=0.9,en-US;q=0.8,en;q=0.7,gl;q=0.6,zu;q=0.5","66897958f4e99d36b4091abe","686d226cabeef709c732f8e1","686e338c97cddf108604d1a2","66897958f4e99d36b4091abe","","","[0]","","","","quiz","","","","","","","","","","","","","","","","","","","","","","","","","","","","","","","","","","","","","false",""
"1820","","<p align='center'><b>INCORRECT.</b> The blue ball always shakes and moves randomly.</p>","0","html-button-response","30","373137","0.0-8.0-7.0-1.0","204","1","2025-07-09 09:18:52","7701e855f2ef39aa3fd6c71abdc6918a","197.185.177.52","Mozilla/5.0 (Linux; Android 10; K) AppleWebKit/537.36 (KHTML, like Gecko) Chrome/138.0.0.0 Mobile Safari/537.36","WebKit","Chrome","138.0.0.0","AndroidOS","10","https://app.prolific.com/","en-ZA,en-GB;q=0.9,en-US;q=0.8,en;q=0.7,gl;q=0.6,zu;q=0.5","66897958f4e99d36b4091abe","686d226cabeef709c732f8e1","686e338c97cddf108604d1a2","66897958f4e99d36b4091abe","","","","","","","","","","","","","","","","","","","","","","","","","","","","","","","","","","","","","","","","","","","","",""
"11670","","","{""blue_ball"":[""Ball doesn‘t move and I get -1 penalty point""]}","survey-multi-select","31","384813","0.0-8.0-7.1-0.1","204","1","2025-07-09 09:18:52","7701e855f2ef39aa3fd6c71abdc6918a","197.185.177.52","Mozilla/5.0 (Linux; Android 10; K) AppleWebKit/537.36 (KHTML, like Gecko) Chrome/138.0.0.0 Mobile Safari/537.36","WebKit","Chrome","138.0.0.0","AndroidOS","10","https://app.prolific.com/","en-ZA,en-GB;q=0.9,en-US;q=0.8,en;q=0.7,gl;q=0.6,zu;q=0.5","66897958f4e99d36b4091abe","686d226cabeef709c732f8e1","686e338c97cddf108604d1a2","66897958f4e99d36b4091abe","","","[0]","","","","quiz","","","","","","","","","","","","","","","","","","","","","","","","","","","","","","","","","","","","","false",""
"3115","","<p align='center'><b>INCORRECT.</b> The blue ball always shakes and moves randomly.</p>","0","html-button-response","32","387932","0.0-8.0-7.1-1.1","204","1","2025-07-09 09:18:52","7701e855f2ef39aa3fd6c71abdc6918a","197.185.177.52","Mozilla/5.0 (Linux; Android 10; K) AppleWebKit/537.36 (KHTML, like Gecko) Chrome/138.0.0.0 Mobile Safari/537.36","WebKit","Chrome","138.0.0.0","AndroidOS","10","https://app.prolific.com/","en-ZA,en-GB;q=0.9,en-US;q=0.8,en;q=0.7,gl;q=0.6,zu;q=0.5","66897958f4e99d36b4091abe","686d226cabeef709c732f8e1","686e338c97cddf108604d1a2","66897958f4e99d36b4091abe","","","","","","","","","","","","","","","","","","","","","","","","","","","","","","","","","","","","","","","","","","","","",""
"3748","","","{""blue_ball"":[""Ball always shakes and moves in a random direction""]}","survey-multi-select","33","391685","0.0-8.0-7.2-0.2","204","1","2025-07-09 09:18:52","7701e855f2ef39aa3fd6c71abdc6918a","197.185.177.52","Mozilla/5.0 (Linux; Android 10; K) AppleWebKit/537.36 (KHTML, like Gecko) Chrome/138.0.0.0 Mobile Safari/537.36","WebKit","Chrome","138.0.0.0","AndroidOS","10","https://app.prolific.com/","en-ZA,en-GB;q=0.9,en-US;q=0.8,en;q=0.7,gl;q=0.6,zu;q=0.5","66897958f4e99d36b4091abe","686d226cabeef709c732f8e1","686e338c97cddf108604d1a2","66897958f4e99d36b4091abe","","","[0]","","","","quiz","","","","","","","","","","","","","","","","","","","","","","","","","","","","","","","","","","","","","true",""
"1462","","<p align='center'><b>CORRECT!</b> Indeed, the blue ball always shakes and moves in a random direction. Also there is a penalty of -1 point.</p>","0","html-button-response","34","393151","0.0-8.0-7.2-1.2","204","1","2025-07-09 09:18:52","7701e855f2ef39aa3fd6c71abdc6918a","197.185.177.52","Mozilla/5.0 (Linux; Android 10; K) AppleWebKit/537.36 (KHTML, like Gecko) Chrome/138.0.0.0 Mobile Safari/537.36","WebKit","Chrome","138.0.0.0","AndroidOS","10","https://app.prolific.com/","en-ZA,en-GB;q=0.9,en-US;q=0.8,en;q=0.7,gl;q=0.6,zu;q=0.5","66897958f4e99d36b4091abe","686d226cabeef709c732f8e1","686e338c97cddf108604d1a2","66897958f4e99d36b4091abe","","","","","","","","","","","","","","","","","","","","","","","","","","","","","","","","","","","","","","","","","","","","",""
"2386","","","{""bonus"":[""When I reach 50% of points""]}","survey-multi-select","35","395544","0.0-8.0-8.0-0.0","204","1","2025-07-09 09:18:52","7701e855f2ef39aa3fd6c71abdc6918a","197.185.177.52","Mozilla/5.0 (Linux; Android 10; K) AppleWebKit/537.36 (KHTML, like Gecko) Chrome/138.0.0.0 Mobile Safari/537.36","WebKit","Chrome","138.0.0.0","AndroidOS","10","https://app.prolific.com/","en-ZA,en-GB;q=0.9,en-US;q=0.8,en;q=0.7,gl;q=0.6,zu;q=0.5","66897958f4e99d36b4091abe","686d226cabeef709c732f8e1","686e338c97cddf108604d1a2","66897958f4e99d36b4091abe","","","[0]","","","","quiz","","","","","","","","","","","","","","","","","","","","","","","","","","","","","","","","","","","","","true",""
"1428","","<p align='center'><b>CORRECT!</b> Indeed, you receive 2 pounds extra when you reach 50% of points.</p>","0","html-button-response","36","396977","0.0-8.0-8.0-1.0","204","1","2025-07-09 09:18:52","7701e855f2ef39aa3fd6c71abdc6918a","197.185.177.52","Mozilla/5.0 (Linux; Android 10; K) AppleWebKit/537.36 (KHTML, like Gecko) Chrome/138.0.0.0 Mobile Safari/537.36","WebKit","Chrome","138.0.0.0","AndroidOS","10","https://app.prolific.com/","en-ZA,en-GB;q=0.9,en-US;q=0.8,en;q=0.7,gl;q=0.6,zu;q=0.5","66897958f4e99d36b4091abe","686d226cabeef709c732f8e1","686e338c97cddf108604d1a2","66897958f4e99d36b4091abe","","","","","","","","","","","","","","","","","","","","","","","","","","","","","","","","","","","","","","","","","","","","",""
"1480","","","","instructions","37","398459","0.0-8.0-9.0","204","1","2025-07-09 09:18:52","7701e855f2ef39aa3fd6c71abdc6918a","197.185.177.52","Mozilla/5.0 (Linux; Android 10; K) AppleWebKit/537.36 (KHTML, like Gecko) Chrome/138.0.0.0 Mobile Safari/537.36","WebKit","Chrome","138.0.0.0","AndroidOS","10","https://app.prolific.com/","en-ZA,en-GB;q=0.9,en-US;q=0.8,en;q=0.7,gl;q=0.6,zu;q=0.5","66897958f4e99d36b4091abe","686d226cabeef709c732f8e1","686e338c97cddf108604d1a2","66897958f4e99d36b4091abe","","[{""page_index"":0,""viewing_time"":1479}]","","","","","","","","","","","","","","","","","","","","","","","","","","","","","","","","","","","","","","","","","","",""
"4521","","<p>Before you start with this game please answer the following three questions yourself. </p>
  <p>Through this game, we measure several aspects of your cognitive performance, such as reaction times, multi-tasking capabilities </p>
  <p>and the ability to assess the situation you are in.</p>
  <p></p>
  <p><b>How good do you usually are in such tasks?</b></p>","76","html-slider-response","38","402992","0.0-9.0-0.0","204","1","2025-07-09 09:18:52","7701e855f2ef39aa3fd6c71abdc6918a","197.185.177.52","Mozilla/5.0 (Linux; Android 10; K) AppleWebKit/537.36 (KHTML, like Gecko) Chrome/138.0.0.0 Mobile Safari/537.36","WebKit","Chrome","138.0.0.0","AndroidOS","10","https://app.prolific.com/","en-ZA,en-GB;q=0.9,en-US;q=0.8,en;q=0.7,gl;q=0.6,zu;q=0.5","66897958f4e99d36b4091abe","686d226cabeef709c732f8e1","686e338c97cddf108604d1a2","66897958f4e99d36b4091abe","2025-07-09T10:01:57.792Z","","","","","","PreSkillQ","","","","","","","","","","","","","","","","","","","","","","","","","","","","","","","","","","","","","","50"
"1548","","<div style=""width:500px;"">
  <p>How well do you think you will perform in this task compared to other participants?</p>
  </div>","83","html-slider-response","39","404544","0.0-9.0-1.0","204","1","2025-07-09 09:18:52","7701e855f2ef39aa3fd6c71abdc6918a","197.185.177.52","Mozilla/5.0 (Linux; Android 10; K) AppleWebKit/537.36 (KHTML, like Gecko) Chrome/138.0.0.0 Mobile Safari/537.36","WebKit","Chrome","138.0.0.0","AndroidOS","10","https://app.prolific.com/","en-ZA,en-GB;q=0.9,en-US;q=0.8,en;q=0.7,gl;q=0.6,zu;q=0.5","66897958f4e99d36b4091abe","686d226cabeef709c732f8e1","686e338c97cddf108604d1a2","66897958f4e99d36b4091abe","2025-07-09T10:01:59.344Z","","","","","","PrePerfQ","","","","","","","","","","","","","","","","","","","","","","","","","","","","","","","","","","","","","","50"
"1407","","<div style=""width:500px;"">
  <p>What best describes how you currently feel?</p>
  </div>","78","html-slider-response","40","405954","0.0-9.0-2.0","204","1","2025-07-09 09:18:52","7701e855f2ef39aa3fd6c71abdc6918a","197.185.177.52","Mozilla/5.0 (Linux; Android 10; K) AppleWebKit/537.36 (KHTML, like Gecko) Chrome/138.0.0.0 Mobile Safari/537.36","WebKit","Chrome","138.0.0.0","AndroidOS","10","https://app.prolific.com/","en-ZA,en-GB;q=0.9,en-US;q=0.8,en;q=0.7,gl;q=0.6,zu;q=0.5","66897958f4e99d36b4091abe","686d226cabeef709c732f8e1","686e338c97cddf108604d1a2","66897958f4e99d36b4091abe","2025-07-09T10:02:00.754Z","","","","","","PreMotivationQ","","","","","","","","","","","","","","","","","","","","","","","","","","","","","","","","","","","","","","50"
"","","","","ctl-task-cpt","41","430517","0.0-10.0-0.0","204","1","2025-07-09 09:18:52","7701e855f2ef39aa3fd6c71abdc6918a","197.185.177.52","Mozilla/5.0 (Linux; Android 10; K) AppleWebKit/537.36 (KHTML, like Gecko) Chrome/138.0.0.0 Mobile Safari/537.36","WebKit","Chrome","138.0.0.0","AndroidOS","10","https://app.prolific.com/","en-ZA,en-GB;q=0.9,en-US;q=0.8,en;q=0.7,gl;q=0.6,zu;q=0.5","66897958f4e99d36b4091abe","686d226cabeef709c732f8e1","686e338c97cddf108604d1a2","66897958f4e99d36b4091abe","2025-07-09T10:02:25.318Z","","","","","","","","","","","","","","","","win-only","2","g1:SE,g2:NW","1","1","0","410990.8","2970.7","7971.9","21520.7","1","4","8","6","2","-8","-8","0","0","0","1687.8","3000","-2730","[""left"",""up""]","{""num_key_presses"":0,""num_perfect"":0,""num_errors"":0,""num_randdir"":0,""num_randdir_good_moves"":0,""num_whilered"":0,""num_whileblue"":0,""num_blue"":2,""num_good_moves"":0}","[797.6249989271164,810.749997138977,0.7,797.6249989271164,810.749997138977,123.3,797.6249989271164,810.749997138977,225.3,797.6249989271164,810.749997138977,329.6,797.6249989271164,810.749997138977,429.7,797.6249989271164,810.749997138977,530.1,797.6249989271164,810.749997138977,663.9,797.6249989271164,810.749997138977,765.2,797.6249989271164,810.749997138977,890.1,797.6249989271164,810.749997138977,1012,797.6249989271164,810.749997138977,1147.9,797.6249989271164,810.749997138977,1250.5,797.6249989271164,810.749997138977,1355.1,797.6249989271164,810.749997138977,1471.6,797.6249989271164,810.749997138977,1575.6,122.6249989271164,169.49999713897705,1692.6,122.6249989271164,169.49999713897705,1820,122.6249989271164,169.49999713897705,1938.4,122.6249989271164,169.49999713897705,2040.9,122.6249989271164,169.49999713897705,2167.1,122.6249989271164,169.49999713897705,2270.7,122.6249989271164,169.49999713897705,2371.7,122.6249989271164,169.49999713897705,2471.7,122.6249989271164,169.49999713897705,2603.7,122.6249989271164,169.49999713897705,2718.9,122.6249989271164,169.49999713897705,2823.3,122.6249989271164,169.49999713897705,2950.6,122.6249989271164,169.49999713897705,3051.8,122.6249989271164,169.49999713897705,3196.4,122.6249989271164,169.49999713897705,3307.8,122.6249989271164,169.49999713897705,3420.4,122.6249989271164,169.49999713897705,3521.2,122.6249989271164,169.49999713897705,3657.1,122.6249989271164,169.49999713897705,3761,122.6249989271164,169.49999713897705,3864.7,122.6249989271164,169.49999713897705,3971.9,122.6249989271164,169.49999713897705,4075.1,122.6249989271164,169.49999713897705,4190.1,122.6249989271164,169.49999713897705,4295.9,122.6249989271164,169.49999713897705,4417.2,122.6249989271164,169.49999713897705,4528.3,122.6249989271164,169.49999713897705,4629.9,122.6249989271164,169.49999713897705,4731.7,122.6249989271164,169.49999713897705,4832.5,122.6249989271164,169.49999713897705,4932.9]","[]","",""
"3298","","<div style=""width:500px;"">
  <p>What determined the result of this run?</p>
  </div>","69","html-slider-response","42","433821","0.0-10.0-1.0","204","1","2025-07-09 09:18:52","7701e855f2ef39aa3fd6c71abdc6918a","197.185.177.52","Mozilla/5.0 (Linux; Android 10; K) AppleWebKit/537.36 (KHTML, like Gecko) Chrome/138.0.0.0 Mobile Safari/537.36","WebKit","Chrome","138.0.0.0","AndroidOS","10","https://app.prolific.com/","en-ZA,en-GB;q=0.9,en-US;q=0.8,en;q=0.7,gl;q=0.6,zu;q=0.5","66897958f4e99d36b4091abe","686d226cabeef709c732f8e1","686e338c97cddf108604d1a2","66897958f4e99d36b4091abe","2025-07-09T10:02:28.621Z","","","","","","AttribQ","","","","","","","","","","","","","","","","","","","","","","","","","","","","","","","","","","","","","","50"
"1469","","<div style=""width:500px;"">
  <p>How much control did you have over the ball?</p>
  </div>","70","html-slider-response","43","435294","0.0-10.0-2.0","204","1","2025-07-09 09:18:52","7701e855f2ef39aa3fd6c71abdc6918a","197.185.177.52","Mozilla/5.0 (Linux; Android 10; K) AppleWebKit/537.36 (KHTML, like Gecko) Chrome/138.0.0.0 Mobile Safari/537.36","WebKit","Chrome","138.0.0.0","AndroidOS","10","https://app.prolific.com/","en-ZA,en-GB;q=0.9,en-US;q=0.8,en;q=0.7,gl;q=0.6,zu;q=0.5","66897958f4e99d36b4091abe","686d226cabeef709c732f8e1","686e338c97cddf108604d1a2","66897958f4e99d36b4091abe","2025-07-09T10:02:30.094Z","","","","","","ControlQ","","","","","","","","","","","","","","","","","","","","","","","","","","","","","","","","","","","","","","50"
"1236","","<div style=""width:500px;"">
  <p>How would you describe your current emotional state?</p>
  </div>","66","html-slider-response","44","436533","0.0-10.0-3.0","204","1","2025-07-09 09:18:52","7701e855f2ef39aa3fd6c71abdc6918a","197.185.177.52","Mozilla/5.0 (Linux; Android 10; K) AppleWebKit/537.36 (KHTML, like Gecko) Chrome/138.0.0.0 Mobile Safari/537.36","WebKit","Chrome","138.0.0.0","AndroidOS","10","https://app.prolific.com/","en-ZA,en-GB;q=0.9,en-US;q=0.8,en;q=0.7,gl;q=0.6,zu;q=0.5","66897958f4e99d36b4091abe","686d226cabeef709c732f8e1","686e338c97cddf108604d1a2","66897958f4e99d36b4091abe","2025-07-09T10:02:31.333Z","","","","","","StressQ","","","","","","","","","","","","","","","","","","","","","","","","","","","","","","","","","","","","","","50"
"1300","","<div style=""width:500px;"">
  <p>What best describes how you currently feel?</p>
  </div>","64","html-slider-response","45","437836","0.0-10.0-4.0","204","1","2025-07-09 09:18:52","7701e855f2ef39aa3fd6c71abdc6918a","197.185.177.52","Mozilla/5.0 (Linux; Android 10; K) AppleWebKit/537.36 (KHTML, like Gecko) Chrome/138.0.0.0 Mobile Safari/537.36","WebKit","Chrome","138.0.0.0","AndroidOS","10","https://app.prolific.com/","en-ZA,en-GB;q=0.9,en-US;q=0.8,en;q=0.7,gl;q=0.6,zu;q=0.5","66897958f4e99d36b4091abe","686d226cabeef709c732f8e1","686e338c97cddf108604d1a2","66897958f4e99d36b4091abe","2025-07-09T10:02:32.637Z","","","","","","MotivationQ","","","","","","","","","","","","","","","","","","","","","","","","","","","","","","","","","","","","","","50"
"","","","","ctl-task-cpt","46","459891","0.0-10.0-0.1","204","1","2025-07-09 09:18:52","7701e855f2ef39aa3fd6c71abdc6918a","197.185.177.52","Mozilla/5.0 (Linux; Android 10; K) AppleWebKit/537.36 (KHTML, like Gecko) Chrome/138.0.0.0 Mobile Safari/537.36","WebKit","Chrome","138.0.0.0","AndroidOS","10","https://app.prolific.com/","en-ZA,en-GB;q=0.9,en-US;q=0.8,en;q=0.7,gl;q=0.6,zu;q=0.5","66897958f4e99d36b4091abe","686d226cabeef709c732f8e1","686e338c97cddf108604d1a2","66897958f4e99d36b4091abe","2025-07-09T10:02:54.691Z","","","","","","","","","","","","","","","","win-only","2","g1:SE,g2:NW","0.9","2","0","442865.1","7015.4","12046","19037","1","4","4","6","2","-4","-4","0","0","0","971.4","3000","-2595","[""left"",""up""]","{""num_key_presses"":0,""num_perfect"":0,""num_errors"":0,""num_randdir"":0,""num_randdir_good_moves"":0,""num_whilered"":0,""num_whileblue"":0,""num_blue"":0,""num_good_moves"":0}","[800.4374989271164,805.124997138977,0.8,800.4374989271164,805.124997138977,103,800.4374989271164,805.124997138977,206.6,786.3749989271164,791.062497138977,340.7,786.3749989271164,791.062497138977,440.7,786.3749989271164,791.062497138977,541.4,786.3749989271164,791.062497138977,654.4,786.3749989271164,791.062497138977,778.2,786.3749989271164,791.062497138977,881.5,159.1874989271164,152.62499713897705,985,159.1874989271164,152.62499713897705,1088.3,159.1874989271164,152.62499713897705,1191.3,159.1874989271164,152.62499713897705,1296.5,159.1874989271164,152.62499713897705,1397.2,159.1874989271164,152.62499713897705,1498.1,159.1874989271164,152.62499713897705,1604.5,159.1874989271164,152.62499713897705,1719.5,159.1874989271164,152.62499713897705,1876.5,159.1874989271164,152.62499713897705,2000.8,159.1874989271164,152.62499713897705,2117.1,159.1874989271164,152.62499713897705,2222.3,159.1874989271164,152.62499713897705,2324.7,159.1874989271164,152.62499713897705,2451.9,159.1874989271164,152.62499713897705,2567.2,159.1874989271164,152.62499713897705,2673.5,159.1874989271164,152.62499713897705,2778.3,159.1874989271164,152.62499713897705,2883.4,159.1874989271164,152.62499713897705,3012.2,159.1874989271164,152.62499713897705,3112.6,159.1874989271164,152.62499713897705,3236.1,159.1874989271164,152.62499713897705,3372.1,159.1874989271164,152.62499713897705,3537.1,159.1874989271164,152.62499713897705,3641.6,159.1874989271164,152.62499713897705,3751.1,159.1874989271164,152.62499713897705,3855.6,159.1874989271164,152.62499713897705,3966.3,159.1874989271164,152.62499713897705,4102.5,159.1874989271164,152.62499713897705,4207.3,159.1874989271164,152.62499713897705,4312.6,159.1874989271164,152.62499713897705,4454.9,159.1874989271164,152.62499713897705,4584.4,159.1874989271164,152.62499713897705,4694.5,159.1874989271164,152.62499713897705,4832.9,159.1874989271164,152.62499713897705,4949.3]","[]","",""
"1846","","<div style=""width:500px;"">
  <p>What determined the result of this run?</p>
  </div>","68","html-slider-response","47","461742","0.0-10.0-1.1","204","1","2025-07-09 09:18:52","7701e855f2ef39aa3fd6c71abdc6918a","197.185.177.52","Mozilla/5.0 (Linux; Android 10; K) AppleWebKit/537.36 (KHTML, like Gecko) Chrome/138.0.0.0 Mobile Safari/537.36","WebKit","Chrome","138.0.0.0","AndroidOS","10","https://app.prolific.com/","en-ZA,en-GB;q=0.9,en-US;q=0.8,en;q=0.7,gl;q=0.6,zu;q=0.5","66897958f4e99d36b4091abe","686d226cabeef709c732f8e1","686e338c97cddf108604d1a2","66897958f4e99d36b4091abe","2025-07-09T10:02:56.542Z","","","","","","AttribQ","","","","","","","","","","","","","","","","","","","","","","","","","","","","","","","","","","","","","","50"
"1344","","<div style=""width:500px;"">
  <p>How much control did you have over the ball?</p>
  </div>","34","html-slider-response","48","463090","0.0-10.0-2.1","204","1","2025-07-09 09:18:52","7701e855f2ef39aa3fd6c71abdc6918a","197.185.177.52","Mozilla/5.0 (Linux; Android 10; K) AppleWebKit/537.36 (KHTML, like Gecko) Chrome/138.0.0.0 Mobile Safari/537.36","WebKit","Chrome","138.0.0.0","AndroidOS","10","https://app.prolific.com/","en-ZA,en-GB;q=0.9,en-US;q=0.8,en;q=0.7,gl;q=0.6,zu;q=0.5","66897958f4e99d36b4091abe","686d226cabeef709c732f8e1","686e338c97cddf108604d1a2","66897958f4e99d36b4091abe","2025-07-09T10:02:57.890Z","","","","","","ControlQ","","","","","","","","","","","","","","","","","","","","","","","","","","","","","","","","","","","","","","50"
"1344","","<div style=""width:500px;"">
  <p>How would you describe your current emotional state?</p>
  </div>","29","html-slider-response","49","464438","0.0-10.0-3.1","204","1","2025-07-09 09:18:52","7701e855f2ef39aa3fd6c71abdc6918a","197.185.177.52","Mozilla/5.0 (Linux; Android 10; K) AppleWebKit/537.36 (KHTML, like Gecko) Chrome/138.0.0.0 Mobile Safari/537.36","WebKit","Chrome","138.0.0.0","AndroidOS","10","https://app.prolific.com/","en-ZA,en-GB;q=0.9,en-US;q=0.8,en;q=0.7,gl;q=0.6,zu;q=0.5","66897958f4e99d36b4091abe","686d226cabeef709c732f8e1","686e338c97cddf108604d1a2","66897958f4e99d36b4091abe","2025-07-09T10:02:59.238Z","","","","","","StressQ","","","","","","","","","","","","","","","","","","","","","","","","","","","","","","","","","","","","","","50"
"1620","","<div style=""width:500px;"">
  <p>What best describes how you currently feel?</p>
  </div>","72","html-slider-response","50","466061","0.0-10.0-4.1","204","1","2025-07-09 09:18:52","7701e855f2ef39aa3fd6c71abdc6918a","197.185.177.52","Mozilla/5.0 (Linux; Android 10; K) AppleWebKit/537.36 (KHTML, like Gecko) Chrome/138.0.0.0 Mobile Safari/537.36","WebKit","Chrome","138.0.0.0","AndroidOS","10","https://app.prolific.com/","en-ZA,en-GB;q=0.9,en-US;q=0.8,en;q=0.7,gl;q=0.6,zu;q=0.5","66897958f4e99d36b4091abe","686d226cabeef709c732f8e1","686e338c97cddf108604d1a2","66897958f4e99d36b4091abe","2025-07-09T10:03:00.861Z","","","","","","MotivationQ","","","","","","","","","","","","","","","","","","","","","","","","","","","","","","","","","","","","","","50"
"","","","","ctl-task-cpt","51","491327","0.0-10.0-0.2","204","1","2025-07-09 09:18:52","7701e855f2ef39aa3fd6c71abdc6918a","197.185.177.52","Mozilla/5.0 (Linux; Android 10; K) AppleWebKit/537.36 (KHTML, like Gecko) Chrome/138.0.0.0 Mobile Safari/537.36","WebKit","Chrome","138.0.0.0","AndroidOS","10","https://app.prolific.com/","en-ZA,en-GB;q=0.9,en-US;q=0.8,en;q=0.7,gl;q=0.6,zu;q=0.5","66897958f4e99d36b4091abe","686d226cabeef709c732f8e1","686e338c97cddf108604d1a2","66897958f4e99d36b4091abe","2025-07-09T10:03:26.127Z","","","","","","","","","","","","","","","","win-only","2","g1:SE,g2:NW","0.8","3","0","471088.8","5920.9","10923.9","22251.7","1","4","4","6","2","-4","-4","0","0","0","1683.1","3000","-1960","[""left"",""up""]","{""num_key_presses"":0,""num_perfect"":0,""num_errors"":0,""num_randdir"":0,""num_randdir_good_moves"":0,""num_whilered"":0,""num_whileblue"":0,""num_blue"":1,""num_good_moves"":0}","[794.8124989271164,788.249997138977,0.7,794.8124989271164,788.249997138977,123.2,794.8124989271164,788.249997138977,224.7,794.8124989271164,788.249997138977,324.7,794.8124989271164,788.249997138977,424.8,794.8124989271164,788.249997138977,534.5,794.8124989271164,788.249997138977,637.5,794.8124989271164,788.249997138977,742.8,794.8124989271164,788.249997138977,849.6,794.8124989271164,788.249997138977,954.9,794.8124989271164,788.249997138977,1097.2,794.8124989271164,788.249997138977,1250,794.8124989271164,788.249997138977,1378.9,794.8124989271164,788.249997138977,1484.1,794.8124989271164,788.249997138977,1589.6,246.3749989271164,200.43749713897705,1689.9,246.3749989271164,200.43749713897705,1790,246.3749989271164,200.43749713897705,1891.9,246.3749989271164,200.43749713897705,1993.4,246.3749989271164,200.43749713897705,2096.9,246.3749989271164,200.43749713897705,2202.5,246.3749989271164,200.43749713897705,2323.1,246.3749989271164,200.43749713897705,2423.7,246.3749989271164,200.43749713897705,2525.4,246.3749989271164,200.43749713897705,2629.7,246.3749989271164,200.43749713897705,2737.3,246.3749989271164,200.43749713897705,2842.9,246.3749989271164,200.43749713897705,2962.2,246.3749989271164,200.43749713897705,3096.6,246.3749989271164,200.43749713897705,3204.3,246.3749989271164,200.43749713897705,3337.1,246.3749989271164,200.43749713897705,3459.9,246.3749989271164,200.43749713897705,3560.7,246.3749989271164,200.43749713897705,3663.3,246.3749989271164,200.43749713897705,3764.6,246.3749989271164,200.43749713897705,3905.9,246.3749989271164,200.43749713897705,4063.5,246.3749989271164,200.43749713897705,4194.3,246.3749989271164,200.43749713897705,4295.8,246.3749989271164,200.43749713897705,4463.2,246.3749989271164,200.43749713897705,4565.2,246.3749989271164,200.43749713897705,4676.5,246.3749989271164,200.43749713897705,4779.7,246.3749989271164,200.43749713897705,4884.3,246.3749989271164,200.43749713897705,4989.5]","[]","",""
"1963","","<div style=""width:500px;"">
  <p>What determined the result of this run?</p>
  </div>","69","html-slider-response","52","493295","0.0-10.0-1.2","204","1","2025-07-09 09:18:52","7701e855f2ef39aa3fd6c71abdc6918a","197.185.177.52","Mozilla/5.0 (Linux; Android 10; K) AppleWebKit/537.36 (KHTML, like Gecko) Chrome/138.0.0.0 Mobile Safari/537.36","WebKit","Chrome","138.0.0.0","AndroidOS","10","https://app.prolific.com/","en-ZA,en-GB;q=0.9,en-US;q=0.8,en;q=0.7,gl;q=0.6,zu;q=0.5","66897958f4e99d36b4091abe","686d226cabeef709c732f8e1","686e338c97cddf108604d1a2","66897958f4e99d36b4091abe","2025-07-09T10:03:28.095Z","","","","","","AttribQ","","","","","","","","","","","","","","","","","","","","","","","","","","","","","","","","","","","","","","50"
"1296","","<div style=""width:500px;"">
  <p>How much control did you have over the ball?</p>
  </div>","30","html-slider-response","53","494594","0.0-10.0-2.2","204","1","2025-07-09 09:18:52","7701e855f2ef39aa3fd6c71abdc6918a","197.185.177.52","Mozilla/5.0 (Linux; Android 10; K) AppleWebKit/537.36 (KHTML, like Gecko) Chrome/138.0.0.0 Mobile Safari/537.36","WebKit","Chrome","138.0.0.0","AndroidOS","10","https://app.prolific.com/","en-ZA,en-GB;q=0.9,en-US;q=0.8,en;q=0.7,gl;q=0.6,zu;q=0.5","66897958f4e99d36b4091abe","686d226cabeef709c732f8e1","686e338c97cddf108604d1a2","66897958f4e99d36b4091abe","2025-07-09T10:03:29.394Z","","","","","","ControlQ","","","","","","","","","","","","","","","","","","","","","","","","","","","","","","","","","","","","","","50"
"1369","","<div style=""width:500px;"">
  <p>How would you describe your current emotional state?</p>
  </div>","73","html-slider-response","54","495965","0.0-10.0-3.2","204","1","2025-07-09 09:18:52","7701e855f2ef39aa3fd6c71abdc6918a","197.185.177.52","Mozilla/5.0 (Linux; Android 10; K) AppleWebKit/537.36 (KHTML, like Gecko) Chrome/138.0.0.0 Mobile Safari/537.36","WebKit","Chrome","138.0.0.0","AndroidOS","10","https://app.prolific.com/","en-ZA,en-GB;q=0.9,en-US;q=0.8,en;q=0.7,gl;q=0.6,zu;q=0.5","66897958f4e99d36b4091abe","686d226cabeef709c732f8e1","686e338c97cddf108604d1a2","66897958f4e99d36b4091abe","2025-07-09T10:03:30.766Z","","","","","","StressQ","","","","","","","","","","","","","","","","","","","","","","","","","","","","","","","","","","","","","","50"
"5094","","<div style=""width:500px;"">
  <p>What best describes how you currently feel?</p>
  </div>","70","html-slider-response","55","501062","0.0-10.0-4.2","204","1","2025-07-09 09:18:52","7701e855f2ef39aa3fd6c71abdc6918a","197.185.177.52","Mozilla/5.0 (Linux; Android 10; K) AppleWebKit/537.36 (KHTML, like Gecko) Chrome/138.0.0.0 Mobile Safari/537.36","WebKit","Chrome","138.0.0.0","AndroidOS","10","https://app.prolific.com/","en-ZA,en-GB;q=0.9,en-US;q=0.8,en;q=0.7,gl;q=0.6,zu;q=0.5","66897958f4e99d36b4091abe","686d226cabeef709c732f8e1","686e338c97cddf108604d1a2","66897958f4e99d36b4091abe","2025-07-09T10:03:35.863Z","","","","","","MotivationQ","","","","","","","","","","","","","","","","","","","","","","","","","","","","","","","","","","","","","","50"
"","","","","ctl-task-cpt","56","519713","0.0-10.0-0.3","204","1","2025-07-09 09:18:52","7701e855f2ef39aa3fd6c71abdc6918a","197.185.177.52","Mozilla/5.0 (Linux; Android 10; K) AppleWebKit/537.36 (KHTML, like Gecko) Chrome/138.0.0.0 Mobile Safari/537.36","WebKit","Chrome","138.0.0.0","AndroidOS","10","https://app.prolific.com/","en-ZA,en-GB;q=0.9,en-US;q=0.8,en;q=0.7,gl;q=0.6,zu;q=0.5","66897958f4e99d36b4091abe","686d226cabeef709c732f8e1","686e338c97cddf108604d1a2","66897958f4e99d36b4091abe","2025-07-09T10:03:54.513Z","","","","","","","","","","","","","","","","win-only","2","g1:SE,g2:NW","0.7","4","0","506089.8","3103.2","8119.6","15636.7","1","4","8","6","2","-8","-8","0","0","0","1893","3000","-2155","[""left"",""up""]","{""num_key_presses"":0,""num_perfect"":0,""num_errors"":0,""num_randdir"":0,""num_randdir_good_moves"":0,""num_whilered"":0,""num_whileblue"":0,""num_blue"":0,""num_good_moves"":0}","[791.9999989271164,774.187497138977,0.5,791.9999989271164,774.187497138977,159.9,791.9999989271164,774.187497138977,306.5,791.9999989271164,774.187497138977,435.9,791.9999989271164,774.187497138977,542.1,791.9999989271164,774.187497138977,643.8,791.9999989271164,774.187497138977,774.5,791.9999989271164,774.187497138977,878.1,791.9999989271164,774.187497138977,1007.9,791.9999989271164,774.187497138977,1108.4,791.9999989271164,774.187497138977,1208.8,791.9999989271164,774.187497138977,1311.1,791.9999989271164,774.187497138977,1412.8,791.9999989271164,774.187497138977,1537.9,791.9999989271164,774.187497138977,1639.1,791.9999989271164,774.187497138977,1740.1,791.9999989271164,774.187497138977,1845.5,142.3124989271164,141.37499713897705,1952.6,142.3124989271164,141.37499713897705,2055.2,142.3124989271164,141.37499713897705,2163,142.3124989271164,141.37499713897705,2270,142.3124989271164,141.37499713897705,2383.1,142.3124989271164,141.37499713897705,2518.2,142.3124989271164,141.37499713897705,2621.8,142.3124989271164,141.37499713897705,2730.4,142.3124989271164,141.37499713897705,2865.4,142.3124989271164,141.37499713897705,3020.9,142.3124989271164,141.37499713897705,3159.4,142.3124989271164,141.37499713897705,3262.3,142.3124989271164,141.37499713897705,3409.8,142.3124989271164,141.37499713897705,3512.8,142.3124989271164,141.37499713897705,3613.8,142.3124989271164,141.37499713897705,3720.3,142.3124989271164,141.37499713897705,3854,142.3124989271164,141.37499713897705,3954,142.3124989271164,141.37499713897705,4054.4,142.3124989271164,141.37499713897705,4195.1,142.3124989271164,141.37499713897705,4299.5,142.3124989271164,141.37499713897705,4434.4,142.3124989271164,141.37499713897705,4539.2,142.3124989271164,141.37499713897705,4642.6,142.3124989271164,141.37499713897705,4793.9,142.3124989271164,141.37499713897705,4934.8]","[]","",""
"2155","","<div style=""width:500px;"">
  <p>What determined the result of this run?</p>
  </div>","68","html-slider-response","57","521873","0.0-10.0-1.3","204","1","2025-07-09 09:18:52","7701e855f2ef39aa3fd6c71abdc6918a","197.185.177.52","Mozilla/5.0 (Linux; Android 10; K) AppleWebKit/537.36 (KHTML, like Gecko) Chrome/138.0.0.0 Mobile Safari/537.36","WebKit","Chrome","138.0.0.0","AndroidOS","10","https://app.prolific.com/","en-ZA,en-GB;q=0.9,en-US;q=0.8,en;q=0.7,gl;q=0.6,zu;q=0.5","66897958f4e99d36b4091abe","686d226cabeef709c732f8e1","686e338c97cddf108604d1a2","66897958f4e99d36b4091abe","2025-07-09T10:03:56.673Z","","","","","","AttribQ","","","","","","","","","","","","","","","","","","","","","","","","","","","","","","","","","","","","","","50"
"2614","","<div style=""width:500px;"">
  <p>How much control did you have over the ball?</p>
  </div>","53","html-slider-response","58","524490","0.0-10.0-2.3","204","1","2025-07-09 09:18:52","7701e855f2ef39aa3fd6c71abdc6918a","197.185.177.52","Mozilla/5.0 (Linux; Android 10; K) AppleWebKit/537.36 (KHTML, like Gecko) Chrome/138.0.0.0 Mobile Safari/537.36","WebKit","Chrome","138.0.0.0","AndroidOS","10","https://app.prolific.com/","en-ZA,en-GB;q=0.9,en-US;q=0.8,en;q=0.7,gl;q=0.6,zu;q=0.5","66897958f4e99d36b4091abe","686d226cabeef709c732f8e1","686e338c97cddf108604d1a2","66897958f4e99d36b4091abe","2025-07-09T10:03:59.290Z","","","","","","ControlQ","","","","","","","","","","","","","","","","","","","","","","","","","","","","","","","","","","","","","","50"
"4620","","<div style=""width:500px;"">
  <p>How would you describe your current emotional state?</p>
  </div>","72","html-slider-response","59","529113","0.0-10.0-3.3","204","1","2025-07-09 09:18:52","7701e855f2ef39aa3fd6c71abdc6918a","197.185.177.52","Mozilla/5.0 (Linux; Android 10; K) AppleWebKit/537.36 (KHTML, like Gecko) Chrome/138.0.0.0 Mobile Safari/537.36","WebKit","Chrome","138.0.0.0","AndroidOS","10","https://app.prolific.com/","en-ZA,en-GB;q=0.9,en-US;q=0.8,en;q=0.7,gl;q=0.6,zu;q=0.5","66897958f4e99d36b4091abe","686d226cabeef709c732f8e1","686e338c97cddf108604d1a2","66897958f4e99d36b4091abe","2025-07-09T10:04:03.913Z","","","","","","StressQ","","","","","","","","","","","","","","","","","","","","","","","","","","","","","","","","","","","","","","50"
"1394","","<div style=""width:500px;"">
  <p>What best describes how you currently feel?</p>
  </div>","81","html-slider-response","60","530510","0.0-10.0-4.3","204","1","2025-07-09 09:18:52","7701e855f2ef39aa3fd6c71abdc6918a","197.185.177.52","Mozilla/5.0 (Linux; Android 10; K) AppleWebKit/537.36 (KHTML, like Gecko) Chrome/138.0.0.0 Mobile Safari/537.36","WebKit","Chrome","138.0.0.0","AndroidOS","10","https://app.prolific.com/","en-ZA,en-GB;q=0.9,en-US;q=0.8,en;q=0.7,gl;q=0.6,zu;q=0.5","66897958f4e99d36b4091abe","686d226cabeef709c732f8e1","686e338c97cddf108604d1a2","66897958f4e99d36b4091abe","2025-07-09T10:04:05.310Z","","","","","","MotivationQ","","","","","","","","","","","","","","","","","","","","","","","","","","","","","","","","","","","","","","50"
"","","","","ctl-task-cpt","61","549682","0.0-10.0-0.4","204","1","2025-07-09 09:18:52","7701e855f2ef39aa3fd6c71abdc6918a","197.185.177.52","Mozilla/5.0 (Linux; Android 10; K) AppleWebKit/537.36 (KHTML, like Gecko) Chrome/138.0.0.0 Mobile Safari/537.36","WebKit","Chrome","138.0.0.0","AndroidOS","10","https://app.prolific.com/","en-ZA,en-GB;q=0.9,en-US;q=0.8,en;q=0.7,gl;q=0.6,zu;q=0.5","66897958f4e99d36b4091abe","686d226cabeef709c732f8e1","686e338c97cddf108604d1a2","66897958f4e99d36b4091abe","2025-07-09T10:04:24.482Z","","","","","","","","","","","","","","","","win-only","1","g1:NE,g2:SW","0.6","5","0","535537.9","3712.8","8714.7","16155","1","4","4","6","2","-4","-4","0","0","0","1095","3000","-1340","[""down"",""left""]","{""num_key_presses"":0,""num_perfect"":0,""num_errors"":0,""num_randdir"":0,""num_randdir_good_moves"":0,""num_whilered"":0,""num_whileblue"":0,""num_blue"":0,""num_good_moves"":0}","[797.6249989271164,785.437497138977,0.9,797.6249989271164,785.437497138977,109.9,797.6249989271164,785.437497138977,268,797.6249989271164,785.437497138977,373.4,797.6249989271164,785.437497138977,500.9,797.6249989271164,785.437497138977,618.2,797.6249989271164,785.437497138977,725.5,797.6249989271164,785.437497138977,829.8,797.6249989271164,785.437497138977,939.5,797.6249989271164,785.437497138977,1065.9,105.7499989271164,1466.062497138977,1173.5,105.7499989271164,1466.062497138977,1280.2,105.7499989271164,1466.062497138977,1392.2,105.7499989271164,1466.062497138977,1492.2,105.7499989271164,1466.062497138977,1599.4,105.7499989271164,1466.062497138977,1700.4,105.7499989271164,1466.062497138977,1808.8,105.7499989271164,1466.062497138977,1908.9,105.7499989271164,1466.062497138977,2010.6,105.7499989271164,1466.062497138977,2137.2,105.7499989271164,1466.062497138977,2274.7,105.7499989271164,1466.062497138977,2400.1,105.7499989271164,1466.062497138977,2524.8,105.7499989271164,1466.062497138977,2656.1,105.7499989271164,1466.062497138977,2760.3,105.7499989271164,1466.062497138977,2865.1,105.7499989271164,1466.062497138977,2992.5,105.7499989271164,1466.062497138977,3093.3,105.7499989271164,1466.062497138977,3195.4,105.7499989271164,1466.062497138977,3301.8,105.7499989271164,1466.062497138977,3416.3,105.7499989271164,1466.062497138977,3517.4,105.7499989271164,1466.062497138977,3629.9,105.7499989271164,1466.062497138977,3784.7,105.7499989271164,1466.062497138977,3887.6,105.7499989271164,1466.062497138977,3993.6,105.7499989271164,1466.062497138977,4096.7,105.7499989271164,1466.062497138977,4244.9,105.7499989271164,1466.062497138977,4347.7,105.7499989271164,1466.062497138977,4482.6,105.7499989271164,1466.062497138977,4597.1,105.7499989271164,1466.062497138977,4718.3,105.7499989271164,1466.062497138977,4821.7,105.7499989271164,1466.062497138977,4927.2]","[]","",""
"20719","","<div style=""width:500px;"">
  <p>What determined the result of this run?</p>
  </div>","65","html-slider-response","62","570405","0.0-10.0-1.4","204","1","2025-07-09 09:18:52","7701e855f2ef39aa3fd6c71abdc6918a","197.185.177.52","Mozilla/5.0 (Linux; Android 10; K) AppleWebKit/537.36 (KHTML, like Gecko) Chrome/138.0.0.0 Mobile Safari/537.36","WebKit","Chrome","138.0.0.0","AndroidOS","10","https://app.prolific.com/","en-ZA,en-GB;q=0.9,en-US;q=0.8,en;q=0.7,gl;q=0.6,zu;q=0.5","66897958f4e99d36b4091abe","686d226cabeef709c732f8e1","686e338c97cddf108604d1a2","66897958f4e99d36b4091abe","2025-07-09T10:04:45.205Z","","","","","","AttribQ","","","","","","","","","","","","","","","","","","","","","","","","","","","","","","","","","","","","","","50"
"2410","","<div style=""width:500px;"">
  <p>How much control did you have over the ball?</p>
  </div>","65","html-slider-response","63","572819","0.0-10.0-2.4","204","1","2025-07-09 09:18:52","7701e855f2ef39aa3fd6c71abdc6918a","197.185.177.52","Mozilla/5.0 (Linux; Android 10; K) AppleWebKit/537.36 (KHTML, like Gecko) Chrome/138.0.0.0 Mobile Safari/537.36","WebKit","Chrome","138.0.0.0","AndroidOS","10","https://app.prolific.com/","en-ZA,en-GB;q=0.9,en-US;q=0.8,en;q=0.7,gl;q=0.6,zu;q=0.5","66897958f4e99d36b4091abe","686d226cabeef709c732f8e1","686e338c97cddf108604d1a2","66897958f4e99d36b4091abe","2025-07-09T10:04:47.619Z","","","","","","ControlQ","","","","","","","","","","","","","","","","","","","","","","","","","","","","","","","","","","","","","","50"
"4436","","<div style=""width:500px;"">
  <p>How would you describe your current emotional state?</p>
  </div>","74","html-slider-response","64","577258","0.0-10.0-3.4","204","1","2025-07-09 09:18:52","7701e855f2ef39aa3fd6c71abdc6918a","197.185.177.52","Mozilla/5.0 (Linux; Android 10; K) AppleWebKit/537.36 (KHTML, like Gecko) Chrome/138.0.0.0 Mobile Safari/537.36","WebKit","Chrome","138.0.0.0","AndroidOS","10","https://app.prolific.com/","en-ZA,en-GB;q=0.9,en-US;q=0.8,en;q=0.7,gl;q=0.6,zu;q=0.5","66897958f4e99d36b4091abe","686d226cabeef709c732f8e1","686e338c97cddf108604d1a2","66897958f4e99d36b4091abe","2025-07-09T10:04:52.058Z","","","","","","StressQ","","","","","","","","","","","","","","","","","","","","","","","","","","","","","","","","","","","","","","50"
"9625","","<div style=""width:500px;"">
  <p>What best describes how you currently feel?</p>
  </div>","92","html-slider-response","65","586886","0.0-10.0-4.4","204","1","2025-07-09 09:18:52","7701e855f2ef39aa3fd6c71abdc6918a","197.185.177.52","Mozilla/5.0 (Linux; Android 10; K) AppleWebKit/537.36 (KHTML, like Gecko) Chrome/138.0.0.0 Mobile Safari/537.36","WebKit","Chrome","138.0.0.0","AndroidOS","10","https://app.prolific.com/","en-ZA,en-GB;q=0.9,en-US;q=0.8,en;q=0.7,gl;q=0.6,zu;q=0.5","66897958f4e99d36b4091abe","686d226cabeef709c732f8e1","686e338c97cddf108604d1a2","66897958f4e99d36b4091abe","2025-07-09T10:05:01.686Z","","","","","","MotivationQ","","","","","","","","","","","","","","","","","","","","","","","","","","","","","","","","","","","","","","50"
"","","","","ctl-task-cpt","66","609779","0.0-10.0-0.5","204","1","2025-07-09 09:18:52","7701e855f2ef39aa3fd6c71abdc6918a","197.185.177.52","Mozilla/5.0 (Linux; Android 10; K) AppleWebKit/537.36 (KHTML, like Gecko) Chrome/138.0.0.0 Mobile Safari/537.36","WebKit","Chrome","138.0.0.0","AndroidOS","10","https://app.prolific.com/","en-ZA,en-GB;q=0.9,en-US;q=0.8,en;q=0.7,gl;q=0.6,zu;q=0.5","66897958f4e99d36b4091abe","686d226cabeef709c732f8e1","686e338c97cddf108604d1a2","66897958f4e99d36b4091abe","2025-07-09T10:05:24.579Z","","","","","","","","","","","","","","","","win-only","0","g1:NW,g2:SE","0.5","6","0","591913.5","4356.5","9359.4","19874.4","1","4","8","6","2","-8","-8","0","0","0","2336.8","3000","-1445","[""down"",""right""]","{""num_key_presses"":0,""num_perfect"":0,""num_errors"":0,""num_randdir"":0,""num_randdir_good_moves"":0,""num_whilered"":0,""num_whileblue"":0,""num_blue"":0,""num_good_moves"":0}","[797.6249989271164,782.624997138977,0.7,797.6249989271164,782.624997138977,102.7,797.6249989271164,782.624997138977,203.1,797.6249989271164,782.624997138977,311.6,797.6249989271164,782.624997138977,414.4,797.6249989271164,782.624997138977,514.4,797.6249989271164,782.624997138977,616.5,797.6249989271164,782.624997138977,724.1,797.6249989271164,782.624997138977,830.2,797.6249989271164,782.624997138977,936.4,797.6249989271164,782.624997138977,1036.4,797.6249989271164,782.624997138977,1152.2,797.6249989271164,782.624997138977,1254.3,797.6249989271164,782.624997138977,1363.9,797.6249989271164,782.624997138977,1465.4,797.6249989271164,782.624997138977,1570.8,797.6249989271164,782.624997138977,1675.6,797.6249989271164,782.624997138977,1784.2,797.6249989271164,782.624997138977,1936.7,797.6249989271164,782.624997138977,2040.7,797.6249989271164,782.624997138977,2143.4,797.6249989271164,782.624997138977,2269.5,1461.3749989271164,1496.999997138977,2378.9,1461.3749989271164,1496.999997138977,2482.1,1461.3749989271164,1496.999997138977,2587.1,1461.3749989271164,1496.999997138977,2694.6,1461.3749989271164,1496.999997138977,2795.1,1461.3749989271164,1496.999997138977,2899,1461.3749989271164,1496.999997138977,3005.7,1461.3749989271164,1496.999997138977,3113.4,1461.3749989271164,1496.999997138977,3219.8,1461.3749989271164,1496.999997138977,3323.2,1461.3749989271164,1496.999997138977,3430.8,1461.3749989271164,1496.999997138977,3531.1,1461.3749989271164,1496.999997138977,3634.1,1461.3749989271164,1496.999997138977,3738.2,1461.3749989271164,1496.999997138977,3875,1461.3749989271164,1496.999997138977,3977.1,1461.3749989271164,1496.999997138977,4078.8,1461.3749989271164,1496.999997138977,4180.1,1461.3749989271164,1496.999997138977,4283.4,1461.3749989271164,1496.999997138977,4386.7,1461.3749989271164,1496.999997138977,4490.3,1461.3749989271164,1496.999997138977,4596.7,1461.3749989271164,1496.999997138977,4700.7,1461.3749989271164,1496.999997138977,4811.2,1461.3749989271164,1496.999997138977,4914.6]","[]","",""
"1715","","<div style=""width:500px;"">
  <p>What determined the result of this run?</p>
  </div>","84","html-slider-response","67","611498","0.0-10.0-1.5","204","1","2025-07-09 09:18:52","7701e855f2ef39aa3fd6c71abdc6918a","197.185.177.52","Mozilla/5.0 (Linux; Android 10; K) AppleWebKit/537.36 (KHTML, like Gecko) Chrome/138.0.0.0 Mobile Safari/537.36","WebKit","Chrome","138.0.0.0","AndroidOS","10","https://app.prolific.com/","en-ZA,en-GB;q=0.9,en-US;q=0.8,en;q=0.7,gl;q=0.6,zu;q=0.5","66897958f4e99d36b4091abe","686d226cabeef709c732f8e1","686e338c97cddf108604d1a2","66897958f4e99d36b4091abe","2025-07-09T10:05:26.298Z","","","","","","AttribQ","","","","","","","","","","","","","","","","","","","","","","","","","","","","","","","","","","","","","","50"
"1364","","<div style=""width:500px;"">
  <p>How much control did you have over the ball?</p>
  </div>","70","html-slider-response","68","612866","0.0-10.0-2.5","204","1","2025-07-09 09:18:52","7701e855f2ef39aa3fd6c71abdc6918a","197.185.177.52","Mozilla/5.0 (Linux; Android 10; K) AppleWebKit/537.36 (KHTML, like Gecko) Chrome/138.0.0.0 Mobile Safari/537.36","WebKit","Chrome","138.0.0.0","AndroidOS","10","https://app.prolific.com/","en-ZA,en-GB;q=0.9,en-US;q=0.8,en;q=0.7,gl;q=0.6,zu;q=0.5","66897958f4e99d36b4091abe","686d226cabeef709c732f8e1","686e338c97cddf108604d1a2","66897958f4e99d36b4091abe","2025-07-09T10:05:27.666Z","","","","","","ControlQ","","","","","","","","","","","","","","","","","","","","","","","","","","","","","","","","","","","","","","50"
"5335","","<div style=""width:500px;"">
  <p>How would you describe your current emotional state?</p>
  </div>","53","html-slider-response","69","618203","0.0-10.0-3.5","204","1","2025-07-09 09:18:52","7701e855f2ef39aa3fd6c71abdc6918a","197.185.177.52","Mozilla/5.0 (Linux; Android 10; K) AppleWebKit/537.36 (KHTML, like Gecko) Chrome/138.0.0.0 Mobile Safari/537.36","WebKit","Chrome","138.0.0.0","AndroidOS","10","https://app.prolific.com/","en-ZA,en-GB;q=0.9,en-US;q=0.8,en;q=0.7,gl;q=0.6,zu;q=0.5","66897958f4e99d36b4091abe","686d226cabeef709c732f8e1","686e338c97cddf108604d1a2","66897958f4e99d36b4091abe","2025-07-09T10:05:33.004Z","","","","","","StressQ","","","","","","","","","","","","","","","","","","","","","","","","","","","","","","","","","","","","","","50"
"2442","","<div style=""width:500px;"">
  <p>What best describes how you currently feel?</p>
  </div>","76","html-slider-response","70","620649","0.0-10.0-4.5","204","1","2025-07-09 09:18:52","7701e855f2ef39aa3fd6c71abdc6918a","197.185.177.52","Mozilla/5.0 (Linux; Android 10; K) AppleWebKit/537.36 (KHTML, like Gecko) Chrome/138.0.0.0 Mobile Safari/537.36","WebKit","Chrome","138.0.0.0","AndroidOS","10","https://app.prolific.com/","en-ZA,en-GB;q=0.9,en-US;q=0.8,en;q=0.7,gl;q=0.6,zu;q=0.5","66897958f4e99d36b4091abe","686d226cabeef709c732f8e1","686e338c97cddf108604d1a2","66897958f4e99d36b4091abe","2025-07-09T10:05:35.449Z","","","","","","MotivationQ","","","","","","","","","","","","","","","","","","","","","","","","","","","","","","","","","","","","","","50"
"","","","","ctl-task-cpt","71","655742","0.0-10.0-0.6","204","1","2025-07-09 09:18:52","7701e855f2ef39aa3fd6c71abdc6918a","197.185.177.52","Mozilla/5.0 (Linux; Android 10; K) AppleWebKit/537.36 (KHTML, like Gecko) Chrome/138.0.0.0 Mobile Safari/537.36","WebKit","Chrome","138.0.0.0","AndroidOS","10","https://app.prolific.com/","en-ZA,en-GB;q=0.9,en-US;q=0.8,en;q=0.7,gl;q=0.6,zu;q=0.5","66897958f4e99d36b4091abe","686d226cabeef709c732f8e1","686e338c97cddf108604d1a2","66897958f4e99d36b4091abe","2025-07-09T10:06:10.543Z","","","","","","","","","","","","","","","","win-only","1","g1:NE,g2:SW","0.4","7","0","625676.1","5800.1","10805","32070.1","1","4","4","6","2","-4","-4","0","0","0","1762.8","3000","-1120","[""down"",""left""]","{""num_key_presses"":0,""num_perfect"":0,""num_errors"":0,""num_randdir"":0,""num_randdir_good_moves"":0,""num_whilered"":0,""num_whileblue"":0,""num_blue"":3,""num_good_moves"":0}","[789.1874989271164,793.874997138977,0.8,789.1874989271164,793.874997138977,105.7,789.1874989271164,793.874997138977,232.1,789.1874989271164,793.874997138977,333.6,789.1874989271164,793.874997138977,439.3,789.1874989271164,793.874997138977,543.6,789.1874989271164,793.874997138977,685.5,789.1874989271164,793.874997138977,793.6,789.1874989271164,793.874997138977,898.3,789.1874989271164,793.874997138977,1028.9,789.1874989271164,793.874997138977,1130.9,789.1874989271164,793.874997138977,1241.1,789.1874989271164,793.874997138977,1408,789.1874989271164,793.874997138977,1515.4,789.1874989271164,793.874997138977,1627.9,789.1874989271164,793.874997138977,1761.7,91.6874989271164,1466.062497138977,1883.9,91.6874989271164,1466.062497138977,1987.9,91.6874989271164,1466.062497138977,2092.2,91.6874989271164,1466.062497138977,2199.7,91.6874989271164,1466.062497138977,2313.7,91.6874989271164,1466.062497138977,2436.4,91.6874989271164,1466.062497138977,2576.5,91.6874989271164,1466.062497138977,2681.9,91.6874989271164,1466.062497138977,2810.3,91.6874989271164,1466.062497138977,2911.1,91.6874989271164,1466.062497138977,3018.1,91.6874989271164,1466.062497138977,3213.1,91.6874989271164,1466.062497138977,3322.2,91.6874989271164,1466.062497138977,3426.6,91.6874989271164,1466.062497138977,3529,91.6874989271164,1466.062497138977,3636.9,91.6874989271164,1466.062497138977,3767.9,91.6874989271164,1466.062497138977,3873.4,91.6874989271164,1466.062497138977,3983.6,91.6874989271164,1466.062497138977,4091.7,91.6874989271164,1466.062497138977,4199.9,91.6874989271164,1466.062497138977,4304.4,91.6874989271164,1466.062497138977,4409.9,133.8749989271164,1412.624997138977,4531.6,133.8749989271164,1412.624997138977,4633.1,133.8749989271164,1412.624997138977,4739.7,133.8749989271164,1412.624997138977,4853,133.8749989271164,1412.624997138977,4958.6]","[]","",""
"1678","","<div style=""width:500px;"">
  <p>What determined the result of this run?</p>
  </div>","76","html-slider-response","72","657434","0.0-10.0-1.6","204","1","2025-07-09 09:18:52","7701e855f2ef39aa3fd6c71abdc6918a","197.185.177.52","Mozilla/5.0 (Linux; Android 10; K) AppleWebKit/537.36 (KHTML, like Gecko) Chrome/138.0.0.0 Mobile Safari/537.36","WebKit","Chrome","138.0.0.0","AndroidOS","10","https://app.prolific.com/","en-ZA,en-GB;q=0.9,en-US;q=0.8,en;q=0.7,gl;q=0.6,zu;q=0.5","66897958f4e99d36b4091abe","686d226cabeef709c732f8e1","686e338c97cddf108604d1a2","66897958f4e99d36b4091abe","2025-07-09T10:06:12.234Z","","","","","","AttribQ","","","","","","","","","","","","","","","","","","","","","","","","","","","","","","","","","","","","","","50"
"2103","","<div style=""width:500px;"">
  <p>How much control did you have over the ball?</p>
  </div>","69","html-slider-response","73","659539","0.0-10.0-2.6","204","1","2025-07-09 09:18:52","7701e855f2ef39aa3fd6c71abdc6918a","197.185.177.52","Mozilla/5.0 (Linux; Android 10; K) AppleWebKit/537.36 (KHTML, like Gecko) Chrome/138.0.0.0 Mobile Safari/537.36","WebKit","Chrome","138.0.0.0","AndroidOS","10","https://app.prolific.com/","en-ZA,en-GB;q=0.9,en-US;q=0.8,en;q=0.7,gl;q=0.6,zu;q=0.5","66897958f4e99d36b4091abe","686d226cabeef709c732f8e1","686e338c97cddf108604d1a2","66897958f4e99d36b4091abe","2025-07-09T10:06:14.339Z","","","","","","ControlQ","","","","","","","","","","","","","","","","","","","","","","","","","","","","","","","","","","","","","","50"
"10072","","<div style=""width:500px;"">
  <p>How would you describe your current emotional state?</p>
  </div>","82","html-slider-response","74","669614","0.0-10.0-3.6","204","1","2025-07-09 09:18:52","7701e855f2ef39aa3fd6c71abdc6918a","197.185.177.52","Mozilla/5.0 (Linux; Android 10; K) AppleWebKit/537.36 (KHTML, like Gecko) Chrome/138.0.0.0 Mobile Safari/537.36","WebKit","Chrome","138.0.0.0","AndroidOS","10","https://app.prolific.com/","en-ZA,en-GB;q=0.9,en-US;q=0.8,en;q=0.7,gl;q=0.6,zu;q=0.5","66897958f4e99d36b4091abe","686d226cabeef709c732f8e1","686e338c97cddf108604d1a2","66897958f4e99d36b4091abe","2025-07-09T10:06:24.414Z","","","","","","StressQ","","","","","","","","","","","","","","","","","","","","","","","","","","","","","","","","","","","","","","50"
"5452","","<div style=""width:500px;"">
  <p>What best describes how you currently feel?</p>
  </div>","76","html-slider-response","75","675070","0.0-10.0-4.6","204","1","2025-07-09 09:18:52","7701e855f2ef39aa3fd6c71abdc6918a","197.185.177.52","Mozilla/5.0 (Linux; Android 10; K) AppleWebKit/537.36 (KHTML, like Gecko) Chrome/138.0.0.0 Mobile Safari/537.36","WebKit","Chrome","138.0.0.0","AndroidOS","10","https://app.prolific.com/","en-ZA,en-GB;q=0.9,en-US;q=0.8,en;q=0.7,gl;q=0.6,zu;q=0.5","66897958f4e99d36b4091abe","686d226cabeef709c732f8e1","686e338c97cddf108604d1a2","66897958f4e99d36b4091abe","2025-07-09T10:06:29.870Z","","","","","","MotivationQ","","","","","","","","","","","","","","","","","","","","","","","","","","","","","","","","","","","","","","50"
"","","","","ctl-task-cpt","76","720282","0.0-10.0-0.7","204","1","2025-07-09 09:18:52","7701e855f2ef39aa3fd6c71abdc6918a","197.185.177.52","Mozilla/5.0 (Linux; Android 10; K) AppleWebKit/537.36 (KHTML, like Gecko) Chrome/138.0.0.0 Mobile Safari/537.36","WebKit","Chrome","138.0.0.0","AndroidOS","10","https://app.prolific.com/","en-ZA,en-GB;q=0.9,en-US;q=0.8,en;q=0.7,gl;q=0.6,zu;q=0.5","66897958f4e99d36b4091abe","686d226cabeef709c732f8e1","686e338c97cddf108604d1a2","66897958f4e99d36b4091abe","2025-07-09T10:07:15.082Z","","","","","","","","","","","","","","","","win-only","2","g1:SE,g2:NW","0.3","8","0","680097.7","28566.5","33579.5","42188.7","1","4","8","6","2","-8","-8","0","0","0","1928.9","3000","-1220","[""left"",""up""]","{""num_key_presses"":0,""num_perfect"":0,""num_errors"":0,""num_randdir"":0,""num_randdir_good_moves"":0,""num_whilered"":0,""num_whileblue"":0,""num_blue"":0,""num_good_moves"":0}","[803.2499989271164,805.124997138977,1,803.2499989271164,805.124997138977,102.5,803.2499989271164,805.124997138977,206.1,803.2499989271164,805.124997138977,316.1,803.2499989271164,805.124997138977,421,803.2499989271164,805.124997138977,525.8,803.2499989271164,805.124997138977,627.7,803.2499989271164,805.124997138977,736.3,803.2499989271164,805.124997138977,836.4,803.2499989271164,805.124997138977,940.3,803.2499989271164,805.124997138977,1049.6,803.2499989271164,805.124997138977,1154.7,803.2499989271164,805.124997138977,1267.9,803.2499989271164,805.124997138977,1372.7,803.2499989271164,805.124997138977,1478.6,803.2499989271164,805.124997138977,1589.7,803.2499989271164,805.124997138977,1701.7,803.2499989271164,805.124997138977,1816.6,198.5624989271164,144.18749713897705,1935.2,198.5624989271164,144.18749713897705,2039.1,198.5624989271164,144.18749713897705,2149.4,198.5624989271164,144.18749713897705,2260.8,198.5624989271164,144.18749713897705,2385.3,198.5624989271164,144.18749713897705,2489.7,198.5624989271164,144.18749713897705,2592.6,198.5624989271164,144.18749713897705,2692.8,198.5624989271164,144.18749713897705,2821.4,198.5624989271164,144.18749713897705,2922.1,198.5624989271164,144.18749713897705,3026.9,198.5624989271164,144.18749713897705,3136.8,198.5624989271164,144.18749713897705,3279.8,198.5624989271164,144.18749713897705,3390.3,198.5624989271164,144.18749713897705,3500.2,198.5624989271164,144.18749713897705,3604.7,198.5624989271164,144.18749713897705,3716.4,198.5624989271164,144.18749713897705,3819.2,198.5624989271164,144.18749713897705,3922.9,198.5624989271164,144.18749713897705,4036,198.5624989271164,144.18749713897705,4147.2,198.5624989271164,144.18749713897705,4257.7,198.5624989271164,144.18749713897705,4364.5,198.5624989271164,144.18749713897705,4471.5,198.5624989271164,144.18749713897705,4583.4,198.5624989271164,144.18749713897705,4684.9,198.5624989271164,144.18749713897705,4798.5,198.5624989271164,144.18749713897705,4899.9]","[]","",""
"10326","","<div style=""width:500px;"">
  <p>What determined the result of this run?</p>
  </div>","84","html-slider-response","77","730612","0.0-10.0-1.7","204","1","2025-07-09 09:18:52","7701e855f2ef39aa3fd6c71abdc6918a","197.185.177.52","Mozilla/5.0 (Linux; Android 10; K) AppleWebKit/537.36 (KHTML, like Gecko) Chrome/138.0.0.0 Mobile Safari/537.36","WebKit","Chrome","138.0.0.0","AndroidOS","10","https://app.prolific.com/","en-ZA,en-GB;q=0.9,en-US;q=0.8,en;q=0.7,gl;q=0.6,zu;q=0.5","66897958f4e99d36b4091abe","686d226cabeef709c732f8e1","686e338c97cddf108604d1a2","66897958f4e99d36b4091abe","2025-07-09T10:07:25.412Z","","","","","","AttribQ","","","","","","","","","","","","","","","","","","","","","","","","","","","","","","","","","","","","","","50"
"9015","","<div style=""width:500px;"">
  <p>How much control did you have over the ball?</p>
  </div>","59","html-slider-response","78","739631","0.0-10.0-2.7","204","1","2025-07-09 09:18:52","7701e855f2ef39aa3fd6c71abdc6918a","197.185.177.52","Mozilla/5.0 (Linux; Android 10; K) AppleWebKit/537.36 (KHTML, like Gecko) Chrome/138.0.0.0 Mobile Safari/537.36","WebKit","Chrome","138.0.0.0","AndroidOS","10","https://app.prolific.com/","en-ZA,en-GB;q=0.9,en-US;q=0.8,en;q=0.7,gl;q=0.6,zu;q=0.5","66897958f4e99d36b4091abe","686d226cabeef709c732f8e1","686e338c97cddf108604d1a2","66897958f4e99d36b4091abe","2025-07-09T10:07:34.431Z","","","","","","ControlQ","","","","","","","","","","","","","","","","","","","","","","","","","","","","","","","","","","","","","","50"
"1602","","<div style=""width:500px;"">
  <p>How would you describe your current emotional state?</p>
  </div>","65","html-slider-response","79","741236","0.0-10.0-3.7","204","1","2025-07-09 09:18:52","7701e855f2ef39aa3fd6c71abdc6918a","197.185.177.52","Mozilla/5.0 (Linux; Android 10; K) AppleWebKit/537.36 (KHTML, like Gecko) Chrome/138.0.0.0 Mobile Safari/537.36","WebKit","Chrome","138.0.0.0","AndroidOS","10","https://app.prolific.com/","en-ZA,en-GB;q=0.9,en-US;q=0.8,en;q=0.7,gl;q=0.6,zu;q=0.5","66897958f4e99d36b4091abe","686d226cabeef709c732f8e1","686e338c97cddf108604d1a2","66897958f4e99d36b4091abe","2025-07-09T10:07:36.036Z","","","","","","StressQ","","","","","","","","","","","","","","","","","","","","","","","","","","","","","","","","","","","","","","50"
"5878","","<div style=""width:500px;"">
  <p>What best describes how you currently feel?</p>
  </div>","26","html-slider-response","80","747116","0.0-10.0-4.7","204","1","2025-07-09 09:18:52","7701e855f2ef39aa3fd6c71abdc6918a","197.185.177.52","Mozilla/5.0 (Linux; Android 10; K) AppleWebKit/537.36 (KHTML, like Gecko) Chrome/138.0.0.0 Mobile Safari/537.36","WebKit","Chrome","138.0.0.0","AndroidOS","10","https://app.prolific.com/","en-ZA,en-GB;q=0.9,en-US;q=0.8,en;q=0.7,gl;q=0.6,zu;q=0.5","66897958f4e99d36b4091abe","686d226cabeef709c732f8e1","686e338c97cddf108604d1a2","66897958f4e99d36b4091abe","2025-07-09T10:07:41.916Z","","","","","","MotivationQ","","","","","","","","","","","","","","","","","","","","","","","","","","","","","","","","","","","","","","50"
"","","","","ctl-task-cpt","81","773443","0.0-10.0-0.8","204","1","2025-07-09 09:18:52","7701e855f2ef39aa3fd6c71abdc6918a","197.185.177.52","Mozilla/5.0 (Linux; Android 10; K) AppleWebKit/537.36 (KHTML, like Gecko) Chrome/138.0.0.0 Mobile Safari/537.36","WebKit","Chrome","138.0.0.0","AndroidOS","10","https://app.prolific.com/","en-ZA,en-GB;q=0.9,en-US;q=0.8,en;q=0.7,gl;q=0.6,zu;q=0.5","66897958f4e99d36b4091abe","686d226cabeef709c732f8e1","686e338c97cddf108604d1a2","66897958f4e99d36b4091abe","2025-07-09T10:08:08.243Z","","","","","","","","","","","","","","","","win-only","1","g1:NE,g2:SW","0.2","9","0","752144.1","6301.3","11305.9","23304.5","1","4","4","6","2","-4","-4","0","0","0","902.3","3000","-1355","[""down"",""left""]","{""num_key_presses"":0,""num_perfect"":0,""num_errors"":0,""num_randdir"":0,""num_randdir_good_moves"":0,""num_whilered"":0,""num_whileblue"":0,""num_blue"":0,""num_good_moves"":0}","[772.3124989271164,779.812497138977,0.7,772.3124989271164,779.812497138977,110.4,772.3124989271164,779.812497138977,212.1,772.3124989271164,779.812497138977,324.8,772.3124989271164,779.812497138977,426.1,772.3124989271164,779.812497138977,526.2,772.3124989271164,779.812497138977,630.6,772.3124989271164,779.812497138977,734.6,772.3124989271164,779.812497138977,838.2,147.9374989271164,1443.562497138977,948.9,147.9374989271164,1443.562497138977,1050.9,147.9374989271164,1443.562497138977,1199.1,147.9374989271164,1443.562497138977,1299.3,147.9374989271164,1443.562497138977,1412.6,147.9374989271164,1443.562497138977,1518.7,147.9374989271164,1443.562497138977,1630.8,147.9374989271164,1443.562497138977,1735,147.9374989271164,1443.562497138977,1837.1,147.9374989271164,1443.562497138977,1986.9,147.9374989271164,1443.562497138977,2087.8,147.9374989271164,1443.562497138977,2194.1,147.9374989271164,1443.562497138977,2308.5,147.9374989271164,1443.562497138977,2411.7,147.9374989271164,1443.562497138977,2520.5,147.9374989271164,1443.562497138977,2628.3,147.9374989271164,1443.562497138977,2738.8,147.9374989271164,1443.562497138977,2851.5,147.9374989271164,1443.562497138977,2954.1,147.9374989271164,1443.562497138977,3068.7,147.9374989271164,1443.562497138977,3169.6,147.9374989271164,1443.562497138977,3279.5,147.9374989271164,1443.562497138977,3381.2,147.9374989271164,1443.562497138977,3488,147.9374989271164,1443.562497138977,3597.7,147.9374989271164,1443.562497138977,3704.9,147.9374989271164,1443.562497138977,3812.4,147.9374989271164,1443.562497138977,3929,147.9374989271164,1443.562497138977,4029.2,147.9374989271164,1443.562497138977,4131.5,147.9374989271164,1443.562497138977,4237.5,147.9374989271164,1443.562497138977,4341.1,147.9374989271164,1443.562497138977,4452.5,147.9374989271164,1443.562497138977,4572.4,147.9374989271164,1443.562497138977,4681,147.9374989271164,1443.562497138977,4785.7,147.9374989271164,1443.562497138977,4898.4]","[]","",""
"2128","","<div style=""width:500px;"">
  <p>What determined the result of this run?</p>
  </div>","69","html-slider-response","82","775587","0.0-10.0-1.8","204","1","2025-07-09 09:18:52","7701e855f2ef39aa3fd6c71abdc6918a","197.185.177.52","Mozilla/5.0 (Linux; Android 10; K) AppleWebKit/537.36 (KHTML, like Gecko) Chrome/138.0.0.0 Mobile Safari/537.36","WebKit","Chrome","138.0.0.0","AndroidOS","10","https://app.prolific.com/","en-ZA,en-GB;q=0.9,en-US;q=0.8,en;q=0.7,gl;q=0.6,zu;q=0.5","66897958f4e99d36b4091abe","686d226cabeef709c732f8e1","686e338c97cddf108604d1a2","66897958f4e99d36b4091abe","2025-07-09T10:08:10.387Z","","","","","","AttribQ","","","","","","","","","","","","","","","","","","","","","","","","","","","","","","","","","","","","","","50"
"5755","","<div style=""width:500px;"">
  <p>How much control did you have over the ball?</p>
  </div>","70","html-slider-response","83","781345","0.0-10.0-2.8","204","1","2025-07-09 09:18:52","7701e855f2ef39aa3fd6c71abdc6918a","197.185.177.52","Mozilla/5.0 (Linux; Android 10; K) AppleWebKit/537.36 (KHTML, like Gecko) Chrome/138.0.0.0 Mobile Safari/537.36","WebKit","Chrome","138.0.0.0","AndroidOS","10","https://app.prolific.com/","en-ZA,en-GB;q=0.9,en-US;q=0.8,en;q=0.7,gl;q=0.6,zu;q=0.5","66897958f4e99d36b4091abe","686d226cabeef709c732f8e1","686e338c97cddf108604d1a2","66897958f4e99d36b4091abe","2025-07-09T10:08:16.145Z","","","","","","ControlQ","","","","","","","","","","","","","","","","","","","","","","","","","","","","","","","","","","","","","","50"
"4687","","<div style=""width:500px;"">
  <p>How would you describe your current emotional state?</p>
  </div>","69","html-slider-response","84","786035","0.0-10.0-3.8","204","1","2025-07-09 09:18:52","7701e855f2ef39aa3fd6c71abdc6918a","197.185.177.52","Mozilla/5.0 (Linux; Android 10; K) AppleWebKit/537.36 (KHTML, like Gecko) Chrome/138.0.0.0 Mobile Safari/537.36","WebKit","Chrome","138.0.0.0","AndroidOS","10","https://app.prolific.com/","en-ZA,en-GB;q=0.9,en-US;q=0.8,en;q=0.7,gl;q=0.6,zu;q=0.5","66897958f4e99d36b4091abe","686d226cabeef709c732f8e1","686e338c97cddf108604d1a2","66897958f4e99d36b4091abe","2025-07-09T10:08:20.836Z","","","","","","StressQ","","","","","","","","","","","","","","","","","","","","","","","","","","","","","","","","","","","","","","50"
"6847","","<div style=""width:500px;"">
  <p>What best describes how you currently feel?</p>
  </div>","34","html-slider-response","85","792890","0.0-10.0-4.8","204","1","2025-07-09 09:18:52","7701e855f2ef39aa3fd6c71abdc6918a","197.185.177.52","Mozilla/5.0 (Linux; Android 10; K) AppleWebKit/537.36 (KHTML, like Gecko) Chrome/138.0.0.0 Mobile Safari/537.36","WebKit","Chrome","138.0.0.0","AndroidOS","10","https://app.prolific.com/","en-ZA,en-GB;q=0.9,en-US;q=0.8,en;q=0.7,gl;q=0.6,zu;q=0.5","66897958f4e99d36b4091abe","686d226cabeef709c732f8e1","686e338c97cddf108604d1a2","66897958f4e99d36b4091abe","2025-07-09T10:08:27.690Z","","","","","","MotivationQ","","","","","","","","","","","","","","","","","","","","","","","","","","","","","","","","","","","","","","50"
"","","","","ctl-task-cpt","86","817977","0.0-10.0-0.9","204","1","2025-07-09 09:18:52","7701e855f2ef39aa3fd6c71abdc6918a","197.185.177.52","Mozilla/5.0 (Linux; Android 10; K) AppleWebKit/537.36 (KHTML, like Gecko) Chrome/138.0.0.0 Mobile Safari/537.36","WebKit","Chrome","138.0.0.0","AndroidOS","10","https://app.prolific.com/","en-ZA,en-GB;q=0.9,en-US;q=0.8,en;q=0.7,gl;q=0.6,zu;q=0.5","66897958f4e99d36b4091abe","686d226cabeef709c732f8e1","686e338c97cddf108604d1a2","66897958f4e99d36b4091abe","2025-07-09T10:08:52.778Z","","","","","","","","","","","","","","","","win-only","1","g1:NE,g2:SW","0.4","10","0","797917.5","4868.3","9876.8","22041.8","1","4","8","6","1","-1","-1","0","0","0","2087.6","3000","-665","[""up"",""right""]","{""num_key_presses"":0,""num_perfect"":0,""num_errors"":0,""num_randdir"":0,""num_randdir_good_moves"":0,""num_whilered"":0,""num_whileblue"":0,""num_blue"":0,""num_good_moves"":0}","[783.5624989271164,774.187497138977,0.6,783.5624989271164,774.187497138977,144.3,783.5624989271164,774.187497138977,244.7,783.5624989271164,774.187497138977,352.7,783.5624989271164,774.187497138977,456.1,783.5624989271164,774.187497138977,566.7,783.5624989271164,774.187497138977,674.6,783.5624989271164,774.187497138977,774.8,783.5624989271164,774.187497138977,880.9,783.5624989271164,774.187497138977,982.7,783.5624989271164,774.187497138977,1083.1,783.5624989271164,774.187497138977,1188.1,783.5624989271164,774.187497138977,1293.8,783.5624989271164,774.187497138977,1397.2,783.5624989271164,774.187497138977,1521.9,783.5624989271164,774.187497138977,1631.9,783.5624989271164,774.187497138977,1745.4,783.5624989271164,774.187497138977,1856.2,783.5624989271164,774.187497138977,1966.6,783.5624989271164,774.187497138977,2067.4,1436.0624989271164,135.74999713897705,2170.2,1436.0624989271164,135.74999713897705,2277.9,1436.0624989271164,135.74999713897705,2390.3,1436.0624989271164,135.74999713897705,2503.7,1436.0624989271164,135.74999713897705,2605.8,1436.0624989271164,135.74999713897705,2723,1436.0624989271164,135.74999713897705,2825.5,1436.0624989271164,135.74999713897705,2935.5,1436.0624989271164,135.74999713897705,3038.8,1436.0624989271164,135.74999713897705,3143.5,1436.0624989271164,135.74999713897705,3246.5,1436.0624989271164,135.74999713897705,3351.1,1436.0624989271164,135.74999713897705,3457.3,1436.0624989271164,135.74999713897705,3563.3,1436.0624989271164,135.74999713897705,3672.9,1436.0624989271164,135.74999713897705,3802.8,1436.0624989271164,135.74999713897705,3907.2,1436.0624989271164,135.74999713897705,4007.2,1436.0624989271164,135.74999713897705,4123,1436.0624989271164,135.74999713897705,4238.6,1436.0624989271164,135.74999713897705,4348.6,1436.0624989271164,135.74999713897705,4456.9,1436.0624989271164,135.74999713897705,4573.8,1436.0624989271164,135.74999713897705,4685.9,1436.0624989271164,135.74999713897705,4791.2,1436.0624989271164,135.74999713897705,4895.9]","[]","",""
"5313","","<div style=""width:500px;"">
  <p>What determined the result of this run?</p>
  </div>","56","html-slider-response","87","823295","0.0-10.0-1.9","204","1","2025-07-09 09:18:52","7701e855f2ef39aa3fd6c71abdc6918a","197.185.177.52","Mozilla/5.0 (Linux; Android 10; K) AppleWebKit/537.36 (KHTML, like Gecko) Chrome/138.0.0.0 Mobile Safari/537.36","WebKit","Chrome","138.0.0.0","AndroidOS","10","https://app.prolific.com/","en-ZA,en-GB;q=0.9,en-US;q=0.8,en;q=0.7,gl;q=0.6,zu;q=0.5","66897958f4e99d36b4091abe","686d226cabeef709c732f8e1","686e338c97cddf108604d1a2","66897958f4e99d36b4091abe","2025-07-09T10:08:58.095Z","","","","","","AttribQ","","","","","","","","","","","","","","","","","","","","","","","","","","","","","","","","","","","","","","50"
"8625","","<div style=""width:500px;"">
  <p>How much control did you have over the ball?</p>
  </div>","67","html-slider-response","88","831922","0.0-10.0-2.9","204","1","2025-07-09 09:18:52","7701e855f2ef39aa3fd6c71abdc6918a","197.185.177.52","Mozilla/5.0 (Linux; Android 10; K) AppleWebKit/537.36 (KHTML, like Gecko) Chrome/138.0.0.0 Mobile Safari/537.36","WebKit","Chrome","138.0.0.0","AndroidOS","10","https://app.prolific.com/","en-ZA,en-GB;q=0.9,en-US;q=0.8,en;q=0.7,gl;q=0.6,zu;q=0.5","66897958f4e99d36b4091abe","686d226cabeef709c732f8e1","686e338c97cddf108604d1a2","66897958f4e99d36b4091abe","2025-07-09T10:09:06.723Z","","","","","","ControlQ","","","","","","","","","","","","","","","","","","","","","","","","","","","","","","","","","","","","","","50"
"2428","","<div style=""width:500px;"">
  <p>How would you describe your current emotional state?</p>
  </div>","66","html-slider-response","89","834354","0.0-10.0-3.9","204","1","2025-07-09 09:18:52","7701e855f2ef39aa3fd6c71abdc6918a","197.185.177.52","Mozilla/5.0 (Linux; Android 10; K) AppleWebKit/537.36 (KHTML, like Gecko) Chrome/138.0.0.0 Mobile Safari/537.36","WebKit","Chrome","138.0.0.0","AndroidOS","10","https://app.prolific.com/","en-ZA,en-GB;q=0.9,en-US;q=0.8,en;q=0.7,gl;q=0.6,zu;q=0.5","66897958f4e99d36b4091abe","686d226cabeef709c732f8e1","686e338c97cddf108604d1a2","66897958f4e99d36b4091abe","2025-07-09T10:09:09.154Z","","","","","","StressQ","","","","","","","","","","","","","","","","","","","","","","","","","","","","","","","","","","","","","","50"
"16560","","<div style=""width:500px;"">
  <p>What best describes how you currently feel?</p>
  </div>","69","html-slider-response","90","850917","0.0-10.0-4.9","204","1","2025-07-09 09:18:52","7701e855f2ef39aa3fd6c71abdc6918a","197.185.177.52","Mozilla/5.0 (Linux; Android 10; K) AppleWebKit/537.36 (KHTML, like Gecko) Chrome/138.0.0.0 Mobile Safari/537.36","WebKit","Chrome","138.0.0.0","AndroidOS","10","https://app.prolific.com/","en-ZA,en-GB;q=0.9,en-US;q=0.8,en;q=0.7,gl;q=0.6,zu;q=0.5","66897958f4e99d36b4091abe","686d226cabeef709c732f8e1","686e338c97cddf108604d1a2","66897958f4e99d36b4091abe","2025-07-09T10:09:25.717Z","","","","","","MotivationQ","","","","","","","","","","","","","","","","","","","","","","","","","","","","","","","","","","","","","","50"
