"rt","response_timestamp","stimulus","response","trial_type","trial_index","time_elapsed","internal_node_id","run_id","condition","recorded_at","source_code_version","ip","user_agent","device","browser","browser_version","platform","platform_version","referer","accept_language","PROLIFIC_PID","STUDY_ID","SESSION_ID","prolific_id","realtime","view_history","question_order","consent","success","question_id","eventType","responses","item_order","radio_event_ids","radio_event_times","key_event_times","mouse_event_times","straightlining","zigzagging","honeypot","which_type","canvas_config","goals_layout","control_level","trial_number","tutorial_trial_number","trial_start_time","phase1_start_time","phase2_start_time","phase3_start_time","goal_1_value","goal_1_distance","goal_2_value","goal_2_distance","goal_selected","outcome","outcome_total","participant_final_score","participant_initial_score","participant_final_score_prop","goal_choice_rt","allocated_time","allocated_time_remaining","goal_direction","counts","mouse_movements","key_presses","correct","slider_start"
"10313","1752052181076","<p style='font-size:40px;line-height:1.25'><strong>Welcome to the experiment!</strong></p><p style='font-size:1.1em;line-height:1.25'>Thank you for your interest in our experiment! Before you begin, it is important that we obtain your informed consent to participate in the study.</p><p style='font-size:1.1em;line-height:1.25'>On the next screen will be an <strong>information sheet</strong> for you to read. To participate in the study we need you to read this information sheet and the following consent form carefully. If you agree with all the statements, please click the <strong>I agree</strong> button.</p><p style='font-size:1.1em;line-height:1.25'>Press <strong>Next</strong> to read the information sheet.</p>","0","custom-html-button-response","0","10321","0.0-0.0","125","1","2025-07-09 09:08:38","7701e855f2ef39aa3fd6c71abdc6918a","97.177.150.141","Mozilla/5.0 (Windows NT 10.0; Win64; x64) AppleWebKit/537.36 (KHTML, like Gecko) Chrome/138.0.0.0 Safari/537.36","WebKit","Chrome","138.0.0.0","Windows","10.0","https://app.prolific.com/","en-US,en;q=0.9","678af0a3161e3e871bbade54","686d226cabeef709c732f8e1","686e312bcf944a1663209546","678af0a3161e3e871bbade54","2025-07-09T09:09:41.080Z","","","","","","","","","","","","","","","","","","","","","","","","","","","","","","","","","","","","","","","","","","","",""
"52304","","","","instructions","1","62631","0.0-1.0","125","1","2025-07-09 09:08:38","7701e855f2ef39aa3fd6c71abdc6918a","97.177.150.141","Mozilla/5.0 (Windows NT 10.0; Win64; x64) AppleWebKit/537.36 (KHTML, like Gecko) Chrome/138.0.0.0 Safari/537.36","WebKit","Chrome","138.0.0.0","Windows","10.0","https://app.prolific.com/","en-US,en;q=0.9","678af0a3161e3e871bbade54","686d226cabeef709c732f8e1","686e312bcf944a1663209546","678af0a3161e3e871bbade54","","[{""page_index"":0,""viewing_time"":38358},{""page_index"":1,""viewing_time"":13945}]","","","","","","","","","","","","","","","","","","","","","","","","","","","","","","","","","","","","","","","","","","",""
"8111","","","{""Q0"":"""",""Q1"":"""",""Q2"":"""",""Q3"":"""",""Q4"":"""",""Q5"":"""",""Q6"":""I agree""}","survey-multi-choice","2","70751","0.0-2.0","125","1","2025-07-09 09:08:38","7701e855f2ef39aa3fd6c71abdc6918a","97.177.150.141","Mozilla/5.0 (Windows NT 10.0; Win64; x64) AppleWebKit/537.36 (KHTML, like Gecko) Chrome/138.0.0.0 Safari/537.36","WebKit","Chrome","138.0.0.0","Windows","10.0","https://app.prolific.com/","en-US,en;q=0.9","678af0a3161e3e871bbade54","686d226cabeef709c732f8e1","686e312bcf944a1663209546","678af0a3161e3e871bbade54","","","[0,1,2,3,4,5,6]","true","","","","","","","","","","","","","","","","","","","","","","","","","","","","","","","","","","","","","","","","",""
"25208","","","","fullscreen","3","96982","0.0-4.0","125","1","2025-07-09 09:08:38","7701e855f2ef39aa3fd6c71abdc6918a","97.177.150.141","Mozilla/5.0 (Windows NT 10.0; Win64; x64) AppleWebKit/537.36 (KHTML, like Gecko) Chrome/138.0.0.0 Safari/537.36","WebKit","Chrome","138.0.0.0","Windows","10.0","https://app.prolific.com/","en-US,en;q=0.9","678af0a3161e3e871bbade54","686d226cabeef709c732f8e1","686e312bcf944a1663209546","678af0a3161e3e871bbade54","","","","","true","","","","","","","","","","","","","","","","","","","","","","","","","","","","","","","","","","","","","","","",""
"4706","1752052272451"," <p style='font-size:1.1em;line-height:1.25'>Thank you for completing the consent form and closing all other tabs.</p><p style='font-size:1.1em;line-height:1.25'>We will now invite you to fill in some demographic information and questionnaires, before starting the game.<br>This will take about 5 minutes.<br></p><p style='font-size:1.1em;line-height:1.25'>Press the <strong>Next</strong> button to continue.</p>","0","custom-html-button-response","4","101694","0.0-5.0","125","1","2025-07-09 09:08:38","7701e855f2ef39aa3fd6c71abdc6918a","97.177.150.141","Mozilla/5.0 (Windows NT 10.0; Win64; x64) AppleWebKit/537.36 (KHTML, like Gecko) Chrome/138.0.0.0 Safari/537.36","WebKit","Chrome","138.0.0.0","Windows","10.0","https://app.prolific.com/","en-US,en;q=0.9","678af0a3161e3e871bbade54","686d226cabeef709c732f8e1","686e312bcf944a1663209546","678af0a3161e3e871bbade54","2025-07-09T09:11:12.452Z","","","","","","","","","","","","","","","","","","","","","","","","","","","","","","","","","","","","","","","","","","","",""
"3723","","","{""age"":""25""}","survey-text","5","105426","0.0-6.0-0.0","125","1","2025-07-09 09:08:38","7701e855f2ef39aa3fd6c71abdc6918a","97.177.150.141","Mozilla/5.0 (Windows NT 10.0; Win64; x64) AppleWebKit/537.36 (KHTML, like Gecko) Chrome/138.0.0.0 Safari/537.36","WebKit","Chrome","138.0.0.0","Windows","10.0","https://app.prolific.com/","en-US,en;q=0.9","678af0a3161e3e871bbade54","686d226cabeef709c732f8e1","686e312bcf944a1663209546","678af0a3161e3e871bbade54","","","","","","0","demographics","","","","","","","","","","","","","","","","","","","","","","","","","","","","","","","","","","","","","",""
"4460","","","{""gender_identity"":""female/woman""}","survey-multi-choice","6","109892","0.0-6.0-1.0","125","1","2025-07-09 09:08:38","7701e855f2ef39aa3fd6c71abdc6918a","97.177.150.141","Mozilla/5.0 (Windows NT 10.0; Win64; x64) AppleWebKit/537.36 (KHTML, like Gecko) Chrome/138.0.0.0 Safari/537.36","WebKit","Chrome","138.0.0.0","Windows","10.0","https://app.prolific.com/","en-US,en;q=0.9","678af0a3161e3e871bbade54","686d226cabeef709c732f8e1","686e312bcf944a1663209546","678af0a3161e3e871bbade54","","","[0]","","","1","demographics","","","","","","","","","","","","","","","","","","","","","","","","","","","","","","","","","","","","","",""
"5419","","","{""assigned_sex"":""female""}","survey-multi-choice","7","115316","0.0-6.0-2.0","125","1","2025-07-09 09:08:38","7701e855f2ef39aa3fd6c71abdc6918a","97.177.150.141","Mozilla/5.0 (Windows NT 10.0; Win64; x64) AppleWebKit/537.36 (KHTML, like Gecko) Chrome/138.0.0.0 Safari/537.36","WebKit","Chrome","138.0.0.0","Windows","10.0","https://app.prolific.com/","en-US,en;q=0.9","678af0a3161e3e871bbade54","686d226cabeef709c732f8e1","686e312bcf944a1663209546","678af0a3161e3e871bbade54","","","[0]","","","2","demographics","","","","","","","","","","","","","","","","","","","","","","","","","","","","","","","","","","","","","",""
"6820","","","{""menstrual_cycle"":""Yes""}","survey-multi-choice","8","122139","0.0-6.0-3.0","125","1","2025-07-09 09:08:38","7701e855f2ef39aa3fd6c71abdc6918a","97.177.150.141","Mozilla/5.0 (Windows NT 10.0; Win64; x64) AppleWebKit/537.36 (KHTML, like Gecko) Chrome/138.0.0.0 Safari/537.36","WebKit","Chrome","138.0.0.0","Windows","10.0","https://app.prolific.com/","en-US,en;q=0.9","678af0a3161e3e871bbade54","686d226cabeef709c732f8e1","686e312bcf944a1663209546","678af0a3161e3e871bbade54","","","[0]","","","4","demographics","","","","","","","","","","","","","","","","","","","","","","","","","","","","","","","","","","","","","",""
"4153","","","{""education"":""Bachelor's Degree (e.g., BA)""}","survey-multi-choice","9","126298","0.0-6.0-4.0","125","1","2025-07-09 09:08:38","7701e855f2ef39aa3fd6c71abdc6918a","97.177.150.141","Mozilla/5.0 (Windows NT 10.0; Win64; x64) AppleWebKit/537.36 (KHTML, like Gecko) Chrome/138.0.0.0 Safari/537.36","WebKit","Chrome","138.0.0.0","Windows","10.0","https://app.prolific.com/","en-US,en;q=0.9","678af0a3161e3e871bbade54","686d226cabeef709c732f8e1","686e312bcf944a1663209546","678af0a3161e3e871bbade54","","","[0]","","","5","demographics","","","","","","","","","","","","","","","","","","","","","","","","","","","","","","","","","","","","","",""
"7714","","","{""education"":""Master's Degree (e.g., MSc)""}","survey-multi-choice","10","134018","0.0-6.0-5.0","125","1","2025-07-09 09:08:38","7701e855f2ef39aa3fd6c71abdc6918a","97.177.150.141","Mozilla/5.0 (Windows NT 10.0; Win64; x64) AppleWebKit/537.36 (KHTML, like Gecko) Chrome/138.0.0.0 Safari/537.36","WebKit","Chrome","138.0.0.0","Windows","10.0","https://app.prolific.com/","en-US,en;q=0.9","678af0a3161e3e871bbade54","686d226cabeef709c732f8e1","686e312bcf944a1663209546","678af0a3161e3e871bbade54","2025-07-09T09:11:44.776Z","","[0]","","","6","demographics","","","","","","","","","","","","","","","","","","","","","","","","","","","","","","","","","","","","","",""
"22210","","","{""mental_health_condition"":""No"",""mental_health_treatment"":""No"",""psychiatric_medication"":""No""}","survey-text","11","156241","0.0-7.0-0.0","125","1","2025-07-09 09:08:38","7701e855f2ef39aa3fd6c71abdc6918a","97.177.150.141","Mozilla/5.0 (Windows NT 10.0; Win64; x64) AppleWebKit/537.36 (KHTML, like Gecko) Chrome/138.0.0.0 Safari/537.36","WebKit","Chrome","138.0.0.0","Windows","10.0","https://app.prolific.com/","en-US,en;q=0.9","678af0a3161e3e871bbade54","686d226cabeef709c732f8e1","686e312bcf944a1663209546","678af0a3161e3e871bbade54","2025-07-09T09:12:06.999Z","","","","","1","mental_health","","","","","","","","","","","","","","","","","","","","","","","","","","","","","","","","","","","","","",""
"22929","","","{""depression_history"":[""Yes"",""No""]}","survey-multi-select","12","179182","0.0-7.0-1.0","125","1","2025-07-09 09:08:38","7701e855f2ef39aa3fd6c71abdc6918a","97.177.150.141","Mozilla/5.0 (Windows NT 10.0; Win64; x64) AppleWebKit/537.36 (KHTML, like Gecko) Chrome/138.0.0.0 Safari/537.36","WebKit","Chrome","138.0.0.0","Windows","10.0","https://app.prolific.com/","en-US,en;q=0.9","678af0a3161e3e871bbade54","686d226cabeef709c732f8e1","686e312bcf944a1663209546","678af0a3161e3e871bbade54","","","[0]","","","","mental_health","","","","","","","","","","","","","","","","","","","","","","","","","","","","","","","","","","","","","",""
"16531","","","{""depression_episodes"":""1-2"",""depression_recent"":""Within the past year""}","survey-multi-choice","13","195720","0.0-7.0-2.0-0.0","125","1","2025-07-09 09:08:38","7701e855f2ef39aa3fd6c71abdc6918a","97.177.150.141","Mozilla/5.0 (Windows NT 10.0; Win64; x64) AppleWebKit/537.36 (KHTML, like Gecko) Chrome/138.0.0.0 Safari/537.36","WebKit","Chrome","138.0.0.0","Windows","10.0","https://app.prolific.com/","en-US,en;q=0.9","678af0a3161e3e871bbade54","686d226cabeef709c732f8e1","686e312bcf944a1663209546","678af0a3161e3e871bbade54","2025-07-09T09:12:46.478Z","","[0,1]","","","3","mental_health","","","","","","","","","","","","","","","","","","","","","","","","","","","","","","","","","","","","","",""
"76992.60000000056","","","","survey-template","14","272730","0.0-7.0-3.0","125","1","2025-07-09 09:08:38","7701e855f2ef39aa3fd6c71abdc6918a","97.177.150.141","Mozilla/5.0 (Windows NT 10.0; Win64; x64) AppleWebKit/537.36 (KHTML, like Gecko) Chrome/138.0.0.0 Safari/537.36","WebKit","Chrome","138.0.0.0","Windows","10.0","https://app.prolific.com/","en-US,en;q=0.9","678af0a3161e3e871bbade54","686d226cabeef709c732f8e1","686e312bcf944a1663209546","678af0a3161e3e871bbade54","2025-07-09T09:14:03.489Z","","","","","","ius","{""Q01"":""2"",""Q02"":""3"",""Q03"":""3"",""Q04"":""3"",""Q05"":""3"",""Q06"":""4"",""Q07"":""4"",""Q08"":""0"",""Q09"":""4"",""Q10"":""1"",""Q11"":""3"",""Q12"":""4"",""Q13"":""2""}","[0,1,2,3,4,5,6,7,8,9,10,11,12]","[""Q01"",""Q02"",""Q03"",""Q04"",""Q05"",""Q06"",""Q07"",""Q08"",""Q13"",""Q12"",""Q11"",""Q11"",""Q11"",""Q10"",""Q09""]","[7946.9000000003725,12252.400000000373,16511.10000000056,21706.299999999814,26412.799999999814,32546.60000000056,36087.799999999814,39932.60000000056,51148.700000000186,54530.90000000037,58227.700000000186,63835.200000000186,64995.5,66179.20000000019,70175]","[]","[7946.9000000003725,12252.400000000373,16511.10000000056,21706.299999999814,26412.799999999814,32546.60000000056,36087.799999999814,39932.60000000056,51148.700000000186,54530.90000000037,58227.700000000186,63835.200000000186,64995.5,66179.20000000019,66606.5,70175,76979]","0.38461538461538464","0.4166666666666667","0","","","","","","","","","","","","","","","","","","","","","","","","","","","","",""
"5903","1752052449396","<p style='font-size:1.1em;line-height:1.25'>In the following, we will ask you a few questions relating to your experiences over the past month.<br></p><p style='font-size:1.1em;line-height:1.25'>Press the <strong>Next</strong> button to continue.</p>","0","custom-html-button-response","15","278639","0.0-7.0-4.0","125","1","2025-07-09 09:08:38","7701e855f2ef39aa3fd6c71abdc6918a","97.177.150.141","Mozilla/5.0 (Windows NT 10.0; Win64; x64) AppleWebKit/537.36 (KHTML, like Gecko) Chrome/138.0.0.0 Safari/537.36","WebKit","Chrome","138.0.0.0","Windows","10.0","https://app.prolific.com/","en-US,en;q=0.9","678af0a3161e3e871bbade54","686d226cabeef709c732f8e1","686e312bcf944a1663209546","678af0a3161e3e871bbade54","2025-07-09T09:14:09.397Z","","","","","","","","","","","","","","","","","","","","","","","","","","","","","","","","","","","","","","","","","","","",""
"69521.09999999963","","","","survey-template","16","348171","0.0-7.0-5.0","125","1","2025-07-09 09:08:38","7701e855f2ef39aa3fd6c71abdc6918a","97.177.150.141","Mozilla/5.0 (Windows NT 10.0; Win64; x64) AppleWebKit/537.36 (KHTML, like Gecko) Chrome/138.0.0.0 Safari/537.36","WebKit","Chrome","138.0.0.0","Windows","10.0","https://app.prolific.com/","en-US,en;q=0.9","678af0a3161e3e871bbade54","686d226cabeef709c732f8e1","686e312bcf944a1663209546","678af0a3161e3e871bbade54","2025-07-09T09:15:18.930Z","","","","","","pss","{""Q01"":""2"",""Q02"":""2"",""Q03"":""3"",""Q04"":""2"",""Q05"":""2"",""Q06"":""2"",""Q07"":""1"",""Q08"":""2"",""Q09"":""2"",""Q10"":""2""}","[0,1,2,3,4,5,6,7,8,9]","[""Q01"",""Q01"",""Q02"",""Q03"",""Q04"",""Q05"",""Q06"",""Q07"",""Q08"",""Q08"",""Q09"",""Q10""]","[5110.5999999996275,5788.200000000186,10043.399999999441,12664.200000000186,17097.599999999627,21685.5,26519,39444,45861,50656.5,56938.799999999814,63139.200000000186]","[]","[0.2999999998137355,5110.5999999996275,5788.200000000186,10043.399999999441,12664.200000000186,17097.599999999627,21685.5,26519,39444,44992.39999999944,45861,50656.5,56938.799999999814,63139.200000000186,69514.39999999944]","0.8","0.4444444444444444","0","","","","","","","","","","","","","","","","","","","","","","","","","","","","",""
"5024","1752052523957","<p style='font-size:1.1em;line-height:1.25'>Thank you for your answers! Now we will ask you a few more questions relating to your feelings in the last 24 hours.<br></p><p style='font-size:1.1em;line-height:1.25'>Press the <strong>Next</strong> button to continue.</p>","0","custom-html-button-response","17","353200","0.0-7.0-6.0","125","1","2025-07-09 09:08:38","7701e855f2ef39aa3fd6c71abdc6918a","97.177.150.141","Mozilla/5.0 (Windows NT 10.0; Win64; x64) AppleWebKit/537.36 (KHTML, like Gecko) Chrome/138.0.0.0 Safari/537.36","WebKit","Chrome","138.0.0.0","Windows","10.0","https://app.prolific.com/","en-US,en;q=0.9","678af0a3161e3e871bbade54","686d226cabeef709c732f8e1","686e312bcf944a1663209546","678af0a3161e3e871bbade54","2025-07-09T09:15:23.958Z","","","","","","","","","","","","","","","","","","","","","","","","","","","","","","","","","","","","","","","","","","","",""
"64942","","","","survey-template","18","418164","0.0-7.0-7.0","125","1","2025-07-09 09:08:38","7701e855f2ef39aa3fd6c71abdc6918a","97.177.150.141","Mozilla/5.0 (Windows NT 10.0; Win64; x64) AppleWebKit/537.36 (KHTML, like Gecko) Chrome/138.0.0.0 Safari/537.36","WebKit","Chrome","138.0.0.0","Windows","10.0","https://app.prolific.com/","en-US,en;q=0.9","678af0a3161e3e871bbade54","686d226cabeef709c732f8e1","686e312bcf944a1663209546","678af0a3161e3e871bbade54","2025-07-09T09:16:28.922Z","","","","","","drsp","{""Q01"":""0"",""Q02"":""0"",""Q03"":""0"",""Q04"":""1"",""Q05"":""0"",""Q06"":""1"",""Q07"":""0"",""Q08"":""0"",""Q09"":""1"",""Q10"":""1"",""Q11"":""2"",""Q12"":""1"",""Q13"":""2"",""Q14"":""1"",""Q15"":""0"",""Q16"":""1"",""Q17"":""1"",""Q18"":""0"",""Q19"":""0"",""Q20"":""0"",""Q21"":""0""}","[0,1,2,3,4,5,6,7,8,9,10,11,12,13,14,15,16,17,18,19,20]","[""Q01"",""Q02"",""Q03"",""Q04"",""Q05"",""Q06"",""Q07"",""Q08"",""Q09"",""Q10"",""Q11"",""Q12"",""Q13"",""Q14"",""Q15"",""Q16"",""Q17"",""Q17"",""Q21"",""Q20"",""Q19"",""Q18""]","[3068.800000000745,3873.5,5061.200000000186,7444.200000000186,9778.600000000559,13785.800000000745,17078.300000000745,18600.800000000745,20277.60000000056,21884.5,23873,25529.800000000745,27832.800000000745,33688.40000000037,37145.800000000745,40224.40000000037,41838.200000000186,43603.40000000037,50265.60000000056,53189.60000000056,58866.800000000745,62652.40000000037]","[]","[0.10000000055879354,3068.800000000745,3873.5,5061.200000000186,7444.200000000186,9778.600000000559,13785.800000000745,17078.300000000745,18600.800000000745,20277.60000000056,21884.5,23873,25529.800000000745,27832.800000000745,33688.40000000037,37145.800000000745,40224.40000000037,41838.200000000186,43603.40000000037,50265.60000000056,53189.60000000056,58866.800000000745,62652.40000000037,64929.60000000056]","0.5238095238095238","0.6","0","","","","","","","","","","","","","","","","","","","","","","","","","","","","",""
"17413.39999999944","","","","survey-template","19","435584","0.0-7.0-8.0","125","1","2025-07-09 09:08:38","7701e855f2ef39aa3fd6c71abdc6918a","97.177.150.141","Mozilla/5.0 (Windows NT 10.0; Win64; x64) AppleWebKit/537.36 (KHTML, like Gecko) Chrome/138.0.0.0 Safari/537.36","WebKit","Chrome","138.0.0.0","Windows","10.0","https://app.prolific.com/","en-US,en;q=0.9","678af0a3161e3e871bbade54","686d226cabeef709c732f8e1","686e312bcf944a1663209546","678af0a3161e3e871bbade54","2025-07-09T09:16:46.343Z","","","","","","stress","{""Q01"":""0"",""Q02"":""3"",""Q03"":""0""}","[0,1,2]","[""Q01"",""Q02"",""Q03"",""Q02""]","[3998.7999999998137,6406.299999999814,10809,15836.199999999255]","[]","[3998.7999999998137,6406.299999999814,10809,15836.199999999255,17409.599999999627]","0.6666666666666666","0","0","","","","","","","","","","","","","","","","","","","","","","","","","","","","",""
"149082","","","","instructions","20","584670","0.0-8.0-0.0","125","1","2025-07-09 09:08:38","7701e855f2ef39aa3fd6c71abdc6918a","97.177.150.141","Mozilla/5.0 (Windows NT 10.0; Win64; x64) AppleWebKit/537.36 (KHTML, like Gecko) Chrome/138.0.0.0 Safari/537.36","WebKit","Chrome","138.0.0.0","Windows","10.0","https://app.prolific.com/","en-US,en;q=0.9","678af0a3161e3e871bbade54","686d226cabeef709c732f8e1","686e312bcf944a1663209546","678af0a3161e3e871bbade54","","[{""page_index"":0,""viewing_time"":5625},{""page_index"":1,""viewing_time"":8200},{""page_index"":0,""viewing_time"":30182},{""page_index"":1,""viewing_time"":30567},{""page_index"":2,""viewing_time"":30238},{""page_index"":3,""viewing_time"":44270}]","","","","","","","","","","","","","","","","","","","","","","","","","","","","","","","","","","","","","","","","","","",""
"","","","","ctl-task-cpt","21","607190","0.0-8.0-1.0","125","1","2025-07-09 09:08:38","7701e855f2ef39aa3fd6c71abdc6918a","97.177.150.141","Mozilla/5.0 (Windows NT 10.0; Win64; x64) AppleWebKit/537.36 (KHTML, like Gecko) Chrome/138.0.0.0 Safari/537.36","WebKit","Chrome","138.0.0.0","Windows","10.0","https://app.prolific.com/","en-US,en;q=0.9","678af0a3161e3e871bbade54","686d226cabeef709c732f8e1","686e312bcf944a1663209546","678af0a3161e3e871bbade54","","","","","","","","","","","","","","","","","win-only","1","g1:NE,g2:SW","1","0","1","599397","9233.1","13234.7","19503.3","2","4","4","6","1","-2","-2","0","0","0","3898.4","4000","-2285","[""up"",""right""]","{""num_key_presses"":0,""num_perfect"":0,""num_errors"":0,""num_randdir"":0,""num_randdir_good_moves"":0,""num_whilered"":0,""num_whileblue"":0,""num_blue"":0,""num_good_moves"":0}","[247.24598214285714,247.63660714285714,1.3,247.24598214285714,247.63660714285714,106.2,247.24598214285714,247.63660714285714,217.1,247.24598214285714,247.63660714285714,321.6,247.24598214285714,247.63660714285714,429.1,247.24598214285714,247.63660714285714,534,247.24598214285714,247.63660714285714,643.2,247.24598214285714,247.63660714285714,744.6,247.24598214285714,247.63660714285714,845,247.24598214285714,247.63660714285714,952.5,247.24598214285714,247.63660714285714,1055.1,247.24598214285714,247.63660714285714,1167.9,247.24598214285714,247.63660714285714,1269.2,287.24598214285714,205.63660714285714,1374,287.24598214285714,205.63660714285714,1476.4,287.24598214285714,205.63660714285714,1583.7,287.24598214285714,205.63660714285714,1683.9,287.24598214285714,205.63660714285714,1792.2,287.24598214285714,205.63660714285714,1892.8,287.24598214285714,205.63660714285714,1994.7,287.24598214285714,205.63660714285714,2099.3,287.24598214285714,205.63660714285714,2207.5,287.24598214285714,205.63660714285714,2308.8,287.24598214285714,205.63660714285714,2414.9,287.24598214285714,205.63660714285714,2518.8,287.24598214285714,205.63660714285714,2628.1,287.24598214285714,205.63660714285714,2731.8,287.24598214285714,204.63660714285714,2832.7,319.24598214285714,168.63660714285714,2935.4,369.24598214285714,104.63660714285714,3040.2,383.24598214285714,86.63660714285714,3146.9,404.24598214285714,64.63660714285714,3248.4,411.24598214285714,57.636607142857144,3349.9,425.24598214285714,47.636607142857144,3453.3,433.24598214285714,45.636607142857144,3555,433.24598214285714,45.636607142857144,3658.9,434.24598214285714,45.636607142857144,3760.6,446.24598214285714,42.636607142857144,3865.6,434.24598214285714,44.636607142857144,3967.6]","[]","",""
"25522","","","","instructions","22","632714","0.0-8.0-2.0","125","1","2025-07-09 09:08:38","7701e855f2ef39aa3fd6c71abdc6918a","97.177.150.141","Mozilla/5.0 (Windows NT 10.0; Win64; x64) AppleWebKit/537.36 (KHTML, like Gecko) Chrome/138.0.0.0 Safari/537.36","WebKit","Chrome","138.0.0.0","Windows","10.0","https://app.prolific.com/","en-US,en;q=0.9","678af0a3161e3e871bbade54","686d226cabeef709c732f8e1","686e312bcf944a1663209546","678af0a3161e3e871bbade54","","[{""page_index"":0,""viewing_time"":25522}]","","","","","","","","","","","","","","","","","","","","","","","","","","","","","","","","","","","","","","","","","","",""
"","","","","ctl-task-cpt","23","650988","0.0-8.0-3.0","125","1","2025-07-09 09:08:38","7701e855f2ef39aa3fd6c71abdc6918a","97.177.150.141","Mozilla/5.0 (Windows NT 10.0; Win64; x64) AppleWebKit/537.36 (KHTML, like Gecko) Chrome/138.0.0.0 Safari/537.36","WebKit","Chrome","138.0.0.0","Windows","10.0","https://app.prolific.com/","en-US,en;q=0.9","678af0a3161e3e871bbade54","686d226cabeef709c732f8e1","686e312bcf944a1663209546","678af0a3161e3e871bbade54","","","","","","","","","","","","","","","","","win-only","1","g1:NE,g2:SW","0.35","0","3","647435","4707.2","8710.1","15263.7","2","4","8","6","2","-8","-8","0","0","0","4002.7","4000","-2360","[""down"",""left""]","{""num_key_presses"":0,""num_perfect"":0,""num_errors"":0,""num_randdir"":0,""num_randdir_good_moves"":0,""num_whilered"":0,""num_whileblue"":0,""num_blue"":0,""num_good_moves"":0}","[247.24598214285714,246.63660714285714,0.6,247.24598214285714,246.63660714285714,109.8,247.24598214285714,246.63660714285714,210.6,247.24598214285714,246.63660714285714,333.9,247.24598214285714,246.63660714285714,444.5,247.24598214285714,246.63660714285714,558.7,260.24598214285714,222.63660714285714,660,270.24598214285714,216.63660714285714,760.5,278.24598214285714,211.63660714285714,873.1,280.24598214285714,211.63660714285714,974.5,283.24598214285714,211.63660714285714,1082.2,285.24598214285714,211.63660714285714,1184.8,285.24598214285714,211.63660714285714,1290.8,286.24598214285714,211.63660714285714,1392.4,287.24598214285714,209.63660714285714,1498.6,287.24598214285714,202.63660714285714,1601.1,287.24598214285714,200.63660714285714,1704.2,287.24598214285714,200.63660714285714,1804.4,287.24598214285714,200.63660714285714,1905.8,278.24598214285714,218.63660714285714,2009,272.24598214285714,242.63660714285714,2109.5,268.24598214285714,253.63660714285714,2221.9,268.24598214285714,253.63660714285714,2325.9,268.24598214285714,253.63660714285714,2427.2,268.24598214285714,255.63660714285714,2530.9,266.24598214285714,267.63660714285714,2633.6,266.24598214285714,267.63660714285714,2735.8,276.24598214285714,226.63660714285714,2838.2,290.24598214285714,193.63660714285714,2939.7,290.24598214285714,191.63660714285714,3056.7,290.24598214285714,191.63660714285714,3163,313.24598214285714,163.63660714285714,3264,385.24598214285714,85.63660714285714,3367.8,428.24598214285714,27.636607142857144,3470.3,429.24598214285714,22.636607142857144,3572.5,429.24598214285714,22.636607142857144,3675.4,435.24598214285714,25.636607142857144,3781.8,440.24598214285714,30.636607142857144,3887.4,441.24598214285714,31.636607142857144,3990.6]","[]","",""
"56368","","","","instructions","24","707358","0.0-8.0-4.0","125","1","2025-07-09 09:08:38","7701e855f2ef39aa3fd6c71abdc6918a","97.177.150.141","Mozilla/5.0 (Windows NT 10.0; Win64; x64) AppleWebKit/537.36 (KHTML, like Gecko) Chrome/138.0.0.0 Safari/537.36","WebKit","Chrome","138.0.0.0","Windows","10.0","https://app.prolific.com/","en-US,en;q=0.9","678af0a3161e3e871bbade54","686d226cabeef709c732f8e1","686e312bcf944a1663209546","678af0a3161e3e871bbade54","","[{""page_index"":0,""viewing_time"":17700},{""page_index"":1,""viewing_time"":38668}]","","","","","","","","","","","","","","","","","","","","","","","","","","","","","","","","","","","","","","","","","","",""
"20262","","","{""green_ball"":[""Ball always shakes and moves in a random direction""]}","survey-multi-select","25","727627","0.0-8.0-5.0-0.0","125","1","2025-07-09 09:08:38","7701e855f2ef39aa3fd6c71abdc6918a","97.177.150.141","Mozilla/5.0 (Windows NT 10.0; Win64; x64) AppleWebKit/537.36 (KHTML, like Gecko) Chrome/138.0.0.0 Safari/537.36","WebKit","Chrome","138.0.0.0","Windows","10.0","https://app.prolific.com/","en-US,en;q=0.9","678af0a3161e3e871bbade54","686d226cabeef709c732f8e1","686e312bcf944a1663209546","678af0a3161e3e871bbade54","","","[0]","","","","quiz","","","","","","","","","","","","","","","","","","","","","","","","","","","","","","","","","","","","","false",""
"3747","","<p align='center'><b>INCORRECT.</b> Usually the green ball moves in the indicated direction, but sometimes it shakes and moves randomly. </p>","0","html-button-response","26","731379","0.0-8.0-5.0-1.0","125","1","2025-07-09 09:08:38","7701e855f2ef39aa3fd6c71abdc6918a","97.177.150.141","Mozilla/5.0 (Windows NT 10.0; Win64; x64) AppleWebKit/537.36 (KHTML, like Gecko) Chrome/138.0.0.0 Safari/537.36","WebKit","Chrome","138.0.0.0","Windows","10.0","https://app.prolific.com/","en-US,en;q=0.9","678af0a3161e3e871bbade54","686d226cabeef709c732f8e1","686e312bcf944a1663209546","678af0a3161e3e871bbade54","","","","","","","","","","","","","","","","","","","","","","","","","","","","","","","","","","","","","","","","","","","","",""
"11435","","","{""green_ball"":[""Ball sometimes shakes and moves in a random direction""]}","survey-multi-select","27","742828","0.0-8.0-5.1-0.1","125","1","2025-07-09 09:08:38","7701e855f2ef39aa3fd6c71abdc6918a","97.177.150.141","Mozilla/5.0 (Windows NT 10.0; Win64; x64) AppleWebKit/537.36 (KHTML, like Gecko) Chrome/138.0.0.0 Safari/537.36","WebKit","Chrome","138.0.0.0","Windows","10.0","https://app.prolific.com/","en-US,en;q=0.9","678af0a3161e3e871bbade54","686d226cabeef709c732f8e1","686e312bcf944a1663209546","678af0a3161e3e871bbade54","","","[0]","","","","quiz","","","","","","","","","","","","","","","","","","","","","","","","","","","","","","","","","","","","","true",""
"2421","","<p align='center'><b>CORRECT!</b> Indeed, the green ball may sometimes shake and move in a random direction.</p>","0","html-button-response","28","745255","0.0-8.0-5.1-1.1","125","1","2025-07-09 09:08:38","7701e855f2ef39aa3fd6c71abdc6918a","97.177.150.141","Mozilla/5.0 (Windows NT 10.0; Win64; x64) AppleWebKit/537.36 (KHTML, like Gecko) Chrome/138.0.0.0 Safari/537.36","WebKit","Chrome","138.0.0.0","Windows","10.0","https://app.prolific.com/","en-US,en;q=0.9","678af0a3161e3e871bbade54","686d226cabeef709c732f8e1","686e312bcf944a1663209546","678af0a3161e3e871bbade54","","","","","","","","","","","","","","","","","","","","","","","","","","","","","","","","","","","","","","","","","","","","",""
"4947","","","{""yellow_ball"":[""Ball doesn‘t move and I get -1 penalty point""]}","survey-multi-select","29","750211","0.0-8.0-6.0-0.0","125","1","2025-07-09 09:08:38","7701e855f2ef39aa3fd6c71abdc6918a","97.177.150.141","Mozilla/5.0 (Windows NT 10.0; Win64; x64) AppleWebKit/537.36 (KHTML, like Gecko) Chrome/138.0.0.0 Safari/537.36","WebKit","Chrome","138.0.0.0","Windows","10.0","https://app.prolific.com/","en-US,en;q=0.9","678af0a3161e3e871bbade54","686d226cabeef709c732f8e1","686e312bcf944a1663209546","678af0a3161e3e871bbade54","","","[0]","","","","quiz","","","","","","","","","","","","","","","","","","","","","","","","","","","","","","","","","","","","","true",""
"1192","","<p align='center'><b>CORRECT!</b> Indeed, the yellow ball never moves and you receive a penalty.</p>","0","html-button-response","30","751407","0.0-8.0-6.0-1.0","125","1","2025-07-09 09:08:38","7701e855f2ef39aa3fd6c71abdc6918a","97.177.150.141","Mozilla/5.0 (Windows NT 10.0; Win64; x64) AppleWebKit/537.36 (KHTML, like Gecko) Chrome/138.0.0.0 Safari/537.36","WebKit","Chrome","138.0.0.0","Windows","10.0","https://app.prolific.com/","en-US,en;q=0.9","678af0a3161e3e871bbade54","686d226cabeef709c732f8e1","686e312bcf944a1663209546","678af0a3161e3e871bbade54","","","","","","","","","","","","","","","","","","","","","","","","","","","","","","","","","","","","","","","","","","","","",""
"3474","","","{""blue_ball"":[""Ball doesn‘t move and I get -1 penalty point""]}","survey-multi-select","31","754887","0.0-8.0-7.0-0.0","125","1","2025-07-09 09:08:38","7701e855f2ef39aa3fd6c71abdc6918a","97.177.150.141","Mozilla/5.0 (Windows NT 10.0; Win64; x64) AppleWebKit/537.36 (KHTML, like Gecko) Chrome/138.0.0.0 Safari/537.36","WebKit","Chrome","138.0.0.0","Windows","10.0","https://app.prolific.com/","en-US,en;q=0.9","678af0a3161e3e871bbade54","686d226cabeef709c732f8e1","686e312bcf944a1663209546","678af0a3161e3e871bbade54","","","[0]","","","","quiz","","","","","","","","","","","","","","","","","","","","","","","","","","","","","","","","","","","","","false",""
"3297","","<p align='center'><b>INCORRECT.</b> The blue ball always shakes and moves randomly.</p>","0","html-button-response","32","758188","0.0-8.0-7.0-1.0","125","1","2025-07-09 09:08:38","7701e855f2ef39aa3fd6c71abdc6918a","97.177.150.141","Mozilla/5.0 (Windows NT 10.0; Win64; x64) AppleWebKit/537.36 (KHTML, like Gecko) Chrome/138.0.0.0 Safari/537.36","WebKit","Chrome","138.0.0.0","Windows","10.0","https://app.prolific.com/","en-US,en;q=0.9","678af0a3161e3e871bbade54","686d226cabeef709c732f8e1","686e312bcf944a1663209546","678af0a3161e3e871bbade54","","","","","","","","","","","","","","","","","","","","","","","","","","","","","","","","","","","","","","","","","","","","",""
"8298","","","{""blue_ball"":[""Ball always shakes and moves in a random direction""]}","survey-multi-select","33","766493","0.0-8.0-7.1-0.1","125","1","2025-07-09 09:08:38","7701e855f2ef39aa3fd6c71abdc6918a","97.177.150.141","Mozilla/5.0 (Windows NT 10.0; Win64; x64) AppleWebKit/537.36 (KHTML, like Gecko) Chrome/138.0.0.0 Safari/537.36","WebKit","Chrome","138.0.0.0","Windows","10.0","https://app.prolific.com/","en-US,en;q=0.9","678af0a3161e3e871bbade54","686d226cabeef709c732f8e1","686e312bcf944a1663209546","678af0a3161e3e871bbade54","","","[0]","","","","quiz","","","","","","","","","","","","","","","","","","","","","","","","","","","","","","","","","","","","","true",""
"1146","","<p align='center'><b>CORRECT!</b> Indeed, the blue ball always shakes and moves in a random direction. Also there is a penalty of -1 point.</p>","0","html-button-response","34","767642","0.0-8.0-7.1-1.1","125","1","2025-07-09 09:08:38","7701e855f2ef39aa3fd6c71abdc6918a","97.177.150.141","Mozilla/5.0 (Windows NT 10.0; Win64; x64) AppleWebKit/537.36 (KHTML, like Gecko) Chrome/138.0.0.0 Safari/537.36","WebKit","Chrome","138.0.0.0","Windows","10.0","https://app.prolific.com/","en-US,en;q=0.9","678af0a3161e3e871bbade54","686d226cabeef709c732f8e1","686e312bcf944a1663209546","678af0a3161e3e871bbade54","","","","","","","","","","","","","","","","","","","","","","","","","","","","","","","","","","","","","","","","","","","","",""
"3858","","","{""bonus"":[""When I reach 50% of points""]}","survey-multi-select","35","771505","0.0-8.0-8.0-0.0","125","1","2025-07-09 09:08:38","7701e855f2ef39aa3fd6c71abdc6918a","97.177.150.141","Mozilla/5.0 (Windows NT 10.0; Win64; x64) AppleWebKit/537.36 (KHTML, like Gecko) Chrome/138.0.0.0 Safari/537.36","WebKit","Chrome","138.0.0.0","Windows","10.0","https://app.prolific.com/","en-US,en;q=0.9","678af0a3161e3e871bbade54","686d226cabeef709c732f8e1","686e312bcf944a1663209546","678af0a3161e3e871bbade54","","","[0]","","","","quiz","","","","","","","","","","","","","","","","","","","","","","","","","","","","","","","","","","","","","true",""
"1514","","<p align='center'><b>CORRECT!</b> Indeed, you receive 2 pounds extra when you reach 50% of points.</p>","0","html-button-response","36","773024","0.0-8.0-8.0-1.0","125","1","2025-07-09 09:08:38","7701e855f2ef39aa3fd6c71abdc6918a","97.177.150.141","Mozilla/5.0 (Windows NT 10.0; Win64; x64) AppleWebKit/537.36 (KHTML, like Gecko) Chrome/138.0.0.0 Safari/537.36","WebKit","Chrome","138.0.0.0","Windows","10.0","https://app.prolific.com/","en-US,en;q=0.9","678af0a3161e3e871bbade54","686d226cabeef709c732f8e1","686e312bcf944a1663209546","678af0a3161e3e871bbade54","","","","","","","","","","","","","","","","","","","","","","","","","","","","","","","","","","","","","","","","","","","","",""
"12948","","","","instructions","37","785975","0.0-8.0-9.0","125","1","2025-07-09 09:08:38","7701e855f2ef39aa3fd6c71abdc6918a","97.177.150.141","Mozilla/5.0 (Windows NT 10.0; Win64; x64) AppleWebKit/537.36 (KHTML, like Gecko) Chrome/138.0.0.0 Safari/537.36","WebKit","Chrome","138.0.0.0","Windows","10.0","https://app.prolific.com/","en-US,en;q=0.9","678af0a3161e3e871bbade54","686d226cabeef709c732f8e1","686e312bcf944a1663209546","678af0a3161e3e871bbade54","","[{""page_index"":0,""viewing_time"":12947}]","","","","","","","","","","","","","","","","","","","","","","","","","","","","","","","","","","","","","","","","","","",""
"16464","","<p>Before you start with this game please answer the following three questions yourself. </p>
  <p>Through this game, we measure several aspects of your cognitive performance, such as reaction times, multi-tasking capabilities </p>
  <p>and the ability to assess the situation you are in.</p>
  <p></p>
  <p><b>How good do you usually are in such tasks?</b></p>","66","html-slider-response","38","802444","0.0-9.0-0.0","125","1","2025-07-09 09:08:38","7701e855f2ef39aa3fd6c71abdc6918a","97.177.150.141","Mozilla/5.0 (Windows NT 10.0; Win64; x64) AppleWebKit/537.36 (KHTML, like Gecko) Chrome/138.0.0.0 Safari/537.36","WebKit","Chrome","138.0.0.0","Windows","10.0","https://app.prolific.com/","en-US,en;q=0.9","678af0a3161e3e871bbade54","686d226cabeef709c732f8e1","686e312bcf944a1663209546","678af0a3161e3e871bbade54","2025-07-09T09:22:53.202Z","","","","","","PreSkillQ","","","","","","","","","","","","","","","","","","","","","","","","","","","","","","","","","","","","","","50"
"7325","","<div style=""width:500px;"">
  <p>How well do you think you will perform in this task compared to other participants?</p>
  </div>","69","html-slider-response","39","809773","0.0-9.0-1.0","125","1","2025-07-09 09:08:38","7701e855f2ef39aa3fd6c71abdc6918a","97.177.150.141","Mozilla/5.0 (Windows NT 10.0; Win64; x64) AppleWebKit/537.36 (KHTML, like Gecko) Chrome/138.0.0.0 Safari/537.36","WebKit","Chrome","138.0.0.0","Windows","10.0","https://app.prolific.com/","en-US,en;q=0.9","678af0a3161e3e871bbade54","686d226cabeef709c732f8e1","686e312bcf944a1663209546","678af0a3161e3e871bbade54","2025-07-09T09:23:00.532Z","","","","","","PrePerfQ","","","","","","","","","","","","","","","","","","","","","","","","","","","","","","","","","","","","","","50"
"12392","","<div style=""width:500px;"">
  <p>What best describes how you currently feel?</p>
  </div>","67","html-slider-response","40","822169","0.0-9.0-2.0","125","1","2025-07-09 09:08:38","7701e855f2ef39aa3fd6c71abdc6918a","97.177.150.141","Mozilla/5.0 (Windows NT 10.0; Win64; x64) AppleWebKit/537.36 (KHTML, like Gecko) Chrome/138.0.0.0 Safari/537.36","WebKit","Chrome","138.0.0.0","Windows","10.0","https://app.prolific.com/","en-US,en;q=0.9","678af0a3161e3e871bbade54","686d226cabeef709c732f8e1","686e312bcf944a1663209546","678af0a3161e3e871bbade54","2025-07-09T09:23:12.928Z","","","","","","PreMotivationQ","","","","","","","","","","","","","","","","","","","","","","","","","","","","","","","","","","","","","","50"
"","","","","ctl-task-cpt","41","855949","0.0-10.0-0.0","125","1","2025-07-09 09:08:38","7701e855f2ef39aa3fd6c71abdc6918a","97.177.150.141","Mozilla/5.0 (Windows NT 10.0; Win64; x64) AppleWebKit/537.36 (KHTML, like Gecko) Chrome/138.0.0.0 Safari/537.36","WebKit","Chrome","138.0.0.0","Windows","10.0","https://app.prolific.com/","en-US,en;q=0.9","678af0a3161e3e871bbade54","686d226cabeef709c732f8e1","686e312bcf944a1663209546","678af0a3161e3e871bbade54","2025-07-09T09:23:46.708Z","","","","","","","","","","","","","","","","win-only","0","g1:NW,g2:SE","1","1","0","836893.4","3280.8","8287.7","30762.3","1","4","8","6","1","-1","-4","0","0","0","5006.8","3000","-1775","[""left"",""up""]","{""num_key_presses"":6,""num_perfect"":3,""num_errors"":3,""num_randdir"":0,""num_randdir_good_moves"":0,""num_whilered"":0,""num_whileblue"":0,""num_blue"":1,""num_good_moves"":0}","[252.24598214285714,244.63660714285714,0.7,252.24598214285714,244.63660714285714,102.2,252.24598214285714,244.63660714285714,203.9,252.24598214285714,244.63660714285714,309.9,252.24598214285714,244.63660714285714,425,252.24598214285714,244.63660714285714,527.8,252.24598214285714,244.63660714285714,629.5,252.24598214285714,244.63660714285714,732.6,252.24598214285714,244.63660714285714,833.1,252.24598214285714,244.63660714285714,950.7,252.24598214285714,244.63660714285714,1054.1,252.24598214285714,244.63660714285714,1156.5,252.24598214285714,244.63660714285714,1261.6,252.24598214285714,244.63660714285714,1371.1,252.24598214285714,244.63660714285714,1484.3,252.24598214285714,244.63660714285714,1596.9,252.24598214285714,244.63660714285714,1698.5,252.24598214285714,244.63660714285714,1799.2,252.24598214285714,244.63660714285714,1902,252.24598214285714,244.63660714285714,2002.2,252.24598214285714,244.63660714285714,2113.8,252.24598214285714,244.63660714285714,2217.3,252.24598214285714,244.63660714285714,2331,252.24598214285714,244.63660714285714,2431.3,252.24598214285714,244.63660714285714,2534.2,252.24598214285714,244.63660714285714,2639.3,252.24598214285714,244.63660714285714,2748.3,252.24598214285714,244.63660714285714,2851.6,252.24598214285714,244.63660714285714,2953.4,252.24598214285714,244.63660714285714,3070.8,252.24598214285714,244.63660714285714,3174.8,252.24598214285714,244.63660714285714,3274.9,252.24598214285714,244.63660714285714,3392.4,252.24598214285714,244.63660714285714,3502.2,252.24598214285714,244.63660714285714,3605.3,252.24598214285714,244.63660714285714,3709.2,252.24598214285714,244.63660714285714,3816.4,210.24598214285714,207.63660714285714,3930,210.24598214285714,207.63660714285714,4034.3,210.24598214285714,207.63660714285714,4140.4,210.24598214285714,207.63660714285714,4245.4,210.24598214285714,207.63660714285714,4350.6,210.24598214285714,207.63660714285714,4467.2,210.24598214285714,207.63660714285714,4570.4,210.24598214285714,207.63660714285714,4676.6,210.24598214285714,207.63660714285714,4780.4,210.24598214285714,207.63660714285714,4886,210.24598214285714,207.63660714285714,4990.1]","[3107.1,3107.1,1000,0,2107.1,""smooth"",""down"",""down"",""bad_move"",4374.2,1266.2,2544.5,3108.1,-1278.4,""error"",""-"",""-"",""no_move"",8460.7,4085,1928.1,5379.7,1152.9,""smooth"",""right"",""right"",""bad_move"",9336.4,872.8,2999.8,8463.6,-2127,""error"",""-"",""-"",""no_move"",14008,4671,2820.2,10348.9,839,""smooth"",""down"",""down"",""bad_move"",14855.7,847.3,2451.8,14008.4,-1604.5,""error"",""-"",""-"",""no_move""]","",""
"15130","","<div style=""width:500px;"">
  <p>What determined the result of this run?</p>
  </div>","76","html-slider-response","42","871084","0.0-10.0-1.0","125","1","2025-07-09 09:08:38","7701e855f2ef39aa3fd6c71abdc6918a","97.177.150.141","Mozilla/5.0 (Windows NT 10.0; Win64; x64) AppleWebKit/537.36 (KHTML, like Gecko) Chrome/138.0.0.0 Safari/537.36","WebKit","Chrome","138.0.0.0","Windows","10.0","https://app.prolific.com/","en-US,en;q=0.9","678af0a3161e3e871bbade54","686d226cabeef709c732f8e1","686e312bcf944a1663209546","678af0a3161e3e871bbade54","2025-07-09T09:24:01.842Z","","","","","","AttribQ","","","","","","","","","","","","","","","","","","","","","","","","","","","","","","","","","","","","","","50"
"6361","","<div style=""width:500px;"">
  <p>How much control did you have over the ball?</p>
  </div>","50","html-slider-response","43","877447","0.0-10.0-2.0","125","1","2025-07-09 09:08:38","7701e855f2ef39aa3fd6c71abdc6918a","97.177.150.141","Mozilla/5.0 (Windows NT 10.0; Win64; x64) AppleWebKit/537.36 (KHTML, like Gecko) Chrome/138.0.0.0 Safari/537.36","WebKit","Chrome","138.0.0.0","Windows","10.0","https://app.prolific.com/","en-US,en;q=0.9","678af0a3161e3e871bbade54","686d226cabeef709c732f8e1","686e312bcf944a1663209546","678af0a3161e3e871bbade54","2025-07-09T09:24:08.205Z","","","","","","ControlQ","","","","","","","","","","","","","","","","","","","","","","","","","","","","","","","","","","","","","","50"
"4757","","<div style=""width:500px;"">
  <p>How would you describe your current emotional state?</p>
  </div>","72","html-slider-response","44","882207","0.0-10.0-3.0","125","1","2025-07-09 09:08:38","7701e855f2ef39aa3fd6c71abdc6918a","97.177.150.141","Mozilla/5.0 (Windows NT 10.0; Win64; x64) AppleWebKit/537.36 (KHTML, like Gecko) Chrome/138.0.0.0 Safari/537.36","WebKit","Chrome","138.0.0.0","Windows","10.0","https://app.prolific.com/","en-US,en;q=0.9","678af0a3161e3e871bbade54","686d226cabeef709c732f8e1","686e312bcf944a1663209546","678af0a3161e3e871bbade54","2025-07-09T09:24:12.966Z","","","","","","StressQ","","","","","","","","","","","","","","","","","","","","","","","","","","","","","","","","","","","","","","50"
"5800","","<div style=""width:500px;"">
  <p>What best describes how you currently feel?</p>
  </div>","57","html-slider-response","45","888010","0.0-10.0-4.0","125","1","2025-07-09 09:08:38","7701e855f2ef39aa3fd6c71abdc6918a","97.177.150.141","Mozilla/5.0 (Windows NT 10.0; Win64; x64) AppleWebKit/537.36 (KHTML, like Gecko) Chrome/138.0.0.0 Safari/537.36","WebKit","Chrome","138.0.0.0","Windows","10.0","https://app.prolific.com/","en-US,en;q=0.9","678af0a3161e3e871bbade54","686d226cabeef709c732f8e1","686e312bcf944a1663209546","678af0a3161e3e871bbade54","2025-07-09T09:24:18.769Z","","","","","","MotivationQ","","","","","","","","","","","","","","","","","","","","","","","","","","","","","","","","","","","","","","50"