"rt","response_timestamp","stimulus","response","trial_type","trial_index","time_elapsed","internal_node_id","run_id","condition","recorded_at","source_code_version","ip","user_agent","device","browser","browser_version","platform","platform_version","referer","accept_language","PROLIFIC_PID","STUDY_ID","SESSION_ID","prolific_id","realtime","view_history","question_order","consent","success","question_id","eventType","responses","item_order","radio_event_ids","radio_event_times","key_event_times","mouse_event_times","straightlining","zigzagging","honeypot","which_type","canvas_config","goals_layout","control_level","trial_number","tutorial_trial_number","trial_start_time","phase1_start_time","phase2_start_time","phase3_start_time","goal_1_value","goal_1_distance","goal_2_value","goal_2_distance","goal_selected","outcome","outcome_total","participant_final_score","participant_initial_score","participant_final_score_prop","goal_choice_rt","allocated_time","allocated_time_remaining","goal_direction","counts","mouse_movements","key_presses","correct","slider_start","sub_question"
"28737","1752052170607","<p style='font-size:40px;line-height:1.25'><strong>Welcome to the experiment!</strong></p><p style='font-size:1.1em;line-height:1.25'>Thank you for your interest in our experiment! Before you begin, it is important that we obtain your informed consent to participate in the study.</p><p style='font-size:1.1em;line-height:1.25'>On the next screen will be an <strong>information sheet</strong> for you to read. To participate in the study we need you to read this information sheet and the following consent form carefully. If you agree with all the statements, please click the <strong>I agree</strong> button.</p><p style='font-size:1.1em;line-height:1.25'>Press <strong>Next</strong> to read the information sheet.</p>","0","custom-html-button-response","0","28746","0.0-0.0","130","1","2025-07-09 09:08:51","7701e855f2ef39aa3fd6c71abdc6918a","105.245.102.100","Mozilla/5.0 (Windows NT 10.0; Win64; x64) AppleWebKit/537.36 (KHTML, like Gecko) Chrome/138.0.0.0 Safari/537.36","WebKit","Chrome","138.0.0.0","Windows","10.0","https://app.prolific.com/","en-GB,en-US;q=0.9,en;q=0.8","671d0e15c134a5355de39a6d","686d226cabeef709c732f8e1","686e3139bdfa1b6bafc3db31","671d0e15c134a5355de39a6d","2025-07-09T09:09:30.614Z","","","","","","","","","","","","","","","","","","","","","","","","","","","","","","","","","","","","","","","","","","","","",""
"94204","","","","instructions","1","122967","0.0-1.0","130","1","2025-07-09 09:08:51","7701e855f2ef39aa3fd6c71abdc6918a","105.245.102.100","Mozilla/5.0 (Windows NT 10.0; Win64; x64) AppleWebKit/537.36 (KHTML, like Gecko) Chrome/138.0.0.0 Safari/537.36","WebKit","Chrome","138.0.0.0","Windows","10.0","https://app.prolific.com/","en-GB,en-US;q=0.9,en;q=0.8","671d0e15c134a5355de39a6d","686d226cabeef709c732f8e1","686e3139bdfa1b6bafc3db31","671d0e15c134a5355de39a6d","","[{""page_index"":0,""viewing_time"":64680},{""page_index"":1,""viewing_time"":29521}]","","","","","","","","","","","","","","","","","","","","","","","","","","","","","","","","","","","","","","","","","","","",""
"16564","","","{""Q0"":"""",""Q1"":"""",""Q2"":"""",""Q3"":"""",""Q4"":"""",""Q5"":"""",""Q6"":""I agree""}","survey-multi-choice","2","139554","0.0-2.0","130","1","2025-07-09 09:08:51","7701e855f2ef39aa3fd6c71abdc6918a","105.245.102.100","Mozilla/5.0 (Windows NT 10.0; Win64; x64) AppleWebKit/537.36 (KHTML, like Gecko) Chrome/138.0.0.0 Safari/537.36","WebKit","Chrome","138.0.0.0","Windows","10.0","https://app.prolific.com/","en-GB,en-US;q=0.9,en;q=0.8","671d0e15c134a5355de39a6d","686d226cabeef709c732f8e1","686e3139bdfa1b6bafc3db31","671d0e15c134a5355de39a6d","","","[0,1,2,3,4,5,6]","true","","","","","","","","","","","","","","","","","","","","","","","","","","","","","","","","","","","","","","","","","",""
"12859","","","","fullscreen","3","153432","0.0-4.0","130","1","2025-07-09 09:08:51","7701e855f2ef39aa3fd6c71abdc6918a","105.245.102.100","Mozilla/5.0 (Windows NT 10.0; Win64; x64) AppleWebKit/537.36 (KHTML, like Gecko) Chrome/138.0.0.0 Safari/537.36","WebKit","Chrome","138.0.0.0","Windows","10.0","https://app.prolific.com/","en-GB,en-US;q=0.9,en;q=0.8","671d0e15c134a5355de39a6d","686d226cabeef709c732f8e1","686e3139bdfa1b6bafc3db31","671d0e15c134a5355de39a6d","","","","","true","","","","","","","","","","","","","","","","","","","","","","","","","","","","","","","","","","","","","","","","",""
"12135","1752052307438"," <p style='font-size:1.1em;line-height:1.25'>Thank you for completing the consent form and closing all other tabs.</p><p style='font-size:1.1em;line-height:1.25'>We will now invite you to fill in some demographic information and questionnaires, before starting the game.<br>This will take about 5 minutes.<br></p><p style='font-size:1.1em;line-height:1.25'>Press the <strong>Next</strong> button to continue.</p>","0","custom-html-button-response","4","165572","0.0-5.0","130","1","2025-07-09 09:08:51","7701e855f2ef39aa3fd6c71abdc6918a","105.245.102.100","Mozilla/5.0 (Windows NT 10.0; Win64; x64) AppleWebKit/537.36 (KHTML, like Gecko) Chrome/138.0.0.0 Safari/537.36","WebKit","Chrome","138.0.0.0","Windows","10.0","https://app.prolific.com/","en-GB,en-US;q=0.9,en;q=0.8","671d0e15c134a5355de39a6d","686d226cabeef709c732f8e1","686e3139bdfa1b6bafc3db31","671d0e15c134a5355de39a6d","2025-07-09T09:11:47.440Z","","","","","","","","","","","","","","","","","","","","","","","","","","","","","","","","","","","","","","","","","","","","",""
"5797","","","{""age"":""35""}","survey-text","5","171387","0.0-6.0-0.0","130","1","2025-07-09 09:08:51","7701e855f2ef39aa3fd6c71abdc6918a","105.245.102.100","Mozilla/5.0 (Windows NT 10.0; Win64; x64) AppleWebKit/537.36 (KHTML, like Gecko) Chrome/138.0.0.0 Safari/537.36","WebKit","Chrome","138.0.0.0","Windows","10.0","https://app.prolific.com/","en-GB,en-US;q=0.9,en;q=0.8","671d0e15c134a5355de39a6d","686d226cabeef709c732f8e1","686e3139bdfa1b6bafc3db31","671d0e15c134a5355de39a6d","","","","","","0","demographics","","","","","","","","","","","","","","","","","","","","","","","","","","","","","","","","","","","","","","",""
"5539","","","{""gender_identity"":""female/woman""}","survey-multi-choice","6","176930","0.0-6.0-1.0","130","1","2025-07-09 09:08:51","7701e855f2ef39aa3fd6c71abdc6918a","105.245.102.100","Mozilla/5.0 (Windows NT 10.0; Win64; x64) AppleWebKit/537.36 (KHTML, like Gecko) Chrome/138.0.0.0 Safari/537.36","WebKit","Chrome","138.0.0.0","Windows","10.0","https://app.prolific.com/","en-GB,en-US;q=0.9,en;q=0.8","671d0e15c134a5355de39a6d","686d226cabeef709c732f8e1","686e3139bdfa1b6bafc3db31","671d0e15c134a5355de39a6d","","","[0]","","","1","demographics","","","","","","","","","","","","","","","","","","","","","","","","","","","","","","","","","","","","","","",""
"7745","","","{""assigned_sex"":""female""}","survey-multi-choice","7","184678","0.0-6.0-2.0","130","1","2025-07-09 09:08:51","7701e855f2ef39aa3fd6c71abdc6918a","105.245.102.100","Mozilla/5.0 (Windows NT 10.0; Win64; x64) AppleWebKit/537.36 (KHTML, like Gecko) Chrome/138.0.0.0 Safari/537.36","WebKit","Chrome","138.0.0.0","Windows","10.0","https://app.prolific.com/","en-GB,en-US;q=0.9,en;q=0.8","671d0e15c134a5355de39a6d","686d226cabeef709c732f8e1","686e3139bdfa1b6bafc3db31","671d0e15c134a5355de39a6d","","","[0]","","","2","demographics","","","","","","","","","","","","","","","","","","","","","","","","","","","","","","","","","","","","","","",""
"6766","","","{""menstrual_cycle"":""Yes""}","survey-multi-choice","8","191449","0.0-6.0-3.0","130","1","2025-07-09 09:08:51","7701e855f2ef39aa3fd6c71abdc6918a","105.245.102.100","Mozilla/5.0 (Windows NT 10.0; Win64; x64) AppleWebKit/537.36 (KHTML, like Gecko) Chrome/138.0.0.0 Safari/537.36","WebKit","Chrome","138.0.0.0","Windows","10.0","https://app.prolific.com/","en-GB,en-US;q=0.9,en;q=0.8","671d0e15c134a5355de39a6d","686d226cabeef709c732f8e1","686e3139bdfa1b6bafc3db31","671d0e15c134a5355de39a6d","","","[0]","","","4","demographics","","","","","","","","","","","","","","","","","","","","","","","","","","","","","","","","","","","","","","",""
"5840","","","{""education"":""Master's Degree (e.g., MSc)""}","survey-multi-choice","9","197295","0.0-6.0-4.0","130","1","2025-07-09 09:08:51","7701e855f2ef39aa3fd6c71abdc6918a","105.245.102.100","Mozilla/5.0 (Windows NT 10.0; Win64; x64) AppleWebKit/537.36 (KHTML, like Gecko) Chrome/138.0.0.0 Safari/537.36","WebKit","Chrome","138.0.0.0","Windows","10.0","https://app.prolific.com/","en-GB,en-US;q=0.9,en;q=0.8","671d0e15c134a5355de39a6d","686d226cabeef709c732f8e1","686e3139bdfa1b6bafc3db31","671d0e15c134a5355de39a6d","","","[0]","","","5","demographics","","","","","","","","","","","","","","","","","","","","","","","","","","","","","","","","","","","","","","",""
"9354","","","{""education"":""Bachelor's Degree (e.g., BA)""}","survey-multi-choice","10","206654","0.0-6.0-5.0","130","1","2025-07-09 09:08:51","7701e855f2ef39aa3fd6c71abdc6918a","105.245.102.100","Mozilla/5.0 (Windows NT 10.0; Win64; x64) AppleWebKit/537.36 (KHTML, like Gecko) Chrome/138.0.0.0 Safari/537.36","WebKit","Chrome","138.0.0.0","Windows","10.0","https://app.prolific.com/","en-GB,en-US;q=0.9,en;q=0.8","671d0e15c134a5355de39a6d","686d226cabeef709c732f8e1","686e3139bdfa1b6bafc3db31","671d0e15c134a5355de39a6d","2025-07-09T09:12:28.521Z","","[0]","","","6","demographics","","","","","","","","","","","","","","","","","","","","","","","","","","","","","","","","","","","","","","",""
"29413","","","{""mental_health_condition"":""No."",""mental_health_treatment"":""No."",""psychiatric_medication"":""None.""}","survey-text","11","236072","0.0-7.0-0.0","130","1","2025-07-09 09:08:51","7701e855f2ef39aa3fd6c71abdc6918a","105.245.102.100","Mozilla/5.0 (Windows NT 10.0; Win64; x64) AppleWebKit/537.36 (KHTML, like Gecko) Chrome/138.0.0.0 Safari/537.36","WebKit","Chrome","138.0.0.0","Windows","10.0","https://app.prolific.com/","en-GB,en-US;q=0.9,en;q=0.8","671d0e15c134a5355de39a6d","686d226cabeef709c732f8e1","686e3139bdfa1b6bafc3db31","671d0e15c134a5355de39a6d","2025-07-09T09:12:57.939Z","","","","","1","mental_health","","","","","","","","","","","","","","","","","","","","","","","","","","","","","","","","","","","","","","",""
"17483","","","{""depression_history"":[""Yes""]}","survey-multi-select","12","253573","0.0-7.0-1.0","130","1","2025-07-09 09:08:51","7701e855f2ef39aa3fd6c71abdc6918a","105.245.102.100","Mozilla/5.0 (Windows NT 10.0; Win64; x64) AppleWebKit/537.36 (KHTML, like Gecko) Chrome/138.0.0.0 Safari/537.36","WebKit","Chrome","138.0.0.0","Windows","10.0","https://app.prolific.com/","en-GB,en-US;q=0.9,en;q=0.8","671d0e15c134a5355de39a6d","686d226cabeef709c732f8e1","686e3139bdfa1b6bafc3db31","671d0e15c134a5355de39a6d","","","[0]","","","","mental_health","","","","","","","","","","","","","","","","","","","","","","","","","","","","","","","","","","","","","","",""
"22540","","","{""depression_episodes"":""3-5"",""depression_recent"":""Within the past year""}","survey-multi-choice","13","276118","0.0-7.0-2.0-0.0","130","1","2025-07-09 09:08:51","7701e855f2ef39aa3fd6c71abdc6918a","105.245.102.100","Mozilla/5.0 (Windows NT 10.0; Win64; x64) AppleWebKit/537.36 (KHTML, like Gecko) Chrome/138.0.0.0 Safari/537.36","WebKit","Chrome","138.0.0.0","Windows","10.0","https://app.prolific.com/","en-GB,en-US;q=0.9,en;q=0.8","671d0e15c134a5355de39a6d","686d226cabeef709c732f8e1","686e3139bdfa1b6bafc3db31","671d0e15c134a5355de39a6d","2025-07-09T09:13:37.985Z","","[0,1]","","","3","mental_health","","","","","","","","","","","","","","","","","","","","","","","","","","","","","","","","","","","","","","",""
"103021.80000007153","","","","survey-template","14","379156","0.0-7.0-3.0","130","1","2025-07-09 09:08:51","7701e855f2ef39aa3fd6c71abdc6918a","105.245.102.100","Mozilla/5.0 (Windows NT 10.0; Win64; x64) AppleWebKit/537.36 (KHTML, like Gecko) Chrome/138.0.0.0 Safari/537.36","WebKit","Chrome","138.0.0.0","Windows","10.0","https://app.prolific.com/","en-GB,en-US;q=0.9,en;q=0.8","671d0e15c134a5355de39a6d","686d226cabeef709c732f8e1","686e3139bdfa1b6bafc3db31","671d0e15c134a5355de39a6d","2025-07-09T09:15:21.023Z","","","","","","ius","{""Q01"":""2"",""Q02"":""2"",""Q03"":""1"",""Q04"":""4"",""Q05"":""2"",""Q06"":""1"",""Q07"":""1"",""Q08"":""0"",""Q09"":""4"",""Q10"":""1"",""Q11"":""0"",""Q12"":""4"",""Q13"":""3""}","[0,1,2,3,4,5,6,7,8,9,10,11,12]","[""Q01"",""Q01"",""Q01"",""Q02"",""Q03"",""Q04"",""Q05"",""Q05"",""Q06"",""Q07"",""Q06"",""Q08"",""Q09"",""Q10"",""Q11"",""Q12"",""Q13""]","[15559.5,21266.399999976158,25163.200000047684,29776.600000023842,33971.800000071526,40099.5,48340.200000047684,50870.700000047684,55016.300000071526,58979.300000071526,62212,69285.80000007153,81494.5,88814.89999997616,92213.70000004768,96392.5,99907.39999997616]","[]","[15559.5,19935.200000047684,21266.399999976158,25163.200000047684,29776.600000023842,33971.800000071526,38616.89999997616,40099.5,48340.200000047684,50870.700000047684,55016.300000071526,58979.300000071526,62212,69285.80000007153,81494.5,88814.89999997616,92213.70000004768,96392.5,99907.39999997616,103010.10000002384]","0.3076923076923077","0.5833333333333334","0","","","","","","","","","","","","","","","","","","","","","","","","","","","","","",""
"6332","1752052527357","<p style='font-size:1.1em;line-height:1.25'>In the following, we will ask you a few questions relating to your experiences over the past month.<br></p><p style='font-size:1.1em;line-height:1.25'>Press the <strong>Next</strong> button to continue.</p>","0","custom-html-button-response","15","385493","0.0-7.0-4.0","130","1","2025-07-09 09:08:51","7701e855f2ef39aa3fd6c71abdc6918a","105.245.102.100","Mozilla/5.0 (Windows NT 10.0; Win64; x64) AppleWebKit/537.36 (KHTML, like Gecko) Chrome/138.0.0.0 Safari/537.36","WebKit","Chrome","138.0.0.0","Windows","10.0","https://app.prolific.com/","en-GB,en-US;q=0.9,en;q=0.8","671d0e15c134a5355de39a6d","686d226cabeef709c732f8e1","686e3139bdfa1b6bafc3db31","671d0e15c134a5355de39a6d","2025-07-09T09:15:27.360Z","","","","","","","","","","","","","","","","","","","","","","","","","","","","","","","","","","","","","","","","","","","","",""
"90792.19999992847","","","","survey-template","16","476293","0.0-7.0-5.0","130","1","2025-07-09 09:08:51","7701e855f2ef39aa3fd6c71abdc6918a","105.245.102.100","Mozilla/5.0 (Windows NT 10.0; Win64; x64) AppleWebKit/537.36 (KHTML, like Gecko) Chrome/138.0.0.0 Safari/537.36","WebKit","Chrome","138.0.0.0","Windows","10.0","https://app.prolific.com/","en-GB,en-US;q=0.9,en;q=0.8","671d0e15c134a5355de39a6d","686d226cabeef709c732f8e1","686e3139bdfa1b6bafc3db31","671d0e15c134a5355de39a6d","2025-07-09T09:16:58.161Z","","","","","","pss","{""Q01"":""2"",""Q02"":""1"",""Q03"":""2"",""Q04"":""0"",""Q05"":""0"",""Q06"":""0"",""Q07"":""0"",""Q08"":""0"",""Q09"":""1"",""Q10"":""0""}","[0,1,2,3,4,5,6,7,8,9]","[""Q01"",""Q02"",""Q03"",""Q04"",""Q05"",""Q06"",""Q07"",""Q08"",""Q09"",""Q09"",""Q10""]","[26533.399999976158,33308.89999997616,39752.299999952316,49260.59999990463,53708,60465,67576,72171.19999992847,77097.39999997616,78648.29999995232,89037.09999990463]","[]","[0.09999990463256836,26533.399999976158,33308.89999997616,39752.299999952316,49260.59999990463,53708,58950.39999997616,60465,67576,72171.19999992847,77097.39999997616,78648.29999995232,89037.09999990463,90784.29999995232]","0.4","0.5555555555555556","0","","","","","","","","","","","","","","","","","","","","","","","","","","","","","",""
"8682","1752052626844","<p style='font-size:1.1em;line-height:1.25'>Thank you for your answers! Now we will ask you a few more questions relating to your feelings in the last 24 hours.<br></p><p style='font-size:1.1em;line-height:1.25'>Press the <strong>Next</strong> button to continue.</p>","0","custom-html-button-response","17","484979","0.0-7.0-6.0","130","1","2025-07-09 09:08:51","7701e855f2ef39aa3fd6c71abdc6918a","105.245.102.100","Mozilla/5.0 (Windows NT 10.0; Win64; x64) AppleWebKit/537.36 (KHTML, like Gecko) Chrome/138.0.0.0 Safari/537.36","WebKit","Chrome","138.0.0.0","Windows","10.0","https://app.prolific.com/","en-GB,en-US;q=0.9,en;q=0.8","671d0e15c134a5355de39a6d","686d226cabeef709c732f8e1","686e3139bdfa1b6bafc3db31","671d0e15c134a5355de39a6d","2025-07-09T09:17:06.847Z","","","","","","","","","","","","","","","","","","","","","","","","","","","","","","","","","","","","","","","","","","","","",""
"125198.40000009537","","","","survey-template","18","610191","0.0-7.0-7.0","130","1","2025-07-09 09:08:51","7701e855f2ef39aa3fd6c71abdc6918a","105.245.102.100","Mozilla/5.0 (Windows NT 10.0; Win64; x64) AppleWebKit/537.36 (KHTML, like Gecko) Chrome/138.0.0.0 Safari/537.36","WebKit","Chrome","138.0.0.0","Windows","10.0","https://app.prolific.com/","en-GB,en-US;q=0.9,en;q=0.8","671d0e15c134a5355de39a6d","686d226cabeef709c732f8e1","686e3139bdfa1b6bafc3db31","671d0e15c134a5355de39a6d","2025-07-09T09:19:12.059Z","","","","","","drsp","{""Q01"":""0"",""Q02"":""0"",""Q03"":""0"",""Q04"":""0"",""Q05"":""2"",""Q06"":""0"",""Q07"":""1"",""Q08"":""0"",""Q09"":""0"",""Q10"":""1"",""Q11"":""1"",""Q12"":""0"",""Q13"":""1"",""Q14"":""0"",""Q15"":""0"",""Q16"":""0"",""Q17"":""0"",""Q18"":""0"",""Q19"":""1"",""Q20"":""0"",""Q21"":""0""}","[0,1,2,3,4,5,6,7,8,9,10,11,12,13,14,15,16,17,18,19,20]","[""Q01"",""Q02"",""Q03"",""Q04"",""Q05"",""Q06"",""Q07"",""Q08"",""Q09"",""Q10"",""Q11"",""Q12"",""Q13"",""Q14"",""Q15"",""Q16"",""Q17"",""Q05"",""Q07"",""Q10"",""Q12"",""Q13"",""Q18"",""Q19"",""Q19"",""Q20"",""Q21""]","[3916,6432,8781,9813.300000071526,12094,15256.400000095367,16507.5,22366.300000071526,24378.5,28577.800000071526,29826.200000047684,32373.100000023842,35948.60000002384,42713.60000002384,44861.40000009537,46310.40000009537,47809.40000009537,71619,76530.70000004768,83188.40000009537,89783.40000009537,94226.90000009537,104084.60000002384,110047.30000007153,115276.10000002384,119188.90000009537,123833]","[]","[0.10000002384185791,3916,6432,8781,9813.300000071526,12094,15256.400000095367,16507.5,22366.300000071526,24378.5,25780.200000047684,28577.800000071526,29826.200000047684,32373.100000023842,35948.60000002384,42713.60000002384,44861.40000009537,46310.40000009537,47809.40000009537,67938.70000004768,70299.20000004768,71619,76530.70000004768,82020.30000007153,83188.40000009537,87553.70000004768,88881.80000007153,89783.40000009537,92847.90000009537,94226.90000009537,102733.60000002384,104084.60000002384,110047.30000007153,114143.5,115276.10000002384,119188.90000009537,123833,125182.90000009537]","0.7142857142857143","0.4","0","","","","","","","","","","","","","","","","","","","","","","","","","","","","","",""
"20958.800000071526","","","","survey-template","19","631156","0.0-7.0-8.0","130","1","2025-07-09 09:08:51","7701e855f2ef39aa3fd6c71abdc6918a","105.245.102.100","Mozilla/5.0 (Windows NT 10.0; Win64; x64) AppleWebKit/537.36 (KHTML, like Gecko) Chrome/138.0.0.0 Safari/537.36","WebKit","Chrome","138.0.0.0","Windows","10.0","https://app.prolific.com/","en-GB,en-US;q=0.9,en;q=0.8","671d0e15c134a5355de39a6d","686d226cabeef709c732f8e1","686e3139bdfa1b6bafc3db31","671d0e15c134a5355de39a6d","2025-07-09T09:19:33.023Z","","","","","","stress","{""Q01"":""0"",""Q02"":""0"",""Q03"":""1""}","[0,1,2]","[""Q01"",""Q02"",""Q03"",""Q03""]","[5053.400000095367,10143.300000071526,15643.900000095367,19606.300000071526]","[]","[5053.400000095367,10143.300000071526,15643.900000095367,19606.300000071526,20954.700000047684]","0.3333333333333333","0.5","0","","","","","","","","","","","","","","","","","","","","","","","","","","","","","",""
"181974","","","","instructions","20","813134","0.0-8.0-0.0","130","1","2025-07-09 09:08:51","7701e855f2ef39aa3fd6c71abdc6918a","105.245.102.100","Mozilla/5.0 (Windows NT 10.0; Win64; x64) AppleWebKit/537.36 (KHTML, like Gecko) Chrome/138.0.0.0 Safari/537.36","WebKit","Chrome","138.0.0.0","Windows","10.0","https://app.prolific.com/","en-GB,en-US;q=0.9,en;q=0.8","671d0e15c134a5355de39a6d","686d226cabeef709c732f8e1","686e3139bdfa1b6bafc3db31","671d0e15c134a5355de39a6d","","[{""page_index"":0,""viewing_time"":43281},{""page_index"":1,""viewing_time"":43107},{""page_index"":2,""viewing_time"":38841},{""page_index"":3,""viewing_time"":56745}]","","","","","","","","","","","","","","","","","","","","","","","","","","","","","","","","","","","","","","","","","","","",""
"","","","","ctl-task-cpt","21","841644","0.0-8.0-1.0","130","1","2025-07-09 09:08:51","7701e855f2ef39aa3fd6c71abdc6918a","105.245.102.100","Mozilla/5.0 (Windows NT 10.0; Win64; x64) AppleWebKit/537.36 (KHTML, like Gecko) Chrome/138.0.0.0 Safari/537.36","WebKit","Chrome","138.0.0.0","Windows","10.0","https://app.prolific.com/","en-GB,en-US;q=0.9,en;q=0.8","671d0e15c134a5355de39a6d","686d226cabeef709c732f8e1","686e3139bdfa1b6bafc3db31","671d0e15c134a5355de39a6d","","","","","","","","","","","","","","","","","win-only","1","g1:NE,g2:SW","1","0","1","818350","4141.8","8144.6","25486.1","2","4","4","6","1","2","-4","0","0","0","1534.8","4000","2610","[""up"",""right""]","{""num_key_presses"":17,""num_perfect"":4,""num_errors"":6,""num_randdir"":0,""num_randdir_good_moves"":0,""num_whilered"":7,""num_whileblue"":0,""num_blue"":0,""num_good_moves"":4}","[297.22232142857143,294.12857142857143,2.4,297.22232142857143,294.12857142857143,104.5,297.22232142857143,294.12857142857143,204.8,297.22232142857143,294.12857142857143,309.4,297.22232142857143,294.12857142857143,410.3,297.22232142857143,294.12857142857143,514.8,297.22232142857143,294.12857142857143,621.6,297.22232142857143,294.12857142857143,724.1,318.22232142857143,291.12857142857143,826,343.22232142857143,291.12857142857143,929.6,459.22232142857143,158.12857142857143,1030,518.2223214285714,78.12857142857143,1130.1,542.2223214285714,57.128571428571426,1230.5,542.2223214285714,58.128571428571426,1331,542.2223214285714,58.128571428571426,1434.8,542.2223214285714,58.128571428571426,1538.2,542.2223214285714,58.128571428571426,1640.5,542.2223214285714,58.128571428571426,1745.4,542.2223214285714,58.128571428571426,1868.6,542.2223214285714,58.128571428571426,1970.7,429.22232142857143,178.12857142857143,2077.3,394.22232142857143,230.12857142857143,2180.5,373.22232142857143,257.12857142857143,2284.9,341.22232142857143,302.12857142857143,2390.6,339.22232142857143,306.12857142857143,2491.5,349.22232142857143,316.12857142857143,2595.7,372.22232142857143,329.12857142857143,2700.8,385.22232142857143,332.12857142857143,2804.3,385.22232142857143,332.12857142857143,2905.8,385.22232142857143,332.12857142857143,3006,385.22232142857143,332.12857142857143,3110.1,385.22232142857143,332.12857142857143,3211.3,385.22232142857143,332.12857142857143,3314.9,385.22232142857143,332.12857142857143,3420.6,385.22232142857143,332.12857142857143,3523.5,385.22232142857143,332.12857142857143,3625.8,385.22232142857143,332.12857142857143,3730.2,385.22232142857143,332.12857142857143,3841,385.22232142857143,332.12857142857143,3944.7]","[1008.5,1008.3,1000,0.2,8.3,""smooth"",""right"",""right"",""good_move"",1126.1,116.5,2691.5,1009.6,-2575,""error"",""-"",""-"",""no_move"",1257.9,129.6,2691.5,1009.6,-2443.2,""while_red"",""-"",""-"",""no_move"",1492.1,363.8,2691.5,1009.6,-2209,""while_red"",""-"",""-"",""no_move"",1619.5,491.2,2691.5,1009.6,-2081.5,""while_red"",""-"",""-"",""no_move"",1725.3,597,2691.5,1009.6,-1975.8,""while_red"",""-"",""-"",""no_move"",1858.4,730.1,2691.5,1009.6,-1842.7,""while_red"",""-"",""-"",""no_move"",2136.1,1007.8,3311.1,2128.8,-3303.8,""error"",""-"",""-"",""no_move"",2674.2,536.4,3311.1,2128.8,-2765.7,""while_red"",""-"",""-"",""no_move"",3021.1,883.3,3311.1,2128.8,-2418.8,""while_red"",""-"",""-"",""no_move"",3190.6,1052.8,3396.6,3141.9,-3347.9,""error"",""-"",""-"",""no_move"",4557,1365.7,2399.4,4192.6,-2035,""error"",""-"",""-"",""no_move"",5939.2,1381.2,2498.6,5563.4,-2122.8,""error"",""-"",""-"",""no_move"",10170.5,4230.4,2456.8,6941.6,772.1,""smooth"",""right"",""right"",""good_move"",10393,221.9,2427.1,10171.1,-2205.2,""error"",""-"",""-"",""no_move"",14179.4,3785.7,2345.9,11394.3,439.2,""smooth"",""up"",""up"",""good_move"",17222.7,3042.4,2649.1,14180.3,393.3,""smooth"",""up"",""up"",""good_move""]","","",""
"26728","","","","instructions","22","868373","0.0-8.0-2.0","130","1","2025-07-09 09:08:51","7701e855f2ef39aa3fd6c71abdc6918a","105.245.102.100","Mozilla/5.0 (Windows NT 10.0; Win64; x64) AppleWebKit/537.36 (KHTML, like Gecko) Chrome/138.0.0.0 Safari/537.36","WebKit","Chrome","138.0.0.0","Windows","10.0","https://app.prolific.com/","en-GB,en-US;q=0.9,en;q=0.8","671d0e15c134a5355de39a6d","686d226cabeef709c732f8e1","686e3139bdfa1b6bafc3db31","671d0e15c134a5355de39a6d","","[{""page_index"":0,""viewing_time"":26728}]","","","","","","","","","","","","","","","","","","","","","","","","","","","","","","","","","","","","","","","","","","","",""
"","","","","ctl-task-cpt","23","877725","0.0-8.0-3.0","130","1","2025-07-09 09:08:51","7701e855f2ef39aa3fd6c71abdc6918a","105.245.102.100","Mozilla/5.0 (Windows NT 10.0; Win64; x64) AppleWebKit/537.36 (KHTML, like Gecko) Chrome/138.0.0.0 Safari/537.36","WebKit","Chrome","138.0.0.0","Windows","10.0","https://app.prolific.com/","en-GB,en-US;q=0.9,en;q=0.8","671d0e15c134a5355de39a6d","686d226cabeef709c732f8e1","686e3139bdfa1b6bafc3db31","671d0e15c134a5355de39a6d","","","","","","","","","","","","","","","","","win-only","1","g1:NE,g2:SW","0.35","0","3","873578.5","2326.3","-9999","6332.6","2","4","8","6","-9999","-4","-4","0","0","0","-9999","4000","4000","[]","{""num_key_presses"":0,""num_perfect"":0,""num_errors"":0,""num_randdir"":0,""num_randdir_good_moves"":0,""num_whilered"":0,""num_whileblue"":0,""num_blue"":0,""num_good_moves"":0}","[293.22232142857143,296.12857142857143,1.1,293.22232142857143,296.12857142857143,104.5,293.22232142857143,296.12857142857143,204.6,293.22232142857143,296.12857142857143,304.8,293.22232142857143,296.12857142857143,404.9,293.22232142857143,296.12857142857143,512.4,293.22232142857143,296.12857142857143,615,293.22232142857143,296.12857142857143,719.3,293.22232142857143,296.12857142857143,819.7,293.22232142857143,296.12857142857143,920.2,293.22232142857143,296.12857142857143,1026.4,293.22232142857143,296.12857142857143,1130.5,293.22232142857143,296.12857142857143,1234.9,293.22232142857143,296.12857142857143,1335,293.22232142857143,296.12857142857143,1439.9,293.22232142857143,296.12857142857143,1539.9,293.22232142857143,296.12857142857143,1644.7,293.22232142857143,296.12857142857143,1745.3,293.22232142857143,296.12857142857143,1849.2,293.22232142857143,296.12857142857143,1954.5,293.22232142857143,296.12857142857143,2054.7,293.22232142857143,296.12857142857143,2159.9,293.22232142857143,296.12857142857143,2261.4,293.22232142857143,296.12857142857143,2364.5,293.22232142857143,296.12857142857143,2465.1,293.22232142857143,296.12857142857143,2569.8,293.22232142857143,296.12857142857143,2674.7,293.22232142857143,296.12857142857143,2779.8,293.22232142857143,296.12857142857143,2884.6,293.22232142857143,296.12857142857143,2984.8,293.22232142857143,296.12857142857143,3091.2,293.22232142857143,296.12857142857143,3194.6,293.22232142857143,296.12857142857143,3299.7,293.22232142857143,296.12857142857143,3400,293.22232142857143,296.12857142857143,3504.3,293.22232142857143,296.12857142857143,3604.4,293.22232142857143,296.12857142857143,3710.5,293.22232142857143,296.12857142857143,3815.6,293.22232142857143,296.12857142857143,3919.3]","[]","","",""
"53657","","","","instructions","24","931383","0.0-8.0-4.0","130","1","2025-07-09 09:08:51","7701e855f2ef39aa3fd6c71abdc6918a","105.245.102.100","Mozilla/5.0 (Windows NT 10.0; Win64; x64) AppleWebKit/537.36 (KHTML, like Gecko) Chrome/138.0.0.0 Safari/537.36","WebKit","Chrome","138.0.0.0","Windows","10.0","https://app.prolific.com/","en-GB,en-US;q=0.9,en;q=0.8","671d0e15c134a5355de39a6d","686d226cabeef709c732f8e1","686e3139bdfa1b6bafc3db31","671d0e15c134a5355de39a6d","","[{""page_index"":0,""viewing_time"":11124},{""page_index"":1,""viewing_time"":42532}]","","","","","","","","","","","","","","","","","","","","","","","","","","","","","","","","","","","","","","","","","","","",""
"22959","","","{""green_ball"":[""Ball always moves in the direction I press""]}","survey-multi-select","25","954349","0.0-8.0-5.0-0.0","130","1","2025-07-09 09:08:51","7701e855f2ef39aa3fd6c71abdc6918a","105.245.102.100","Mozilla/5.0 (Windows NT 10.0; Win64; x64) AppleWebKit/537.36 (KHTML, like Gecko) Chrome/138.0.0.0 Safari/537.36","WebKit","Chrome","138.0.0.0","Windows","10.0","https://app.prolific.com/","en-GB,en-US;q=0.9,en;q=0.8","671d0e15c134a5355de39a6d","686d226cabeef709c732f8e1","686e3139bdfa1b6bafc3db31","671d0e15c134a5355de39a6d","","","[0]","","","","quiz","","","","","","","","","","","","","","","","","","","","","","","","","","","","","","","","","","","","","false","",""
"9968","","<p align='center'><b>INCORRECT.</b> Usually the green ball moves in the indicated direction, but sometimes it shakes and moves randomly. </p>","0","html-button-response","26","964323","0.0-8.0-5.0-1.0","130","1","2025-07-09 09:08:51","7701e855f2ef39aa3fd6c71abdc6918a","105.245.102.100","Mozilla/5.0 (Windows NT 10.0; Win64; x64) AppleWebKit/537.36 (KHTML, like Gecko) Chrome/138.0.0.0 Safari/537.36","WebKit","Chrome","138.0.0.0","Windows","10.0","https://app.prolific.com/","en-GB,en-US;q=0.9,en;q=0.8","671d0e15c134a5355de39a6d","686d226cabeef709c732f8e1","686e3139bdfa1b6bafc3db31","671d0e15c134a5355de39a6d","","","","","","","","","","","","","","","","","","","","","","","","","","","","","","","","","","","","","","","","","","","","","",""
"20115","","","{""green_ball"":[""Ball always shakes and moves in a random direction"",""Ball sometimes shakes and moves in a random direction""]}","survey-multi-select","27","984443","0.0-8.0-5.1-0.1","130","1","2025-07-09 09:08:51","7701e855f2ef39aa3fd6c71abdc6918a","105.245.102.100","Mozilla/5.0 (Windows NT 10.0; Win64; x64) AppleWebKit/537.36 (KHTML, like Gecko) Chrome/138.0.0.0 Safari/537.36","WebKit","Chrome","138.0.0.0","Windows","10.0","https://app.prolific.com/","en-GB,en-US;q=0.9,en;q=0.8","671d0e15c134a5355de39a6d","686d226cabeef709c732f8e1","686e3139bdfa1b6bafc3db31","671d0e15c134a5355de39a6d","","","[0]","","","","quiz","","","","","","","","","","","","","","","","","","","","","","","","","","","","","","","","","","","","","false","",""
"6282","","<p align='center'><b>INCORRECT.</b> Usually the green ball moves in the indicated direction, but sometimes it shakes and moves randomly. </p>","0","html-button-response","28","990730","0.0-8.0-5.1-1.1","130","1","2025-07-09 09:08:51","7701e855f2ef39aa3fd6c71abdc6918a","105.245.102.100","Mozilla/5.0 (Windows NT 10.0; Win64; x64) AppleWebKit/537.36 (KHTML, like Gecko) Chrome/138.0.0.0 Safari/537.36","WebKit","Chrome","138.0.0.0","Windows","10.0","https://app.prolific.com/","en-GB,en-US;q=0.9,en;q=0.8","671d0e15c134a5355de39a6d","686d226cabeef709c732f8e1","686e3139bdfa1b6bafc3db31","671d0e15c134a5355de39a6d","","","","","","","","","","","","","","","","","","","","","","","","","","","","","","","","","","","","","","","","","","","","","",""
"4367","","","{""green_ball"":[""Ball always moves in the direction I press"",""Ball sometimes shakes and moves in a random direction""]}","survey-multi-select","29","995101","0.0-8.0-5.2-0.2","130","1","2025-07-09 09:08:51","7701e855f2ef39aa3fd6c71abdc6918a","105.245.102.100","Mozilla/5.0 (Windows NT 10.0; Win64; x64) AppleWebKit/537.36 (KHTML, like Gecko) Chrome/138.0.0.0 Safari/537.36","WebKit","Chrome","138.0.0.0","Windows","10.0","https://app.prolific.com/","en-GB,en-US;q=0.9,en;q=0.8","671d0e15c134a5355de39a6d","686d226cabeef709c732f8e1","686e3139bdfa1b6bafc3db31","671d0e15c134a5355de39a6d","","","[0]","","","","quiz","","","","","","","","","","","","","","","","","","","","","","","","","","","","","","","","","","","","","false","",""
"10544","","<p align='center'><b>INCORRECT.</b> Usually the green ball moves in the indicated direction, but sometimes it shakes and moves randomly. </p>","0","html-button-response","30","1005648","0.0-8.0-5.2-1.2","130","1","2025-07-09 09:08:51","7701e855f2ef39aa3fd6c71abdc6918a","105.245.102.100","Mozilla/5.0 (Windows NT 10.0; Win64; x64) AppleWebKit/537.36 (KHTML, like Gecko) Chrome/138.0.0.0 Safari/537.36","WebKit","Chrome","138.0.0.0","Windows","10.0","https://app.prolific.com/","en-GB,en-US;q=0.9,en;q=0.8","671d0e15c134a5355de39a6d","686d226cabeef709c732f8e1","686e3139bdfa1b6bafc3db31","671d0e15c134a5355de39a6d","","","","","","","","","","","","","","","","","","","","","","","","","","","","","","","","","","","","","","","","","","","","","",""
"21473","","","{""green_ball"":[""Ball always shakes and moves in a random direction"",""Ball always moves in the direction I press"",""Ball sometimes shakes and moves in a random direction""]}","survey-multi-select","31","1027124","0.0-8.0-5.3-0.3","130","1","2025-07-09 09:08:51","7701e855f2ef39aa3fd6c71abdc6918a","105.245.102.100","Mozilla/5.0 (Windows NT 10.0; Win64; x64) AppleWebKit/537.36 (KHTML, like Gecko) Chrome/138.0.0.0 Safari/537.36","WebKit","Chrome","138.0.0.0","Windows","10.0","https://app.prolific.com/","en-GB,en-US;q=0.9,en;q=0.8","671d0e15c134a5355de39a6d","686d226cabeef709c732f8e1","686e3139bdfa1b6bafc3db31","671d0e15c134a5355de39a6d","","","[0]","","","","quiz","","","","","","","","","","","","","","","","","","","","","","","","","","","","","","","","","","","","","false","",""
"3605","","<p align='center'><b>INCORRECT.</b> Usually the green ball moves in the indicated direction, but sometimes it shakes and moves randomly. </p>","0","html-button-response","32","1030735","0.0-8.0-5.3-1.3","130","1","2025-07-09 09:08:51","7701e855f2ef39aa3fd6c71abdc6918a","105.245.102.100","Mozilla/5.0 (Windows NT 10.0; Win64; x64) AppleWebKit/537.36 (KHTML, like Gecko) Chrome/138.0.0.0 Safari/537.36","WebKit","Chrome","138.0.0.0","Windows","10.0","https://app.prolific.com/","en-GB,en-US;q=0.9,en;q=0.8","671d0e15c134a5355de39a6d","686d226cabeef709c732f8e1","686e3139bdfa1b6bafc3db31","671d0e15c134a5355de39a6d","","","","","","","","","","","","","","","","","","","","","","","","","","","","","","","","","","","","","","","","","","","","","",""
"6893","","","{""green_ball"":[""Ball always shakes and moves in a random direction"",""Ball sometimes shakes and moves in a random direction""]}","survey-multi-select","33","1037634","0.0-8.0-5.4-0.4","130","1","2025-07-09 09:08:51","7701e855f2ef39aa3fd6c71abdc6918a","105.245.102.100","Mozilla/5.0 (Windows NT 10.0; Win64; x64) AppleWebKit/537.36 (KHTML, like Gecko) Chrome/138.0.0.0 Safari/537.36","WebKit","Chrome","138.0.0.0","Windows","10.0","https://app.prolific.com/","en-GB,en-US;q=0.9,en;q=0.8","671d0e15c134a5355de39a6d","686d226cabeef709c732f8e1","686e3139bdfa1b6bafc3db31","671d0e15c134a5355de39a6d","","","[0]","","","","quiz","","","","","","","","","","","","","","","","","","","","","","","","","","","","","","","","","","","","","false","",""
"1430","","<p align='center'><b>INCORRECT.</b> Usually the green ball moves in the indicated direction, but sometimes it shakes and moves randomly. </p>","0","html-button-response","34","1039066","0.0-8.0-5.4-1.4","130","1","2025-07-09 09:08:51","7701e855f2ef39aa3fd6c71abdc6918a","105.245.102.100","Mozilla/5.0 (Windows NT 10.0; Win64; x64) AppleWebKit/537.36 (KHTML, like Gecko) Chrome/138.0.0.0 Safari/537.36","WebKit","Chrome","138.0.0.0","Windows","10.0","https://app.prolific.com/","en-GB,en-US;q=0.9,en;q=0.8","671d0e15c134a5355de39a6d","686d226cabeef709c732f8e1","686e3139bdfa1b6bafc3db31","671d0e15c134a5355de39a6d","","","","","","","","","","","","","","","","","","","","","","","","","","","","","","","","","","","","","","","","","","","","","",""
"8591","","","{""green_ball"":[""Ball always moves in the direction I press""]}","survey-multi-select","35","1047661","0.0-8.0-5.5-0.5","130","1","2025-07-09 09:08:51","7701e855f2ef39aa3fd6c71abdc6918a","105.245.102.100","Mozilla/5.0 (Windows NT 10.0; Win64; x64) AppleWebKit/537.36 (KHTML, like Gecko) Chrome/138.0.0.0 Safari/537.36","WebKit","Chrome","138.0.0.0","Windows","10.0","https://app.prolific.com/","en-GB,en-US;q=0.9,en;q=0.8","671d0e15c134a5355de39a6d","686d226cabeef709c732f8e1","686e3139bdfa1b6bafc3db31","671d0e15c134a5355de39a6d","","","[0]","","","","quiz","","","","","","","","","","","","","","","","","","","","","","","","","","","","","","","","","","","","","false","",""
"1775","","<p align='center'><b>INCORRECT.</b> Usually the green ball moves in the indicated direction, but sometimes it shakes and moves randomly. </p>","0","html-button-response","36","1049439","0.0-8.0-5.5-1.5","130","1","2025-07-09 09:08:51","7701e855f2ef39aa3fd6c71abdc6918a","105.245.102.100","Mozilla/5.0 (Windows NT 10.0; Win64; x64) AppleWebKit/537.36 (KHTML, like Gecko) Chrome/138.0.0.0 Safari/537.36","WebKit","Chrome","138.0.0.0","Windows","10.0","https://app.prolific.com/","en-GB,en-US;q=0.9,en;q=0.8","671d0e15c134a5355de39a6d","686d226cabeef709c732f8e1","686e3139bdfa1b6bafc3db31","671d0e15c134a5355de39a6d","","","","","","","","","","","","","","","","","","","","","","","","","","","","","","","","","","","","","","","","","","","","","",""
"3427","","","{""green_ball"":[""Ball always shakes and moves in a random direction"",""Ball always moves in the direction I press""]}","survey-multi-select","37","1052869","0.0-8.0-5.6-0.6","130","1","2025-07-09 09:08:51","7701e855f2ef39aa3fd6c71abdc6918a","105.245.102.100","Mozilla/5.0 (Windows NT 10.0; Win64; x64) AppleWebKit/537.36 (KHTML, like Gecko) Chrome/138.0.0.0 Safari/537.36","WebKit","Chrome","138.0.0.0","Windows","10.0","https://app.prolific.com/","en-GB,en-US;q=0.9,en;q=0.8","671d0e15c134a5355de39a6d","686d226cabeef709c732f8e1","686e3139bdfa1b6bafc3db31","671d0e15c134a5355de39a6d","","","[0]","","","","quiz","","","","","","","","","","","","","","","","","","","","","","","","","","","","","","","","","","","","","false","",""
"1296","","<p align='center'><b>INCORRECT.</b> Usually the green ball moves in the indicated direction, but sometimes it shakes and moves randomly. </p>","0","html-button-response","38","1054167","0.0-8.0-5.6-1.6","130","1","2025-07-09 09:08:51","7701e855f2ef39aa3fd6c71abdc6918a","105.245.102.100","Mozilla/5.0 (Windows NT 10.0; Win64; x64) AppleWebKit/537.36 (KHTML, like Gecko) Chrome/138.0.0.0 Safari/537.36","WebKit","Chrome","138.0.0.0","Windows","10.0","https://app.prolific.com/","en-GB,en-US;q=0.9,en;q=0.8","671d0e15c134a5355de39a6d","686d226cabeef709c732f8e1","686e3139bdfa1b6bafc3db31","671d0e15c134a5355de39a6d","","","","","","","","","","","","","","","","","","","","","","","","","","","","","","","","","","","","","","","","","","","","","",""
"3579","","","{""green_ball"":[""Ball always shakes and moves in a random direction""]}","survey-multi-select","39","1057753","0.0-8.0-5.7-0.7","130","1","2025-07-09 09:08:51","7701e855f2ef39aa3fd6c71abdc6918a","105.245.102.100","Mozilla/5.0 (Windows NT 10.0; Win64; x64) AppleWebKit/537.36 (KHTML, like Gecko) Chrome/138.0.0.0 Safari/537.36","WebKit","Chrome","138.0.0.0","Windows","10.0","https://app.prolific.com/","en-GB,en-US;q=0.9,en;q=0.8","671d0e15c134a5355de39a6d","686d226cabeef709c732f8e1","686e3139bdfa1b6bafc3db31","671d0e15c134a5355de39a6d","","","[0]","","","","quiz","","","","","","","","","","","","","","","","","","","","","","","","","","","","","","","","","","","","","false","",""
"1456","","<p align='center'><b>INCORRECT.</b> Usually the green ball moves in the indicated direction, but sometimes it shakes and moves randomly. </p>","0","html-button-response","40","1059213","0.0-8.0-5.7-1.7","130","1","2025-07-09 09:08:51","7701e855f2ef39aa3fd6c71abdc6918a","105.245.102.100","Mozilla/5.0 (Windows NT 10.0; Win64; x64) AppleWebKit/537.36 (KHTML, like Gecko) Chrome/138.0.0.0 Safari/537.36","WebKit","Chrome","138.0.0.0","Windows","10.0","https://app.prolific.com/","en-GB,en-US;q=0.9,en;q=0.8","671d0e15c134a5355de39a6d","686d226cabeef709c732f8e1","686e3139bdfa1b6bafc3db31","671d0e15c134a5355de39a6d","","","","","","","","","","","","","","","","","","","","","","","","","","","","","","","","","","","","","","","","","","","","","",""
"9063","","","{""green_ball"":[""Ball always shakes and moves in a random direction"",""Ball always moves in the direction I press"",""Ball sometimes shakes and moves in a random direction""]}","survey-multi-select","41","1068279","0.0-8.0-5.8-0.8","130","1","2025-07-09 09:08:51","7701e855f2ef39aa3fd6c71abdc6918a","105.245.102.100","Mozilla/5.0 (Windows NT 10.0; Win64; x64) AppleWebKit/537.36 (KHTML, like Gecko) Chrome/138.0.0.0 Safari/537.36","WebKit","Chrome","138.0.0.0","Windows","10.0","https://app.prolific.com/","en-GB,en-US;q=0.9,en;q=0.8","671d0e15c134a5355de39a6d","686d226cabeef709c732f8e1","686e3139bdfa1b6bafc3db31","671d0e15c134a5355de39a6d","","","[0]","","","","quiz","","","","","","","","","","","","","","","","","","","","","","","","","","","","","","","","","","","","","false","",""
"1594","","<p align='center'><b>INCORRECT.</b> Usually the green ball moves in the indicated direction, but sometimes it shakes and moves randomly. </p>","0","html-button-response","42","1069878","0.0-8.0-5.8-1.8","130","1","2025-07-09 09:08:51","7701e855f2ef39aa3fd6c71abdc6918a","105.245.102.100","Mozilla/5.0 (Windows NT 10.0; Win64; x64) AppleWebKit/537.36 (KHTML, like Gecko) Chrome/138.0.0.0 Safari/537.36","WebKit","Chrome","138.0.0.0","Windows","10.0","https://app.prolific.com/","en-GB,en-US;q=0.9,en;q=0.8","671d0e15c134a5355de39a6d","686d226cabeef709c732f8e1","686e3139bdfa1b6bafc3db31","671d0e15c134a5355de39a6d","","","","","","","","","","","","","","","","","","","","","","","","","","","","","","","","","","","","","","","","","","","","","",""
"15860","","","{""green_ball"":[""Ball sometimes shakes and moves in a random direction""]}","survey-multi-select","43","1085753","0.0-8.0-5.9-0.9","130","1","2025-07-09 09:08:51","7701e855f2ef39aa3fd6c71abdc6918a","105.245.102.100","Mozilla/5.0 (Windows NT 10.0; Win64; x64) AppleWebKit/537.36 (KHTML, like Gecko) Chrome/138.0.0.0 Safari/537.36","WebKit","Chrome","138.0.0.0","Windows","10.0","https://app.prolific.com/","en-GB,en-US;q=0.9,en;q=0.8","671d0e15c134a5355de39a6d","686d226cabeef709c732f8e1","686e3139bdfa1b6bafc3db31","671d0e15c134a5355de39a6d","","","[0]","","","","quiz","","","","","","","","","","","","","","","","","","","","","","","","","","","","","","","","","","","","","true","",""
"8637","","<p align='center'><b>CORRECT!</b> Indeed, the green ball may sometimes shake and move in a random direction.</p>","0","html-button-response","44","1094395","0.0-8.0-5.9-1.9","130","1","2025-07-09 09:08:51","7701e855f2ef39aa3fd6c71abdc6918a","105.245.102.100","Mozilla/5.0 (Windows NT 10.0; Win64; x64) AppleWebKit/537.36 (KHTML, like Gecko) Chrome/138.0.0.0 Safari/537.36","WebKit","Chrome","138.0.0.0","Windows","10.0","https://app.prolific.com/","en-GB,en-US;q=0.9,en;q=0.8","671d0e15c134a5355de39a6d","686d226cabeef709c732f8e1","686e3139bdfa1b6bafc3db31","671d0e15c134a5355de39a6d","","","","","","","","","","","","","","","","","","","","","","","","","","","","","","","","","","","","","","","","","","","","","",""
"6383","","","{""yellow_ball"":[""Ball doesn‘t move and I get -1 penalty point""]}","survey-multi-select","45","1100786","0.0-8.0-6.0-0.0","130","1","2025-07-09 09:08:51","7701e855f2ef39aa3fd6c71abdc6918a","105.245.102.100","Mozilla/5.0 (Windows NT 10.0; Win64; x64) AppleWebKit/537.36 (KHTML, like Gecko) Chrome/138.0.0.0 Safari/537.36","WebKit","Chrome","138.0.0.0","Windows","10.0","https://app.prolific.com/","en-GB,en-US;q=0.9,en;q=0.8","671d0e15c134a5355de39a6d","686d226cabeef709c732f8e1","686e3139bdfa1b6bafc3db31","671d0e15c134a5355de39a6d","","","[0]","","","","quiz","","","","","","","","","","","","","","","","","","","","","","","","","","","","","","","","","","","","","true","",""
"2830","","<p align='center'><b>CORRECT!</b> Indeed, the yellow ball never moves and you receive a penalty.</p>","0","html-button-response","46","1103620","0.0-8.0-6.0-1.0","130","1","2025-07-09 09:08:51","7701e855f2ef39aa3fd6c71abdc6918a","105.245.102.100","Mozilla/5.0 (Windows NT 10.0; Win64; x64) AppleWebKit/537.36 (KHTML, like Gecko) Chrome/138.0.0.0 Safari/537.36","WebKit","Chrome","138.0.0.0","Windows","10.0","https://app.prolific.com/","en-GB,en-US;q=0.9,en;q=0.8","671d0e15c134a5355de39a6d","686d226cabeef709c732f8e1","686e3139bdfa1b6bafc3db31","671d0e15c134a5355de39a6d","","","","","","","","","","","","","","","","","","","","","","","","","","","","","","","","","","","","","","","","","","","","","",""
"5345","","","{""blue_ball"":[""Ball doesn‘t move and I get -1 penalty point""]}","survey-multi-select","47","1108967","0.0-8.0-7.0-0.0","130","1","2025-07-09 09:08:51","7701e855f2ef39aa3fd6c71abdc6918a","105.245.102.100","Mozilla/5.0 (Windows NT 10.0; Win64; x64) AppleWebKit/537.36 (KHTML, like Gecko) Chrome/138.0.0.0 Safari/537.36","WebKit","Chrome","138.0.0.0","Windows","10.0","https://app.prolific.com/","en-GB,en-US;q=0.9,en;q=0.8","671d0e15c134a5355de39a6d","686d226cabeef709c732f8e1","686e3139bdfa1b6bafc3db31","671d0e15c134a5355de39a6d","","","[0]","","","","quiz","","","","","","","","","","","","","","","","","","","","","","","","","","","","","","","","","","","","","false","",""
"3308","","<p align='center'><b>INCORRECT.</b> The blue ball always shakes and moves randomly.</p>","0","html-button-response","48","1112277","0.0-8.0-7.0-1.0","130","1","2025-07-09 09:08:51","7701e855f2ef39aa3fd6c71abdc6918a","105.245.102.100","Mozilla/5.0 (Windows NT 10.0; Win64; x64) AppleWebKit/537.36 (KHTML, like Gecko) Chrome/138.0.0.0 Safari/537.36","WebKit","Chrome","138.0.0.0","Windows","10.0","https://app.prolific.com/","en-GB,en-US;q=0.9,en;q=0.8","671d0e15c134a5355de39a6d","686d226cabeef709c732f8e1","686e3139bdfa1b6bafc3db31","671d0e15c134a5355de39a6d","","","","","","","","","","","","","","","","","","","","","","","","","","","","","","","","","","","","","","","","","","","","","",""
"6190","","","{""blue_ball"":[""Ball always shakes and moves in a random direction""]}","survey-multi-select","49","1118470","0.0-8.0-7.1-0.1","130","1","2025-07-09 09:08:51","7701e855f2ef39aa3fd6c71abdc6918a","105.245.102.100","Mozilla/5.0 (Windows NT 10.0; Win64; x64) AppleWebKit/537.36 (KHTML, like Gecko) Chrome/138.0.0.0 Safari/537.36","WebKit","Chrome","138.0.0.0","Windows","10.0","https://app.prolific.com/","en-GB,en-US;q=0.9,en;q=0.8","671d0e15c134a5355de39a6d","686d226cabeef709c732f8e1","686e3139bdfa1b6bafc3db31","671d0e15c134a5355de39a6d","","","[0]","","","","quiz","","","","","","","","","","","","","","","","","","","","","","","","","","","","","","","","","","","","","true","",""
"3502","","<p align='center'><b>CORRECT!</b> Indeed, the blue ball always shakes and moves in a random direction. Also there is a penalty of -1 point.</p>","0","html-button-response","50","1121974","0.0-8.0-7.1-1.1","130","1","2025-07-09 09:08:51","7701e855f2ef39aa3fd6c71abdc6918a","105.245.102.100","Mozilla/5.0 (Windows NT 10.0; Win64; x64) AppleWebKit/537.36 (KHTML, like Gecko) Chrome/138.0.0.0 Safari/537.36","WebKit","Chrome","138.0.0.0","Windows","10.0","https://app.prolific.com/","en-GB,en-US;q=0.9,en;q=0.8","671d0e15c134a5355de39a6d","686d226cabeef709c732f8e1","686e3139bdfa1b6bafc3db31","671d0e15c134a5355de39a6d","","","","","","","","","","","","","","","","","","","","","","","","","","","","","","","","","","","","","","","","","","","","","",""
"7035","","","{""bonus"":[""When I reach 50% of points""]}","survey-multi-select","51","1129012","0.0-8.0-8.0-0.0","130","1","2025-07-09 09:08:51","7701e855f2ef39aa3fd6c71abdc6918a","105.245.102.100","Mozilla/5.0 (Windows NT 10.0; Win64; x64) AppleWebKit/537.36 (KHTML, like Gecko) Chrome/138.0.0.0 Safari/537.36","WebKit","Chrome","138.0.0.0","Windows","10.0","https://app.prolific.com/","en-GB,en-US;q=0.9,en;q=0.8","671d0e15c134a5355de39a6d","686d226cabeef709c732f8e1","686e3139bdfa1b6bafc3db31","671d0e15c134a5355de39a6d","","","[0]","","","","quiz","","","","","","","","","","","","","","","","","","","","","","","","","","","","","","","","","","","","","true","",""
"3131","","<p align='center'><b>CORRECT!</b> Indeed, you receive 2 pounds extra when you reach 50% of points.</p>","0","html-button-response","52","1132144","0.0-8.0-8.0-1.0","130","1","2025-07-09 09:08:51","7701e855f2ef39aa3fd6c71abdc6918a","105.245.102.100","Mozilla/5.0 (Windows NT 10.0; Win64; x64) AppleWebKit/537.36 (KHTML, like Gecko) Chrome/138.0.0.0 Safari/537.36","WebKit","Chrome","138.0.0.0","Windows","10.0","https://app.prolific.com/","en-GB,en-US;q=0.9,en;q=0.8","671d0e15c134a5355de39a6d","686d226cabeef709c732f8e1","686e3139bdfa1b6bafc3db31","671d0e15c134a5355de39a6d","","","","","","","","","","","","","","","","","","","","","","","","","","","","","","","","","","","","","","","","","","","","","",""
"6865","","","","instructions","53","1139010","0.0-8.0-9.0","130","1","2025-07-09 09:08:51","7701e855f2ef39aa3fd6c71abdc6918a","105.245.102.100","Mozilla/5.0 (Windows NT 10.0; Win64; x64) AppleWebKit/537.36 (KHTML, like Gecko) Chrome/138.0.0.0 Safari/537.36","WebKit","Chrome","138.0.0.0","Windows","10.0","https://app.prolific.com/","en-GB,en-US;q=0.9,en;q=0.8","671d0e15c134a5355de39a6d","686d226cabeef709c732f8e1","686e3139bdfa1b6bafc3db31","671d0e15c134a5355de39a6d","","[{""page_index"":0,""viewing_time"":6865}]","","","","","","","","","","","","","","","","","","","","","","","","","","","","","","","","","","","","","","","","","","","",""
"17231","","<p>Before you start with this game please answer the following three questions yourself. </p>
  <p>Through this game, we measure several aspects of your cognitive performance, such as reaction times, multi-tasking capabilities </p>
  <p>and the ability to assess the situation you are in.</p>
  <p></p>
  <p><b>How good do you usually are in such tasks?</b></p>","83","html-slider-response","54","1156249","0.0-9.0-0.0","130","1","2025-07-09 09:08:51","7701e855f2ef39aa3fd6c71abdc6918a","105.245.102.100","Mozilla/5.0 (Windows NT 10.0; Win64; x64) AppleWebKit/537.36 (KHTML, like Gecko) Chrome/138.0.0.0 Safari/537.36","WebKit","Chrome","138.0.0.0","Windows","10.0","https://app.prolific.com/","en-GB,en-US;q=0.9,en;q=0.8","671d0e15c134a5355de39a6d","686d226cabeef709c732f8e1","686e3139bdfa1b6bafc3db31","671d0e15c134a5355de39a6d","2025-07-09T09:28:18.117Z","","","","","","PreSkillQ","","","","","","","","","","","","","","","","","","","","","","","","","","","","","","","","","","","","","","50",""
"7534","","<div style=""width:500px;"">
  <p>How well do you think you will perform in this task compared to other participants?</p>
  </div>","99","html-slider-response","55","1163785","0.0-9.0-1.0","130","1","2025-07-09 09:08:51","7701e855f2ef39aa3fd6c71abdc6918a","105.245.102.100","Mozilla/5.0 (Windows NT 10.0; Win64; x64) AppleWebKit/537.36 (KHTML, like Gecko) Chrome/138.0.0.0 Safari/537.36","WebKit","Chrome","138.0.0.0","Windows","10.0","https://app.prolific.com/","en-GB,en-US;q=0.9,en;q=0.8","671d0e15c134a5355de39a6d","686d226cabeef709c732f8e1","686e3139bdfa1b6bafc3db31","671d0e15c134a5355de39a6d","2025-07-09T09:28:25.652Z","","","","","","PrePerfQ","","","","","","","","","","","","","","","","","","","","","","","","","","","","","","","","","","","","","","50",""
"6596","","<div style=""width:500px;"">
  <p>What best describes how you currently feel?</p>
  </div>","99","html-slider-response","56","1170386","0.0-9.0-2.0","130","1","2025-07-09 09:08:51","7701e855f2ef39aa3fd6c71abdc6918a","105.245.102.100","Mozilla/5.0 (Windows NT 10.0; Win64; x64) AppleWebKit/537.36 (KHTML, like Gecko) Chrome/138.0.0.0 Safari/537.36","WebKit","Chrome","138.0.0.0","Windows","10.0","https://app.prolific.com/","en-GB,en-US;q=0.9,en;q=0.8","671d0e15c134a5355de39a6d","686d226cabeef709c732f8e1","686e3139bdfa1b6bafc3db31","671d0e15c134a5355de39a6d","2025-07-09T09:28:32.254Z","","","","","","PreMotivationQ","","","","","","","","","","","","","","","","","","","","","","","","","","","","","","","","","","","","","","50",""
"","","","","ctl-task-cpt","57","1200595","0.0-10.0-0.0","130","1","2025-07-09 09:08:51","7701e855f2ef39aa3fd6c71abdc6918a","105.245.102.100","Mozilla/5.0 (Windows NT 10.0; Win64; x64) AppleWebKit/537.36 (KHTML, like Gecko) Chrome/138.0.0.0 Safari/537.36","WebKit","Chrome","138.0.0.0","Windows","10.0","https://app.prolific.com/","en-GB,en-US;q=0.9,en;q=0.8","671d0e15c134a5355de39a6d","686d226cabeef709c732f8e1","686e3139bdfa1b6bafc3db31","671d0e15c134a5355de39a6d","2025-07-09T09:29:02.463Z","","","","","","","","","","","","","","","","win-only","0","g1:NW,g2:SE","1","1","0","1175597.2","1583.6","6588.4","27186.8","1","4","8","6","2","8","7","7","0","0.05303030303030303","1252.8","3000","440","[""down"",""right""]","{""num_key_presses"":7,""num_perfect"":6,""num_errors"":1,""num_randdir"":0,""num_randdir_good_moves"":0,""num_whilered"":0,""num_whileblue"":0,""num_blue"":1,""num_good_moves"":6}","[296.22232142857143,297.12857142857143,2.2,296.22232142857143,297.12857142857143,102.3,296.22232142857143,297.12857142857143,208.7,296.22232142857143,297.12857142857143,313.3,296.22232142857143,297.12857142857143,417.1,410.22232142857143,235.12857142857143,517.1,381.22232142857143,293.12857142857143,624.5,435.22232142857143,344.12857142857143,726.9,563.2223214285714,537.1285714285714,827.7,563.2223214285714,537.1285714285714,928.1,563.2223214285714,537.1285714285714,1032.6,563.2223214285714,537.1285714285714,1139.8,563.2223214285714,537.1285714285714,1239.9,563.2223214285714,537.1285714285714,1342.7,563.2223214285714,537.1285714285714,1447.3,563.2223214285714,537.1285714285714,1553.4,563.2223214285714,537.1285714285714,1658.2,563.2223214285714,537.1285714285714,1762.6,563.2223214285714,537.1285714285714,1866.8,563.2223214285714,537.1285714285714,1967.2,563.2223214285714,537.1285714285714,2068.9,563.2223214285714,537.1285714285714,2173.1,563.2223214285714,537.1285714285714,2273.2,563.2223214285714,537.1285714285714,2377.5,563.2223214285714,537.1285714285714,2481.9,563.2223214285714,537.1285714285714,2582.2,563.2223214285714,537.1285714285714,2688.7,563.2223214285714,537.1285714285714,2788.9,563.2223214285714,537.1285714285714,2889.1,563.2223214285714,537.1285714285714,2990.1,563.2223214285714,537.1285714285714,3092.3,563.2223214285714,537.1285714285714,3197,563.2223214285714,537.1285714285714,3297.4,563.2223214285714,537.1285714285714,3404.5,563.2223214285714,537.1285714285714,3507.5,563.2223214285714,537.1285714285714,3607.5,563.2223214285714,537.1285714285714,3707.7,563.2223214285714,537.1285714285714,3807.7,563.2223214285714,537.1285714285714,3908.4,563.2223214285714,537.1285714285714,4011.6,563.2223214285714,537.1285714285714,4114,563.2223214285714,537.1285714285714,4216.9,563.2223214285714,537.1285714285714,4322.8,563.2223214285714,537.1285714285714,4424.3,563.2223214285714,537.1285714285714,4527.2,563.2223214285714,537.1285714285714,4627.7,563.2223214285714,537.1285714285714,4727.7,563.2223214285714,537.1285714285714,4828.4,563.2223214285714,537.1285714285714,4928.3]","[4360.7,4360.7,1864.5,2002.4,493.8,""smooth"",""down"",""down"",""good_move"",4775.2,412.2,2447.6,4363,-2035.4,""error"",""-"",""-"",""no_move"",8115.5,3339.6,1800.6,5776.3,538.6,""smooth"",""down"",""down"",""good_move"",11196,3079.7,2527.1,8116.4,552.6,""smooth"",""down"",""down"",""good_move"",14435.9,3239,2860.8,11196.9,378.2,""smooth"",""right"",""right"",""good_move"",17183.2,2746.3,2365.7,14436.9,380.6,""smooth"",""right"",""right"",""good_move"",20497.1,3313.1,2859.7,17184,453.4,""smooth"",""right"",""right"",""good_move""]","","",""
"6758","","<div style=""width:500px;"">
  <p>What determined the result of this run?</p>
  </div>","100","html-slider-response","58","1207355","0.0-10.0-1.0","130","1","2025-07-09 09:08:51","7701e855f2ef39aa3fd6c71abdc6918a","105.245.102.100","Mozilla/5.0 (Windows NT 10.0; Win64; x64) AppleWebKit/537.36 (KHTML, like Gecko) Chrome/138.0.0.0 Safari/537.36","WebKit","Chrome","138.0.0.0","Windows","10.0","https://app.prolific.com/","en-GB,en-US;q=0.9,en;q=0.8","671d0e15c134a5355de39a6d","686d226cabeef709c732f8e1","686e3139bdfa1b6bafc3db31","671d0e15c134a5355de39a6d","2025-07-09T09:29:09.222Z","","","","","","AttribQ","","","","","","","","","","","","","","","","","","","","","","","","","","","","","","","","","","","","","","50",""
"4541","","<div style=""width:500px;"">
  <p>How much control did you have over the ball?</p>
  </div>","100","html-slider-response","59","1211899","0.0-10.0-2.0","130","1","2025-07-09 09:08:51","7701e855f2ef39aa3fd6c71abdc6918a","105.245.102.100","Mozilla/5.0 (Windows NT 10.0; Win64; x64) AppleWebKit/537.36 (KHTML, like Gecko) Chrome/138.0.0.0 Safari/537.36","WebKit","Chrome","138.0.0.0","Windows","10.0","https://app.prolific.com/","en-GB,en-US;q=0.9,en;q=0.8","671d0e15c134a5355de39a6d","686d226cabeef709c732f8e1","686e3139bdfa1b6bafc3db31","671d0e15c134a5355de39a6d","2025-07-09T09:29:13.766Z","","","","","","ControlQ","","","","","","","","","","","","","","","","","","","","","","","","","","","","","","","","","","","","","","50",""
"5990","","<div style=""width:500px;"">
  <p>How would you describe your current emotional state?</p>
  </div>","1","html-slider-response","60","1217892","0.0-10.0-3.0","130","1","2025-07-09 09:08:51","7701e855f2ef39aa3fd6c71abdc6918a","105.245.102.100","Mozilla/5.0 (Windows NT 10.0; Win64; x64) AppleWebKit/537.36 (KHTML, like Gecko) Chrome/138.0.0.0 Safari/537.36","WebKit","Chrome","138.0.0.0","Windows","10.0","https://app.prolific.com/","en-GB,en-US;q=0.9,en;q=0.8","671d0e15c134a5355de39a6d","686d226cabeef709c732f8e1","686e3139bdfa1b6bafc3db31","671d0e15c134a5355de39a6d","2025-07-09T09:29:19.760Z","","","","","","StressQ","","","","","","","","","","","","","","","","","","","","","","","","","","","","","","","","","","","","","","50",""
"4765","","<div style=""width:500px;"">
  <p>What best describes how you currently feel?</p>
  </div>","100","html-slider-response","61","1222660","0.0-10.0-4.0","130","1","2025-07-09 09:08:51","7701e855f2ef39aa3fd6c71abdc6918a","105.245.102.100","Mozilla/5.0 (Windows NT 10.0; Win64; x64) AppleWebKit/537.36 (KHTML, like Gecko) Chrome/138.0.0.0 Safari/537.36","WebKit","Chrome","138.0.0.0","Windows","10.0","https://app.prolific.com/","en-GB,en-US;q=0.9,en;q=0.8","671d0e15c134a5355de39a6d","686d226cabeef709c732f8e1","686e3139bdfa1b6bafc3db31","671d0e15c134a5355de39a6d","2025-07-09T09:29:24.527Z","","","","","","MotivationQ","","","","","","","","","","","","","","","","","","","","","","","","","","","","","","","","","","","","","","50",""
"","","","","ctl-task-cpt","62","1247520","0.0-10.0-0.1","130","1","2025-07-09 09:08:51","7701e855f2ef39aa3fd6c71abdc6918a","105.245.102.100","Mozilla/5.0 (Windows NT 10.0; Win64; x64) AppleWebKit/537.36 (KHTML, like Gecko) Chrome/138.0.0.0 Safari/537.36","WebKit","Chrome","138.0.0.0","Windows","10.0","https://app.prolific.com/","en-GB,en-US;q=0.9,en;q=0.8","671d0e15c134a5355de39a6d","686d226cabeef709c732f8e1","686e3139bdfa1b6bafc3db31","671d0e15c134a5355de39a6d","2025-07-09T09:29:49.387Z","","","","","","","","","","","","","","","","win-only","1","g1:NE,g2:SW","0.9","2","0","1227870","1478.4","6484.4","21835.6","1","4","4","6","2","4","4","11","7","0.08333333333333333","1541","3000","1090","[""down"",""left""]","{""num_key_presses"":6,""num_perfect"":6,""num_errors"":0,""num_randdir"":0,""num_randdir_good_moves"":0,""num_whilered"":0,""num_whileblue"":0,""num_blue"":0,""num_good_moves"":6}","[292.22232142857143,290.12857142857143,0.7,292.22232142857143,290.12857142857143,102.1,292.22232142857143,290.12857142857143,210.9,292.22232142857143,290.12857142857143,312.8,292.22232142857143,290.12857142857143,414.8,292.22232142857143,290.12857142857143,526.6,292.22232142857143,290.12857142857143,627,141.22232142857143,435.12857142857143,728.8,48.222321428571426,528.1285714285714,833,1.2223214285714263,562.1285714285714,934.1,-5.777678571428574,568.1285714285714,1038.6,-5.777678571428574,568.1285714285714,1144.1,8.222321428571426,560.1285714285714,1247.4,17.222321428571426,558.1285714285714,1347.6,20.222321428571426,558.1285714285714,1454.5,20.222321428571426,558.1285714285714,1556.2,20.222321428571426,558.1285714285714,1658.5,20.222321428571426,558.1285714285714,1769.8,20.222321428571426,558.1285714285714,1871,20.222321428571426,558.1285714285714,1973,20.222321428571426,558.1285714285714,2076.8,20.222321428571426,558.1285714285714,2177.7,20.222321428571426,558.1285714285714,2282.9,20.222321428571426,558.1285714285714,2389.1,20.222321428571426,558.1285714285714,2492.8,20.222321428571426,558.1285714285714,2597.5,20.222321428571426,558.1285714285714,2697.7,20.222321428571426,558.1285714285714,2804.9,20.222321428571426,558.1285714285714,2906.1,20.222321428571426,558.1285714285714,3007.2,20.222321428571426,558.1285714285714,3108,20.222321428571426,558.1285714285714,3213.3,20.222321428571426,558.1285714285714,3320.5,20.222321428571426,558.1285714285714,3423,20.222321428571426,558.1285714285714,3527.4,20.222321428571426,558.1285714285714,3633.7,20.222321428571426,558.1285714285714,3738.1,20.222321428571426,558.1285714285714,3842.2,20.222321428571426,558.1285714285714,3942.4,20.222321428571426,558.1285714285714,4042.9,20.222321428571426,558.1285714285714,4151,20.222321428571426,558.1285714285714,4252.6,20.222321428571426,558.1285714285714,4357,20.222321428571426,558.1285714285714,4457.9,20.222321428571426,558.1285714285714,4562.9,20.222321428571426,558.1285714285714,4668.2,20.222321428571426,558.1285714285714,4772.8,20.222321428571426,558.1285714285714,4874,20.222321428571426,558.1285714285714,4984.3]","[1383.2,1383.1,1000,0.1,383.1,""smooth"",""left"",""left"",""good_move"",4266.6,2882.6,2495.6,1384.1,386.9,""smooth"",""down"",""down"",""good_move"",7746.6,3478.5,3117.8,4268.1,360.7,""smooth"",""down"",""down"",""good_move"",9869.1,2121.1,1785.2,7748,335.9,""smooth"",""down"",""down"",""good_move"",12434.5,2564.4,2305.3,9870.1,259.1,""smooth"",""left"",""left"",""good_move"",15249.5,2813.8,2501.2,12435.7,312.6,""smooth"",""left"",""left"",""good_move""]","","",""
"5355","","<div style=""width:500px;"">
  <p>What determined the result of this run?</p>
  </div>","100","html-slider-response","63","1252877","0.0-10.0-1.1","130","1","2025-07-09 09:08:51","7701e855f2ef39aa3fd6c71abdc6918a","105.245.102.100","Mozilla/5.0 (Windows NT 10.0; Win64; x64) AppleWebKit/537.36 (KHTML, like Gecko) Chrome/138.0.0.0 Safari/537.36","WebKit","Chrome","138.0.0.0","Windows","10.0","https://app.prolific.com/","en-GB,en-US;q=0.9,en;q=0.8","671d0e15c134a5355de39a6d","686d226cabeef709c732f8e1","686e3139bdfa1b6bafc3db31","671d0e15c134a5355de39a6d","2025-07-09T09:29:54.744Z","","","","","","AttribQ","","","","","","","","","","","","","","","","","","","","","","","","","","","","","","","","","","","","","","50",""
"3807","","<div style=""width:500px;"">
  <p>How much control did you have over the ball?</p>
  </div>","100","html-slider-response","64","1256685","0.0-10.0-2.1","130","1","2025-07-09 09:08:51","7701e855f2ef39aa3fd6c71abdc6918a","105.245.102.100","Mozilla/5.0 (Windows NT 10.0; Win64; x64) AppleWebKit/537.36 (KHTML, like Gecko) Chrome/138.0.0.0 Safari/537.36","WebKit","Chrome","138.0.0.0","Windows","10.0","https://app.prolific.com/","en-GB,en-US;q=0.9,en;q=0.8","671d0e15c134a5355de39a6d","686d226cabeef709c732f8e1","686e3139bdfa1b6bafc3db31","671d0e15c134a5355de39a6d","2025-07-09T09:29:58.553Z","","","","","","ControlQ","","","","","","","","","","","","","","","","","","","","","","","","","","","","","","","","","","","","","","50",""
"5745","","<div style=""width:500px;"">
  <p>How would you describe your current emotional state?</p>
  </div>","0","html-slider-response","65","1262433","0.0-10.0-3.1","130","1","2025-07-09 09:08:51","7701e855f2ef39aa3fd6c71abdc6918a","105.245.102.100","Mozilla/5.0 (Windows NT 10.0; Win64; x64) AppleWebKit/537.36 (KHTML, like Gecko) Chrome/138.0.0.0 Safari/537.36","WebKit","Chrome","138.0.0.0","Windows","10.0","https://app.prolific.com/","en-GB,en-US;q=0.9,en;q=0.8","671d0e15c134a5355de39a6d","686d226cabeef709c732f8e1","686e3139bdfa1b6bafc3db31","671d0e15c134a5355de39a6d","2025-07-09T09:30:04.300Z","","","","","","StressQ","","","","","","","","","","","","","","","","","","","","","","","","","","","","","","","","","","","","","","50",""
"4107","","<div style=""width:500px;"">
  <p>What best describes how you currently feel?</p>
  </div>","100","html-slider-response","66","1266543","0.0-10.0-4.1","130","1","2025-07-09 09:08:51","7701e855f2ef39aa3fd6c71abdc6918a","105.245.102.100","Mozilla/5.0 (Windows NT 10.0; Win64; x64) AppleWebKit/537.36 (KHTML, like Gecko) Chrome/138.0.0.0 Safari/537.36","WebKit","Chrome","138.0.0.0","Windows","10.0","https://app.prolific.com/","en-GB,en-US;q=0.9,en;q=0.8","671d0e15c134a5355de39a6d","686d226cabeef709c732f8e1","686e3139bdfa1b6bafc3db31","671d0e15c134a5355de39a6d","2025-07-09T09:30:08.410Z","","","","","","MotivationQ","","","","","","","","","","","","","","","","","","","","","","","","","","","","","","","","","","","","","","50",""
"","","","","ctl-task-cpt","67","1300049","0.0-10.0-0.2","130","1","2025-07-09 09:08:51","7701e855f2ef39aa3fd6c71abdc6918a","105.245.102.100","Mozilla/5.0 (Windows NT 10.0; Win64; x64) AppleWebKit/537.36 (KHTML, like Gecko) Chrome/138.0.0.0 Safari/537.36","WebKit","Chrome","138.0.0.0","Windows","10.0","https://app.prolific.com/","en-GB,en-US;q=0.9,en;q=0.8","671d0e15c134a5355de39a6d","686d226cabeef709c732f8e1","686e3139bdfa1b6bafc3db31","671d0e15c134a5355de39a6d","2025-07-09T09:30:41.916Z","","","","","","","","","","","","","","","","win-only","3","g1:SW,g2:NE","0.8","3","0","1271747.8","1568.8","6576","30485.6","1","4","4","6","1","1","-1","10","11","0.07575757575757576","1515.3","3000","730","[""down"",""left""]","{""num_key_presses"":9,""num_perfect"":5,""num_errors"":2,""num_randdir"":2,""num_randdir_good_moves"":1,""num_whilered"":0,""num_whileblue"":1,""num_blue"":1,""num_good_moves"":6}","[296.22232142857143,295.12857142857143,0.5,296.22232142857143,295.12857142857143,103.8,296.22232142857143,295.12857142857143,204.1,296.22232142857143,295.12857142857143,307.3,296.22232142857143,295.12857142857143,409.6,296.22232142857143,295.12857142857143,512.7,296.22232142857143,295.12857142857143,618.4,296.22232142857143,295.12857142857143,721.6,201.22232142857143,392.12857142857143,822.5,148.22232142857143,425.12857142857143,930.2,124.22232142857143,446.12857142857143,1032.2,94.22232142857143,479.12857142857143,1139.9,72.22232142857143,509.12857142857143,1247.9,65.22232142857143,525.1285714285714,1351.8,65.22232142857143,525.1285714285714,1452.1,65.22232142857143,525.1285714285714,1552.6,65.22232142857143,525.1285714285714,1657.4,65.22232142857143,525.1285714285714,1767,65.22232142857143,525.1285714285714,1869,65.22232142857143,525.1285714285714,1972.5,65.22232142857143,525.1285714285714,2083.8,65.22232142857143,525.1285714285714,2194.4,65.22232142857143,525.1285714285714,2297.5,65.22232142857143,525.1285714285714,2398.6,65.22232142857143,525.1285714285714,2501.7,65.22232142857143,525.1285714285714,2601.7,65.22232142857143,525.1285714285714,2702.9,65.22232142857143,525.1285714285714,2808.9,65.22232142857143,525.1285714285714,2911.9,65.22232142857143,525.1285714285714,3013.6,65.22232142857143,525.1285714285714,3117.8,65.22232142857143,525.1285714285714,3227.1,65.22232142857143,525.1285714285714,3331.7,65.22232142857143,525.1285714285714,3432.7,65.22232142857143,525.1285714285714,3532.7,65.22232142857143,525.1285714285714,3639.7,65.22232142857143,525.1285714285714,3746.2,65.22232142857143,525.1285714285714,3848.5,65.22232142857143,525.1285714285714,3951.5,65.22232142857143,525.1285714285714,4053.6,65.22232142857143,525.1285714285714,4154.3,65.22232142857143,525.1285714285714,4261.8,65.22232142857143,525.1285714285714,4365.4,65.22232142857143,525.1285714285714,4467.3,65.22232142857143,525.1285714285714,4572.3,65.22232142857143,525.1285714285714,4672.5,65.22232142857143,525.1285714285714,4773.9,65.22232142857143,525.1285714285714,4877.8,65.22232142857143,525.1285714285714,4982.8]","[297,297,1000,0,-703,""error"",""-"",""-"",""no_move"",3952.9,3655.2,2329.6,1300.9,322.4,""oops"",""down"",""down"",""good_move"",6959.9,3005.8,2610.8,3954.1,395,""smooth"",""down"",""down"",""good_move"",11160.8,4199.5,3806.7,6961.4,392.7,""smooth"",""left"",""left"",""good_move"",13280.6,2118.3,1702.6,11162.3,415.7,""while_blue"",""left"",""right"",""bad_move"",15682.5,2401.1,1966.2,13281.4,434.9,""oops"",""left"",""right"",""bad_move"",18153.7,2469.9,2117.3,15683.8,352.6,""smooth"",""left"",""left"",""good_move"",20727,2572.2,2191.7,18154.9,380.4,""smooth"",""left"",""left"",""good_move"",23800.1,3072,2732.4,20728.2,339.5,""smooth"",""left"",""left"",""good_move""]","","",""
"3852","","<div style=""width:500px;"">
  <p>What determined the result of this run?</p>
  </div>","100","html-slider-response","68","1303903","0.0-10.0-1.2","130","1","2025-07-09 09:08:51","7701e855f2ef39aa3fd6c71abdc6918a","105.245.102.100","Mozilla/5.0 (Windows NT 10.0; Win64; x64) AppleWebKit/537.36 (KHTML, like Gecko) Chrome/138.0.0.0 Safari/537.36","WebKit","Chrome","138.0.0.0","Windows","10.0","https://app.prolific.com/","en-GB,en-US;q=0.9,en;q=0.8","671d0e15c134a5355de39a6d","686d226cabeef709c732f8e1","686e3139bdfa1b6bafc3db31","671d0e15c134a5355de39a6d","2025-07-09T09:30:45.770Z","","","","","","AttribQ","","","","","","","","","","","","","","","","","","","","","","","","","","","","","","","","","","","","","","50",""
"6580","","<div style=""width:500px;"">
  <p>How much control did you have over the ball?</p>
  </div>","81","html-slider-response","69","1310486","0.0-10.0-2.2","130","1","2025-07-09 09:08:51","7701e855f2ef39aa3fd6c71abdc6918a","105.245.102.100","Mozilla/5.0 (Windows NT 10.0; Win64; x64) AppleWebKit/537.36 (KHTML, like Gecko) Chrome/138.0.0.0 Safari/537.36","WebKit","Chrome","138.0.0.0","Windows","10.0","https://app.prolific.com/","en-GB,en-US;q=0.9,en;q=0.8","671d0e15c134a5355de39a6d","686d226cabeef709c732f8e1","686e3139bdfa1b6bafc3db31","671d0e15c134a5355de39a6d","2025-07-09T09:30:52.353Z","","","","","","ControlQ","","","","","","","","","","","","","","","","","","","","","","","","","","","","","","","","","","","","","","50",""
"3549","","<div style=""width:500px;"">
  <p>How would you describe your current emotional state?</p>
  </div>","2","html-slider-response","70","1314038","0.0-10.0-3.2","130","1","2025-07-09 09:08:51","7701e855f2ef39aa3fd6c71abdc6918a","105.245.102.100","Mozilla/5.0 (Windows NT 10.0; Win64; x64) AppleWebKit/537.36 (KHTML, like Gecko) Chrome/138.0.0.0 Safari/537.36","WebKit","Chrome","138.0.0.0","Windows","10.0","https://app.prolific.com/","en-GB,en-US;q=0.9,en;q=0.8","671d0e15c134a5355de39a6d","686d226cabeef709c732f8e1","686e3139bdfa1b6bafc3db31","671d0e15c134a5355de39a6d","2025-07-09T09:30:55.905Z","","","","","","StressQ","","","","","","","","","","","","","","","","","","","","","","","","","","","","","","","","","","","","","","50",""
"3971","","<div style=""width:500px;"">
  <p>What best describes how you currently feel?</p>
  </div>","100","html-slider-response","71","1318011","0.0-10.0-4.2","130","1","2025-07-09 09:08:51","7701e855f2ef39aa3fd6c71abdc6918a","105.245.102.100","Mozilla/5.0 (Windows NT 10.0; Win64; x64) AppleWebKit/537.36 (KHTML, like Gecko) Chrome/138.0.0.0 Safari/537.36","WebKit","Chrome","138.0.0.0","Windows","10.0","https://app.prolific.com/","en-GB,en-US;q=0.9,en;q=0.8","671d0e15c134a5355de39a6d","686d226cabeef709c732f8e1","686e3139bdfa1b6bafc3db31","671d0e15c134a5355de39a6d","2025-07-09T09:30:59.878Z","","","","","","MotivationQ","","","","","","","","","","","","","","","","","","","","","","","","","","","","","","","","","","","","","","50",""
"","","","","ctl-task-cpt","72","1376263","0.0-10.0-0.3","130","1","2025-07-09 09:08:51","7701e855f2ef39aa3fd6c71abdc6918a","105.245.102.100","Mozilla/5.0 (Windows NT 10.0; Win64; x64) AppleWebKit/537.36 (KHTML, like Gecko) Chrome/138.0.0.0 Safari/537.36","WebKit","Chrome","138.0.0.0","Windows","10.0","https://app.prolific.com/","en-GB,en-US;q=0.9,en;q=0.8","671d0e15c134a5355de39a6d","686d226cabeef709c732f8e1","686e3139bdfa1b6bafc3db31","671d0e15c134a5355de39a6d","2025-07-09T09:31:58.130Z","","","","","","","","","","","","","","","","win-only","2","g1:SE,g2:NW","0.7","4","0","1323218.3","1460.4","6463.1","55230.5","1","4","8","6","2","-8","-10","0","10","0","1601.4","3000","-2535","[""left"",""up""]","{""num_key_presses"":12,""num_perfect"":7,""num_errors"":2,""num_randdir"":3,""num_randdir_good_moves"":0,""num_whilered"":0,""num_whileblue"":2,""num_blue"":5,""num_good_moves"":8}","[293.22232142857143,300.12857142857143,0.7,293.22232142857143,300.12857142857143,103.8,293.22232142857143,300.12857142857143,204.2,293.22232142857143,300.12857142857143,306.6,293.22232142857143,300.12857142857143,406.7,293.22232142857143,300.12857142857143,506.9,293.22232142857143,300.12857142857143,610.7,341.22232142857143,384.12857142857143,724.1,344.22232142857143,400.12857142857143,825.8,348.22232142857143,409.12857142857143,927.8,203.22232142857143,339.12857142857143,1040.9,94.22232142857143,86.12857142857143,1143.8,93.22232142857143,85.12857142857143,1247.8,93.22232142857143,85.12857142857143,1356.3,93.22232142857143,85.12857142857143,1460.6,93.22232142857143,85.12857142857143,1561,93.22232142857143,85.12857142857143,1671,93.22232142857143,85.12857142857143,1775.2,93.22232142857143,85.12857142857143,1876.4,93.22232142857143,85.12857142857143,1982.9,93.22232142857143,85.12857142857143,2087.5,93.22232142857143,85.12857142857143,2188.8,93.22232142857143,85.12857142857143,2290.2,93.22232142857143,85.12857142857143,2398.6,93.22232142857143,85.12857142857143,2501.6,52.222321428571426,109.12857142857143,2605.9,-44.777678571428574,168.12857142857143,2707.9,-92.77767857142857,215.12857142857143,2812.1,-92.77767857142857,215.12857142857143,2912.2,-92.77767857142857,215.12857142857143,3020.8,-92.77767857142857,215.12857142857143,3137.6,-92.77767857142857,215.12857142857143,3241.6,-92.77767857142857,215.12857142857143,3348.2,-92.77767857142857,215.12857142857143,3451.3,-92.77767857142857,215.12857142857143,3551.5,-92.77767857142857,215.12857142857143,3651.8,-92.77767857142857,215.12857142857143,3752.6,-92.77767857142857,215.12857142857143,3856.4,-92.77767857142857,215.12857142857143,3969.4,-92.77767857142857,215.12857142857143,4070.2,-92.77767857142857,215.12857142857143,4170.9,-92.77767857142857,215.12857142857143,4277.4,-92.77767857142857,215.12857142857143,4377.7,-92.77767857142857,215.12857142857143,4486.5,-92.77767857142857,215.12857142857143,4590.2,-92.77767857142857,215.12857142857143,4690.2,-92.77767857142857,215.12857142857143,4797.6,-92.77767857142857,215.12857142857143,4900.8]","[1397.9,1397.9,1000,0,397.9,""smooth"",""up"",""up"",""good_move"",5141,3742.2,3287.2,1398.9,454.9,""oops"",""up"",""right"",""bad_move"",7695.5,2553.3,2172.8,5142.2,380.5,""smooth"",""left"",""left"",""good_move"",10615.7,2919.2,2581.9,7696.6,337.2,""while_blue"",""left"",""up"",""good_move"",14715.7,4098.9,3715.5,10616.8,383.4,""while_blue"",""left"",""right"",""bad_move"",24457.7,9741.3,2551.4,21398.9,507.4,""smooth"",""up"",""up"",""good_move"",27316,2857.4,2473.6,24458.7,383.7,""oops"",""left"",""right"",""bad_move"",30316.1,2998.6,2635.1,27317.5,363.5,""smooth"",""left"",""left"",""good_move"",33228.5,2911.4,2589.5,30317.1,321.9,""smooth"",""left"",""left"",""good_move"",35964.6,2735.2,2409,33229.5,326.1,""oops"",""left"",""right"",""bad_move"",38655.4,2688.9,2324.1,35966.6,364.7,""smooth"",""left"",""left"",""good_move"",42443.7,3787.5,3387.8,38656.2,399.7,""smooth"",""left"",""left"",""good_move""]","","",""
"9836","","<div style=""width:500px;"">
  <p>What determined the result of this run?</p>
  </div>","34","html-slider-response","73","1386101","0.0-10.0-1.3","130","1","2025-07-09 09:08:51","7701e855f2ef39aa3fd6c71abdc6918a","105.245.102.100","Mozilla/5.0 (Windows NT 10.0; Win64; x64) AppleWebKit/537.36 (KHTML, like Gecko) Chrome/138.0.0.0 Safari/537.36","WebKit","Chrome","138.0.0.0","Windows","10.0","https://app.prolific.com/","en-GB,en-US;q=0.9,en;q=0.8","671d0e15c134a5355de39a6d","686d226cabeef709c732f8e1","686e3139bdfa1b6bafc3db31","671d0e15c134a5355de39a6d","2025-07-09T09:32:07.968Z","","","","","","AttribQ","","","","","","","","","","","","","","","","","","","","","","","","","","","","","","","","","","","","","","50",""
"4821","","<div style=""width:500px;"">
  <p>How much control did you have over the ball?</p>
  </div>","16","html-slider-response","74","1390924","0.0-10.0-2.3","130","1","2025-07-09 09:08:51","7701e855f2ef39aa3fd6c71abdc6918a","105.245.102.100","Mozilla/5.0 (Windows NT 10.0; Win64; x64) AppleWebKit/537.36 (KHTML, like Gecko) Chrome/138.0.0.0 Safari/537.36","WebKit","Chrome","138.0.0.0","Windows","10.0","https://app.prolific.com/","en-GB,en-US;q=0.9,en;q=0.8","671d0e15c134a5355de39a6d","686d226cabeef709c732f8e1","686e3139bdfa1b6bafc3db31","671d0e15c134a5355de39a6d","2025-07-09T09:32:12.791Z","","","","","","ControlQ","","","","","","","","","","","","","","","","","","","","","","","","","","","","","","","","","","","","","","50",""
"4227","","<div style=""width:500px;"">
  <p>How would you describe your current emotional state?</p>
  </div>","4","html-slider-response","75","1395153","0.0-10.0-3.3","130","1","2025-07-09 09:08:51","7701e855f2ef39aa3fd6c71abdc6918a","105.245.102.100","Mozilla/5.0 (Windows NT 10.0; Win64; x64) AppleWebKit/537.36 (KHTML, like Gecko) Chrome/138.0.0.0 Safari/537.36","WebKit","Chrome","138.0.0.0","Windows","10.0","https://app.prolific.com/","en-GB,en-US;q=0.9,en;q=0.8","671d0e15c134a5355de39a6d","686d226cabeef709c732f8e1","686e3139bdfa1b6bafc3db31","671d0e15c134a5355de39a6d","2025-07-09T09:32:17.020Z","","","","","","StressQ","","","","","","","","","","","","","","","","","","","","","","","","","","","","","","","","","","","","","","50",""
"4759","","<div style=""width:500px;"">
  <p>What best describes how you currently feel?</p>
  </div>","99","html-slider-response","76","1399914","0.0-10.0-4.3","130","1","2025-07-09 09:08:51","7701e855f2ef39aa3fd6c71abdc6918a","105.245.102.100","Mozilla/5.0 (Windows NT 10.0; Win64; x64) AppleWebKit/537.36 (KHTML, like Gecko) Chrome/138.0.0.0 Safari/537.36","WebKit","Chrome","138.0.0.0","Windows","10.0","https://app.prolific.com/","en-GB,en-US;q=0.9,en;q=0.8","671d0e15c134a5355de39a6d","686d226cabeef709c732f8e1","686e3139bdfa1b6bafc3db31","671d0e15c134a5355de39a6d","2025-07-09T09:32:21.781Z","","","","","","MotivationQ","","","","","","","","","","","","","","","","","","","","","","","","","","","","","","","","","","","","","","50",""
"","","","","ctl-task-cpt","77","1447321","0.0-10.0-0.4","130","1","2025-07-09 09:08:51","7701e855f2ef39aa3fd6c71abdc6918a","105.245.102.100","Mozilla/5.0 (Windows NT 10.0; Win64; x64) AppleWebKit/537.36 (KHTML, like Gecko) Chrome/138.0.0.0 Safari/537.36","WebKit","Chrome","138.0.0.0","Windows","10.0","https://app.prolific.com/","en-GB,en-US;q=0.9,en;q=0.8","671d0e15c134a5355de39a6d","686d226cabeef709c732f8e1","686e3139bdfa1b6bafc3db31","671d0e15c134a5355de39a6d","2025-07-09T09:33:09.189Z","","","","","","","","","","","","","","","","win-only","3","g1:SW,g2:NE","0.6","5","0","1405121.8","1397.7","6403.1","44390.5","1","4","8","6","2","8","7","7","0","0.05303030303030303","1269.8","3000","915","[""up"",""right""]","{""num_key_presses"":8,""num_perfect"":4,""num_errors"":1,""num_randdir"":3,""num_randdir_good_moves"":2,""num_whilered"":0,""num_whileblue"":1,""num_blue"":6,""num_good_moves"":7}","[295.22232142857143,291.12857142857143,0.6,295.22232142857143,291.12857142857143,102,295.22232142857143,291.12857142857143,204,295.22232142857143,291.12857142857143,315.2,295.22232142857143,291.12857142857143,418.9,295.22232142857143,291.12857142857143,520.1,295.22232142857143,291.12857142857143,622.9,295.22232142857143,291.12857142857143,723.4,500.22232142857143,89.12857142857143,826.3,518.2223214285714,84.12857142857143,931.6,528.2223214285714,80.12857142857143,1033.1,529.2223214285714,80.12857142857143,1138.8,529.2223214285714,80.12857142857143,1239.5,529.2223214285714,80.12857142857143,1344.8,529.2223214285714,80.12857142857143,1447.1,529.2223214285714,80.12857142857143,1551.1,529.2223214285714,80.12857142857143,1653.4,529.2223214285714,80.12857142857143,1754,529.2223214285714,80.12857142857143,1869.3,580.2223214285714,102.12857142857143,1969.9,654.2223214285714,186.12857142857143,2070.2,717.2223214285714,305.12857142857143,2173,717.2223214285714,305.12857142857143,2273.7,717.2223214285714,305.12857142857143,2374.4,717.2223214285714,305.12857142857143,2479.9,717.2223214285714,305.12857142857143,2583.3,717.2223214285714,305.12857142857143,2684.3,717.2223214285714,305.12857142857143,2788.2,717.2223214285714,305.12857142857143,2899.2,717.2223214285714,305.12857142857143,2999.5,717.2223214285714,305.12857142857143,3100.6,717.2223214285714,305.12857142857143,3200.8,717.2223214285714,305.12857142857143,3303.6,717.2223214285714,305.12857142857143,3417.5,717.2223214285714,305.12857142857143,3517.7,717.2223214285714,305.12857142857143,3619,717.2223214285714,305.12857142857143,3723.4,717.2223214285714,305.12857142857143,3828.4,717.2223214285714,305.12857142857143,3932.8,717.2223214285714,305.12857142857143,4034.3,717.2223214285714,305.12857142857143,4138.1,717.2223214285714,305.12857142857143,4249.7,717.2223214285714,305.12857142857143,4353.5,717.2223214285714,305.12857142857143,4465.2,717.2223214285714,305.12857142857143,4568.7,717.2223214285714,305.12857142857143,4668.7,717.2223214285714,305.12857142857143,4773.6,717.2223214285714,305.12857142857143,4881.4,717.2223214285714,305.12857142857143,4983]","[4788.6,4788.6,2240.2,2007.6,540.8,""oops"",""right"",""right"",""good_move"",10722.7,5933.2,1898.6,8503.6,320.5,""smooth"",""right"",""right"",""good_move"",16458.3,5734.9,2585.7,13492.7,379.9,""oops"",""right"",""left"",""bad_move"",22534.2,6075.1,2059.9,20143.2,331.1,""smooth"",""right"",""right"",""good_move"",25934.8,3399.1,2841.5,22535.7,557.6,""smooth"",""right"",""right"",""good_move"",29241.4,3305.3,2910.5,25936.1,394.8,""oops"",""up"",""up"",""good_move"",34912.6,5669.7,2214.2,32324.8,373.7,""while_blue"",""up"",""up"",""good_move"",37854.7,2931.4,2545.8,34923.3,385.6,""smooth"",""up"",""up"",""good_move""]","","",""
"3488","","<div style=""width:500px;"">
  <p>What determined the result of this run?</p>
  </div>","100","html-slider-response","78","1450811","0.0-10.0-1.4","130","1","2025-07-09 09:08:51","7701e855f2ef39aa3fd6c71abdc6918a","105.245.102.100","Mozilla/5.0 (Windows NT 10.0; Win64; x64) AppleWebKit/537.36 (KHTML, like Gecko) Chrome/138.0.0.0 Safari/537.36","WebKit","Chrome","138.0.0.0","Windows","10.0","https://app.prolific.com/","en-GB,en-US;q=0.9,en;q=0.8","671d0e15c134a5355de39a6d","686d226cabeef709c732f8e1","686e3139bdfa1b6bafc3db31","671d0e15c134a5355de39a6d","2025-07-09T09:33:12.679Z","","","","","","AttribQ","","","","","","","","","","","","","","","","","","","","","","","","","","","","","","","","","","","","","","50",""
"5691","","<div style=""width:500px;"">
  <p>How much control did you have over the ball?</p>
  </div>","96","html-slider-response","79","1456507","0.0-10.0-2.4","130","1","2025-07-09 09:08:51","7701e855f2ef39aa3fd6c71abdc6918a","105.245.102.100","Mozilla/5.0 (Windows NT 10.0; Win64; x64) AppleWebKit/537.36 (KHTML, like Gecko) Chrome/138.0.0.0 Safari/537.36","WebKit","Chrome","138.0.0.0","Windows","10.0","https://app.prolific.com/","en-GB,en-US;q=0.9,en;q=0.8","671d0e15c134a5355de39a6d","686d226cabeef709c732f8e1","686e3139bdfa1b6bafc3db31","671d0e15c134a5355de39a6d","2025-07-09T09:33:18.374Z","","","","","","ControlQ","","","","","","","","","","","","","","","","","","","","","","","","","","","","","","","","","","","","","","50",""
"6325","","<div style=""width:500px;"">
  <p>How would you describe your current emotional state?</p>
  </div>","0","html-slider-response","80","1462834","0.0-10.0-3.4","130","1","2025-07-09 09:08:51","7701e855f2ef39aa3fd6c71abdc6918a","105.245.102.100","Mozilla/5.0 (Windows NT 10.0; Win64; x64) AppleWebKit/537.36 (KHTML, like Gecko) Chrome/138.0.0.0 Safari/537.36","WebKit","Chrome","138.0.0.0","Windows","10.0","https://app.prolific.com/","en-GB,en-US;q=0.9,en;q=0.8","671d0e15c134a5355de39a6d","686d226cabeef709c732f8e1","686e3139bdfa1b6bafc3db31","671d0e15c134a5355de39a6d","2025-07-09T09:33:24.701Z","","","","","","StressQ","","","","","","","","","","","","","","","","","","","","","","","","","","","","","","","","","","","","","","50",""
"2998","","<div style=""width:500px;"">
  <p>What best describes how you currently feel?</p>
  </div>","100","html-slider-response","81","1465833","0.0-10.0-4.4","130","1","2025-07-09 09:08:51","7701e855f2ef39aa3fd6c71abdc6918a","105.245.102.100","Mozilla/5.0 (Windows NT 10.0; Win64; x64) AppleWebKit/537.36 (KHTML, like Gecko) Chrome/138.0.0.0 Safari/537.36","WebKit","Chrome","138.0.0.0","Windows","10.0","https://app.prolific.com/","en-GB,en-US;q=0.9,en;q=0.8","671d0e15c134a5355de39a6d","686d226cabeef709c732f8e1","686e3139bdfa1b6bafc3db31","671d0e15c134a5355de39a6d","2025-07-09T09:33:27.700Z","","","","","","MotivationQ","","","","","","","","","","","","","","","","","","","","","","","","","","","","","","","","","","","","","","50",""
"","","","","ctl-task-cpt","82","1510545","0.0-10.0-0.5","130","1","2025-07-09 09:08:51","7701e855f2ef39aa3fd6c71abdc6918a","105.245.102.100","Mozilla/5.0 (Windows NT 10.0; Win64; x64) AppleWebKit/537.36 (KHTML, like Gecko) Chrome/138.0.0.0 Safari/537.36","WebKit","Chrome","138.0.0.0","Windows","10.0","https://app.prolific.com/","en-GB,en-US;q=0.9,en;q=0.8","671d0e15c134a5355de39a6d","686d226cabeef709c732f8e1","686e3139bdfa1b6bafc3db31","671d0e15c134a5355de39a6d","2025-07-09T09:34:12.412Z","","","","","","","","","","","","","","","","win-only","2","g1:SE,g2:NW","0.5","6","0","1471038","1226","6229.9","41696.3","1","4","4","6","2","4","4","11","7","0.08333333333333333","1279.9","3000","345","[""left"",""up""]","{""num_key_presses"":10,""num_perfect"":5,""num_errors"":0,""num_randdir"":5,""num_randdir_good_moves"":3,""num_whilered"":0,""num_whileblue"":0,""num_blue"":2,""num_good_moves"":8}","[297.22232142857143,297.12857142857143,0.6,297.22232142857143,297.12857142857143,109.3,297.22232142857143,297.12857142857143,209.9,297.22232142857143,297.12857142857143,310.6,297.22232142857143,297.12857142857143,417.7,297.22232142857143,297.12857142857143,521.4,297.22232142857143,297.12857142857143,631.1,297.22232142857143,297.12857142857143,731.2,98.22232142857143,100.12857142857143,841.2,61.222321428571426,61.128571428571426,945.5,53.222321428571426,53.128571428571426,1053.7,53.222321428571426,51.128571428571426,1154.6,53.222321428571426,51.128571428571426,1256,53.222321428571426,51.128571428571426,1357,53.222321428571426,51.128571428571426,1460.1,53.222321428571426,51.128571428571426,1566.4,53.222321428571426,51.128571428571426,1676.7,53.222321428571426,51.128571428571426,1782.5,53.222321428571426,51.128571428571426,1891.1,53.222321428571426,51.128571428571426,1996.7,53.222321428571426,51.128571428571426,2111.7,53.222321428571426,51.128571428571426,2224.1,53.222321428571426,51.128571428571426,2326.3,53.222321428571426,51.128571428571426,2429.5,53.222321428571426,51.128571428571426,2539.2,53.222321428571426,51.128571428571426,2640.8,53.222321428571426,51.128571428571426,2748,53.222321428571426,51.128571428571426,2855.6,53.222321428571426,51.128571428571426,2960.9,53.222321428571426,51.128571428571426,3078.4,53.222321428571426,51.128571428571426,3181.5,53.222321428571426,51.128571428571426,3283.8,53.222321428571426,51.128571428571426,3387.4,53.222321428571426,51.128571428571426,3487.5,53.222321428571426,51.128571428571426,3588.3,53.222321428571426,51.128571428571426,3688.3,53.222321428571426,51.128571428571426,3790.2,53.222321428571426,51.128571428571426,3898.8,53.222321428571426,51.128571428571426,4009.5,53.222321428571426,51.128571428571426,4110.1,53.222321428571426,51.128571428571426,4210.9,53.222321428571426,51.128571428571426,4317.3,53.222321428571426,51.128571428571426,4425.5,53.222321428571426,51.128571428571426,4540.3,53.222321428571426,51.128571428571426,4653.8,53.222321428571426,51.128571428571426,4756.1,53.222321428571426,51.128571428571426,4859.9,53.222321428571426,51.128571428571426,4962.7]","[1592.4,1592.5,1000,0,592.5,""oops"",""left"",""right"",""bad_move"",4684.4,3087.5,2688.9,1596.9,398.7,""smooth"",""left"",""left"",""good_move"",11093.4,6407.9,2504.4,8092.6,496.4,""smooth"",""left"",""left"",""good_move"",14730.9,3636.6,3225.5,11094.4,411,""oops"",""left"",""left"",""good_move"",17845,3113.2,2760.9,14731.8,352.3,""oops"",""up"",""down"",""bad_move"",20496.2,2649.7,2303.8,17846.5,345.9,""smooth"",""up"",""up"",""good_move"",23414.5,2917.3,2613.8,20497.3,303.5,""oops"",""up"",""up"",""good_move"",26389,2972.7,2591.2,23416.4,381.4,""smooth"",""up"",""up"",""good_move"",32619.1,6229.4,1964.8,30280.9,373.4,""smooth"",""left"",""left"",""good_move"",35330.3,2710.5,2305.8,32619.8,404.7,""oops"",""up"",""up"",""good_move""]","","",""
"3687","","<div style=""width:500px;"">
  <p>What determined the result of this run?</p>
  </div>","100","html-slider-response","83","1514233","0.0-10.0-1.5","130","1","2025-07-09 09:08:51","7701e855f2ef39aa3fd6c71abdc6918a","105.245.102.100","Mozilla/5.0 (Windows NT 10.0; Win64; x64) AppleWebKit/537.36 (KHTML, like Gecko) Chrome/138.0.0.0 Safari/537.36","WebKit","Chrome","138.0.0.0","Windows","10.0","https://app.prolific.com/","en-GB,en-US;q=0.9,en;q=0.8","671d0e15c134a5355de39a6d","686d226cabeef709c732f8e1","686e3139bdfa1b6bafc3db31","671d0e15c134a5355de39a6d","2025-07-09T09:34:16.100Z","","","","","","AttribQ","","","","","","","","","","","","","","","","","","","","","","","","","","","","","","","","","","","","","","50",""
"2988","","<div style=""width:500px;"">
  <p>How much control did you have over the ball?</p>
  </div>","100","html-slider-response","84","1517224","0.0-10.0-2.5","130","1","2025-07-09 09:08:51","7701e855f2ef39aa3fd6c71abdc6918a","105.245.102.100","Mozilla/5.0 (Windows NT 10.0; Win64; x64) AppleWebKit/537.36 (KHTML, like Gecko) Chrome/138.0.0.0 Safari/537.36","WebKit","Chrome","138.0.0.0","Windows","10.0","https://app.prolific.com/","en-GB,en-US;q=0.9,en;q=0.8","671d0e15c134a5355de39a6d","686d226cabeef709c732f8e1","686e3139bdfa1b6bafc3db31","671d0e15c134a5355de39a6d","2025-07-09T09:34:19.091Z","","","","","","ControlQ","","","","","","","","","","","","","","","","","","","","","","","","","","","","","","","","","","","","","","50",""
"3184","","<div style=""width:500px;"">
  <p>How would you describe your current emotional state?</p>
  </div>","0","html-slider-response","85","1520410","0.0-10.0-3.5","130","1","2025-07-09 09:08:51","7701e855f2ef39aa3fd6c71abdc6918a","105.245.102.100","Mozilla/5.0 (Windows NT 10.0; Win64; x64) AppleWebKit/537.36 (KHTML, like Gecko) Chrome/138.0.0.0 Safari/537.36","WebKit","Chrome","138.0.0.0","Windows","10.0","https://app.prolific.com/","en-GB,en-US;q=0.9,en;q=0.8","671d0e15c134a5355de39a6d","686d226cabeef709c732f8e1","686e3139bdfa1b6bafc3db31","671d0e15c134a5355de39a6d","2025-07-09T09:34:22.277Z","","","","","","StressQ","","","","","","","","","","","","","","","","","","","","","","","","","","","","","","","","","","","","","","50",""
"3343","","<div style=""width:500px;"">
  <p>What best describes how you currently feel?</p>
  </div>","100","html-slider-response","86","1523754","0.0-10.0-4.5","130","1","2025-07-09 09:08:51","7701e855f2ef39aa3fd6c71abdc6918a","105.245.102.100","Mozilla/5.0 (Windows NT 10.0; Win64; x64) AppleWebKit/537.36 (KHTML, like Gecko) Chrome/138.0.0.0 Safari/537.36","WebKit","Chrome","138.0.0.0","Windows","10.0","https://app.prolific.com/","en-GB,en-US;q=0.9,en;q=0.8","671d0e15c134a5355de39a6d","686d226cabeef709c732f8e1","686e3139bdfa1b6bafc3db31","671d0e15c134a5355de39a6d","2025-07-09T09:34:25.622Z","","","","","","MotivationQ","","","","","","","","","","","","","","","","","","","","","","","","","","","","","","","","","","","","","","50",""
"","","","","ctl-task-cpt","87","1585016","0.0-10.0-0.6","130","1","2025-07-09 09:08:51","7701e855f2ef39aa3fd6c71abdc6918a","105.245.102.100","Mozilla/5.0 (Windows NT 10.0; Win64; x64) AppleWebKit/537.36 (KHTML, like Gecko) Chrome/138.0.0.0 Safari/537.36","WebKit","Chrome","138.0.0.0","Windows","10.0","https://app.prolific.com/","en-GB,en-US;q=0.9,en;q=0.8","671d0e15c134a5355de39a6d","686d226cabeef709c732f8e1","686e3139bdfa1b6bafc3db31","671d0e15c134a5355de39a6d","2025-07-09T09:35:26.883Z","","","","","","","","","","","","","","","","win-only","2","g1:SE,g2:NW","0.4","7","0","1528961","1150.5","6151.8","58234.4","1","4","4","6","2","-4","-4","7","11","0.05303030303030303","1411.1","3000","-2145","[""left"",""up""]","{""num_key_presses"":11,""num_perfect"":5,""num_errors"":0,""num_randdir"":6,""num_randdir_good_moves"":3,""num_whilered"":0,""num_whileblue"":0,""num_blue"":5,""num_good_moves"":8}","[297.22232142857143,293.12857142857143,1.9,297.22232142857143,293.12857142857143,101.7,297.22232142857143,293.12857142857143,208.9,297.22232142857143,293.12857142857143,315.4,297.22232142857143,293.12857142857143,427.1,297.22232142857143,293.12857142857143,531.7,297.22232142857143,293.12857142857143,634.3,187.22232142857143,200.12857142857143,739.8,-8.777678571428574,62.128571428571426,840.5,-15.777678571428574,19.128571428571426,943.2,2.2223214285714263,12.128571428571426,1052.9,33.222321428571426,25.128571428571426,1158.7,59.222321428571426,44.128571428571426,1260.7,59.222321428571426,44.128571428571426,1361.5,59.222321428571426,44.128571428571426,1465.7,59.222321428571426,44.128571428571426,1565.7,59.222321428571426,44.128571428571426,1668.8,59.222321428571426,44.128571428571426,1771.9,59.222321428571426,44.128571428571426,1880.9,59.222321428571426,44.128571428571426,1984.5,59.222321428571426,44.128571428571426,2084.7,59.222321428571426,44.128571428571426,2195.5,59.222321428571426,44.128571428571426,2311.6,59.222321428571426,44.128571428571426,2415.9,59.222321428571426,44.128571428571426,2516.2,59.222321428571426,44.128571428571426,2617.1,59.222321428571426,44.128571428571426,2721.7,59.222321428571426,44.128571428571426,2825.9,59.222321428571426,44.128571428571426,2940.4,59.222321428571426,44.128571428571426,3042.4,59.222321428571426,44.128571428571426,3142.9,59.222321428571426,44.128571428571426,3243.1,59.222321428571426,44.128571428571426,3355.5,59.222321428571426,44.128571428571426,3458.1,59.222321428571426,44.128571428571426,3573.1,59.222321428571426,44.128571428571426,3678,59.222321428571426,44.128571428571426,3785.6,59.222321428571426,44.128571428571426,3888.1,59.222321428571426,44.128571428571426,3990,59.222321428571426,44.128571428571426,4097.6,59.222321428571426,44.128571428571426,4205.7,59.222321428571426,44.128571428571426,4315.1,59.222321428571426,44.128571428571426,4421.2,59.222321428571426,44.128571428571426,4527.5,59.222321428571426,44.128571428571426,4636.6,59.222321428571426,44.128571428571426,4743.4,59.222321428571426,44.128571428571426,4856.6,59.222321428571426,44.128571428571426,4957.3]","[1399.5,1399.5,1000,0,399.5,""smooth"",""left"",""left"",""good_move"",4406.2,3006.1,2636.5,1400.1,369.9,""oops"",""left"",""right"",""bad_move"",6461.5,2047.3,1664.9,4414.2,382.5,""oops"",""left"",""down"",""bad_move"",9533.2,3070.7,2569.9,6462.5,500.8,""oops"",""left"",""left"",""good_move"",19800.1,10265.6,2324.9,17102.9,372.5,""smooth"",""up"",""up"",""good_move"",22921.8,3120.8,2769.5,19801,351.3,""oops"",""up"",""left"",""good_move"",26748.8,3825.6,3361.4,22923.3,464.1,""oops"",""up"",""right"",""bad_move"",30041.9,3291.6,2903.2,26750.3,388.4,""smooth"",""left"",""left"",""good_move"",36862.9,6820,2763.7,33739.8,359.4,""smooth"",""left"",""left"",""good_move"",39635.2,2771.7,2428.9,36863.5,342.8,""oops"",""up"",""up"",""good_move"",45834.6,6197.6,2970.5,42505.2,358.9,""smooth"",""up"",""up"",""good_move""]","","",""
"7790","","<div style=""width:500px;"">
  <p>What determined the result of this run?</p>
  </div>","95","html-slider-response","88","1592809","0.0-10.0-1.6","130","1","2025-07-09 09:08:51","7701e855f2ef39aa3fd6c71abdc6918a","105.245.102.100","Mozilla/5.0 (Windows NT 10.0; Win64; x64) AppleWebKit/537.36 (KHTML, like Gecko) Chrome/138.0.0.0 Safari/537.36","WebKit","Chrome","138.0.0.0","Windows","10.0","https://app.prolific.com/","en-GB,en-US;q=0.9,en;q=0.8","671d0e15c134a5355de39a6d","686d226cabeef709c732f8e1","686e3139bdfa1b6bafc3db31","671d0e15c134a5355de39a6d","2025-07-09T09:35:34.676Z","","","","","","AttribQ","","","","","","","","","","","","","","","","","","","","","","","","","","","","","","","","","","","","","","50",""
"6590","","<div style=""width:500px;"">
  <p>How much control did you have over the ball?</p>
  </div>","97","html-slider-response","89","1599403","0.0-10.0-2.6","130","1","2025-07-09 09:08:51","7701e855f2ef39aa3fd6c71abdc6918a","105.245.102.100","Mozilla/5.0 (Windows NT 10.0; Win64; x64) AppleWebKit/537.36 (KHTML, like Gecko) Chrome/138.0.0.0 Safari/537.36","WebKit","Chrome","138.0.0.0","Windows","10.0","https://app.prolific.com/","en-GB,en-US;q=0.9,en;q=0.8","671d0e15c134a5355de39a6d","686d226cabeef709c732f8e1","686e3139bdfa1b6bafc3db31","671d0e15c134a5355de39a6d","2025-07-09T09:35:41.271Z","","","","","","ControlQ","","","","","","","","","","","","","","","","","","","","","","","","","","","","","","","","","","","","","","50",""
"3494","","<div style=""width:500px;"">
  <p>How would you describe your current emotional state?</p>
  </div>","0","html-slider-response","90","1602901","0.0-10.0-3.6","130","1","2025-07-09 09:08:51","7701e855f2ef39aa3fd6c71abdc6918a","105.245.102.100","Mozilla/5.0 (Windows NT 10.0; Win64; x64) AppleWebKit/537.36 (KHTML, like Gecko) Chrome/138.0.0.0 Safari/537.36","WebKit","Chrome","138.0.0.0","Windows","10.0","https://app.prolific.com/","en-GB,en-US;q=0.9,en;q=0.8","671d0e15c134a5355de39a6d","686d226cabeef709c732f8e1","686e3139bdfa1b6bafc3db31","671d0e15c134a5355de39a6d","2025-07-09T09:35:44.768Z","","","","","","StressQ","","","","","","","","","","","","","","","","","","","","","","","","","","","","","","","","","","","","","","50",""
"2604","","<div style=""width:500px;"">
  <p>What best describes how you currently feel?</p>
  </div>","100","html-slider-response","91","1605508","0.0-10.0-4.6","130","1","2025-07-09 09:08:51","7701e855f2ef39aa3fd6c71abdc6918a","105.245.102.100","Mozilla/5.0 (Windows NT 10.0; Win64; x64) AppleWebKit/537.36 (KHTML, like Gecko) Chrome/138.0.0.0 Safari/537.36","WebKit","Chrome","138.0.0.0","Windows","10.0","https://app.prolific.com/","en-GB,en-US;q=0.9,en;q=0.8","671d0e15c134a5355de39a6d","686d226cabeef709c732f8e1","686e3139bdfa1b6bafc3db31","671d0e15c134a5355de39a6d","2025-07-09T09:35:47.375Z","","","","","","MotivationQ","","","","","","","","","","","","","","","","","","","","","","","","","","","","","","","","","","","","","","50",""
