"rt","response_timestamp","stimulus","response","trial_type","trial_index","time_elapsed","internal_node_id","run_id","condition","recorded_at","source_code_version","ip","user_agent","device","browser","browser_version","platform","platform_version","referer","accept_language","PROLIFIC_PID","STUDY_ID","SESSION_ID","prolific_id","realtime","view_history","question_order","consent","success","question_id","eventType","responses","item_order","radio_event_ids","radio_event_times","key_event_times","mouse_event_times","straightlining","zigzagging","honeypot","which_type","canvas_config","goals_layout","control_level","trial_number","tutorial_trial_number","trial_start_time","phase1_start_time","phase2_start_time","phase3_start_time","goal_1_value","goal_1_distance","goal_2_value","goal_2_distance","goal_selected","outcome","outcome_total","participant_final_score","participant_initial_score","participant_final_score_prop","goal_choice_rt","allocated_time","allocated_time_remaining","goal_direction","counts","mouse_movements","key_presses","correct","slider_start","sub_question"
"20464","1752055080682","<p style='font-size:40px;line-height:1.25'><strong>Welcome to the experiment!</strong></p><p style='font-size:1.1em;line-height:1.25'>Thank you for your interest in our experiment! Before you begin, it is important that we obtain your informed consent to participate in the study.</p><p style='font-size:1.1em;line-height:1.25'>On the next screen will be an <strong>information sheet</strong> for you to read. To participate in the study we need you to read this information sheet and the following consent form carefully. If you agree with all the statements, please click the <strong>I agree</strong> button.</p><p style='font-size:1.1em;line-height:1.25'>Press <strong>Next</strong> to read the information sheet.</p>","0","custom-html-button-response","0","20468","0.0-0.0","245","1","2025-07-09 09:57:23","7701e855f2ef39aa3fd6c71abdc6918a","197.185.151.7","Mozilla/5.0 (Windows NT 10.0; Win64; x64) AppleWebKit/537.36 (KHTML, like Gecko) Chrome/138.0.0.0 Safari/537.36","WebKit","Chrome","138.0.0.0","Windows","10.0","https://app.prolific.com/","en-US,en;q=0.9","67c97feed736e0aa1f2a97b2","686d226cabeef709c732f8e1","686e39a28bd65ffc454f6dba","67c97feed736e0aa1f2a97b2","2025-07-09T09:58:00.684Z","","","","","","","","","","","","","","","","","","","","","","","","","","","","","","","","","","","","","","","","","","","","",""
"18880","","","","instructions","1","39372","0.0-1.0","245","1","2025-07-09 09:57:23","7701e855f2ef39aa3fd6c71abdc6918a","197.185.151.7","Mozilla/5.0 (Windows NT 10.0; Win64; x64) AppleWebKit/537.36 (KHTML, like Gecko) Chrome/138.0.0.0 Safari/537.36","WebKit","Chrome","138.0.0.0","Windows","10.0","https://app.prolific.com/","en-US,en;q=0.9","67c97feed736e0aa1f2a97b2","686d226cabeef709c732f8e1","686e39a28bd65ffc454f6dba","67c97feed736e0aa1f2a97b2","","[{""page_index"":0,""viewing_time"":9366},{""page_index"":1,""viewing_time"":9513}]","","","","","","","","","","","","","","","","","","","","","","","","","","","","","","","","","","","","","","","","","","","",""
"10749","","","{""Q0"":"""",""Q1"":"""",""Q2"":"""",""Q3"":"""",""Q4"":"""",""Q5"":"""",""Q6"":""I agree""}","survey-multi-choice","2","50128","0.0-2.0","245","1","2025-07-09 09:57:23","7701e855f2ef39aa3fd6c71abdc6918a","197.185.151.7","Mozilla/5.0 (Windows NT 10.0; Win64; x64) AppleWebKit/537.36 (KHTML, like Gecko) Chrome/138.0.0.0 Safari/537.36","WebKit","Chrome","138.0.0.0","Windows","10.0","https://app.prolific.com/","en-US,en;q=0.9","67c97feed736e0aa1f2a97b2","686d226cabeef709c732f8e1","686e39a28bd65ffc454f6dba","67c97feed736e0aa1f2a97b2","","","[0,1,2,3,4,5,6]","true","","","","","","","","","","","","","","","","","","","","","","","","","","","","","","","","","","","","","","","","","",""
"19318","","","","fullscreen","3","70526","0.0-4.0","245","1","2025-07-09 09:57:23","7701e855f2ef39aa3fd6c71abdc6918a","197.185.151.7","Mozilla/5.0 (Windows NT 10.0; Win64; x64) AppleWebKit/537.36 (KHTML, like Gecko) Chrome/138.0.0.0 Safari/537.36","WebKit","Chrome","138.0.0.0","Windows","10.0","https://app.prolific.com/","en-US,en;q=0.9","67c97feed736e0aa1f2a97b2","686d226cabeef709c732f8e1","686e39a28bd65ffc454f6dba","67c97feed736e0aa1f2a97b2","","","","","true","","","","","","","","","","","","","","","","","","","","","","","","","","","","","","","","","","","","","","","","",""
"18676","1752055149419"," <p style='font-size:1.1em;line-height:1.25'>Thank you for completing the consent form and closing all other tabs.</p><p style='font-size:1.1em;line-height:1.25'>We will now invite you to fill in some demographic information and questionnaires, before starting the game.<br>This will take about 5 minutes.<br></p><p style='font-size:1.1em;line-height:1.25'>Press the <strong>Next</strong> button to continue.</p>","0","custom-html-button-response","4","89205","0.0-5.0","245","1","2025-07-09 09:57:23","7701e855f2ef39aa3fd6c71abdc6918a","197.185.151.7","Mozilla/5.0 (Windows NT 10.0; Win64; x64) AppleWebKit/537.36 (KHTML, like Gecko) Chrome/138.0.0.0 Safari/537.36","WebKit","Chrome","138.0.0.0","Windows","10.0","https://app.prolific.com/","en-US,en;q=0.9","67c97feed736e0aa1f2a97b2","686d226cabeef709c732f8e1","686e39a28bd65ffc454f6dba","67c97feed736e0aa1f2a97b2","2025-07-09T09:59:09.421Z","","","","","","","","","","","","","","","","","","","","","","","","","","","","","","","","","","","","","","","","","","","","",""
"13333","","","{""age"":""25""}","survey-text","5","102559","0.0-6.0-0.0","245","1","2025-07-09 09:57:23","7701e855f2ef39aa3fd6c71abdc6918a","197.185.151.7","Mozilla/5.0 (Windows NT 10.0; Win64; x64) AppleWebKit/537.36 (KHTML, like Gecko) Chrome/138.0.0.0 Safari/537.36","WebKit","Chrome","138.0.0.0","Windows","10.0","https://app.prolific.com/","en-US,en;q=0.9","67c97feed736e0aa1f2a97b2","686d226cabeef709c732f8e1","686e39a28bd65ffc454f6dba","67c97feed736e0aa1f2a97b2","","","","","","0","demographics","","","","","","","","","","","","","","","","","","","","","","","","","","","","","","","","","","","","","","",""
"4577","","","{""gender_identity"":""female/woman""}","survey-multi-choice","6","107138","0.0-6.0-1.0","245","1","2025-07-09 09:57:23","7701e855f2ef39aa3fd6c71abdc6918a","197.185.151.7","Mozilla/5.0 (Windows NT 10.0; Win64; x64) AppleWebKit/537.36 (KHTML, like Gecko) Chrome/138.0.0.0 Safari/537.36","WebKit","Chrome","138.0.0.0","Windows","10.0","https://app.prolific.com/","en-US,en;q=0.9","67c97feed736e0aa1f2a97b2","686d226cabeef709c732f8e1","686e39a28bd65ffc454f6dba","67c97feed736e0aa1f2a97b2","","","[0]","","","1","demographics","","","","","","","","","","","","","","","","","","","","","","","","","","","","","","","","","","","","","","",""
"6151","","","{""assigned_sex"":""female""}","survey-multi-choice","7","113293","0.0-6.0-2.0","245","1","2025-07-09 09:57:23","7701e855f2ef39aa3fd6c71abdc6918a","197.185.151.7","Mozilla/5.0 (Windows NT 10.0; Win64; x64) AppleWebKit/537.36 (KHTML, like Gecko) Chrome/138.0.0.0 Safari/537.36","WebKit","Chrome","138.0.0.0","Windows","10.0","https://app.prolific.com/","en-US,en;q=0.9","67c97feed736e0aa1f2a97b2","686d226cabeef709c732f8e1","686e39a28bd65ffc454f6dba","67c97feed736e0aa1f2a97b2","","","[0]","","","2","demographics","","","","","","","","","","","","","","","","","","","","","","","","","","","","","","","","","","","","","","",""
"4773","","","{""menstrual_cycle"":""Yes""}","survey-multi-choice","8","118073","0.0-6.0-3.0","245","1","2025-07-09 09:57:23","7701e855f2ef39aa3fd6c71abdc6918a","197.185.151.7","Mozilla/5.0 (Windows NT 10.0; Win64; x64) AppleWebKit/537.36 (KHTML, like Gecko) Chrome/138.0.0.0 Safari/537.36","WebKit","Chrome","138.0.0.0","Windows","10.0","https://app.prolific.com/","en-US,en;q=0.9","67c97feed736e0aa1f2a97b2","686d226cabeef709c732f8e1","686e39a28bd65ffc454f6dba","67c97feed736e0aa1f2a97b2","","","[0]","","","4","demographics","","","","","","","","","","","","","","","","","","","","","","","","","","","","","","","","","","","","","","",""
"9609","","","{""education"":""Doctoral Degree (e.g., PhD)""}","survey-multi-choice","9","127687","0.0-6.0-4.0","245","1","2025-07-09 09:57:23","7701e855f2ef39aa3fd6c71abdc6918a","197.185.151.7","Mozilla/5.0 (Windows NT 10.0; Win64; x64) AppleWebKit/537.36 (KHTML, like Gecko) Chrome/138.0.0.0 Safari/537.36","WebKit","Chrome","138.0.0.0","Windows","10.0","https://app.prolific.com/","en-US,en;q=0.9","67c97feed736e0aa1f2a97b2","686d226cabeef709c732f8e1","686e39a28bd65ffc454f6dba","67c97feed736e0aa1f2a97b2","","","[0]","","","5","demographics","","","","","","","","","","","","","","","","","","","","","","","","","","","","","","","","","","","","","","",""
"7587","","","{""education"":""Bachelor's Degree (e.g., BA)""}","survey-multi-choice","10","135276","0.0-6.0-5.0","245","1","2025-07-09 09:57:23","7701e855f2ef39aa3fd6c71abdc6918a","197.185.151.7","Mozilla/5.0 (Windows NT 10.0; Win64; x64) AppleWebKit/537.36 (KHTML, like Gecko) Chrome/138.0.0.0 Safari/537.36","WebKit","Chrome","138.0.0.0","Windows","10.0","https://app.prolific.com/","en-US,en;q=0.9","67c97feed736e0aa1f2a97b2","686d226cabeef709c732f8e1","686e39a28bd65ffc454f6dba","67c97feed736e0aa1f2a97b2","2025-07-09T09:59:55.492Z","","[0]","","","6","demographics","","","","","","","","","","","","","","","","","","","","","","","","","","","","","","","","","","","","","","",""
"18055","","","{""mental_health_condition"":""NO"",""mental_health_treatment"":""NO"",""psychiatric_medication"":""NO""}","survey-text","11","153349","0.0-7.0-0.0","245","1","2025-07-09 09:57:23","7701e855f2ef39aa3fd6c71abdc6918a","197.185.151.7","Mozilla/5.0 (Windows NT 10.0; Win64; x64) AppleWebKit/537.36 (KHTML, like Gecko) Chrome/138.0.0.0 Safari/537.36","WebKit","Chrome","138.0.0.0","Windows","10.0","https://app.prolific.com/","en-US,en;q=0.9","67c97feed736e0aa1f2a97b2","686d226cabeef709c732f8e1","686e39a28bd65ffc454f6dba","67c97feed736e0aa1f2a97b2","2025-07-09T10:00:13.565Z","","","","","1","mental_health","","","","","","","","","","","","","","","","","","","","","","","","","","","","","","","","","","","","","","",""
"46803","","","{""depression_history"":[""Prefer not to say""]}","survey-multi-select","12","200167","0.0-7.0-1.0","245","1","2025-07-09 09:57:23","7701e855f2ef39aa3fd6c71abdc6918a","197.185.151.7","Mozilla/5.0 (Windows NT 10.0; Win64; x64) AppleWebKit/537.36 (KHTML, like Gecko) Chrome/138.0.0.0 Safari/537.36","WebKit","Chrome","138.0.0.0","Windows","10.0","https://app.prolific.com/","en-US,en;q=0.9","67c97feed736e0aa1f2a97b2","686d226cabeef709c732f8e1","686e39a28bd65ffc454f6dba","67c97feed736e0aa1f2a97b2","","","[0]","","","","mental_health","","","","","","","","","","","","","","","","","","","","","","","","","","","","","","","","","","","","","","",""
"267928.3000000119","","","","survey-template","13","468145","0.0-7.0-3.0","245","1","2025-07-09 09:57:23","7701e855f2ef39aa3fd6c71abdc6918a","197.185.151.7","Mozilla/5.0 (Windows NT 10.0; Win64; x64) AppleWebKit/537.36 (KHTML, like Gecko) Chrome/138.0.0.0 Safari/537.36","WebKit","Chrome","138.0.0.0","Windows","10.0","https://app.prolific.com/","en-US,en;q=0.9","67c97feed736e0aa1f2a97b2","686d226cabeef709c732f8e1","686e39a28bd65ffc454f6dba","67c97feed736e0aa1f2a97b2","2025-07-09T10:05:28.362Z","","","","","","ius","{""Q01"":""2"",""Q02"":""3"",""Q03"":""0"",""Q04"":""3"",""Q05"":""3"",""Q06"":""1"",""Q07"":""3"",""Q08"":""0"",""Q09"":""4"",""Q10"":""1"",""Q11"":""3"",""Q12"":""4"",""Q13"":""3""}","[0,1,2,3,4,5,6,7,8,9,10,11,12]","[""Q01"",""Q02"",""Q03"",""Q04"",""Q05"",""Q06"",""Q07"",""Q08"",""Q09"",""Q10"",""Q12"",""Q11"",""Q13""]","[9126.59999999404,15563.40000000596,51742.40000000596,154060,176718.59999999404,182978.09999999404,199020.90000000596,207404.5,239034.5,243697.40000000596,251632.70000001788,254306.40000000596,261372.40000000596]","[]","[9126.59999999404,15563.40000000596,20017.20000001788,51742.40000000596,154060,176718.59999999404,182978.09999999404,199020.90000000596,207404.5,239034.5,243697.40000000596,247958.20000001788,251632.70000001788,252608.90000000596,253240.09999999404,254306.40000000596,261372.40000000596,267921.09999999404]","0.46153846153846156","0.3333333333333333","0","","","","","","","","","","","","","","","","","","","","","","","","","","","","","",""
"4149","1752055532514","<p style='font-size:1.1em;line-height:1.25'>In the following, we will ask you a few questions relating to your experiences over the past month.<br></p><p style='font-size:1.1em;line-height:1.25'>Press the <strong>Next</strong> button to continue.</p>","0","custom-html-button-response","14","472299","0.0-7.0-4.0","245","1","2025-07-09 09:57:23","7701e855f2ef39aa3fd6c71abdc6918a","197.185.151.7","Mozilla/5.0 (Windows NT 10.0; Win64; x64) AppleWebKit/537.36 (KHTML, like Gecko) Chrome/138.0.0.0 Safari/537.36","WebKit","Chrome","138.0.0.0","Windows","10.0","https://app.prolific.com/","en-US,en;q=0.9","67c97feed736e0aa1f2a97b2","686d226cabeef709c732f8e1","686e39a28bd65ffc454f6dba","67c97feed736e0aa1f2a97b2","2025-07-09T10:05:32.516Z","","","","","","","","","","","","","","","","","","","","","","","","","","","","","","","","","","","","","","","","","","","","",""
"278506.8000000119","","","","survey-template","15","750814","0.0-7.0-5.0","245","1","2025-07-09 09:57:23","7701e855f2ef39aa3fd6c71abdc6918a","197.185.151.7","Mozilla/5.0 (Windows NT 10.0; Win64; x64) AppleWebKit/537.36 (KHTML, like Gecko) Chrome/138.0.0.0 Safari/537.36","WebKit","Chrome","138.0.0.0","Windows","10.0","https://app.prolific.com/","en-US,en;q=0.9","67c97feed736e0aa1f2a97b2","686d226cabeef709c732f8e1","686e39a28bd65ffc454f6dba","67c97feed736e0aa1f2a97b2","2025-07-09T10:10:11.030Z","","","","","","pss","{""Q01"":""3"",""Q02"":""4"",""Q03"":""1"",""Q04"":""0"",""Q05"":""1"",""Q06"":""2"",""Q07"":""0"",""Q08"":""1"",""Q09"":""3"",""Q10"":""2""}","[0,1,2,3,4,5,6,7,8,9]","[""Q01"",""Q02"",""Q03"",""Q04"",""Q05"",""Q06"",""Q07"",""Q08"",""Q09"",""Q10""]","[6141.800000011921,101717.69999998808,193750.30000001192,201315.40000000596,208714.30000001192,218620,240956.19999998808,246783.90000000596,261196.09999999404,276580]","[]","[0.19999998807907104,6141.800000011921,98696.09999999404,100980.30000001192,101717.69999998808,193750.30000001192,201315.40000000596,206608.30000001192,208714.30000001192,218620,239356.30000001192,240956.19999998808,245824.09999999404,246783.90000000596,260441.90000000596,261196.09999999404,276580,278502.8000000119]","0.4","0.5555555555555556","0","","","","","","","","","","","","","","","","","","","","","","","","","","","","","",""
"5222","1752055816254","<p style='font-size:1.1em;line-height:1.25'>Thank you for your answers! Now we will ask you a few more questions relating to your feelings in the last 24 hours.<br></p><p style='font-size:1.1em;line-height:1.25'>Press the <strong>Next</strong> button to continue.</p>","0","custom-html-button-response","16","756040","0.0-7.0-6.0","245","1","2025-07-09 09:57:23","7701e855f2ef39aa3fd6c71abdc6918a","197.185.151.7","Mozilla/5.0 (Windows NT 10.0; Win64; x64) AppleWebKit/537.36 (KHTML, like Gecko) Chrome/138.0.0.0 Safari/537.36","WebKit","Chrome","138.0.0.0","Windows","10.0","https://app.prolific.com/","en-US,en;q=0.9","67c97feed736e0aa1f2a97b2","686d226cabeef709c732f8e1","686e39a28bd65ffc454f6dba","67c97feed736e0aa1f2a97b2","2025-07-09T10:10:16.256Z","","","","","","","","","","","","","","","","","","","","","","","","","","","","","","","","","","","","","","","","","","","","",""
"292358.90000000596","","","","survey-template","17","1048411","0.0-7.0-7.0","245","1","2025-07-09 09:57:23","7701e855f2ef39aa3fd6c71abdc6918a","197.185.151.7","Mozilla/5.0 (Windows NT 10.0; Win64; x64) AppleWebKit/537.36 (KHTML, like Gecko) Chrome/138.0.0.0 Safari/537.36","WebKit","Chrome","138.0.0.0","Windows","10.0","https://app.prolific.com/","en-US,en;q=0.9","67c97feed736e0aa1f2a97b2","686d226cabeef709c732f8e1","686e39a28bd65ffc454f6dba","67c97feed736e0aa1f2a97b2","2025-07-09T10:15:08.628Z","","","","","","drsp","{""Q01"":""2"",""Q02"":""2"",""Q03"":""1"",""Q04"":""1"",""Q05"":""3"",""Q06"":""3"",""Q07"":""4"",""Q08"":""3"",""Q09"":""3"",""Q10"":""1"",""Q11"":""3"",""Q12"":""4"",""Q13"":""4"",""Q14"":""3"",""Q15"":""3"",""Q16"":""4"",""Q17"":""1"",""Q18"":""0"",""Q19"":""1"",""Q20"":""2"",""Q21"":""3""}","[0,1,2,3,4,5,6,7,8,9,10,11,12,13,14,15,16,17,18,19,20]","[""Q01"",""Q01"",""Q02"",""Q03"",""Q04"",""Q05"",""Q06"",""Q07"",""Q08"",""Q09"",""Q10"",""Q11"",""Q12"",""Q13"",""Q14"",""Q15"",""Q16"",""Q17"",""Q17"",""Q18"",""Q19"",""Q20"",""Q21""]","[60949.40000000596,64147.70000001788,67560.70000001788,70045.70000001788,74283.70000001788,82398.30000001192,90447.30000001192,93818.30000001192,105740.20000001788,126227.70000001788,147515.40000000596,150455.40000000596,154948,157842.09999999404,161389.90000000596,164819.90000000596,179181.59999999404,188185.70000001788,191060.90000000596,221033.59999999404,238219.30000001192,244599.80000001192,291106.40000000596]","[]","[0.4000000059604645,60949.40000000596,63332.59999999404,64147.70000001788,67560.70000001788,70045.70000001788,74283.70000001788,76706.90000000596,78386.59999999404,82398.30000001192,90447.30000001192,93818.30000001192,105740.20000001788,126227.70000001788,147515.40000000596,150455.40000000596,154948,157842.09999999404,161389.90000000596,162944.40000000596,164819.90000000596,179181.59999999404,188185.70000001788,191060.90000000596,219787.5,221033.59999999404,238219.30000001192,244599.80000001192,291106.40000000596,292347.8000000119]","0.38095238095238093","0.5","0","","","","","","","","","","","","","","","","","","","","","","","","","","","","","",""
"23385.80000001192","","","","survey-template","18","1071802","0.0-7.0-8.0","245","1","2025-07-09 09:57:23","7701e855f2ef39aa3fd6c71abdc6918a","197.185.151.7","Mozilla/5.0 (Windows NT 10.0; Win64; x64) AppleWebKit/537.36 (KHTML, like Gecko) Chrome/138.0.0.0 Safari/537.36","WebKit","Chrome","138.0.0.0","Windows","10.0","https://app.prolific.com/","en-US,en;q=0.9","67c97feed736e0aa1f2a97b2","686d226cabeef709c732f8e1","686e39a28bd65ffc454f6dba","67c97feed736e0aa1f2a97b2","2025-07-09T10:15:32.018Z","","","","","","stress","{""Q01"":""1"",""Q02"":""1"",""Q03"":""1""}","[0,1,2]","[""Q01"",""Q02"",""Q03""]","[5665.699999988079,15557.699999988079,20623.80000001192]","[]","[5665.699999988079,9271.699999988079,14501.90000000596,15557.699999988079,20623.80000001192,23383.90000000596]","0.6666666666666666","0","0","","","","","","","","","","","","","","","","","","","","","","","","","","","","","",""
"68146","","","","instructions","19","1139951","0.0-8.0-0.0","245","1","2025-07-09 09:57:23","7701e855f2ef39aa3fd6c71abdc6918a","197.185.151.7","Mozilla/5.0 (Windows NT 10.0; Win64; x64) AppleWebKit/537.36 (KHTML, like Gecko) Chrome/138.0.0.0 Safari/537.36","WebKit","Chrome","138.0.0.0","Windows","10.0","https://app.prolific.com/","en-US,en;q=0.9","67c97feed736e0aa1f2a97b2","686d226cabeef709c732f8e1","686e39a28bd65ffc454f6dba","67c97feed736e0aa1f2a97b2","","[{""page_index"":0,""viewing_time"":52868},{""page_index"":1,""viewing_time"":7355},{""page_index"":2,""viewing_time"":4978},{""page_index"":3,""viewing_time"":2944}]","","","","","","","","","","","","","","","","","","","","","","","","","","","","","","","","","","","","","","","","","","","",""
"","","","","ctl-task-cpt","20","1176071","0.0-8.0-1.0","245","1","2025-07-09 09:57:23","7701e855f2ef39aa3fd6c71abdc6918a","197.185.151.7","Mozilla/5.0 (Windows NT 10.0; Win64; x64) AppleWebKit/537.36 (KHTML, like Gecko) Chrome/138.0.0.0 Safari/537.36","WebKit","Chrome","138.0.0.0","Windows","10.0","https://app.prolific.com/","en-US,en;q=0.9","67c97feed736e0aa1f2a97b2","686d226cabeef709c732f8e1","686e39a28bd65ffc454f6dba","67c97feed736e0aa1f2a97b2","","","","","","","","","","","","","","","","","win-only","2","g1:SE,g2:NW","1","0","1","1158772.1","3274.5","7276.8","32904.8","2","4","4","6","2","4","4","4","0","0.030303030303030304","3559.9","4000","515","[""left"",""up""]","{""num_key_presses"":6,""num_perfect"":6,""num_errors"":0,""num_randdir"":0,""num_randdir_good_moves"":0,""num_whilered"":0,""num_whileblue"":0,""num_blue"":2,""num_good_moves"":6}","[295.22232142857143,293.12857142857143,39.4,295.22232142857143,293.12857142857143,108.6,295.22232142857143,293.12857142857143,211.4,295.22232142857143,293.12857142857143,313,295.22232142857143,293.12857142857143,416.8,295.22232142857143,295.12857142857143,517,295.22232142857143,300.12857142857143,622.5,295.22232142857143,301.12857142857143,726.2,295.22232142857143,301.12857142857143,827.2,295.22232142857143,301.12857142857143,931.9,308.22232142857143,328.12857142857143,1032.3,310.22232142857143,324.12857142857143,1151.7,310.22232142857143,323.12857142857143,1252,316.22232142857143,331.12857142857143,1360,343.22232142857143,357.12857142857143,1461,346.22232142857143,360.12857142857143,1562.2,346.22232142857143,361.12857142857143,1662.3,346.22232142857143,361.12857142857143,1767.4,346.22232142857143,360.12857142857143,1876.8,346.22232142857143,353.12857142857143,1981.4,346.22232142857143,343.12857142857143,2081.6,346.22232142857143,343.12857142857143,2181.9,346.22232142857143,343.12857142857143,2282.3,346.22232142857143,343.12857142857143,2383,346.22232142857143,336.12857142857143,2487.1,347.22232142857143,326.12857142857143,2587.3,347.22232142857143,324.12857142857143,2688,323.22232142857143,313.12857142857143,2794.4,261.22232142857143,256.12857142857143,2894.6,165.22232142857143,162.12857142857143,2996.4,114.22232142857143,123.12857142857143,3096.9,92.22232142857143,87.12857142857143,3198.1,77.22232142857143,68.12857142857143,3301.8,31.222321428571426,30.128571428571426,3411.1,30.222321428571426,30.128571428571426,3512.3,30.222321428571426,30.128571428571426,3617.2,30.222321428571426,30.128571428571426,3727,31.222321428571426,31.128571428571426,3827.5,38.222321428571426,38.128571428571426,3927.7]","[2741.4,2741.4,1000,0,1741.4,""smooth"",""up"",""up"",""good_move"",5708,2965.7,2441.3,2742.4,524.4,""smooth"",""up"",""up"",""good_move"",15836.5,10126.7,2131.4,12880,825.1,""smooth"",""left"",""left"",""good_move"",18989.7,3134.5,2502.9,15855.4,631.4,""smooth"",""up"",""up"",""good_move"",22089.9,3099.6,2525.2,18990.5,574.3,""smooth"",""left"",""left"",""good_move"",25539.8,3449.1,3000.4,22090.8,448.6,""smooth"",""left"",""left"",""good_move""]","","",""
"17569","","","","instructions","21","1193641","0.0-8.0-2.0","245","1","2025-07-09 09:57:23","7701e855f2ef39aa3fd6c71abdc6918a","197.185.151.7","Mozilla/5.0 (Windows NT 10.0; Win64; x64) AppleWebKit/537.36 (KHTML, like Gecko) Chrome/138.0.0.0 Safari/537.36","WebKit","Chrome","138.0.0.0","Windows","10.0","https://app.prolific.com/","en-US,en;q=0.9","67c97feed736e0aa1f2a97b2","686d226cabeef709c732f8e1","686e39a28bd65ffc454f6dba","67c97feed736e0aa1f2a97b2","","[{""page_index"":0,""viewing_time"":17569}]","","","","","","","","","","","","","","","","","","","","","","","","","","","","","","","","","","","","","","","","","","","",""
"","","","","ctl-task-cpt","22","1234246","0.0-8.0-3.0","245","1","2025-07-09 09:57:23","7701e855f2ef39aa3fd6c71abdc6918a","197.185.151.7","Mozilla/5.0 (Windows NT 10.0; Win64; x64) AppleWebKit/537.36 (KHTML, like Gecko) Chrome/138.0.0.0 Safari/537.36","WebKit","Chrome","138.0.0.0","Windows","10.0","https://app.prolific.com/","en-US,en;q=0.9","67c97feed736e0aa1f2a97b2","686d226cabeef709c732f8e1","686e39a28bd65ffc454f6dba","67c97feed736e0aa1f2a97b2","","","","","","","","","","","","","","","","","win-only","2","g1:SE,g2:NW","0.35","0","3","1212257","3469.5","7472.9","37596.1","2","4","8","6","2","-8","-8","0","0","0","1828.9","4000","-2600","[""left"",""up""]","{""num_key_presses"":7,""num_perfect"":3,""num_errors"":0,""num_randdir"":4,""num_randdir_good_moves"":2,""num_whilered"":0,""num_whileblue"":0,""num_blue"":2,""num_good_moves"":5}","[297.22232142857143,290.12857142857143,0.4,297.22232142857143,290.12857142857143,101,297.22232142857143,290.12857142857143,201.3,297.22232142857143,290.12857142857143,302.4,297.22232142857143,290.12857142857143,406.3,297.22232142857143,290.12857142857143,508.1,297.22232142857143,290.12857142857143,612.1,297.22232142857143,290.12857142857143,716.9,187.22232142857143,207.12857142857143,821.5,95.22232142857143,129.12857142857143,924.2,78.22232142857143,118.12857142857143,1024.5,62.222321428571426,102.12857142857143,1126.6,56.222321428571426,90.12857142857143,1227.5,54.222321428571426,85.12857142857143,1328.1,52.222321428571426,80.12857142857143,1432.2,51.222321428571426,78.12857142857143,1536.5,51.222321428571426,78.12857142857143,1641.3,51.222321428571426,78.12857142857143,1742.9,51.222321428571426,78.12857142857143,1846.3,51.222321428571426,78.12857142857143,1946.5,51.222321428571426,78.12857142857143,2058.4,51.222321428571426,78.12857142857143,2162.5,51.222321428571426,78.12857142857143,2267.5,51.222321428571426,78.12857142857143,2372.4,51.222321428571426,78.12857142857143,2472.6,51.222321428571426,78.12857142857143,2576.9,51.222321428571426,78.12857142857143,2682.7,51.222321428571426,78.12857142857143,2786.9,51.222321428571426,78.12857142857143,2892.4,51.222321428571426,78.12857142857143,2993.5,51.222321428571426,78.12857142857143,3097.3,51.222321428571426,78.12857142857143,3203,51.222321428571426,78.12857142857143,3307.2,51.222321428571426,78.12857142857143,3413.7,51.222321428571426,78.12857142857143,3516.9,51.222321428571426,78.12857142857143,3617.1,51.222321428571426,78.12857142857143,3722.8,51.222321428571426,78.12857142857143,3822.9,51.222321428571426,78.12857142857143,3927.3]","[4554.1,4554,2129.5,2004.2,420.4,""oops"",""up"",""up"",""good_move"",7419.3,2864.4,2343,4554.9,521.4,""oops"",""left"",""down"",""bad_move"",10432.6,3012,2568.8,7420.6,443.2,""oops"",""up"",""down"",""bad_move"",13477,3043.6,1875.8,10433.4,1167.8,""smooth"",""left"",""left"",""good_move"",16415,2937.3,2410.4,13477.7,526.9,""smooth"",""left"",""left"",""good_move"",23190.1,6774.3,2122.4,20529.2,538.5,""oops"",""left"",""up"",""good_move"",26771.8,3581.1,3081.3,23190.7,499.8,""smooth"",""up"",""up"",""good_move""]","","",""
"8938","","","","instructions","23","1243184","0.0-8.0-4.0","245","1","2025-07-09 09:57:23","7701e855f2ef39aa3fd6c71abdc6918a","197.185.151.7","Mozilla/5.0 (Windows NT 10.0; Win64; x64) AppleWebKit/537.36 (KHTML, like Gecko) Chrome/138.0.0.0 Safari/537.36","WebKit","Chrome","138.0.0.0","Windows","10.0","https://app.prolific.com/","en-US,en;q=0.9","67c97feed736e0aa1f2a97b2","686d226cabeef709c732f8e1","686e39a28bd65ffc454f6dba","67c97feed736e0aa1f2a97b2","","[{""page_index"":0,""viewing_time"":5760},{""page_index"":1,""viewing_time"":3177}]","","","","","","","","","","","","","","","","","","","","","","","","","","","","","","","","","","","","","","","","","","","",""
"93965","","","{""green_ball"":[""Ball always moves in the direction I press""]}","survey-multi-select","24","1337153","0.0-8.0-5.0-0.0","245","1","2025-07-09 09:57:23","7701e855f2ef39aa3fd6c71abdc6918a","197.185.151.7","Mozilla/5.0 (Windows NT 10.0; Win64; x64) AppleWebKit/537.36 (KHTML, like Gecko) Chrome/138.0.0.0 Safari/537.36","WebKit","Chrome","138.0.0.0","Windows","10.0","https://app.prolific.com/","en-US,en;q=0.9","67c97feed736e0aa1f2a97b2","686d226cabeef709c732f8e1","686e39a28bd65ffc454f6dba","67c97feed736e0aa1f2a97b2","","","[0]","","","","quiz","","","","","","","","","","","","","","","","","","","","","","","","","","","","","","","","","","","","","false","",""
"20565","","<p align='center'><b>INCORRECT.</b> Usually the green ball moves in the indicated direction, but sometimes it shakes and moves randomly. </p>","0","html-button-response","25","1357770","0.0-8.0-5.0-1.0","245","1","2025-07-09 09:57:23","7701e855f2ef39aa3fd6c71abdc6918a","197.185.151.7","Mozilla/5.0 (Windows NT 10.0; Win64; x64) AppleWebKit/537.36 (KHTML, like Gecko) Chrome/138.0.0.0 Safari/537.36","WebKit","Chrome","138.0.0.0","Windows","10.0","https://app.prolific.com/","en-US,en;q=0.9","67c97feed736e0aa1f2a97b2","686d226cabeef709c732f8e1","686e39a28bd65ffc454f6dba","67c97feed736e0aa1f2a97b2","","","","","","","","","","","","","","","","","","","","","","","","","","","","","","","","","","","","","","","","","","","","","",""
"19284","","","{""green_ball"":[""Ball sometimes shakes and moves in a random direction""]}","survey-multi-select","26","1377058","0.0-8.0-5.1-0.1","245","1","2025-07-09 09:57:23","7701e855f2ef39aa3fd6c71abdc6918a","197.185.151.7","Mozilla/5.0 (Windows NT 10.0; Win64; x64) AppleWebKit/537.36 (KHTML, like Gecko) Chrome/138.0.0.0 Safari/537.36","WebKit","Chrome","138.0.0.0","Windows","10.0","https://app.prolific.com/","en-US,en;q=0.9","67c97feed736e0aa1f2a97b2","686d226cabeef709c732f8e1","686e39a28bd65ffc454f6dba","67c97feed736e0aa1f2a97b2","","","[0]","","","","quiz","","","","","","","","","","","","","","","","","","","","","","","","","","","","","","","","","","","","","true","",""
"2105","","<p align='center'><b>CORRECT!</b> Indeed, the green ball may sometimes shake and move in a random direction.</p>","0","html-button-response","27","1379167","0.0-8.0-5.1-1.1","245","1","2025-07-09 09:57:23","7701e855f2ef39aa3fd6c71abdc6918a","197.185.151.7","Mozilla/5.0 (Windows NT 10.0; Win64; x64) AppleWebKit/537.36 (KHTML, like Gecko) Chrome/138.0.0.0 Safari/537.36","WebKit","Chrome","138.0.0.0","Windows","10.0","https://app.prolific.com/","en-US,en;q=0.9","67c97feed736e0aa1f2a97b2","686d226cabeef709c732f8e1","686e39a28bd65ffc454f6dba","67c97feed736e0aa1f2a97b2","","","","","","","","","","","","","","","","","","","","","","","","","","","","","","","","","","","","","","","","","","","","","",""
"45179","","","{""yellow_ball"":[""Ball doesn‘t move and I get -1 penalty point""]}","survey-multi-select","28","1424349","0.0-8.0-6.0-0.0","245","1","2025-07-09 09:57:23","7701e855f2ef39aa3fd6c71abdc6918a","197.185.151.7","Mozilla/5.0 (Windows NT 10.0; Win64; x64) AppleWebKit/537.36 (KHTML, like Gecko) Chrome/138.0.0.0 Safari/537.36","WebKit","Chrome","138.0.0.0","Windows","10.0","https://app.prolific.com/","en-US,en;q=0.9","67c97feed736e0aa1f2a97b2","686d226cabeef709c732f8e1","686e39a28bd65ffc454f6dba","67c97feed736e0aa1f2a97b2","","","[0]","","","","quiz","","","","","","","","","","","","","","","","","","","","","","","","","","","","","","","","","","","","","true","",""
"1629","","<p align='center'><b>CORRECT!</b> Indeed, the yellow ball never moves and you receive a penalty.</p>","0","html-button-response","29","1425981","0.0-8.0-6.0-1.0","245","1","2025-07-09 09:57:23","7701e855f2ef39aa3fd6c71abdc6918a","197.185.151.7","Mozilla/5.0 (Windows NT 10.0; Win64; x64) AppleWebKit/537.36 (KHTML, like Gecko) Chrome/138.0.0.0 Safari/537.36","WebKit","Chrome","138.0.0.0","Windows","10.0","https://app.prolific.com/","en-US,en;q=0.9","67c97feed736e0aa1f2a97b2","686d226cabeef709c732f8e1","686e39a28bd65ffc454f6dba","67c97feed736e0aa1f2a97b2","","","","","","","","","","","","","","","","","","","","","","","","","","","","","","","","","","","","","","","","","","","","","",""
"12914","","","{""blue_ball"":[""Ball sometimes shakes and moves in a random direction""]}","survey-multi-select","30","1438898","0.0-8.0-7.0-0.0","245","1","2025-07-09 09:57:23","7701e855f2ef39aa3fd6c71abdc6918a","197.185.151.7","Mozilla/5.0 (Windows NT 10.0; Win64; x64) AppleWebKit/537.36 (KHTML, like Gecko) Chrome/138.0.0.0 Safari/537.36","WebKit","Chrome","138.0.0.0","Windows","10.0","https://app.prolific.com/","en-US,en;q=0.9","67c97feed736e0aa1f2a97b2","686d226cabeef709c732f8e1","686e39a28bd65ffc454f6dba","67c97feed736e0aa1f2a97b2","","","[0]","","","","quiz","","","","","","","","","","","","","","","","","","","","","","","","","","","","","","","","","","","","","false","",""
"5661","","<p align='center'><b>INCORRECT.</b> The blue ball always shakes and moves randomly.</p>","0","html-button-response","31","1444562","0.0-8.0-7.0-1.0","245","1","2025-07-09 09:57:23","7701e855f2ef39aa3fd6c71abdc6918a","197.185.151.7","Mozilla/5.0 (Windows NT 10.0; Win64; x64) AppleWebKit/537.36 (KHTML, like Gecko) Chrome/138.0.0.0 Safari/537.36","WebKit","Chrome","138.0.0.0","Windows","10.0","https://app.prolific.com/","en-US,en;q=0.9","67c97feed736e0aa1f2a97b2","686d226cabeef709c732f8e1","686e39a28bd65ffc454f6dba","67c97feed736e0aa1f2a97b2","","","","","","","","","","","","","","","","","","","","","","","","","","","","","","","","","","","","","","","","","","","","","",""
"12345","","","{""blue_ball"":[""Ball always shakes and moves in a random direction""]}","survey-multi-select","32","1456910","0.0-8.0-7.1-0.1","245","1","2025-07-09 09:57:23","7701e855f2ef39aa3fd6c71abdc6918a","197.185.151.7","Mozilla/5.0 (Windows NT 10.0; Win64; x64) AppleWebKit/537.36 (KHTML, like Gecko) Chrome/138.0.0.0 Safari/537.36","WebKit","Chrome","138.0.0.0","Windows","10.0","https://app.prolific.com/","en-US,en;q=0.9","67c97feed736e0aa1f2a97b2","686d226cabeef709c732f8e1","686e39a28bd65ffc454f6dba","67c97feed736e0aa1f2a97b2","","","[0]","","","","quiz","","","","","","","","","","","","","","","","","","","","","","","","","","","","","","","","","","","","","true","",""
"2357","","<p align='center'><b>CORRECT!</b> Indeed, the blue ball always shakes and moves in a random direction. Also there is a penalty of -1 point.</p>","0","html-button-response","33","1459269","0.0-8.0-7.1-1.1","245","1","2025-07-09 09:57:23","7701e855f2ef39aa3fd6c71abdc6918a","197.185.151.7","Mozilla/5.0 (Windows NT 10.0; Win64; x64) AppleWebKit/537.36 (KHTML, like Gecko) Chrome/138.0.0.0 Safari/537.36","WebKit","Chrome","138.0.0.0","Windows","10.0","https://app.prolific.com/","en-US,en;q=0.9","67c97feed736e0aa1f2a97b2","686d226cabeef709c732f8e1","686e39a28bd65ffc454f6dba","67c97feed736e0aa1f2a97b2","","","","","","","","","","","","","","","","","","","","","","","","","","","","","","","","","","","","","","","","","","","","","",""
"8186","","","{""bonus"":[""When I reach 50% of points""]}","survey-multi-select","34","1467459","0.0-8.0-8.0-0.0","245","1","2025-07-09 09:57:23","7701e855f2ef39aa3fd6c71abdc6918a","197.185.151.7","Mozilla/5.0 (Windows NT 10.0; Win64; x64) AppleWebKit/537.36 (KHTML, like Gecko) Chrome/138.0.0.0 Safari/537.36","WebKit","Chrome","138.0.0.0","Windows","10.0","https://app.prolific.com/","en-US,en;q=0.9","67c97feed736e0aa1f2a97b2","686d226cabeef709c732f8e1","686e39a28bd65ffc454f6dba","67c97feed736e0aa1f2a97b2","","","[0]","","","","quiz","","","","","","","","","","","","","","","","","","","","","","","","","","","","","","","","","","","","","true","",""
"2136","","<p align='center'><b>CORRECT!</b> Indeed, you receive 2 pounds extra when you reach 50% of points.</p>","0","html-button-response","35","1469597","0.0-8.0-8.0-1.0","245","1","2025-07-09 09:57:23","7701e855f2ef39aa3fd6c71abdc6918a","197.185.151.7","Mozilla/5.0 (Windows NT 10.0; Win64; x64) AppleWebKit/537.36 (KHTML, like Gecko) Chrome/138.0.0.0 Safari/537.36","WebKit","Chrome","138.0.0.0","Windows","10.0","https://app.prolific.com/","en-US,en;q=0.9","67c97feed736e0aa1f2a97b2","686d226cabeef709c732f8e1","686e39a28bd65ffc454f6dba","67c97feed736e0aa1f2a97b2","","","","","","","","","","","","","","","","","","","","","","","","","","","","","","","","","","","","","","","","","","","","","",""
"3153","","","","instructions","36","1472752","0.0-8.0-9.0","245","1","2025-07-09 09:57:23","7701e855f2ef39aa3fd6c71abdc6918a","197.185.151.7","Mozilla/5.0 (Windows NT 10.0; Win64; x64) AppleWebKit/537.36 (KHTML, like Gecko) Chrome/138.0.0.0 Safari/537.36","WebKit","Chrome","138.0.0.0","Windows","10.0","https://app.prolific.com/","en-US,en;q=0.9","67c97feed736e0aa1f2a97b2","686d226cabeef709c732f8e1","686e39a28bd65ffc454f6dba","67c97feed736e0aa1f2a97b2","","[{""page_index"":0,""viewing_time"":3153}]","","","","","","","","","","","","","","","","","","","","","","","","","","","","","","","","","","","","","","","","","","","",""
"11197","","<p>Before you start with this game please answer the following three questions yourself. </p>
  <p>Through this game, we measure several aspects of your cognitive performance, such as reaction times, multi-tasking capabilities </p>
  <p>and the ability to assess the situation you are in.</p>
  <p></p>
  <p><b>How good do you usually are in such tasks?</b></p>","91","html-slider-response","37","1483998","0.0-9.0-0.0","245","1","2025-07-09 09:57:23","7701e855f2ef39aa3fd6c71abdc6918a","197.185.151.7","Mozilla/5.0 (Windows NT 10.0; Win64; x64) AppleWebKit/537.36 (KHTML, like Gecko) Chrome/138.0.0.0 Safari/537.36","WebKit","Chrome","138.0.0.0","Windows","10.0","https://app.prolific.com/","en-US,en;q=0.9","67c97feed736e0aa1f2a97b2","686d226cabeef709c732f8e1","686e39a28bd65ffc454f6dba","67c97feed736e0aa1f2a97b2","2025-07-09T10:22:24.214Z","","","","","","PreSkillQ","","","","","","","","","","","","","","","","","","","","","","","","","","","","","","","","","","","","","","50",""
"47208","","<div style=""width:500px;"">
  <p>How well do you think you will perform in this task compared to other participants?</p>
  </div>","97","html-slider-response","38","1531208","0.0-9.0-1.0","245","1","2025-07-09 09:57:23","7701e855f2ef39aa3fd6c71abdc6918a","197.185.151.7","Mozilla/5.0 (Windows NT 10.0; Win64; x64) AppleWebKit/537.36 (KHTML, like Gecko) Chrome/138.0.0.0 Safari/537.36","WebKit","Chrome","138.0.0.0","Windows","10.0","https://app.prolific.com/","en-US,en;q=0.9","67c97feed736e0aa1f2a97b2","686d226cabeef709c732f8e1","686e39a28bd65ffc454f6dba","67c97feed736e0aa1f2a97b2","2025-07-09T10:23:11.424Z","","","","","","PrePerfQ","","","","","","","","","","","","","","","","","","","","","","","","","","","","","","","","","","","","","","50",""
"18589","","<div style=""width:500px;"">
  <p>What best describes how you currently feel?</p>
  </div>","100","html-slider-response","39","1549799","0.0-9.0-2.0","245","1","2025-07-09 09:57:23","7701e855f2ef39aa3fd6c71abdc6918a","197.185.151.7","Mozilla/5.0 (Windows NT 10.0; Win64; x64) AppleWebKit/537.36 (KHTML, like Gecko) Chrome/138.0.0.0 Safari/537.36","WebKit","Chrome","138.0.0.0","Windows","10.0","https://app.prolific.com/","en-US,en;q=0.9","67c97feed736e0aa1f2a97b2","686d226cabeef709c732f8e1","686e39a28bd65ffc454f6dba","67c97feed736e0aa1f2a97b2","2025-07-09T10:23:30.016Z","","","","","","PreMotivationQ","","","","","","","","","","","","","","","","","","","","","","","","","","","","","","","","","","","","","","50",""
"","","","","ctl-task-cpt","40","1578396","0.0-10.0-0.0","245","1","2025-07-09 09:57:23","7701e855f2ef39aa3fd6c71abdc6918a","197.185.151.7","Mozilla/5.0 (Windows NT 10.0; Win64; x64) AppleWebKit/537.36 (KHTML, like Gecko) Chrome/138.0.0.0 Safari/537.36","WebKit","Chrome","138.0.0.0","Windows","10.0","https://app.prolific.com/","en-US,en;q=0.9","67c97feed736e0aa1f2a97b2","686d226cabeef709c732f8e1","686e39a28bd65ffc454f6dba","67c97feed736e0aa1f2a97b2","2025-07-09T10:23:58.612Z","","","","","","","","","","","","","","","","win-only","0","g1:NW,g2:SE","1","1","0","1568419.6","1355.4","6363","25575.8","1","4","4","6","2","4","3","3","0","0.022727272727272728","1598","3000","840","[""down"",""right""]","{""num_key_presses"":6,""num_perfect"":5,""num_errors"":1,""num_randdir"":0,""num_randdir_good_moves"":0,""num_whilered"":0,""num_whileblue"":1,""num_blue"":2,""num_good_moves"":6}","[300.22232142857143,293.12857142857143,0.5,300.22232142857143,293.12857142857143,105.2,300.22232142857143,293.12857142857143,205.2,300.22232142857143,293.12857142857143,305.3,299.22232142857143,293.12857142857143,405.5,299.22232142857143,293.12857142857143,518.2,422.22232142857143,406.12857142857143,636.8,564.2223214285714,511.12857142857143,747,599.2223214285714,549.1285714285714,854,607.2223214285714,578.1285714285714,956.6,606.2223214285714,590.1285714285714,1061.1,503.22232142857143,559.1285714285714,1161.2,502.22232142857143,547.1285714285714,1261.4,516.2223214285714,540.1285714285714,1365.4,553.2223214285714,545.1285714285714,1466.9,554.2223214285714,545.1285714285714,1570.9,556.2223214285714,545.1285714285714,1676,556.2223214285714,545.1285714285714,1780.6,550.2223214285714,545.1285714285714,1885.4,541.2223214285714,539.1285714285714,1986.1,528.2223214285714,531.1285714285714,2092.3,492.22232142857143,507.12857142857143,2202.1,449.22232142857143,460.12857142857143,2305.9,432.22232142857143,414.12857142857143,2410.6,445.22232142857143,355.12857142857143,2516.9,488.22232142857143,350.12857142857143,2621.6,494.22232142857143,342.12857142857143,2725.9,494.22232142857143,342.12857142857143,2830.6,494.22232142857143,342.12857142857143,2934.7,494.22232142857143,342.12857142857143,3035.2,494.22232142857143,342.12857142857143,3136.3,494.22232142857143,342.12857142857143,3241,494.22232142857143,342.12857142857143,3352,494.22232142857143,342.12857142857143,3455.9,494.22232142857143,342.12857142857143,3556,494.22232142857143,342.12857142857143,3661.4,494.22232142857143,342.12857142857143,3767,494.22232142857143,342.12857142857143,3870,494.22232142857143,342.12857142857143,3970.3,494.22232142857143,342.12857142857143,4071.2,494.22232142857143,342.12857142857143,4172.2,494.22232142857143,342.12857142857143,4283.1,494.22232142857143,342.12857142857143,4385.2,494.22232142857143,342.12857142857143,4486.7,494.22232142857143,342.12857142857143,4591.2,494.22232142857143,342.12857142857143,4700.1,494.22232142857143,342.12857142857143,4801.3,494.22232142857143,342.12857142857143,4905.9]","[1404.4,1404.4,1000,0,404.4,""smooth"",""down"",""down"",""good_move"",4157.8,2752.5,2247.4,1405.3,505.1,""smooth"",""down"",""down"",""good_move"",10794.5,6635.7,2558.6,7770.6,465.3,""smooth"",""right"",""right"",""good_move"",13558.4,2763.2,2203.4,10795.2,559.9,""smooth"",""down"",""down"",""good_move"",16245.4,2686.1,2194.7,13559.3,491.4,""while_blue"",""right"",""right"",""good_move"",19094.5,2847.6,2249.2,16246.9,598.4,""smooth"",""right"",""right"",""good_move""]","","",""
"5726","","<div style=""width:500px;"">
  <p>What determined the result of this run?</p>
  </div>","94","html-slider-response","41","1584124","0.0-10.0-1.0","245","1","2025-07-09 09:57:23","7701e855f2ef39aa3fd6c71abdc6918a","197.185.151.7","Mozilla/5.0 (Windows NT 10.0; Win64; x64) AppleWebKit/537.36 (KHTML, like Gecko) Chrome/138.0.0.0 Safari/537.36","WebKit","Chrome","138.0.0.0","Windows","10.0","https://app.prolific.com/","en-US,en;q=0.9","67c97feed736e0aa1f2a97b2","686d226cabeef709c732f8e1","686e39a28bd65ffc454f6dba","67c97feed736e0aa1f2a97b2","2025-07-09T10:24:04.340Z","","","","","","AttribQ","","","","","","","","","","","","","","","","","","","","","","","","","","","","","","","","","","","","","","50",""
"3444","","<div style=""width:500px;"">
  <p>How much control did you have over the ball?</p>
  </div>","72","html-slider-response","42","1587571","0.0-10.0-2.0","245","1","2025-07-09 09:57:23","7701e855f2ef39aa3fd6c71abdc6918a","197.185.151.7","Mozilla/5.0 (Windows NT 10.0; Win64; x64) AppleWebKit/537.36 (KHTML, like Gecko) Chrome/138.0.0.0 Safari/537.36","WebKit","Chrome","138.0.0.0","Windows","10.0","https://app.prolific.com/","en-US,en;q=0.9","67c97feed736e0aa1f2a97b2","686d226cabeef709c732f8e1","686e39a28bd65ffc454f6dba","67c97feed736e0aa1f2a97b2","2025-07-09T10:24:07.787Z","","","","","","ControlQ","","","","","","","","","","","","","","","","","","","","","","","","","","","","","","","","","","","","","","50",""
"7762","","<div style=""width:500px;"">
  <p>How would you describe your current emotional state?</p>
  </div>","0","html-slider-response","43","1595335","0.0-10.0-3.0","245","1","2025-07-09 09:57:23","7701e855f2ef39aa3fd6c71abdc6918a","197.185.151.7","Mozilla/5.0 (Windows NT 10.0; Win64; x64) AppleWebKit/537.36 (KHTML, like Gecko) Chrome/138.0.0.0 Safari/537.36","WebKit","Chrome","138.0.0.0","Windows","10.0","https://app.prolific.com/","en-US,en;q=0.9","67c97feed736e0aa1f2a97b2","686d226cabeef709c732f8e1","686e39a28bd65ffc454f6dba","67c97feed736e0aa1f2a97b2","2025-07-09T10:24:15.551Z","","","","","","StressQ","","","","","","","","","","","","","","","","","","","","","","","","","","","","","","","","","","","","","","50",""
"5889","","<div style=""width:500px;"">
  <p>What best describes how you currently feel?</p>
  </div>","88","html-slider-response","44","1601226","0.0-10.0-4.0","245","1","2025-07-09 09:57:23","7701e855f2ef39aa3fd6c71abdc6918a","197.185.151.7","Mozilla/5.0 (Windows NT 10.0; Win64; x64) AppleWebKit/537.36 (KHTML, like Gecko) Chrome/138.0.0.0 Safari/537.36","WebKit","Chrome","138.0.0.0","Windows","10.0","https://app.prolific.com/","en-US,en;q=0.9","67c97feed736e0aa1f2a97b2","686d226cabeef709c732f8e1","686e39a28bd65ffc454f6dba","67c97feed736e0aa1f2a97b2","2025-07-09T10:24:21.442Z","","","","","","MotivationQ","","","","","","","","","","","","","","","","","","","","","","","","","","","","","","","","","","","","","","50",""
"","","","","ctl-task-cpt","45","1633392","0.0-10.0-0.1","245","1","2025-07-09 09:57:23","7701e855f2ef39aa3fd6c71abdc6918a","197.185.151.7","Mozilla/5.0 (Windows NT 10.0; Win64; x64) AppleWebKit/537.36 (KHTML, like Gecko) Chrome/138.0.0.0 Safari/537.36","WebKit","Chrome","138.0.0.0","Windows","10.0","https://app.prolific.com/","en-US,en;q=0.9","67c97feed736e0aa1f2a97b2","686d226cabeef709c732f8e1","686e39a28bd65ffc454f6dba","67c97feed736e0aa1f2a97b2","2025-07-09T10:24:53.608Z","","","","","","","","","","","","","","","","win-only","2","g1:SE,g2:NW","0.9","2","0","1619842.8","1957.4","6967.4","29145.7","1","4","8","6","2","-8","-8","0","3","0","1731.9","3000","-2170","[""left"",""up""]","{""num_key_presses"":4,""num_perfect"":4,""num_errors"":0,""num_randdir"":0,""num_randdir_good_moves"":0,""num_whilered"":0,""num_whileblue"":0,""num_blue"":2,""num_good_moves"":4}","[296.22232142857143,297.12857142857143,0.5,296.22232142857143,297.12857142857143,105.2,297.22232142857143,296.12857142857143,209,297.22232142857143,296.12857142857143,325.3,297.22232142857143,296.12857142857143,431.3,292.22232142857143,296.12857142857143,535.4,287.22232142857143,297.12857142857143,639.9,268.22232142857143,285.12857142857143,740.8,146.22232142857143,160.12857142857143,842.2,118.22232142857143,128.12857142857143,943.5,105.22232142857143,104.12857142857143,1044,86.22232142857143,66.12857142857143,1144.7,61.222321428571426,41.128571428571426,1261.9,57.222321428571426,38.128571428571426,1363.3,57.222321428571426,38.128571428571426,1464.5,55.222321428571426,38.128571428571426,1565.8,55.222321428571426,38.128571428571426,1669.9,55.222321428571426,38.128571428571426,1774.1,55.222321428571426,38.128571428571426,1881.8,56.222321428571426,38.128571428571426,1987.1,56.222321428571426,38.128571428571426,2090.2,57.222321428571426,39.128571428571426,2193.9,79.22232142857143,61.128571428571426,2294.2,194.22232142857143,130.12857142857143,2394.2,353.22232142857143,231.12857142857143,2494.9,875.2223214285714,500.12857142857143,2611.2,944.2223214285714,523.1285714285714,2731.3,978.2223214285714,613.1285714285714,2845.3,978.2223214285714,629.1285714285714,2956.5,978.2223214285714,629.1285714285714,3059.1,978.2223214285714,629.1285714285714,3172.9,978.2223214285714,629.1285714285714,3275.2,978.2223214285714,629.1285714285714,3386.4,978.2223214285714,629.1285714285714,3494.5,978.2223214285714,629.1285714285714,3605.5,978.2223214285714,629.1285714285714,3708.9,978.2223214285714,629.1285714285714,3815.2,978.2223214285714,629.1285714285714,3921.2,978.2223214285714,629.1285714285714,4024.3,978.2223214285714,629.1285714285714,4124.6,978.2223214285714,629.1285714285714,4230,978.2223214285714,629.1285714285714,4331.2,978.2223214285714,629.1285714285714,4435.3,978.2223214285714,630.1285714285714,4536.4,978.2223214285714,630.1285714285714,4639.5,978.2223214285714,630.1285714285714,4740.1,978.2223214285714,630.1285714285714,4841.8,978.2223214285714,630.1285714285714,4943.2]","[2529.9,2529.9,1000,0,1529.9,""smooth"",""up"",""up"",""good_move"",6700.1,4169.1,2708.7,2531,1460.4,""smooth"",""left"",""left"",""good_move"",12914.2,6212.9,2403.4,9865.3,645.5,""smooth"",""up"",""up"",""good_move"",19039.7,6124.6,2169.6,16433.2,436.9,""smooth"",""left"",""left"",""good_move""]","","",""
"6877","","<div style=""width:500px;"">
  <p>What determined the result of this run?</p>
  </div>","1","html-slider-response","46","1640271","0.0-10.0-1.1","245","1","2025-07-09 09:57:23","7701e855f2ef39aa3fd6c71abdc6918a","197.185.151.7","Mozilla/5.0 (Windows NT 10.0; Win64; x64) AppleWebKit/537.36 (KHTML, like Gecko) Chrome/138.0.0.0 Safari/537.36","WebKit","Chrome","138.0.0.0","Windows","10.0","https://app.prolific.com/","en-US,en;q=0.9","67c97feed736e0aa1f2a97b2","686d226cabeef709c732f8e1","686e39a28bd65ffc454f6dba","67c97feed736e0aa1f2a97b2","2025-07-09T10:25:00.487Z","","","","","","AttribQ","","","","","","","","","","","","","","","","","","","","","","","","","","","","","","","","","","","","","","50",""
"6740","","<div style=""width:500px;"">
  <p>How much control did you have over the ball?</p>
  </div>","89","html-slider-response","47","1647013","0.0-10.0-2.1","245","1","2025-07-09 09:57:23","7701e855f2ef39aa3fd6c71abdc6918a","197.185.151.7","Mozilla/5.0 (Windows NT 10.0; Win64; x64) AppleWebKit/537.36 (KHTML, like Gecko) Chrome/138.0.0.0 Safari/537.36","WebKit","Chrome","138.0.0.0","Windows","10.0","https://app.prolific.com/","en-US,en;q=0.9","67c97feed736e0aa1f2a97b2","686d226cabeef709c732f8e1","686e39a28bd65ffc454f6dba","67c97feed736e0aa1f2a97b2","2025-07-09T10:25:07.229Z","","","","","","ControlQ","","","","","","","","","","","","","","","","","","","","","","","","","","","","","","","","","","","","","","50",""
"3751","","<div style=""width:500px;"">
  <p>How would you describe your current emotional state?</p>
  </div>","5","html-slider-response","48","1650772","0.0-10.0-3.1","245","1","2025-07-09 09:57:23","7701e855f2ef39aa3fd6c71abdc6918a","197.185.151.7","Mozilla/5.0 (Windows NT 10.0; Win64; x64) AppleWebKit/537.36 (KHTML, like Gecko) Chrome/138.0.0.0 Safari/537.36","WebKit","Chrome","138.0.0.0","Windows","10.0","https://app.prolific.com/","en-US,en;q=0.9","67c97feed736e0aa1f2a97b2","686d226cabeef709c732f8e1","686e39a28bd65ffc454f6dba","67c97feed736e0aa1f2a97b2","2025-07-09T10:25:10.988Z","","","","","","StressQ","","","","","","","","","","","","","","","","","","","","","","","","","","","","","","","","","","","","","","50",""
"5385","","<div style=""width:500px;"">
  <p>What best describes how you currently feel?</p>
  </div>","91","html-slider-response","49","1656159","0.0-10.0-4.1","245","1","2025-07-09 09:57:23","7701e855f2ef39aa3fd6c71abdc6918a","197.185.151.7","Mozilla/5.0 (Windows NT 10.0; Win64; x64) AppleWebKit/537.36 (KHTML, like Gecko) Chrome/138.0.0.0 Safari/537.36","WebKit","Chrome","138.0.0.0","Windows","10.0","https://app.prolific.com/","en-US,en;q=0.9","67c97feed736e0aa1f2a97b2","686d226cabeef709c732f8e1","686e39a28bd65ffc454f6dba","67c97feed736e0aa1f2a97b2","2025-07-09T10:25:16.376Z","","","","","","MotivationQ","","","","","","","","","","","","","","","","","","","","","","","","","","","","","","","","","","","","","","50",""
"","","","","ctl-task-cpt","50","1693721","0.0-10.0-0.2","245","1","2025-07-09 09:57:23","7701e855f2ef39aa3fd6c71abdc6918a","197.185.151.7","Mozilla/5.0 (Windows NT 10.0; Win64; x64) AppleWebKit/537.36 (KHTML, like Gecko) Chrome/138.0.0.0 Safari/537.36","WebKit","Chrome","138.0.0.0","Windows","10.0","https://app.prolific.com/","en-US,en;q=0.9","67c97feed736e0aa1f2a97b2","686d226cabeef709c732f8e1","686e39a28bd65ffc454f6dba","67c97feed736e0aa1f2a97b2","2025-07-09T10:25:53.937Z","","","","","","","","","","","","","","","","win-only","0","g1:NW,g2:SE","0.8","3","0","1674776.6","2530.1","7538.7","34540.8","1","4","4","6","2","-4","-4","0","0","0","1545.2","3000","-2035","[""down"",""right""]","{""num_key_presses"":7,""num_perfect"":6,""num_errors"":0,""num_randdir"":1,""num_randdir_good_moves"":0,""num_whilered"":0,""num_whileblue"":0,""num_blue"":1,""num_good_moves"":6}","[295.22232142857143,293.12857142857143,0.6,295.22232142857143,293.12857142857143,100.5,295.22232142857143,293.12857142857143,201.1,295.22232142857143,293.12857142857143,302.8,295.22232142857143,293.12857142857143,403.1,295.22232142857143,294.12857142857143,518.4,362.22232142857143,366.12857142857143,621.8,481.22232142857143,468.12857142857143,741,552.2223214285714,517.1285714285714,841.4,553.2223214285714,518.1285714285714,950.4,562.2223214285714,525.1285714285714,1050.5,565.2223214285714,530.1285714285714,1151,561.2223214285714,534.1285714285714,1251.3,530.2223214285714,537.1285714285714,1366.7,530.2223214285714,536.1285714285714,1471.5,530.2223214285714,536.1285714285714,1579.8,530.2223214285714,536.1285714285714,1683.6,530.2223214285714,536.1285714285714,1800.5,530.2223214285714,534.1285714285714,1900.9,529.2223214285714,534.1285714285714,2002.1,529.2223214285714,534.1285714285714,2106.2,529.2223214285714,533.1285714285714,2210.5,529.2223214285714,533.1285714285714,2312.4,529.2223214285714,533.1285714285714,2415.4,529.2223214285714,533.1285714285714,2516.3,528.2223214285714,533.1285714285714,2633.3,534.2223214285714,530.1285714285714,2754.5,543.2223214285714,528.1285714285714,2865.6,544.2223214285714,528.1285714285714,2966.3,545.2223214285714,528.1285714285714,3072,545.2223214285714,528.1285714285714,3176,545.2223214285714,528.1285714285714,3276,545.2223214285714,528.1285714285714,3380.2,545.2223214285714,528.1285714285714,3480.2,545.2223214285714,528.1285714285714,3580.9,545.2223214285714,528.1285714285714,3685.6,545.2223214285714,528.1285714285714,3791.1,545.2223214285714,528.1285714285714,3891.5,545.2223214285714,528.1285714285714,3993.7,545.2223214285714,528.1285714285714,4095.3,545.2223214285714,528.1285714285714,4195.9,545.2223214285714,528.1285714285714,4295.9,545.2223214285714,528.1285714285714,4400.7,545.2223214285714,528.1285714285714,4500.9,545.2223214285714,528.1285714285714,4601.2,545.2223214285714,528.1285714285714,4703.1,545.2223214285714,528.1285714285714,4805.9,545.2223214285714,528.1285714285714,4915.4]","[1456.4,1456.4,1000,0,456.4,""smooth"",""down"",""down"",""good_move"",5218.1,3760.9,2860.9,1457.2,900,""smooth"",""down"",""down"",""good_move"",8513.8,3294.7,2368.2,5219.1,926.5,""smooth"",""right"",""right"",""good_move"",14171.7,5656.7,1619.5,12090.5,461.7,""smooth"",""right"",""right"",""good_move"",17539,3366.6,2882.7,14172.4,483.9,""smooth"",""right"",""right"",""good_move"",20887.1,3347.3,2862,17539.9,485.2,""oops"",""down"",""left"",""bad_move"",23987.6,3099.4,2704.6,20888.2,394.8,""smooth"",""down"",""down"",""good_move""]","","",""
"4650","","<div style=""width:500px;"">
  <p>What determined the result of this run?</p>
  </div>","0","html-slider-response","51","1698373","0.0-10.0-1.2","245","1","2025-07-09 09:57:23","7701e855f2ef39aa3fd6c71abdc6918a","197.185.151.7","Mozilla/5.0 (Windows NT 10.0; Win64; x64) AppleWebKit/537.36 (KHTML, like Gecko) Chrome/138.0.0.0 Safari/537.36","WebKit","Chrome","138.0.0.0","Windows","10.0","https://app.prolific.com/","en-US,en;q=0.9","67c97feed736e0aa1f2a97b2","686d226cabeef709c732f8e1","686e39a28bd65ffc454f6dba","67c97feed736e0aa1f2a97b2","2025-07-09T10:25:58.589Z","","","","","","AttribQ","","","","","","","","","","","","","","","","","","","","","","","","","","","","","","","","","","","","","","50",""
"5542","","<div style=""width:500px;"">
  <p>How much control did you have over the ball?</p>
  </div>","58","html-slider-response","52","1703917","0.0-10.0-2.2","245","1","2025-07-09 09:57:23","7701e855f2ef39aa3fd6c71abdc6918a","197.185.151.7","Mozilla/5.0 (Windows NT 10.0; Win64; x64) AppleWebKit/537.36 (KHTML, like Gecko) Chrome/138.0.0.0 Safari/537.36","WebKit","Chrome","138.0.0.0","Windows","10.0","https://app.prolific.com/","en-US,en;q=0.9","67c97feed736e0aa1f2a97b2","686d226cabeef709c732f8e1","686e39a28bd65ffc454f6dba","67c97feed736e0aa1f2a97b2","2025-07-09T10:26:04.133Z","","","","","","ControlQ","","","","","","","","","","","","","","","","","","","","","","","","","","","","","","","","","","","","","","50",""
"7728","","<div style=""width:500px;"">
  <p>How would you describe your current emotional state?</p>
  </div>","78","html-slider-response","53","1711647","0.0-10.0-3.2","245","1","2025-07-09 09:57:23","7701e855f2ef39aa3fd6c71abdc6918a","197.185.151.7","Mozilla/5.0 (Windows NT 10.0; Win64; x64) AppleWebKit/537.36 (KHTML, like Gecko) Chrome/138.0.0.0 Safari/537.36","WebKit","Chrome","138.0.0.0","Windows","10.0","https://app.prolific.com/","en-US,en;q=0.9","67c97feed736e0aa1f2a97b2","686d226cabeef709c732f8e1","686e39a28bd65ffc454f6dba","67c97feed736e0aa1f2a97b2","2025-07-09T10:26:11.863Z","","","","","","StressQ","","","","","","","","","","","","","","","","","","","","","","","","","","","","","","","","","","","","","","50",""
"4259","","<div style=""width:500px;"">
  <p>What best describes how you currently feel?</p>
  </div>","52","html-slider-response","54","1715908","0.0-10.0-4.2","245","1","2025-07-09 09:57:23","7701e855f2ef39aa3fd6c71abdc6918a","197.185.151.7","Mozilla/5.0 (Windows NT 10.0; Win64; x64) AppleWebKit/537.36 (KHTML, like Gecko) Chrome/138.0.0.0 Safari/537.36","WebKit","Chrome","138.0.0.0","Windows","10.0","https://app.prolific.com/","en-US,en;q=0.9","67c97feed736e0aa1f2a97b2","686d226cabeef709c732f8e1","686e39a28bd65ffc454f6dba","67c97feed736e0aa1f2a97b2","2025-07-09T10:26:16.124Z","","","","","","MotivationQ","","","","","","","","","","","","","","","","","","","","","","","","","","","","","","","","","","","","","","50",""
"","","","","ctl-task-cpt","55","1751396","0.0-10.0-0.3","245","1","2025-07-09 09:57:23","7701e855f2ef39aa3fd6c71abdc6918a","197.185.151.7","Mozilla/5.0 (Windows NT 10.0; Win64; x64) AppleWebKit/537.36 (KHTML, like Gecko) Chrome/138.0.0.0 Safari/537.36","WebKit","Chrome","138.0.0.0","Windows","10.0","https://app.prolific.com/","en-US,en;q=0.9","67c97feed736e0aa1f2a97b2","686d226cabeef709c732f8e1","686e39a28bd65ffc454f6dba","67c97feed736e0aa1f2a97b2","2025-07-09T10:26:51.612Z","","","","","","","","","","","","","","","","win-only","1","g1:NE,g2:SW","0.7","4","0","1734526.6","1397.1","6417.2","32462.2","1","4","8","6","2","-8","-8","0","0","0","1620.7","3000","-1925","[""down"",""left""]","{""num_key_presses"":9,""num_perfect"":6,""num_errors"":0,""num_randdir"":3,""num_randdir_good_moves"":1,""num_whilered"":0,""num_whileblue"":0,""num_blue"":0,""num_good_moves"":7}","[302.22232142857143,298.12857142857143,1.2,302.22232142857143,298.12857142857143,115.3,302.22232142857143,298.12857142857143,218.6,302.22232142857143,298.12857142857143,319.8,302.22232142857143,298.12857142857143,449.7,302.22232142857143,298.12857142857143,555.5,221.22232142857143,409.12857142857143,699.1,149.22232142857143,521.1285714285714,802.9,-12.777678571428574,566.1285714285714,907,-33.777678571428574,566.1285714285714,1009.5,-33.777678571428574,566.1285714285714,1121.1,23.222321428571426,556.1285714285714,1226.2,33.222321428571426,555.1285714285714,1330.9,36.222321428571426,553.1285714285714,1436.1,38.222321428571426,551.1285714285714,1555.7,38.222321428571426,552.1285714285714,1658.9,44.222321428571426,547.1285714285714,1771.5,44.222321428571426,544.1285714285714,1873.8,44.222321428571426,544.1285714285714,1975.8,48.222321428571426,541.1285714285714,2081,91.22232142857143,512.1285714285714,2185.1,109.22232142857143,505.12857142857143,2307.2,138.22232142857143,505.12857142857143,2408.6,152.22232142857143,509.12857142857143,2510,189.22232142857143,514.1285714285714,2610,199.22232142857143,515.1285714285714,2715.6,266.22232142857143,540.1285714285714,2823.5,340.22232142857143,591.1285714285714,2927.8,384.22232142857143,617.1285714285714,3046.6,400.22232142857143,624.1285714285714,3148.6,514.2223214285714,641.1285714285714,3251.9,521.2223214285714,643.1285714285714,3360.9,611.2223214285714,633.1285714285714,3463.9,653.2223214285714,649.1285714285714,3564.5,653.2223214285714,649.1285714285714,3668.9,653.2223214285714,649.1285714285714,3770.3,653.2223214285714,649.1285714285714,3886.7,653.2223214285714,649.1285714285714,3994.1,653.2223214285714,649.1285714285714,4096.1,653.2223214285714,649.1285714285714,4199.9,653.2223214285714,649.1285714285714,4305.2,653.2223214285714,649.1285714285714,4407.2,653.2223214285714,649.1285714285714,4513.8,653.2223214285714,649.1285714285714,4614.7,653.2223214285714,649.1285714285714,4720.1,653.2223214285714,649.1285714285714,4831.9,653.2223214285714,649.1285714285714,4951]","[1502.9,1502.9,1000,0,503,""smooth"",""down"",""down"",""good_move"",4496.4,2992.5,2552.6,1503.9,439.9,""oops"",""left"",""right"",""bad_move"",6649.7,2151.2,1667.7,4498.6,483.4,""oops"",""down"",""down"",""good_move"",9429.4,2778.8,2257.9,6650.6,520.9,""smooth"",""down"",""down"",""good_move"",12146,2714.5,2212.1,9431.5,502.4,""smooth"",""left"",""left"",""good_move"",14653.6,2505.8,2014.5,12147.8,491.3,""smooth"",""left"",""left"",""good_move"",17759.4,3101.4,2595.8,14658,505.6,""oops"",""left"",""up"",""bad_move"",20650.3,2889.9,2415.1,17760.4,474.8,""smooth"",""left"",""left"",""good_move"",23530.8,2879.6,2251.6,20651.3,627.9,""smooth"",""left"",""left"",""good_move""]","","",""
"12050","","<div style=""width:500px;"">
  <p>What determined the result of this run?</p>
  </div>","0","html-slider-response","56","1763449","0.0-10.0-1.3","245","1","2025-07-09 09:57:23","7701e855f2ef39aa3fd6c71abdc6918a","197.185.151.7","Mozilla/5.0 (Windows NT 10.0; Win64; x64) AppleWebKit/537.36 (KHTML, like Gecko) Chrome/138.0.0.0 Safari/537.36","WebKit","Chrome","138.0.0.0","Windows","10.0","https://app.prolific.com/","en-US,en;q=0.9","67c97feed736e0aa1f2a97b2","686d226cabeef709c732f8e1","686e39a28bd65ffc454f6dba","67c97feed736e0aa1f2a97b2","2025-07-09T10:27:03.665Z","","","","","","AttribQ","","","","","","","","","","","","","","","","","","","","","","","","","","","","","","","","","","","","","","50",""
"6499","","<div style=""width:500px;"">
  <p>How much control did you have over the ball?</p>
  </div>","95","html-slider-response","57","1769952","0.0-10.0-2.3","245","1","2025-07-09 09:57:23","7701e855f2ef39aa3fd6c71abdc6918a","197.185.151.7","Mozilla/5.0 (Windows NT 10.0; Win64; x64) AppleWebKit/537.36 (KHTML, like Gecko) Chrome/138.0.0.0 Safari/537.36","WebKit","Chrome","138.0.0.0","Windows","10.0","https://app.prolific.com/","en-US,en;q=0.9","67c97feed736e0aa1f2a97b2","686d226cabeef709c732f8e1","686e39a28bd65ffc454f6dba","67c97feed736e0aa1f2a97b2","2025-07-09T10:27:10.168Z","","","","","","ControlQ","","","","","","","","","","","","","","","","","","","","","","","","","","","","","","","","","","","","","","50",""
"5913","","<div style=""width:500px;"">
  <p>How would you describe your current emotional state?</p>
  </div>","0","html-slider-response","58","1775867","0.0-10.0-3.3","245","1","2025-07-09 09:57:23","7701e855f2ef39aa3fd6c71abdc6918a","197.185.151.7","Mozilla/5.0 (Windows NT 10.0; Win64; x64) AppleWebKit/537.36 (KHTML, like Gecko) Chrome/138.0.0.0 Safari/537.36","WebKit","Chrome","138.0.0.0","Windows","10.0","https://app.prolific.com/","en-US,en;q=0.9","67c97feed736e0aa1f2a97b2","686d226cabeef709c732f8e1","686e39a28bd65ffc454f6dba","67c97feed736e0aa1f2a97b2","2025-07-09T10:27:16.083Z","","","","","","StressQ","","","","","","","","","","","","","","","","","","","","","","","","","","","","","","","","","","","","","","50",""
"5476","","<div style=""width:500px;"">
  <p>What best describes how you currently feel?</p>
  </div>","100","html-slider-response","59","1781346","0.0-10.0-4.3","245","1","2025-07-09 09:57:23","7701e855f2ef39aa3fd6c71abdc6918a","197.185.151.7","Mozilla/5.0 (Windows NT 10.0; Win64; x64) AppleWebKit/537.36 (KHTML, like Gecko) Chrome/138.0.0.0 Safari/537.36","WebKit","Chrome","138.0.0.0","Windows","10.0","https://app.prolific.com/","en-US,en;q=0.9","67c97feed736e0aa1f2a97b2","686d226cabeef709c732f8e1","686e39a28bd65ffc454f6dba","67c97feed736e0aa1f2a97b2","2025-07-09T10:27:21.562Z","","","","","","MotivationQ","","","","","","","","","","","","","","","","","","","","","","","","","","","","","","","","","","","","","","50",""
"","","","","ctl-task-cpt","60","1838497","0.0-10.0-0.4","245","1","2025-07-09 09:57:23","7701e855f2ef39aa3fd6c71abdc6918a","197.185.151.7","Mozilla/5.0 (Windows NT 10.0; Win64; x64) AppleWebKit/537.36 (KHTML, like Gecko) Chrome/138.0.0.0 Safari/537.36","WebKit","Chrome","138.0.0.0","Windows","10.0","https://app.prolific.com/","en-US,en;q=0.9","67c97feed736e0aa1f2a97b2","686d226cabeef709c732f8e1","686e39a28bd65ffc454f6dba","67c97feed736e0aa1f2a97b2","2025-07-09T10:28:18.713Z","","","","","","","","","","","","","","","","win-only","2","g1:SE,g2:NW","0.6","5","0","1799963.6","1417","6442.5","54131.6","1","4","8","6","2","-8","-11","0","0","0","2997.1","3000","-1730","[""left"",""up""]","{""num_key_presses"":12,""num_perfect"":6,""num_errors"":3,""num_randdir"":3,""num_randdir_good_moves"":1,""num_whilered"":0,""num_whileblue"":0,""num_blue"":3,""num_good_moves"":7}","[293.22232142857143,289.12857142857143,0.5,294.22232142857143,289.12857142857143,120.3,294.22232142857143,289.12857142857143,220.8,294.22232142857143,289.12857142857143,324.3,294.22232142857143,289.12857142857143,429.1,294.22232142857143,290.12857142857143,550.5,294.22232142857143,291.12857142857143,661.9,291.22232142857143,300.12857142857143,764.5,291.22232142857143,322.12857142857143,870.9,291.22232142857143,324.12857142857143,989.2,269.22232142857143,283.12857142857143,1092.5,171.22232142857143,201.12857142857143,1194.6,127.22232142857143,156.12857142857143,1302.7,123.22232142857143,141.12857142857143,1404.8,108.22232142857143,96.12857142857143,1513.6,96.22232142857143,82.12857142857143,1623,34.222321428571426,67.12857142857143,1725.6,2.2223214285714263,61.128571428571426,1832.7,2.2223214285714263,61.128571428571426,1938.4,8.222321428571426,44.128571428571426,2055.4,12.222321428571426,37.128571428571426,2175.9,12.222321428571426,37.128571428571426,2281,12.222321428571426,37.128571428571426,2383.6,12.222321428571426,37.128571428571426,2489.3,14.222321428571426,35.128571428571426,2590,14.222321428571426,35.128571428571426,2700,14.222321428571426,35.128571428571426,2800.7,14.222321428571426,35.128571428571426,2905.6,14.222321428571426,35.128571428571426,3012.6,14.222321428571426,35.128571428571426,3123.6,14.222321428571426,35.128571428571426,3225.5,14.222321428571426,35.128571428571426,3345.4,14.222321428571426,35.128571428571426,3463.7,14.222321428571426,35.128571428571426,3584.2,15.222321428571426,36.128571428571426,3700.5,18.222321428571426,40.128571428571426,3800.6,21.222321428571426,46.128571428571426,3902.8,24.222321428571426,50.128571428571426,4004.3,31.222321428571426,57.128571428571426,4116.1,35.222321428571426,60.128571428571426,4233.9,49.222321428571426,75.12857142857143,4341.9,125.22232142857143,133.12857142857143,4454,223.22232142857143,197.12857142857143,4554.4,268.22232142857143,224.12857142857143,4662.8,358.22232142857143,286.12857142857143,4772.8,374.22232142857143,297.12857142857143,4878.4,425.22232142857143,325.12857142857143,4982.9]","[7811.8,7811.8,1803.7,5425.6,582.5,""oops"",""left"",""up"",""good_move"",11583,3769.9,2797.1,7813.1,972.8,""smooth"",""left"",""left"",""good_move"",14967.9,3383.9,2840.3,11584,543.6,""smooth"",""up"",""up"",""good_move"",23222.4,8253.7,3198.9,19401,622.5,""smooth"",""left"",""left"",""good_move"",26334.4,3111.4,2612,23223,499.4,""oops"",""left"",""down"",""bad_move"",28876.1,2540.8,1806.7,26335.3,734.1,""oops"",""up"",""down"",""bad_move"",32226.7,3349.8,2881.4,28876.9,468.4,""smooth"",""left"",""left"",""good_move"",34612.9,2385.4,1909.3,32227.6,476,""smooth"",""up"",""up"",""good_move"",37424.3,2809.3,2435.4,34615,373.9,""smooth"",""up"",""up"",""good_move"",38515.3,1088.4,2926.7,37427,-1838.3,""error"",""-"",""-"",""no_move"",40544.4,2026.9,1881.2,39518.3,-855.1,""error"",""-"",""-"",""no_move"",43823.3,3278.3,2679.3,41554.3,-410.2,""error"",""-"",""-"",""no_move""]","","",""
"8508","","<div style=""width:500px;"">
  <p>What determined the result of this run?</p>
  </div>","0","html-slider-response","61","1847008","0.0-10.0-1.4","245","1","2025-07-09 09:57:23","7701e855f2ef39aa3fd6c71abdc6918a","197.185.151.7","Mozilla/5.0 (Windows NT 10.0; Win64; x64) AppleWebKit/537.36 (KHTML, like Gecko) Chrome/138.0.0.0 Safari/537.36","WebKit","Chrome","138.0.0.0","Windows","10.0","https://app.prolific.com/","en-US,en;q=0.9","67c97feed736e0aa1f2a97b2","686d226cabeef709c732f8e1","686e39a28bd65ffc454f6dba","67c97feed736e0aa1f2a97b2","2025-07-09T10:28:27.225Z","","","","","","AttribQ","","","","","","","","","","","","","","","","","","","","","","","","","","","","","","","","","","","","","","50",""
"7741","","<div style=""width:500px;"">
  <p>How much control did you have over the ball?</p>
  </div>","0","html-slider-response","62","1854753","0.0-10.0-2.4","245","1","2025-07-09 09:57:23","7701e855f2ef39aa3fd6c71abdc6918a","197.185.151.7","Mozilla/5.0 (Windows NT 10.0; Win64; x64) AppleWebKit/537.36 (KHTML, like Gecko) Chrome/138.0.0.0 Safari/537.36","WebKit","Chrome","138.0.0.0","Windows","10.0","https://app.prolific.com/","en-US,en;q=0.9","67c97feed736e0aa1f2a97b2","686d226cabeef709c732f8e1","686e39a28bd65ffc454f6dba","67c97feed736e0aa1f2a97b2","2025-07-09T10:28:34.969Z","","","","","","ControlQ","","","","","","","","","","","","","","","","","","","","","","","","","","","","","","","","","","","","","","50",""
"9473","","<div style=""width:500px;"">
  <p>How would you describe your current emotional state?</p>
  </div>","99","html-slider-response","63","1864230","0.0-10.0-3.4","245","1","2025-07-09 09:57:23","7701e855f2ef39aa3fd6c71abdc6918a","197.185.151.7","Mozilla/5.0 (Windows NT 10.0; Win64; x64) AppleWebKit/537.36 (KHTML, like Gecko) Chrome/138.0.0.0 Safari/537.36","WebKit","Chrome","138.0.0.0","Windows","10.0","https://app.prolific.com/","en-US,en;q=0.9","67c97feed736e0aa1f2a97b2","686d226cabeef709c732f8e1","686e39a28bd65ffc454f6dba","67c97feed736e0aa1f2a97b2","2025-07-09T10:28:44.446Z","","","","","","StressQ","","","","","","","","","","","","","","","","","","","","","","","","","","","","","","","","","","","","","","50",""
"7120","","<div style=""width:500px;"">
  <p>What best describes how you currently feel?</p>
  </div>","45","html-slider-response","64","1871355","0.0-10.0-4.4","245","1","2025-07-09 09:57:23","7701e855f2ef39aa3fd6c71abdc6918a","197.185.151.7","Mozilla/5.0 (Windows NT 10.0; Win64; x64) AppleWebKit/537.36 (KHTML, like Gecko) Chrome/138.0.0.0 Safari/537.36","WebKit","Chrome","138.0.0.0","Windows","10.0","https://app.prolific.com/","en-US,en;q=0.9","67c97feed736e0aa1f2a97b2","686d226cabeef709c732f8e1","686e39a28bd65ffc454f6dba","67c97feed736e0aa1f2a97b2","2025-07-09T10:28:51.572Z","","","","","","MotivationQ","","","","","","","","","","","","","","","","","","","","","","","","","","","","","","","","","","","","","","50",""
"","","","","ctl-task-cpt","65","1917364","0.0-10.0-0.5","245","1","2025-07-09 09:57:23","7701e855f2ef39aa3fd6c71abdc6918a","197.185.151.7","Mozilla/5.0 (Windows NT 10.0; Win64; x64) AppleWebKit/537.36 (KHTML, like Gecko) Chrome/138.0.0.0 Safari/537.36","WebKit","Chrome","138.0.0.0","Windows","10.0","https://app.prolific.com/","en-US,en;q=0.9","67c97feed736e0aa1f2a97b2","686d226cabeef709c732f8e1","686e39a28bd65ffc454f6dba","67c97feed736e0aa1f2a97b2","2025-07-09T10:29:37.580Z","","","","","","","","","","","","","","","","win-only","3","g1:SW,g2:NE","0.5","6","0","1889974.1","5740.4","10751.8","42990.4","1","4","4","6","1","1","1","1","0","0.007575757575757576","2464.9","3000","1480","[""down"",""left""]","{""num_key_presses"":6,""num_perfect"":3,""num_errors"":0,""num_randdir"":3,""num_randdir_good_moves"":2,""num_whilered"":0,""num_whileblue"":0,""num_blue"":4,""num_good_moves"":5}","[299.22232142857143,300.12857142857143,5.4,299.22232142857143,300.12857142857143,144.5,299.22232142857143,300.12857142857143,246.6,299.22232142857143,300.12857142857143,347.6,299.22232142857143,300.12857142857143,470.5,299.22232142857143,300.12857142857143,570.7,299.22232142857143,300.12857142857143,670.9,299.22232142857143,300.12857142857143,776.4,299.22232142857143,300.12857142857143,880.9,299.22232142857143,300.12857142857143,999.2,283.22232142857143,310.12857142857143,1118.4,283.22232142857143,310.12857142857143,1227.4,298.22232142857143,287.12857142857143,1350.6,310.22232142857143,264.12857142857143,1452,310.22232142857143,264.12857142857143,1554.9,213.22232142857143,331.12857142857143,1661,153.22232142857143,397.12857142857143,1762.2,104.22232142857143,474.12857142857143,1883.8,87.22232142857143,506.12857142857143,1987.9,83.22232142857143,514.1285714285714,2094,68.22232142857143,536.1285714285714,2221.7,68.22232142857143,536.1285714285714,2321.8,68.22232142857143,536.1285714285714,2426.1,68.22232142857143,536.1285714285714,2530.6,68.22232142857143,536.1285714285714,2634,68.22232142857143,536.1285714285714,2738.4,68.22232142857143,535.1285714285714,2840.5,78.22232142857143,523.1285714285714,2947.7,93.22232142857143,517.1285714285714,3055.4,177.22232142857143,485.12857142857143,3178.2,189.22232142857143,474.12857142857143,3280.8,191.22232142857143,472.12857142857143,3401.6,191.22232142857143,472.12857142857143,3510.8,191.22232142857143,472.12857142857143,3611,191.22232142857143,472.12857142857143,3718.4,191.22232142857143,472.12857142857143,3881.4,191.22232142857143,472.12857142857143,3988.2,191.22232142857143,472.12857142857143,4093.6,203.22232142857143,472.12857142857143,4201.2,207.22232142857143,472.12857142857143,4329.5,214.22232142857143,470.12857142857143,4430.9,215.22232142857143,472.12857142857143,4541.3,215.22232142857143,472.12857142857143,4659.8,215.22232142857143,472.12857142857143,4767.3,215.22232142857143,472.12857142857143,4881.5,215.22232142857143,472.12857142857143,4981.5]","[5181.2,5181.2,2704.7,2015.5,461,""smooth"",""down"",""down"",""good_move"",7960,2777.8,2255.3,5182.3,522.5,""oops"",""left"",""up"",""bad_move"",10983.4,3021.6,2590.4,7961.8,431.2,""oops"",""down"",""left"",""good_move"",22540.3,11555.1,2439.6,19696.8,403.9,""smooth"",""down"",""down"",""good_move"",26113.9,3573,2937.4,22541,635.6,""smooth"",""down"",""down"",""good_move"",32086,5971.3,2217.5,29144.4,724.1,""oops"",""left"",""left"",""good_move""]","","",""
"6492","","<div style=""width:500px;"">
  <p>What determined the result of this run?</p>
  </div>","64","html-slider-response","66","1923858","0.0-10.0-1.5","245","1","2025-07-09 09:57:23","7701e855f2ef39aa3fd6c71abdc6918a","197.185.151.7","Mozilla/5.0 (Windows NT 10.0; Win64; x64) AppleWebKit/537.36 (KHTML, like Gecko) Chrome/138.0.0.0 Safari/537.36","WebKit","Chrome","138.0.0.0","Windows","10.0","https://app.prolific.com/","en-US,en;q=0.9","67c97feed736e0aa1f2a97b2","686d226cabeef709c732f8e1","686e39a28bd65ffc454f6dba","67c97feed736e0aa1f2a97b2","2025-07-09T10:29:44.074Z","","","","","","AttribQ","","","","","","","","","","","","","","","","","","","","","","","","","","","","","","","","","","","","","","50",""
"6530","","<div style=""width:500px;"">
  <p>How much control did you have over the ball?</p>
  </div>","74","html-slider-response","67","1930392","0.0-10.0-2.5","245","1","2025-07-09 09:57:23","7701e855f2ef39aa3fd6c71abdc6918a","197.185.151.7","Mozilla/5.0 (Windows NT 10.0; Win64; x64) AppleWebKit/537.36 (KHTML, like Gecko) Chrome/138.0.0.0 Safari/537.36","WebKit","Chrome","138.0.0.0","Windows","10.0","https://app.prolific.com/","en-US,en;q=0.9","67c97feed736e0aa1f2a97b2","686d226cabeef709c732f8e1","686e39a28bd65ffc454f6dba","67c97feed736e0aa1f2a97b2","2025-07-09T10:29:50.608Z","","","","","","ControlQ","","","","","","","","","","","","","","","","","","","","","","","","","","","","","","","","","","","","","","50",""
"9740","","<div style=""width:500px;"">
  <p>How would you describe your current emotional state?</p>
  </div>","28","html-slider-response","68","1940136","0.0-10.0-3.5","245","1","2025-07-09 09:57:23","7701e855f2ef39aa3fd6c71abdc6918a","197.185.151.7","Mozilla/5.0 (Windows NT 10.0; Win64; x64) AppleWebKit/537.36 (KHTML, like Gecko) Chrome/138.0.0.0 Safari/537.36","WebKit","Chrome","138.0.0.0","Windows","10.0","https://app.prolific.com/","en-US,en;q=0.9","67c97feed736e0aa1f2a97b2","686d226cabeef709c732f8e1","686e39a28bd65ffc454f6dba","67c97feed736e0aa1f2a97b2","2025-07-09T10:30:00.352Z","","","","","","StressQ","","","","","","","","","","","","","","","","","","","","","","","","","","","","","","","","","","","","","","50",""
"11015","","<div style=""width:500px;"">
  <p>What best describes how you currently feel?</p>
  </div>","63","html-slider-response","69","1951156","0.0-10.0-4.5","245","1","2025-07-09 09:57:23","7701e855f2ef39aa3fd6c71abdc6918a","197.185.151.7","Mozilla/5.0 (Windows NT 10.0; Win64; x64) AppleWebKit/537.36 (KHTML, like Gecko) Chrome/138.0.0.0 Safari/537.36","WebKit","Chrome","138.0.0.0","Windows","10.0","https://app.prolific.com/","en-US,en;q=0.9","67c97feed736e0aa1f2a97b2","686d226cabeef709c732f8e1","686e39a28bd65ffc454f6dba","67c97feed736e0aa1f2a97b2","2025-07-09T10:30:11.372Z","","","","","","MotivationQ","","","","","","","","","","","","","","","","","","","","","","","","","","","","","","","","","","","","","","50",""
"","","","","ctl-task-cpt","70","2046211","0.0-10.0-0.6","245","1","2025-07-09 09:57:23","7701e855f2ef39aa3fd6c71abdc6918a","197.185.151.7","Mozilla/5.0 (Windows NT 10.0; Win64; x64) AppleWebKit/537.36 (KHTML, like Gecko) Chrome/138.0.0.0 Safari/537.36","WebKit","Chrome","138.0.0.0","Windows","10.0","https://app.prolific.com/","en-US,en;q=0.9","67c97feed736e0aa1f2a97b2","686d226cabeef709c732f8e1","686e39a28bd65ffc454f6dba","67c97feed736e0aa1f2a97b2","2025-07-09T10:31:46.427Z","","","","","","","","","","","","","","","","win-only","3","g1:SW,g2:NE","0.4","7","0","1969774.3","10293.1","15295.9","92040","1","4","4","6","2","-4","-4","0","1","0","2090.1","3000","-1325","[""up"",""right""]","{""num_key_presses"":17,""num_perfect"":7,""num_errors"":0,""num_randdir"":10,""num_randdir_good_moves"":3,""num_whilered"":0,""num_whileblue"":0,""num_blue"":5,""num_good_moves"":10}","[295.22232142857143,289.12857142857143,0.6,295.22232142857143,289.12857142857143,118.1,294.22232142857143,289.12857142857143,220.4,294.22232142857143,288.12857142857143,338.3,294.22232142857143,288.12857142857143,466.8,294.22232142857143,288.12857142857143,574.1,294.22232142857143,288.12857142857143,678.2,294.22232142857143,288.12857142857143,785.9,294.22232142857143,285.12857142857143,888.3,294.22232142857143,284.12857142857143,993.2,294.22232142857143,284.12857142857143,1094.4,298.22232142857143,275.12857142857143,1207.6,372.22232142857143,209.12857142857143,1308.2,486.22232142857143,133.12857142857143,1409.2,518.2223214285714,112.12857142857143,1516.2,537.2223214285714,92.12857142857143,1618.6,542.2223214285714,82.12857142857143,1719.9,547.2223214285714,68.12857142857143,1827.4,548.2223214285714,61.128571428571426,1931.4,549.2223214285714,60.128571428571426,2056,550.2223214285714,60.128571428571426,2166.1,550.2223214285714,60.128571428571426,2274,550.2223214285714,60.128571428571426,2376.5,550.2223214285714,60.128571428571426,2479.5,550.2223214285714,65.12857142857143,2586.7,546.2223214285714,85.12857142857143,2700.4,540.2223214285714,104.12857142857143,2806.9,534.2223214285714,128.12857142857143,2911,518.2223214285714,165.12857142857143,3011.1,500.22232142857143,208.12857142857143,3121.7,492.22232142857143,245.12857142857143,3235.4,487.22232142857143,299.12857142857143,3347.1,481.22232142857143,323.12857142857143,3454.7,471.22232142857143,338.12857142857143,3564.9,473.22232142857143,348.12857142857143,3683.6,482.22232142857143,367.12857142857143,3797.5,482.22232142857143,367.12857142857143,3897.8,482.22232142857143,367.12857142857143,4000.5,482.22232142857143,367.12857142857143,4109.3,482.22232142857143,367.12857142857143,4237.6,482.22232142857143,367.12857142857143,4358.2,482.22232142857143,367.12857142857143,4458.3,482.22232142857143,367.12857142857143,4559.2,482.22232142857143,367.12857142857143,4664.2,482.22232142857143,367.12857142857143,4764.3,482.22232142857143,367.12857142857143,4871,482.22232142857143,367.12857142857143,4977.6]","[5180.1,5180.1,2657.9,2010.3,511.9,""smooth"",""right"",""right"",""good_move"",8393.8,3212.4,2641.7,5181.4,570.7,""smooth"",""right"",""right"",""good_move"",11878.4,3483.7,3001.6,8394.7,482.1,""oops"",""up"",""left"",""bad_move"",20221.5,8341,2436.8,17202.4,582.3,""oops"",""right"",""left"",""bad_move"",23553.8,3331.6,2495.6,20222.2,836,""oops"",""right"",""right"",""good_move"",26768.6,3211.7,2369.7,23556.9,842,""oops"",""right"",""up"",""good_move"",29965.5,3195.8,2104.6,26769.7,1091.2,""oops"",""up"",""down"",""bad_move"",32885,2918,2451.6,29967,466.4,""smooth"",""right"",""right"",""good_move"",40118.3,7232.6,2758.7,36836.5,523.1,""oops"",""up"",""up"",""good_move"",43456.2,3337.3,2814.1,40118.9,523.2,""smooth"",""right"",""right"",""good_move"",46232.4,2773.7,2243,43458.8,530.6,""smooth"",""up"",""up"",""good_move"",50494.1,4260.9,2806,46233.2,1454.9,""oops"",""up"",""down"",""bad_move"",53385.2,2890.3,2191.2,50494.9,699.1,""smooth"",""up"",""up"",""good_move"",58411,5025,2840.6,53386.1,2184.3,""oops"",""left"",""down"",""bad_move"",61630.6,3218.8,2400,58411.9,818.7,""smooth"",""up"",""up"",""good_move"",68030.4,6399.1,1751.3,65766.9,512.2,""oops"",""up"",""down"",""bad_move"",73544.5,5513.4,1517.1,71452.9,574.5,""oops"",""up"",""down"",""bad_move""]","","",""
"19826","","<div style=""width:500px;"">
  <p>What determined the result of this run?</p>
  </div>","78","html-slider-response","71","2066041","0.0-10.0-1.6","245","1","2025-07-09 09:57:23","7701e855f2ef39aa3fd6c71abdc6918a","197.185.151.7","Mozilla/5.0 (Windows NT 10.0; Win64; x64) AppleWebKit/537.36 (KHTML, like Gecko) Chrome/138.0.0.0 Safari/537.36","WebKit","Chrome","138.0.0.0","Windows","10.0","https://app.prolific.com/","en-US,en;q=0.9","67c97feed736e0aa1f2a97b2","686d226cabeef709c732f8e1","686e39a28bd65ffc454f6dba","67c97feed736e0aa1f2a97b2","2025-07-09T10:32:06.257Z","","","","","","AttribQ","","","","","","","","","","","","","","","","","","","","","","","","","","","","","","","","","","","","","","50",""
"10194","","<div style=""width:500px;"">
  <p>How much control did you have over the ball?</p>
  </div>","73","html-slider-response","72","2076239","0.0-10.0-2.6","245","1","2025-07-09 09:57:23","7701e855f2ef39aa3fd6c71abdc6918a","197.185.151.7","Mozilla/5.0 (Windows NT 10.0; Win64; x64) AppleWebKit/537.36 (KHTML, like Gecko) Chrome/138.0.0.0 Safari/537.36","WebKit","Chrome","138.0.0.0","Windows","10.0","https://app.prolific.com/","en-US,en;q=0.9","67c97feed736e0aa1f2a97b2","686d226cabeef709c732f8e1","686e39a28bd65ffc454f6dba","67c97feed736e0aa1f2a97b2","2025-07-09T10:32:16.455Z","","","","","","ControlQ","","","","","","","","","","","","","","","","","","","","","","","","","","","","","","","","","","","","","","50",""
"6724","","<div style=""width:500px;"">
  <p>How would you describe your current emotional state?</p>
  </div>","66","html-slider-response","73","2082967","0.0-10.0-3.6","245","1","2025-07-09 09:57:23","7701e855f2ef39aa3fd6c71abdc6918a","197.185.151.7","Mozilla/5.0 (Windows NT 10.0; Win64; x64) AppleWebKit/537.36 (KHTML, like Gecko) Chrome/138.0.0.0 Safari/537.36","WebKit","Chrome","138.0.0.0","Windows","10.0","https://app.prolific.com/","en-US,en;q=0.9","67c97feed736e0aa1f2a97b2","686d226cabeef709c732f8e1","686e39a28bd65ffc454f6dba","67c97feed736e0aa1f2a97b2","2025-07-09T10:32:23.183Z","","","","","","StressQ","","","","","","","","","","","","","","","","","","","","","","","","","","","","","","","","","","","","","","50",""
"10724","","<div style=""width:500px;"">
  <p>What best describes how you currently feel?</p>
  </div>","74","html-slider-response","74","2093695","0.0-10.0-4.6","245","1","2025-07-09 09:57:23","7701e855f2ef39aa3fd6c71abdc6918a","197.185.151.7","Mozilla/5.0 (Windows NT 10.0; Win64; x64) AppleWebKit/537.36 (KHTML, like Gecko) Chrome/138.0.0.0 Safari/537.36","WebKit","Chrome","138.0.0.0","Windows","10.0","https://app.prolific.com/","en-US,en;q=0.9","67c97feed736e0aa1f2a97b2","686d226cabeef709c732f8e1","686e39a28bd65ffc454f6dba","67c97feed736e0aa1f2a97b2","2025-07-09T10:32:33.912Z","","","","","","MotivationQ","","","","","","","","","","","","","","","","","","","","","","","","","","","","","","","","","","","","","","50",""
"","","","","ctl-task-cpt","75","2150906","0.0-10.0-0.7","245","1","2025-07-09 09:57:23","7701e855f2ef39aa3fd6c71abdc6918a","197.185.151.7","Mozilla/5.0 (Windows NT 10.0; Win64; x64) AppleWebKit/537.36 (KHTML, like Gecko) Chrome/138.0.0.0 Safari/537.36","WebKit","Chrome","138.0.0.0","Windows","10.0","https://app.prolific.com/","en-US,en;q=0.9","67c97feed736e0aa1f2a97b2","686d226cabeef709c732f8e1","686e39a28bd65ffc454f6dba","67c97feed736e0aa1f2a97b2","2025-07-09T10:33:31.122Z","","","","","","","","","","","","","","","","win-only","1","g1:NE,g2:SW","0.3","8","0","2112313.8","4011.1","9021.6","54164.8","1","4","8","6","2","-8","-9","0","0","0","1934.5","3000","-1365","[""down"",""left""]","{""num_key_presses"":11,""num_perfect"":3,""num_errors"":1,""num_randdir"":7,""num_randdir_good_moves"":2,""num_whilered"":0,""num_whileblue"":0,""num_blue"":2,""num_good_moves"":5}","[299.22232142857143,295.12857142857143,2.1,299.22232142857143,295.12857142857143,100.8,299.22232142857143,295.12857142857143,202.3,299.22232142857143,295.12857142857143,313.3,299.22232142857143,295.12857142857143,421.4,299.22232142857143,295.12857142857143,530.7,299.22232142857143,295.12857142857143,634,299.22232142857143,295.12857142857143,739.8,297.22232142857143,296.12857142857143,850.2,284.22232142857143,319.12857142857143,960.2,231.22232142857143,386.12857142857143,1072.9,166.22232142857143,459.12857142857143,1186.5,125.22232142857143,490.12857142857143,1289.8,98.22232142857143,511.12857142857143,1408.4,91.22232142857143,516.1285714285714,1511,79.22232142857143,523.1285714285714,1617.3,70.22232142857143,530.1285714285714,1727.9,70.22232142857143,530.1285714285714,1833.8,70.22232142857143,530.1285714285714,1955.1,70.22232142857143,531.1285714285714,2060,70.22232142857143,531.1285714285714,2173.6,70.22232142857143,531.1285714285714,2280.2,69.22232142857143,529.1285714285714,2388,69.22232142857143,523.1285714285714,2508.3,70.22232142857143,519.1285714285714,2620.4,74.22232142857143,515.1285714285714,2726.5,98.22232142857143,513.1285714285714,2829.2,148.22232142857143,513.1285714285714,2935.4,209.22232142857143,520.1285714285714,3070.5,355.22232142857143,544.1285714285714,3171.8,379.22232142857143,550.1285714285714,3272.8,397.22232142857143,538.1285714285714,3389.4,397.22232142857143,538.1285714285714,3494,397.22232142857143,538.1285714285714,3596.6,397.22232142857143,538.1285714285714,3723.9,397.22232142857143,538.1285714285714,3845.8,397.22232142857143,538.1285714285714,4000,397.22232142857143,538.1285714285714,4105.1,397.22232142857143,538.1285714285714,4222.2,397.22232142857143,538.1285714285714,4332.2,397.22232142857143,538.1285714285714,4435.1,397.22232142857143,538.1285714285714,4537.7,397.22232142857143,538.1285714285714,4677.5,397.22232142857143,538.1285714285714,4783.8,397.22232142857143,538.1285714285714,4891.4,397.22232142857143,538.1285714285714,4996.3]","[1533.8,1533.8,1000,0,533.8,""smooth"",""down"",""down"",""good_move"",4222.3,2687.6,2051.1,1534.7,636.5,""smooth"",""down"",""down"",""good_move"",12188.8,7964.6,3222.9,8288.5,677.4,""oops"",""left"",""right"",""bad_move"",16612.9,4423.2,2374.6,12189.7,2048.6,""oops"",""down"",""up"",""bad_move"",24273.6,7659.7,2012.4,21347.4,913.8,""oops"",""left"",""left"",""good_move"",27415.1,3140.6,2265.5,24274.5,875.1,""oops"",""left"",""left"",""good_move"",30621.4,3205.4,2692.4,27416,513,""oops"",""left"",""up"",""bad_move"",32037.7,1415.3,1812.7,30622.4,-397.4,""error"",""-"",""-"",""no_move"",36455,4416.6,2878.9,33046.3,529.8,""smooth"",""down"",""down"",""good_move"",40038.9,3583,2970.5,36455.9,612.5,""oops"",""down"",""right"",""bad_move"",42775,2735.1,1987.4,40039.9,747.7,""oops"",""down"",""up"",""bad_move""]","","",""
"3755","","<div style=""width:500px;"">
  <p>What determined the result of this run?</p>
  </div>","92","html-slider-response","76","2154663","0.0-10.0-1.7","245","1","2025-07-09 09:57:23","7701e855f2ef39aa3fd6c71abdc6918a","197.185.151.7","Mozilla/5.0 (Windows NT 10.0; Win64; x64) AppleWebKit/537.36 (KHTML, like Gecko) Chrome/138.0.0.0 Safari/537.36","WebKit","Chrome","138.0.0.0","Windows","10.0","https://app.prolific.com/","en-US,en;q=0.9","67c97feed736e0aa1f2a97b2","686d226cabeef709c732f8e1","686e39a28bd65ffc454f6dba","67c97feed736e0aa1f2a97b2","2025-07-09T10:33:34.879Z","","","","","","AttribQ","","","","","","","","","","","","","","","","","","","","","","","","","","","","","","","","","","","","","","50",""
"4466","","<div style=""width:500px;"">
  <p>How much control did you have over the ball?</p>
  </div>","94","html-slider-response","77","2159135","0.0-10.0-2.7","245","1","2025-07-09 09:57:23","7701e855f2ef39aa3fd6c71abdc6918a","197.185.151.7","Mozilla/5.0 (Windows NT 10.0; Win64; x64) AppleWebKit/537.36 (KHTML, like Gecko) Chrome/138.0.0.0 Safari/537.36","WebKit","Chrome","138.0.0.0","Windows","10.0","https://app.prolific.com/","en-US,en;q=0.9","67c97feed736e0aa1f2a97b2","686d226cabeef709c732f8e1","686e39a28bd65ffc454f6dba","67c97feed736e0aa1f2a97b2","2025-07-09T10:33:39.352Z","","","","","","ControlQ","","","","","","","","","","","","","","","","","","","","","","","","","","","","","","","","","","","","","","50",""
"5959","","<div style=""width:500px;"">
  <p>How would you describe your current emotional state?</p>
  </div>","90","html-slider-response","78","2165098","0.0-10.0-3.7","245","1","2025-07-09 09:57:23","7701e855f2ef39aa3fd6c71abdc6918a","197.185.151.7","Mozilla/5.0 (Windows NT 10.0; Win64; x64) AppleWebKit/537.36 (KHTML, like Gecko) Chrome/138.0.0.0 Safari/537.36","WebKit","Chrome","138.0.0.0","Windows","10.0","https://app.prolific.com/","en-US,en;q=0.9","67c97feed736e0aa1f2a97b2","686d226cabeef709c732f8e1","686e39a28bd65ffc454f6dba","67c97feed736e0aa1f2a97b2","2025-07-09T10:33:45.314Z","","","","","","StressQ","","","","","","","","","","","","","","","","","","","","","","","","","","","","","","","","","","","","","","50",""
"6705","","<div style=""width:500px;"">
  <p>What best describes how you currently feel?</p>
  </div>","80","html-slider-response","79","2171807","0.0-10.0-4.7","245","1","2025-07-09 09:57:23","7701e855f2ef39aa3fd6c71abdc6918a","197.185.151.7","Mozilla/5.0 (Windows NT 10.0; Win64; x64) AppleWebKit/537.36 (KHTML, like Gecko) Chrome/138.0.0.0 Safari/537.36","WebKit","Chrome","138.0.0.0","Windows","10.0","https://app.prolific.com/","en-US,en;q=0.9","67c97feed736e0aa1f2a97b2","686d226cabeef709c732f8e1","686e39a28bd65ffc454f6dba","67c97feed736e0aa1f2a97b2","2025-07-09T10:33:52.023Z","","","","","","MotivationQ","","","","","","","","","","","","","","","","","","","","","","","","","","","","","","","","","","","","","","50",""
"","","","","ctl-task-cpt","80","2282681","0.0-10.0-0.8","245","1","2025-07-09 09:57:23","7701e855f2ef39aa3fd6c71abdc6918a","197.185.151.7","Mozilla/5.0 (Windows NT 10.0; Win64; x64) AppleWebKit/537.36 (KHTML, like Gecko) Chrome/138.0.0.0 Safari/537.36","WebKit","Chrome","138.0.0.0","Windows","10.0","https://app.prolific.com/","en-US,en;q=0.9","67c97feed736e0aa1f2a97b2","686d226cabeef709c732f8e1","686e39a28bd65ffc454f6dba","67c97feed736e0aa1f2a97b2","2025-07-09T10:35:42.898Z","","","","","","","","","","","","","","","","win-only","1","g1:NE,g2:SW","0.2","9","0","2190454.4","4813.2","9828.5","107821.3","1","4","4","6","2","-4","-6","0","0","0","4565.9","3000","-260","[""down"",""left""]","{""num_key_presses"":20,""num_perfect"":4,""num_errors"":2,""num_randdir"":14,""num_randdir_good_moves"":5,""num_whilered"":0,""num_whileblue"":0,""num_blue"":6,""num_good_moves"":9}","[293.22232142857143,294.12857142857143,0.8,293.22232142857143,294.12857142857143,125,293.22232142857143,294.12857142857143,226.4,294.22232142857143,294.12857142857143,357.4,294.22232142857143,294.12857142857143,458,294.22232142857143,294.12857142857143,559.5,292.22232142857143,314.12857142857143,670.1,288.22232142857143,333.12857142857143,780.2,287.22232142857143,334.12857142857143,881.2,287.22232142857143,334.12857142857143,1007.6,326.22232142857143,309.12857142857143,1111.9,387.22232142857143,270.12857142857143,1226.1,418.22232142857143,229.12857142857143,1337.6,428.22232142857143,217.12857142857143,1439.3,428.22232142857143,217.12857142857143,1539.7,349.22232142857143,304.12857142857143,1650.2,292.22232142857143,365.12857142857143,1762.5,224.22232142857143,427.12857142857143,1878.8,182.22232142857143,453.12857142857143,1990.9,190.22232142857143,450.12857142857143,2100.6,290.22232142857143,405.12857142857143,2211.1,488.22232142857143,270.12857142857143,2322.5,509.22232142857143,233.12857142857143,2433.3,534.2223214285714,176.12857142857143,2550,536.2223214285714,141.12857142857143,2678.5,536.2223214285714,115.12857142857143,2793,538.2223214285714,97.12857142857143,2906.7,544.2223214285714,81.12857142857143,3032.5,544.2223214285714,71.12857142857143,3157.8,544.2223214285714,70.12857142857143,3267.5,544.2223214285714,70.12857142857143,3367.6,544.2223214285714,70.12857142857143,3468.8,544.2223214285714,70.12857142857143,3598.8,544.2223214285714,68.12857142857143,3699,460.22232142857143,134.12857142857143,3814.2,219.22232142857143,352.12857142857143,3931.5,167.22232142857143,442.12857142857143,4049.1,122.22232142857143,497.12857142857143,4177.5,70.22232142857143,532.1285714285714,4284,67.22232142857143,535.1285714285714,4389.9,64.22232142857143,536.1285714285714,4492.7,63.222321428571426,536.1285714285714,4606.6,63.222321428571426,536.1285714285714,4710,62.222321428571426,534.1285714285714,4810,60.222321428571426,533.1285714285714,4910.2]","[4783.4,4783.4,2116.6,2044.7,622.1,""smooth"",""down"",""down"",""good_move"",8096.1,3312.1,2628,4784.1,684.1,""smooth"",""down"",""down"",""good_move"",11165.5,3068.7,2299.9,8096.9,768.7,""oops"",""down"",""right"",""bad_move"",14851.4,3684.9,3074.7,11166.5,610.2,""oops"",""left"",""left"",""good_move"",18044.2,3178.4,2719.9,14865.8,458.5,""oops"",""left"",""right"",""bad_move"",21281.7,3236.6,2215.2,18045.1,1021.4,""oops"",""down"",""left"",""good_move"",25154.7,3871.7,2799.1,21283.1,1072.5,""oops"",""down"",""left"",""good_move"",28846.4,3690.6,2420.9,25155.8,1269.7,""oops"",""left"",""right"",""bad_move"",32520.3,3662.1,3115.3,28858.2,546.8,""oops"",""down"",""up"",""bad_move"",38283.7,5761.5,2386.3,32522.2,3375.2,""oops"",""left"",""down"",""good_move"",41683.9,3397.9,2784,38286,613.9,""smooth"",""down"",""down"",""good_move"",45106.5,3420.2,2706.6,41686.4,713.5,""smooth"",""left"",""left"",""good_move"",49304.8,4197.5,3373.7,45107.3,823.8,""oops"",""left"",""up"",""bad_move"",54270.1,4964.5,1992.9,53427.7,-1150.5,""error"",""-"",""-"",""no_move"",71943.2,17668,2501.6,68811.1,630.5,""oops"",""left"",""down"",""good_move"",75371.8,3427.7,2861.2,71944.1,566.5,""oops"",""left"",""right"",""bad_move"",77551.1,2178.2,2662.1,75373,-484,""error"",""-"",""-"",""no_move"",81109,3557.3,1776.2,78581.7,751.1,""oops"",""right"",""up"",""bad_move"",87530.3,6420.5,3478.4,81109.8,2942.1,""oops"",""right"",""right"",""bad_move"",94437,6906.2,2635.9,87530.9,4270.2,""oops"",""right"",""right"",""bad_move""]","","",""
"6618","","<div style=""width:500px;"">
  <p>What determined the result of this run?</p>
  </div>","0","html-slider-response","81","2289306","0.0-10.0-1.8","245","1","2025-07-09 09:57:23","7701e855f2ef39aa3fd6c71abdc6918a","197.185.151.7","Mozilla/5.0 (Windows NT 10.0; Win64; x64) AppleWebKit/537.36 (KHTML, like Gecko) Chrome/138.0.0.0 Safari/537.36","WebKit","Chrome","138.0.0.0","Windows","10.0","https://app.prolific.com/","en-US,en;q=0.9","67c97feed736e0aa1f2a97b2","686d226cabeef709c732f8e1","686e39a28bd65ffc454f6dba","67c97feed736e0aa1f2a97b2","2025-07-09T10:35:49.522Z","","","","","","AttribQ","","","","","","","","","","","","","","","","","","","","","","","","","","","","","","","","","","","","","","50",""
"7119","","<div style=""width:500px;"">
  <p>How much control did you have over the ball?</p>
  </div>","0","html-slider-response","82","2296429","0.0-10.0-2.8","245","1","2025-07-09 09:57:23","7701e855f2ef39aa3fd6c71abdc6918a","197.185.151.7","Mozilla/5.0 (Windows NT 10.0; Win64; x64) AppleWebKit/537.36 (KHTML, like Gecko) Chrome/138.0.0.0 Safari/537.36","WebKit","Chrome","138.0.0.0","Windows","10.0","https://app.prolific.com/","en-US,en;q=0.9","67c97feed736e0aa1f2a97b2","686d226cabeef709c732f8e1","686e39a28bd65ffc454f6dba","67c97feed736e0aa1f2a97b2","2025-07-09T10:35:56.645Z","","","","","","ControlQ","","","","","","","","","","","","","","","","","","","","","","","","","","","","","","","","","","","","","","50",""
"13761","","<div style=""width:500px;"">
  <p>How would you describe your current emotional state?</p>
  </div>","99","html-slider-response","83","2310194","0.0-10.0-3.8","245","1","2025-07-09 09:57:23","7701e855f2ef39aa3fd6c71abdc6918a","197.185.151.7","Mozilla/5.0 (Windows NT 10.0; Win64; x64) AppleWebKit/537.36 (KHTML, like Gecko) Chrome/138.0.0.0 Safari/537.36","WebKit","Chrome","138.0.0.0","Windows","10.0","https://app.prolific.com/","en-US,en;q=0.9","67c97feed736e0aa1f2a97b2","686d226cabeef709c732f8e1","686e39a28bd65ffc454f6dba","67c97feed736e0aa1f2a97b2","2025-07-09T10:36:10.410Z","","","","","","StressQ","","","","","","","","","","","","","","","","","","","","","","","","","","","","","","","","","","","","","","50",""
"10850","","<div style=""width:500px;"">
  <p>What best describes how you currently feel?</p>
  </div>","9","html-slider-response","84","2321048","0.0-10.0-4.8","245","1","2025-07-09 09:57:23","7701e855f2ef39aa3fd6c71abdc6918a","197.185.151.7","Mozilla/5.0 (Windows NT 10.0; Win64; x64) AppleWebKit/537.36 (KHTML, like Gecko) Chrome/138.0.0.0 Safari/537.36","WebKit","Chrome","138.0.0.0","Windows","10.0","https://app.prolific.com/","en-US,en;q=0.9","67c97feed736e0aa1f2a97b2","686d226cabeef709c732f8e1","686e39a28bd65ffc454f6dba","67c97feed736e0aa1f2a97b2","2025-07-09T10:36:21.265Z","","","","","","MotivationQ","","","","","","","","","","","","","","","","","","","","","","","","","","","","","","","","","","","","","","50",""
