"rt","response_timestamp","stimulus","response","trial_type","trial_index","time_elapsed","internal_node_id","run_id","condition","recorded_at","source_code_version","ip","user_agent","device","browser","browser_version","platform","platform_version","referer","accept_language","PROLIFIC_PID","STUDY_ID","SESSION_ID","prolific_id","realtime","view_history","question_order","consent","success","question_id","eventType","responses","item_order","radio_event_ids","radio_event_times","key_event_times","mouse_event_times","straightlining","zigzagging","honeypot","which_type","canvas_config","goals_layout","control_level","trial_number","tutorial_trial_number","trial_start_time","phase1_start_time","phase2_start_time","phase3_start_time","goal_1_value","goal_1_distance","goal_2_value","goal_2_distance","goal_selected","outcome","outcome_total","participant_final_score","participant_initial_score","participant_final_score_prop","goal_choice_rt","allocated_time","allocated_time_remaining","goal_direction","counts","mouse_movements","key_presses","correct","slider_start","sub_question"
"18022","1752052249846","<p style='font-size:40px;line-height:1.25'><strong>Welcome to the experiment!</strong></p><p style='font-size:1.1em;line-height:1.25'>Thank you for your interest in our experiment! Before you begin, it is important that we obtain your informed consent to participate in the study.</p><p style='font-size:1.1em;line-height:1.25'>On the next screen will be an <strong>information sheet</strong> for you to read. To participate in the study we need you to read this information sheet and the following consent form carefully. If you agree with all the statements, please click the <strong>I agree</strong> button.</p><p style='font-size:1.1em;line-height:1.25'>Press <strong>Next</strong> to read the information sheet.</p>","0","custom-html-button-response","0","18025","0.0-0.0","158","1","2025-07-09 09:10:29","7701e855f2ef39aa3fd6c71abdc6918a","41.121.11.66","Mozilla/5.0 (Windows NT 10.0; Win64; x64) AppleWebKit/537.36 (KHTML, like Gecko) Chrome/137.0.0.0 Safari/537.36","WebKit","Chrome","137.0.0.0","Windows","10.0","https://app.prolific.com/","en-US,en;q=0.9","6697c4e76e01a2e71f34cd33","686d226cabeef709c732f8e1","686e31043c6c5a8d23f31894","6697c4e76e01a2e71f34cd33","2025-07-09T09:10:49.848Z","","","","","","","","","","","","","","","","","","","","","","","","","","","","","","","","","","","","","","","","","","","","",""
"122055","","","","instructions","1","140082","0.0-1.0","158","1","2025-07-09 09:10:29","7701e855f2ef39aa3fd6c71abdc6918a","41.121.11.66","Mozilla/5.0 (Windows NT 10.0; Win64; x64) AppleWebKit/537.36 (KHTML, like Gecko) Chrome/137.0.0.0 Safari/537.36","WebKit","Chrome","137.0.0.0","Windows","10.0","https://app.prolific.com/","en-US,en;q=0.9","6697c4e76e01a2e71f34cd33","686d226cabeef709c732f8e1","686e31043c6c5a8d23f31894","6697c4e76e01a2e71f34cd33","","[{""page_index"":0,""viewing_time"":83577},{""page_index"":1,""viewing_time"":38477}]","","","","","","","","","","","","","","","","","","","","","","","","","","","","","","","","","","","","","","","","","","","",""
"20858","","","{""Q0"":"""",""Q1"":"""",""Q2"":"""",""Q3"":"""",""Q4"":"""",""Q5"":"""",""Q6"":""I agree""}","survey-multi-choice","2","160943","0.0-2.0","158","1","2025-07-09 09:10:29","7701e855f2ef39aa3fd6c71abdc6918a","41.121.11.66","Mozilla/5.0 (Windows NT 10.0; Win64; x64) AppleWebKit/537.36 (KHTML, like Gecko) Chrome/137.0.0.0 Safari/537.36","WebKit","Chrome","137.0.0.0","Windows","10.0","https://app.prolific.com/","en-US,en;q=0.9","6697c4e76e01a2e71f34cd33","686d226cabeef709c732f8e1","686e31043c6c5a8d23f31894","6697c4e76e01a2e71f34cd33","","","[0,1,2,3,4,5,6]","true","","","","","","","","","","","","","","","","","","","","","","","","","","","","","","","","","","","","","","","","","",""
"15409","","","","fullscreen","3","177387","0.0-4.0","158","1","2025-07-09 09:10:29","7701e855f2ef39aa3fd6c71abdc6918a","41.121.11.66","Mozilla/5.0 (Windows NT 10.0; Win64; x64) AppleWebKit/537.36 (KHTML, like Gecko) Chrome/137.0.0.0 Safari/537.36","WebKit","Chrome","137.0.0.0","Windows","10.0","https://app.prolific.com/","en-US,en;q=0.9","6697c4e76e01a2e71f34cd33","686d226cabeef709c732f8e1","686e31043c6c5a8d23f31894","6697c4e76e01a2e71f34cd33","","","","","true","","","","","","","","","","","","","","","","","","","","","","","","","","","","","","","","","","","","","","","","",""
"9180","1752052418391"," <p style='font-size:1.1em;line-height:1.25'>Thank you for completing the consent form and closing all other tabs.</p><p style='font-size:1.1em;line-height:1.25'>We will now invite you to fill in some demographic information and questionnaires, before starting the game.<br>This will take about 5 minutes.<br></p><p style='font-size:1.1em;line-height:1.25'>Press the <strong>Next</strong> button to continue.</p>","0","custom-html-button-response","4","186569","0.0-5.0","158","1","2025-07-09 09:10:29","7701e855f2ef39aa3fd6c71abdc6918a","41.121.11.66","Mozilla/5.0 (Windows NT 10.0; Win64; x64) AppleWebKit/537.36 (KHTML, like Gecko) Chrome/137.0.0.0 Safari/537.36","WebKit","Chrome","137.0.0.0","Windows","10.0","https://app.prolific.com/","en-US,en;q=0.9","6697c4e76e01a2e71f34cd33","686d226cabeef709c732f8e1","686e31043c6c5a8d23f31894","6697c4e76e01a2e71f34cd33","2025-07-09T09:13:38.392Z","","","","","","","","","","","","","","","","","","","","","","","","","","","","","","","","","","","","","","","","","","","","",""
"14548","","","{""age"":""23""}","survey-text","5","201140","0.0-6.0-0.0","158","1","2025-07-09 09:10:29","7701e855f2ef39aa3fd6c71abdc6918a","41.121.11.66","Mozilla/5.0 (Windows NT 10.0; Win64; x64) AppleWebKit/537.36 (KHTML, like Gecko) Chrome/137.0.0.0 Safari/537.36","WebKit","Chrome","137.0.0.0","Windows","10.0","https://app.prolific.com/","en-US,en;q=0.9","6697c4e76e01a2e71f34cd33","686d226cabeef709c732f8e1","686e31043c6c5a8d23f31894","6697c4e76e01a2e71f34cd33","","","","","","0","demographics","","","","","","","","","","","","","","","","","","","","","","","","","","","","","","","","","","","","","","",""
"7740","","","{""gender_identity"":""female/woman""}","survey-multi-choice","6","208881","0.0-6.0-1.0","158","1","2025-07-09 09:10:29","7701e855f2ef39aa3fd6c71abdc6918a","41.121.11.66","Mozilla/5.0 (Windows NT 10.0; Win64; x64) AppleWebKit/537.36 (KHTML, like Gecko) Chrome/137.0.0.0 Safari/537.36","WebKit","Chrome","137.0.0.0","Windows","10.0","https://app.prolific.com/","en-US,en;q=0.9","6697c4e76e01a2e71f34cd33","686d226cabeef709c732f8e1","686e31043c6c5a8d23f31894","6697c4e76e01a2e71f34cd33","","","[0]","","","1","demographics","","","","","","","","","","","","","","","","","","","","","","","","","","","","","","","","","","","","","","",""
"3002","","","{""assigned_sex"":""female""}","survey-multi-choice","7","211884","0.0-6.0-2.0","158","1","2025-07-09 09:10:29","7701e855f2ef39aa3fd6c71abdc6918a","41.121.11.66","Mozilla/5.0 (Windows NT 10.0; Win64; x64) AppleWebKit/537.36 (KHTML, like Gecko) Chrome/137.0.0.0 Safari/537.36","WebKit","Chrome","137.0.0.0","Windows","10.0","https://app.prolific.com/","en-US,en;q=0.9","6697c4e76e01a2e71f34cd33","686d226cabeef709c732f8e1","686e31043c6c5a8d23f31894","6697c4e76e01a2e71f34cd33","","","[0]","","","2","demographics","","","","","","","","","","","","","","","","","","","","","","","","","","","","","","","","","","","","","","",""
"4533","","","{""menstrual_cycle"":""Yes""}","survey-multi-choice","8","216418","0.0-6.0-3.0","158","1","2025-07-09 09:10:29","7701e855f2ef39aa3fd6c71abdc6918a","41.121.11.66","Mozilla/5.0 (Windows NT 10.0; Win64; x64) AppleWebKit/537.36 (KHTML, like Gecko) Chrome/137.0.0.0 Safari/537.36","WebKit","Chrome","137.0.0.0","Windows","10.0","https://app.prolific.com/","en-US,en;q=0.9","6697c4e76e01a2e71f34cd33","686d226cabeef709c732f8e1","686e31043c6c5a8d23f31894","6697c4e76e01a2e71f34cd33","","","[0]","","","4","demographics","","","","","","","","","","","","","","","","","","","","","","","","","","","","","","","","","","","","","","",""
"6564","","","{""education"":""Master's Degree (e.g., MSc)""}","survey-multi-choice","9","222984","0.0-6.0-4.0","158","1","2025-07-09 09:10:29","7701e855f2ef39aa3fd6c71abdc6918a","41.121.11.66","Mozilla/5.0 (Windows NT 10.0; Win64; x64) AppleWebKit/537.36 (KHTML, like Gecko) Chrome/137.0.0.0 Safari/537.36","WebKit","Chrome","137.0.0.0","Windows","10.0","https://app.prolific.com/","en-US,en;q=0.9","6697c4e76e01a2e71f34cd33","686d226cabeef709c732f8e1","686e31043c6c5a8d23f31894","6697c4e76e01a2e71f34cd33","","","[0]","","","5","demographics","","","","","","","","","","","","","","","","","","","","","","","","","","","","","","","","","","","","","","",""
"5361","","","{""education"":""Doctoral Degree (e.g., PhD)""}","survey-multi-choice","10","228348","0.0-6.0-5.0","158","1","2025-07-09 09:10:29","7701e855f2ef39aa3fd6c71abdc6918a","41.121.11.66","Mozilla/5.0 (Windows NT 10.0; Win64; x64) AppleWebKit/537.36 (KHTML, like Gecko) Chrome/137.0.0.0 Safari/537.36","WebKit","Chrome","137.0.0.0","Windows","10.0","https://app.prolific.com/","en-US,en;q=0.9","6697c4e76e01a2e71f34cd33","686d226cabeef709c732f8e1","686e31043c6c5a8d23f31894","6697c4e76e01a2e71f34cd33","2025-07-09T09:14:20.171Z","","[0]","","","6","demographics","","","","","","","","","","","","","","","","","","","","","","","","","","","","","","","","","","","","","","",""
"26604","","","{""mental_health_condition"":""none"",""mental_health_treatment"":""none"",""psychiatric_medication"":""none""}","survey-text","11","254955","0.0-7.0-0.0","158","1","2025-07-09 09:10:29","7701e855f2ef39aa3fd6c71abdc6918a","41.121.11.66","Mozilla/5.0 (Windows NT 10.0; Win64; x64) AppleWebKit/537.36 (KHTML, like Gecko) Chrome/137.0.0.0 Safari/537.36","WebKit","Chrome","137.0.0.0","Windows","10.0","https://app.prolific.com/","en-US,en;q=0.9","6697c4e76e01a2e71f34cd33","686d226cabeef709c732f8e1","686e31043c6c5a8d23f31894","6697c4e76e01a2e71f34cd33","2025-07-09T09:14:46.778Z","","","","","1","mental_health","","","","","","","","","","","","","","","","","","","","","","","","","","","","","","","","","","","","","","",""
"8108","","","{""depression_history"":[""No""]}","survey-multi-select","12","263084","0.0-7.0-1.0","158","1","2025-07-09 09:10:29","7701e855f2ef39aa3fd6c71abdc6918a","41.121.11.66","Mozilla/5.0 (Windows NT 10.0; Win64; x64) AppleWebKit/537.36 (KHTML, like Gecko) Chrome/137.0.0.0 Safari/537.36","WebKit","Chrome","137.0.0.0","Windows","10.0","https://app.prolific.com/","en-US,en;q=0.9","6697c4e76e01a2e71f34cd33","686d226cabeef709c732f8e1","686e31043c6c5a8d23f31894","6697c4e76e01a2e71f34cd33","","","[0]","","","","mental_health","","","","","","","","","","","","","","","","","","","","","","","","","","","","","","","","","","","","","","",""
"66528.30000019073","","","","survey-template","13","329635","0.0-7.0-3.0","158","1","2025-07-09 09:10:29","7701e855f2ef39aa3fd6c71abdc6918a","41.121.11.66","Mozilla/5.0 (Windows NT 10.0; Win64; x64) AppleWebKit/537.36 (KHTML, like Gecko) Chrome/137.0.0.0 Safari/537.36","WebKit","Chrome","137.0.0.0","Windows","10.0","https://app.prolific.com/","en-US,en;q=0.9","6697c4e76e01a2e71f34cd33","686d226cabeef709c732f8e1","686e31043c6c5a8d23f31894","6697c4e76e01a2e71f34cd33","2025-07-09T09:16:01.459Z","","","","","","ius","{""Q01"":""4"",""Q02"":""4"",""Q03"":""4"",""Q04"":""4"",""Q05"":""3"",""Q06"":""3"",""Q07"":""4"",""Q08"":""0"",""Q09"":""4"",""Q10"":""3"",""Q11"":""3"",""Q12"":""4"",""Q13"":""3""}","[0,1,2,3,4,5,6,7,8,9,10,11,12]","[""Q01"",""Q02"",""Q03"",""Q04"",""Q05"",""Q06"",""Q07"",""Q08"",""Q09"",""Q10"",""Q11"",""Q12"",""Q13""]","[8188,10339,13215.600000143051,15892.300000190735,18670.300000190735,27471.5,32809.200000047684,35326.5,38900.800000190735,55145.200000047684,58200.5,62998.10000014305,65342.10000014305]","[]","[8188,10339,13215.600000143051,15892.300000190735,18670.300000190735,25791.400000095367,27471.5,29907.700000047684,32809.200000047684,35326.5,38900.800000190735,52823.5,55145.200000047684,58200.5,62998.10000014305,65342.10000014305,66525.30000019073]","0.5384615384615384","0.5833333333333334","0","","","","","","","","","","","","","","","","","","","","","","","","","","","","","",""
"3325","1752052564785","<p style='font-size:1.1em;line-height:1.25'>In the following, we will ask you a few questions relating to your experiences over the past month.<br></p><p style='font-size:1.1em;line-height:1.25'>Press the <strong>Next</strong> button to continue.</p>","0","custom-html-button-response","14","332962","0.0-7.0-4.0","158","1","2025-07-09 09:10:29","7701e855f2ef39aa3fd6c71abdc6918a","41.121.11.66","Mozilla/5.0 (Windows NT 10.0; Win64; x64) AppleWebKit/537.36 (KHTML, like Gecko) Chrome/137.0.0.0 Safari/537.36","WebKit","Chrome","137.0.0.0","Windows","10.0","https://app.prolific.com/","en-US,en;q=0.9","6697c4e76e01a2e71f34cd33","686d226cabeef709c732f8e1","686e31043c6c5a8d23f31894","6697c4e76e01a2e71f34cd33","2025-07-09T09:16:04.785Z","","","","","","","","","","","","","","","","","","","","","","","","","","","","","","","","","","","","","","","","","","","","",""
"75684.70000004768","","","","survey-template","15","408649","0.0-7.0-5.0","158","1","2025-07-09 09:10:29","7701e855f2ef39aa3fd6c71abdc6918a","41.121.11.66","Mozilla/5.0 (Windows NT 10.0; Win64; x64) AppleWebKit/537.36 (KHTML, like Gecko) Chrome/137.0.0.0 Safari/537.36","WebKit","Chrome","137.0.0.0","Windows","10.0","https://app.prolific.com/","en-US,en;q=0.9","6697c4e76e01a2e71f34cd33","686d226cabeef709c732f8e1","686e31043c6c5a8d23f31894","6697c4e76e01a2e71f34cd33","2025-07-09T09:17:20.472Z","","","","","","pss","{""Q01"":""3"",""Q02"":""2"",""Q03"":""2"",""Q04"":""0"",""Q05"":""0"",""Q06"":""1"",""Q07"":""0"",""Q08"":""1"",""Q09"":""3"",""Q10"":""2""}","[0,1,2,3,4,5,6,7,8,9]","[""Q01"",""Q02"",""Q03"",""Q04"",""Q05"",""Q06"",""Q07"",""Q08"",""Q09"",""Q10""]","[42699.799999952316,45754.5,47664.89999985695,50262.59999990463,55749.89999985695,60697.799999952316,62451.799999952316,66122.89999985695,71781.59999990463,74511.5]","[]","[0,42699.799999952316,45754.5,47664.89999985695,50262.59999990463,53448.09999990463,55749.89999985695,57416.89999985695,59110.39999985695,60697.799999952316,62451.799999952316,66122.89999985695,71781.59999990463,74511.5,75681.79999995232]","0.3","0.3333333333333333","0","","","","","","","","","","","","","","","","","","","","","","","","","","","","","",""
"4058","1752052644531","<p style='font-size:1.1em;line-height:1.25'>Thank you for your answers! Now we will ask you a few more questions relating to your feelings in the last 24 hours.<br></p><p style='font-size:1.1em;line-height:1.25'>Press the <strong>Next</strong> button to continue.</p>","0","custom-html-button-response","16","412709","0.0-7.0-6.0","158","1","2025-07-09 09:10:29","7701e855f2ef39aa3fd6c71abdc6918a","41.121.11.66","Mozilla/5.0 (Windows NT 10.0; Win64; x64) AppleWebKit/537.36 (KHTML, like Gecko) Chrome/137.0.0.0 Safari/537.36","WebKit","Chrome","137.0.0.0","Windows","10.0","https://app.prolific.com/","en-US,en;q=0.9","6697c4e76e01a2e71f34cd33","686d226cabeef709c732f8e1","686e31043c6c5a8d23f31894","6697c4e76e01a2e71f34cd33","2025-07-09T09:17:24.532Z","","","","","","","","","","","","","","","","","","","","","","","","","","","","","","","","","","","","","","","","","","","","",""
"67132.40000009537","","","","survey-template","17","479845","0.0-7.0-7.0","158","1","2025-07-09 09:10:29","7701e855f2ef39aa3fd6c71abdc6918a","41.121.11.66","Mozilla/5.0 (Windows NT 10.0; Win64; x64) AppleWebKit/537.36 (KHTML, like Gecko) Chrome/137.0.0.0 Safari/537.36","WebKit","Chrome","137.0.0.0","Windows","10.0","https://app.prolific.com/","en-US,en;q=0.9","6697c4e76e01a2e71f34cd33","686d226cabeef709c732f8e1","686e31043c6c5a8d23f31894","6697c4e76e01a2e71f34cd33","2025-07-09T09:18:31.668Z","","","","","","drsp","{""Q01"":""0"",""Q02"":""1"",""Q03"":""0"",""Q04"":""0"",""Q05"":""1"",""Q06"":""4"",""Q07"":""0"",""Q08"":""1"",""Q09"":""3"",""Q10"":""0"",""Q11"":""1"",""Q12"":""3"",""Q13"":""3"",""Q14"":""1"",""Q15"":""0"",""Q16"":""1"",""Q17"":""0"",""Q18"":""2"",""Q19"":""1"",""Q20"":""1"",""Q21"":""2""}","[0,1,2,3,4,5,6,7,8,9,10,11,12,13,14,15,16,17,18,19,20]","[""Q01"",""Q02"",""Q03"",""Q04"",""Q05"",""Q06"",""Q07"",""Q08"",""Q09"",""Q10"",""Q11"",""Q12"",""Q13"",""Q14"",""Q15"",""Q16"",""Q17"",""Q18"",""Q19"",""Q20"",""Q21""]","[13162.400000095367,14844.400000095367,16256.5,17605.5,20741,22535.5,25024,26449.10000014305,28470.400000095367,34056.799999952316,35822.60000014305,37759.40000009537,43551.5,45279.200000047684,47152.299999952316,48953.90000009537,50696.200000047684,53015.10000014305,61883,64361,65941.40000009537]","[]","[0.10000014305114746,13162.400000095367,14844.400000095367,16256.5,17605.5,19266.5,20741,22535.5,25024,26449.10000014305,28470.400000095367,34056.799999952316,35822.60000014305,37759.40000009537,39496,40678.60000014305,42111,43551.5,45279.200000047684,47152.299999952316,48953.90000009537,50696.200000047684,53015.10000014305,61883,64361,65941.40000009537,67128.5]","0.38095238095238093","0.5","0","","","","","","","","","","","","","","","","","","","","","","","","","","","","","",""
"10549.399999856949","","","","survey-template","18","490397","0.0-7.0-8.0","158","1","2025-07-09 09:10:29","7701e855f2ef39aa3fd6c71abdc6918a","41.121.11.66","Mozilla/5.0 (Windows NT 10.0; Win64; x64) AppleWebKit/537.36 (KHTML, like Gecko) Chrome/137.0.0.0 Safari/537.36","WebKit","Chrome","137.0.0.0","Windows","10.0","https://app.prolific.com/","en-US,en;q=0.9","6697c4e76e01a2e71f34cd33","686d226cabeef709c732f8e1","686e31043c6c5a8d23f31894","6697c4e76e01a2e71f34cd33","2025-07-09T09:18:42.220Z","","","","","","stress","{""Q01"":""0"",""Q02"":""1"",""Q03"":""0""}","[0,1,2]","[""Q01"",""Q02"",""Q03""]","[2895.0999999046326,5321.5,8138.699999809265]","[]","[2895.0999999046326,5321.5,8138.699999809265,10548]","0.6666666666666666","0","0","","","","","","","","","","","","","","","","","","","","","","","","","","","","","",""
"94895","","","","instructions","19","585293","0.0-8.0-0.0","158","1","2025-07-09 09:10:29","7701e855f2ef39aa3fd6c71abdc6918a","41.121.11.66","Mozilla/5.0 (Windows NT 10.0; Win64; x64) AppleWebKit/537.36 (KHTML, like Gecko) Chrome/137.0.0.0 Safari/537.36","WebKit","Chrome","137.0.0.0","Windows","10.0","https://app.prolific.com/","en-US,en;q=0.9","6697c4e76e01a2e71f34cd33","686d226cabeef709c732f8e1","686e31043c6c5a8d23f31894","6697c4e76e01a2e71f34cd33","","[{""page_index"":0,""viewing_time"":20729},{""page_index"":1,""viewing_time"":14280},{""page_index"":2,""viewing_time"":18867},{""page_index"":3,""viewing_time"":41019}]","","","","","","","","","","","","","","","","","","","","","","","","","","","","","","","","","","","","","","","","","","","",""
"","","","","ctl-task-cpt","20","614806","0.0-8.0-1.0","158","1","2025-07-09 09:10:29","7701e855f2ef39aa3fd6c71abdc6918a","41.121.11.66","Mozilla/5.0 (Windows NT 10.0; Win64; x64) AppleWebKit/537.36 (KHTML, like Gecko) Chrome/137.0.0.0 Safari/537.36","WebKit","Chrome","137.0.0.0","Windows","10.0","https://app.prolific.com/","en-US,en;q=0.9","6697c4e76e01a2e71f34cd33","686d226cabeef709c732f8e1","686e31043c6c5a8d23f31894","6697c4e76e01a2e71f34cd33","","","","","","","","","","","","","","","","","win-only","1","g1:NE,g2:SW","1","0","1","588835.1","6504.4","10506.4","26502.6","2","4","4","6","1","2","2","2","0","0.015151515151515152","4001.8","4000","2010","[""up"",""right""]","{""num_key_presses"":6,""num_perfect"":6,""num_errors"":0,""num_randdir"":0,""num_randdir_good_moves"":0,""num_whilered"":0,""num_whileblue"":0,""num_blue"":0,""num_good_moves"":5}","[411.5714133126395,425.32142761775424,0.9,411.5714133126395,425.32142761775424,102.3,411.5714133126395,425.32142761775424,206.5,411.5714133126395,425.32142761775424,306.6,411.5714133126395,425.32142761775424,415.2,411.5714133126395,425.32142761775424,517,411.5714133126395,425.32142761775424,621.4,411.5714133126395,425.32142761775424,722.7,411.5714133126395,425.32142761775424,832.1,411.5714133126395,425.32142761775424,936.5,411.5714133126395,425.32142761775424,1036.9,411.5714133126395,425.32142761775424,1136.8,411.5714133126395,425.32142761775424,1237.4,411.5714133126395,425.32142761775424,1341.3,411.5714133126395,425.32142761775424,1441.4,411.5714133126395,425.32142761775424,1541.8,411.5714133126395,425.32142761775424,1649.8,411.5714133126395,425.32142761775424,1751.3,411.5714133126395,425.32142761775424,1853.1,411.5714133126395,425.32142761775424,1956.6,411.5714133126395,425.32142761775424,2056.7,411.5714133126395,425.32142761775424,2165.1,411.5714133126395,425.32142761775424,2267.7,411.5714133126395,425.32142761775424,2371.9,411.5714133126395,425.32142761775424,2482.2,411.5714133126395,425.32142761775424,2586.7,411.5714133126395,425.32142761775424,2686.8,411.5714133126395,425.32142761775424,2787.3,411.5714133126395,425.32142761775424,2891.1,411.5714133126395,425.32142761775424,2992.3,411.5714133126395,425.32142761775424,3092.3,411.5714133126395,425.32142761775424,3200.3,411.5714133126395,425.32142761775424,3301.7,411.5714133126395,425.32142761775424,3406.9,411.5714133126395,425.32142761775424,3506.9,411.5714133126395,425.32142761775424,3607,411.5714133126395,425.32142761775424,3713.9,411.5714133126395,425.32142761775424,3815.2,411.5714133126395,425.32142761775424,3916.8]","[1365.2,1365.2,1000,0,365.2,""smooth"",""left"",""left"",""bad_move"",4302.3,2936.3,2475.2,1366.1,461,""smooth"",""up"",""up"",""good_move"",7612.7,3309.8,2850.4,4303,459.3,""smooth"",""up"",""up"",""good_move"",10446.9,2833.7,2454.7,7613.2,379,""smooth"",""right"",""right"",""good_move"",13239.5,2791.6,2394.3,10447.9,397.3,""smooth"",""right"",""right"",""good_move"",15888.5,2648.7,2322.9,13239.9,325.7,""smooth"",""right"",""right"",""good_move""]","","",""
"8392","","","","instructions","21","623200","0.0-8.0-2.0","158","1","2025-07-09 09:10:29","7701e855f2ef39aa3fd6c71abdc6918a","41.121.11.66","Mozilla/5.0 (Windows NT 10.0; Win64; x64) AppleWebKit/537.36 (KHTML, like Gecko) Chrome/137.0.0.0 Safari/537.36","WebKit","Chrome","137.0.0.0","Windows","10.0","https://app.prolific.com/","en-US,en;q=0.9","6697c4e76e01a2e71f34cd33","686d226cabeef709c732f8e1","686e31043c6c5a8d23f31894","6697c4e76e01a2e71f34cd33","","[{""page_index"":0,""viewing_time"":8391}]","","","","","","","","","","","","","","","","","","","","","","","","","","","","","","","","","","","","","","","","","","","",""
"","","","","ctl-task-cpt","22","676107","0.0-8.0-3.0","158","1","2025-07-09 09:10:29","7701e855f2ef39aa3fd6c71abdc6918a","41.121.11.66","Mozilla/5.0 (Windows NT 10.0; Win64; x64) AppleWebKit/537.36 (KHTML, like Gecko) Chrome/137.0.0.0 Safari/537.36","WebKit","Chrome","137.0.0.0","Windows","10.0","https://app.prolific.com/","en-US,en;q=0.9","6697c4e76e01a2e71f34cd33","686d226cabeef709c732f8e1","686e31043c6c5a8d23f31894","6697c4e76e01a2e71f34cd33","","","","","","","","","","","","","","","","","win-only","1","g1:NE,g2:SW","0.35","0","3","626739.4","2032.4","6039.1","49898.7","2","4","8","6","1","-2","-2","0","0","0","4006.6","4000","-2500","[""up"",""right""]","{""num_key_presses"":13,""num_perfect"":5,""num_errors"":0,""num_randdir"":8,""num_randdir_good_moves"":2,""num_whilered"":0,""num_whileblue"":0,""num_blue"":2,""num_good_moves"":7}","[415.3214133126395,422.82142761775424,1.6,415.3214133126395,422.82142761775424,101,415.3214133126395,422.82142761775424,204.1,415.3214133126395,422.82142761775424,318.7,415.3214133126395,422.82142761775424,419.8,415.3214133126395,422.82142761775424,523.8,415.3214133126395,422.82142761775424,623.8,415.3214133126395,422.82142761775424,729.1,415.3214133126395,422.82142761775424,832.5,415.3214133126395,422.82142761775424,934,415.3214133126395,422.82142761775424,1034.3,415.3214133126395,422.82142761775424,1139,415.3214133126395,422.82142761775424,1239.7,415.3214133126395,422.82142761775424,1349.8,415.3214133126395,422.82142761775424,1449.9,415.3214133126395,422.82142761775424,1550,415.3214133126395,422.82142761775424,1650.2,415.3214133126395,422.82142761775424,1754.8,415.3214133126395,422.82142761775424,1861,415.3214133126395,422.82142761775424,1970.1,415.3214133126395,422.82142761775424,2073.8,415.3214133126395,422.82142761775424,2173.8,415.3214133126395,422.82142761775424,2274,415.3214133126395,422.82142761775424,2384.3,415.3214133126395,422.82142761775424,2484.4,415.3214133126395,422.82142761775424,2584.5,415.3214133126395,422.82142761775424,2684.6,415.3214133126395,422.82142761775424,2789.9,415.3214133126395,422.82142761775424,2900.1,415.3214133126395,422.82142761775424,3004,415.3214133126395,422.82142761775424,3110.5,415.3214133126395,422.82142761775424,3218.9,415.3214133126395,422.82142761775424,3323.7,415.3214133126395,422.82142761775424,3433.2,415.3214133126395,422.82142761775424,3533.5,415.3214133126395,422.82142761775424,3639,415.3214133126395,422.82142761775424,3744.9,415.3214133126395,422.82142761775424,3850.4,415.3214133126395,422.82142761775424,3953.5]","[1333.7,1333.7,1000,0,333.7,""oops"",""up"",""left"",""bad_move"",6976.7,5641.3,2404.6,4162.9,409.2,""smooth"",""up"",""up"",""good_move"",9792,2814.5,2396.3,6977.6,418.1,""smooth"",""up"",""up"",""good_move"",12408.6,2616,2271.4,9792.7,344.5,""smooth"",""right"",""right"",""good_move"",14500.2,2091,1668.4,12409.2,422.6,""oops"",""right"",""left"",""bad_move"",16875.5,2374.8,1957.4,14500.8,417.4,""smooth"",""right"",""right"",""good_move"",19413.8,2537.5,2161.8,16876.3,375.7,""oops"",""right"",""right"",""good_move"",21988,2573.6,2233.2,19414.5,340.3,""oops"",""right"",""left"",""bad_move"",24716.1,2726.8,2371.9,21989.3,354.9,""oops"",""right"",""left"",""bad_move"",31726.9,7010.1,3386.6,28075.2,265.2,""oops"",""right"",""down"",""bad_move"",34996.9,3269.5,2946.3,31727.4,323.2,""oops"",""right"",""up"",""good_move"",38395.6,3398.1,2880.8,34997.5,517.3,""smooth"",""right"",""right"",""good_move"",40958.6,2561.7,2220.6,38396.9,341.1,""oops"",""right"",""left"",""bad_move""]","","",""
"24393","","","","instructions","23","700502","0.0-8.0-4.0","158","1","2025-07-09 09:10:29","7701e855f2ef39aa3fd6c71abdc6918a","41.121.11.66","Mozilla/5.0 (Windows NT 10.0; Win64; x64) AppleWebKit/537.36 (KHTML, like Gecko) Chrome/137.0.0.0 Safari/537.36","WebKit","Chrome","137.0.0.0","Windows","10.0","https://app.prolific.com/","en-US,en;q=0.9","6697c4e76e01a2e71f34cd33","686d226cabeef709c732f8e1","686e31043c6c5a8d23f31894","6697c4e76e01a2e71f34cd33","","[{""page_index"":0,""viewing_time"":3377},{""page_index"":1,""viewing_time"":21016}]","","","","","","","","","","","","","","","","","","","","","","","","","","","","","","","","","","","","","","","","","","","",""
"13603","","","{""green_ball"":[""Ball always moves in the direction I press""]}","survey-multi-select","24","714111","0.0-8.0-5.0-0.0","158","1","2025-07-09 09:10:29","7701e855f2ef39aa3fd6c71abdc6918a","41.121.11.66","Mozilla/5.0 (Windows NT 10.0; Win64; x64) AppleWebKit/537.36 (KHTML, like Gecko) Chrome/137.0.0.0 Safari/537.36","WebKit","Chrome","137.0.0.0","Windows","10.0","https://app.prolific.com/","en-US,en;q=0.9","6697c4e76e01a2e71f34cd33","686d226cabeef709c732f8e1","686e31043c6c5a8d23f31894","6697c4e76e01a2e71f34cd33","","","[0]","","","","quiz","","","","","","","","","","","","","","","","","","","","","","","","","","","","","","","","","","","","","false","",""
"3933","","<p align='center'><b>INCORRECT.</b> Usually the green ball moves in the indicated direction, but sometimes it shakes and moves randomly. </p>","0","html-button-response","25","718051","0.0-8.0-5.0-1.0","158","1","2025-07-09 09:10:29","7701e855f2ef39aa3fd6c71abdc6918a","41.121.11.66","Mozilla/5.0 (Windows NT 10.0; Win64; x64) AppleWebKit/537.36 (KHTML, like Gecko) Chrome/137.0.0.0 Safari/537.36","WebKit","Chrome","137.0.0.0","Windows","10.0","https://app.prolific.com/","en-US,en;q=0.9","6697c4e76e01a2e71f34cd33","686d226cabeef709c732f8e1","686e31043c6c5a8d23f31894","6697c4e76e01a2e71f34cd33","","","","","","","","","","","","","","","","","","","","","","","","","","","","","","","","","","","","","","","","","","","","","",""
"8062","","","{""green_ball"":[""Ball sometimes shakes and moves in a random direction""]}","survey-multi-select","26","726119","0.0-8.0-5.1-0.1","158","1","2025-07-09 09:10:29","7701e855f2ef39aa3fd6c71abdc6918a","41.121.11.66","Mozilla/5.0 (Windows NT 10.0; Win64; x64) AppleWebKit/537.36 (KHTML, like Gecko) Chrome/137.0.0.0 Safari/537.36","WebKit","Chrome","137.0.0.0","Windows","10.0","https://app.prolific.com/","en-US,en;q=0.9","6697c4e76e01a2e71f34cd33","686d226cabeef709c732f8e1","686e31043c6c5a8d23f31894","6697c4e76e01a2e71f34cd33","","","[0]","","","","quiz","","","","","","","","","","","","","","","","","","","","","","","","","","","","","","","","","","","","","true","",""
"2303","","<p align='center'><b>CORRECT!</b> Indeed, the green ball may sometimes shake and move in a random direction.</p>","0","html-button-response","27","728423","0.0-8.0-5.1-1.1","158","1","2025-07-09 09:10:29","7701e855f2ef39aa3fd6c71abdc6918a","41.121.11.66","Mozilla/5.0 (Windows NT 10.0; Win64; x64) AppleWebKit/537.36 (KHTML, like Gecko) Chrome/137.0.0.0 Safari/537.36","WebKit","Chrome","137.0.0.0","Windows","10.0","https://app.prolific.com/","en-US,en;q=0.9","6697c4e76e01a2e71f34cd33","686d226cabeef709c732f8e1","686e31043c6c5a8d23f31894","6697c4e76e01a2e71f34cd33","","","","","","","","","","","","","","","","","","","","","","","","","","","","","","","","","","","","","","","","","","","","","",""
"8444","","","{""yellow_ball"":[""Ball doesn‘t move and I get -1 penalty point""]}","survey-multi-select","28","736870","0.0-8.0-6.0-0.0","158","1","2025-07-09 09:10:29","7701e855f2ef39aa3fd6c71abdc6918a","41.121.11.66","Mozilla/5.0 (Windows NT 10.0; Win64; x64) AppleWebKit/537.36 (KHTML, like Gecko) Chrome/137.0.0.0 Safari/537.36","WebKit","Chrome","137.0.0.0","Windows","10.0","https://app.prolific.com/","en-US,en;q=0.9","6697c4e76e01a2e71f34cd33","686d226cabeef709c732f8e1","686e31043c6c5a8d23f31894","6697c4e76e01a2e71f34cd33","","","[0]","","","","quiz","","","","","","","","","","","","","","","","","","","","","","","","","","","","","","","","","","","","","true","",""
"1882","","<p align='center'><b>CORRECT!</b> Indeed, the yellow ball never moves and you receive a penalty.</p>","0","html-button-response","29","738755","0.0-8.0-6.0-1.0","158","1","2025-07-09 09:10:29","7701e855f2ef39aa3fd6c71abdc6918a","41.121.11.66","Mozilla/5.0 (Windows NT 10.0; Win64; x64) AppleWebKit/537.36 (KHTML, like Gecko) Chrome/137.0.0.0 Safari/537.36","WebKit","Chrome","137.0.0.0","Windows","10.0","https://app.prolific.com/","en-US,en;q=0.9","6697c4e76e01a2e71f34cd33","686d226cabeef709c732f8e1","686e31043c6c5a8d23f31894","6697c4e76e01a2e71f34cd33","","","","","","","","","","","","","","","","","","","","","","","","","","","","","","","","","","","","","","","","","","","","","",""
"7093","","","{""blue_ball"":[""Ball always shakes and moves in a random direction""]}","survey-multi-select","30","745853","0.0-8.0-7.0-0.0","158","1","2025-07-09 09:10:29","7701e855f2ef39aa3fd6c71abdc6918a","41.121.11.66","Mozilla/5.0 (Windows NT 10.0; Win64; x64) AppleWebKit/537.36 (KHTML, like Gecko) Chrome/137.0.0.0 Safari/537.36","WebKit","Chrome","137.0.0.0","Windows","10.0","https://app.prolific.com/","en-US,en;q=0.9","6697c4e76e01a2e71f34cd33","686d226cabeef709c732f8e1","686e31043c6c5a8d23f31894","6697c4e76e01a2e71f34cd33","","","[0]","","","","quiz","","","","","","","","","","","","","","","","","","","","","","","","","","","","","","","","","","","","","true","",""
"1853","","<p align='center'><b>CORRECT!</b> Indeed, the blue ball always shakes and moves in a random direction. Also there is a penalty of -1 point.</p>","0","html-button-response","31","747708","0.0-8.0-7.0-1.0","158","1","2025-07-09 09:10:29","7701e855f2ef39aa3fd6c71abdc6918a","41.121.11.66","Mozilla/5.0 (Windows NT 10.0; Win64; x64) AppleWebKit/537.36 (KHTML, like Gecko) Chrome/137.0.0.0 Safari/537.36","WebKit","Chrome","137.0.0.0","Windows","10.0","https://app.prolific.com/","en-US,en;q=0.9","6697c4e76e01a2e71f34cd33","686d226cabeef709c732f8e1","686e31043c6c5a8d23f31894","6697c4e76e01a2e71f34cd33","","","","","","","","","","","","","","","","","","","","","","","","","","","","","","","","","","","","","","","","","","","","","",""
"4271","","","{""bonus"":[""When I reach 80% of points""]}","survey-multi-select","32","751983","0.0-8.0-8.0-0.0","158","1","2025-07-09 09:10:29","7701e855f2ef39aa3fd6c71abdc6918a","41.121.11.66","Mozilla/5.0 (Windows NT 10.0; Win64; x64) AppleWebKit/537.36 (KHTML, like Gecko) Chrome/137.0.0.0 Safari/537.36","WebKit","Chrome","137.0.0.0","Windows","10.0","https://app.prolific.com/","en-US,en;q=0.9","6697c4e76e01a2e71f34cd33","686d226cabeef709c732f8e1","686e31043c6c5a8d23f31894","6697c4e76e01a2e71f34cd33","","","[0]","","","","quiz","","","","","","","","","","","","","","","","","","","","","","","","","","","","","","","","","","","","","false","",""
"1576","","<p align='center'><b>INCORRECT.</b> You receive 2 pounds extra when you reach 50% of points </p>","0","html-button-response","33","753560","0.0-8.0-8.0-1.0","158","1","2025-07-09 09:10:29","7701e855f2ef39aa3fd6c71abdc6918a","41.121.11.66","Mozilla/5.0 (Windows NT 10.0; Win64; x64) AppleWebKit/537.36 (KHTML, like Gecko) Chrome/137.0.0.0 Safari/537.36","WebKit","Chrome","137.0.0.0","Windows","10.0","https://app.prolific.com/","en-US,en;q=0.9","6697c4e76e01a2e71f34cd33","686d226cabeef709c732f8e1","686e31043c6c5a8d23f31894","6697c4e76e01a2e71f34cd33","","","","","","","","","","","","","","","","","","","","","","","","","","","","","","","","","","","","","","","","","","","","","",""
"3180","","","{""bonus"":[""When I reach 50% of points""]}","survey-multi-select","34","756743","0.0-8.0-8.1-0.1","158","1","2025-07-09 09:10:29","7701e855f2ef39aa3fd6c71abdc6918a","41.121.11.66","Mozilla/5.0 (Windows NT 10.0; Win64; x64) AppleWebKit/537.36 (KHTML, like Gecko) Chrome/137.0.0.0 Safari/537.36","WebKit","Chrome","137.0.0.0","Windows","10.0","https://app.prolific.com/","en-US,en;q=0.9","6697c4e76e01a2e71f34cd33","686d226cabeef709c732f8e1","686e31043c6c5a8d23f31894","6697c4e76e01a2e71f34cd33","","","[0]","","","","quiz","","","","","","","","","","","","","","","","","","","","","","","","","","","","","","","","","","","","","true","",""
"1912","","<p align='center'><b>CORRECT!</b> Indeed, you receive 2 pounds extra when you reach 50% of points.</p>","0","html-button-response","35","758657","0.0-8.0-8.1-1.1","158","1","2025-07-09 09:10:29","7701e855f2ef39aa3fd6c71abdc6918a","41.121.11.66","Mozilla/5.0 (Windows NT 10.0; Win64; x64) AppleWebKit/537.36 (KHTML, like Gecko) Chrome/137.0.0.0 Safari/537.36","WebKit","Chrome","137.0.0.0","Windows","10.0","https://app.prolific.com/","en-US,en;q=0.9","6697c4e76e01a2e71f34cd33","686d226cabeef709c732f8e1","686e31043c6c5a8d23f31894","6697c4e76e01a2e71f34cd33","","","","","","","","","","","","","","","","","","","","","","","","","","","","","","","","","","","","","","","","","","","","","",""
"3073","","","","instructions","36","761733","0.0-8.0-9.0","158","1","2025-07-09 09:10:29","7701e855f2ef39aa3fd6c71abdc6918a","41.121.11.66","Mozilla/5.0 (Windows NT 10.0; Win64; x64) AppleWebKit/537.36 (KHTML, like Gecko) Chrome/137.0.0.0 Safari/537.36","WebKit","Chrome","137.0.0.0","Windows","10.0","https://app.prolific.com/","en-US,en;q=0.9","6697c4e76e01a2e71f34cd33","686d226cabeef709c732f8e1","686e31043c6c5a8d23f31894","6697c4e76e01a2e71f34cd33","","[{""page_index"":0,""viewing_time"":3072}]","","","","","","","","","","","","","","","","","","","","","","","","","","","","","","","","","","","","","","","","","","","",""
"13135","","<p>Before you start with this game please answer the following three questions yourself. </p>
  <p>Through this game, we measure several aspects of your cognitive performance, such as reaction times, multi-tasking capabilities </p>
  <p>and the ability to assess the situation you are in.</p>
  <p></p>
  <p><b>How good do you usually are in such tasks?</b></p>","90","html-slider-response","37","774884","0.0-9.0-0.0","158","1","2025-07-09 09:10:29","7701e855f2ef39aa3fd6c71abdc6918a","41.121.11.66","Mozilla/5.0 (Windows NT 10.0; Win64; x64) AppleWebKit/537.36 (KHTML, like Gecko) Chrome/137.0.0.0 Safari/537.36","WebKit","Chrome","137.0.0.0","Windows","10.0","https://app.prolific.com/","en-US,en;q=0.9","6697c4e76e01a2e71f34cd33","686d226cabeef709c732f8e1","686e31043c6c5a8d23f31894","6697c4e76e01a2e71f34cd33","2025-07-09T09:23:26.707Z","","","","","","PreSkillQ","","","","","","","","","","","","","","","","","","","","","","","","","","","","","","","","","","","","","","50",""
"5177","","<div style=""width:500px;"">
  <p>How well do you think you will perform in this task compared to other participants?</p>
  </div>","86","html-slider-response","38","780064","0.0-9.0-1.0","158","1","2025-07-09 09:10:29","7701e855f2ef39aa3fd6c71abdc6918a","41.121.11.66","Mozilla/5.0 (Windows NT 10.0; Win64; x64) AppleWebKit/537.36 (KHTML, like Gecko) Chrome/137.0.0.0 Safari/537.36","WebKit","Chrome","137.0.0.0","Windows","10.0","https://app.prolific.com/","en-US,en;q=0.9","6697c4e76e01a2e71f34cd33","686d226cabeef709c732f8e1","686e31043c6c5a8d23f31894","6697c4e76e01a2e71f34cd33","2025-07-09T09:23:31.887Z","","","","","","PrePerfQ","","","","","","","","","","","","","","","","","","","","","","","","","","","","","","","","","","","","","","50",""
"4265","","<div style=""width:500px;"">
  <p>What best describes how you currently feel?</p>
  </div>","93","html-slider-response","39","784332","0.0-9.0-2.0","158","1","2025-07-09 09:10:29","7701e855f2ef39aa3fd6c71abdc6918a","41.121.11.66","Mozilla/5.0 (Windows NT 10.0; Win64; x64) AppleWebKit/537.36 (KHTML, like Gecko) Chrome/137.0.0.0 Safari/537.36","WebKit","Chrome","137.0.0.0","Windows","10.0","https://app.prolific.com/","en-US,en;q=0.9","6697c4e76e01a2e71f34cd33","686d226cabeef709c732f8e1","686e31043c6c5a8d23f31894","6697c4e76e01a2e71f34cd33","2025-07-09T09:23:36.155Z","","","","","","PreMotivationQ","","","","","","","","","","","","","","","","","","","","","","","","","","","","","","","","","","","","","","50",""
"","","","","ctl-task-cpt","40","803450","0.0-10.0-0.0","158","1","2025-07-09 09:10:29","7701e855f2ef39aa3fd6c71abdc6918a","41.121.11.66","Mozilla/5.0 (Windows NT 10.0; Win64; x64) AppleWebKit/537.36 (KHTML, like Gecko) Chrome/137.0.0.0 Safari/537.36","WebKit","Chrome","137.0.0.0","Windows","10.0","https://app.prolific.com/","en-US,en;q=0.9","6697c4e76e01a2e71f34cd33","686d226cabeef709c732f8e1","686e31043c6c5a8d23f31894","6697c4e76e01a2e71f34cd33","2025-07-09T09:23:55.273Z","","","","","","","","","","","","","","","","win-only","0","g1:NW,g2:SE","1","1","0","787871.8","1516.2","6523.5","16093.3","1","4","4","6","1","1","1","1","0","0.007575757575757576","2644.9","3000","2080","[""left"",""up""]","{""num_key_presses"":4,""num_perfect"":4,""num_errors"":0,""num_randdir"":0,""num_randdir_good_moves"":0,""num_whilered"":0,""num_whileblue"":0,""num_blue"":0,""num_good_moves"":4}","[416.5714133126395,420.32142761775424,0.6,416.5714133126395,420.32142761775424,106.2,416.5714133126395,420.32142761775424,211.8,416.5714133126395,420.32142761775424,315.6,416.5714133126395,420.32142761775424,428.9,416.5714133126395,420.32142761775424,530.9,416.5714133126395,420.32142761775424,645.2,416.5714133126395,420.32142761775424,750.7,416.5714133126395,420.32142761775424,855.9,416.5714133126395,420.32142761775424,963.1,416.5714133126395,420.32142761775424,1063.2,416.5714133126395,420.32142761775424,1165.5,416.5714133126395,420.32142761775424,1265.8,416.5714133126395,420.32142761775424,1378.1,416.5714133126395,420.32142761775424,1478.3,416.5714133126395,420.32142761775424,1581.9,390.3214133126395,391.57142761775424,1696.2,264.0714133126395,257.82142761775424,1798.1,192.8214133126395,226.57142761775424,1900.8,156.5714133126395,190.32142761775424,2005.8,121.5714133126395,142.82142761775424,2106,105.3214133126395,114.07142761775425,2206.3,91.5714133126395,100.32142761775425,2316.8,91.5714133126395,96.57142761775425,2429.8,91.5714133126395,92.82142761775425,2531.2,91.5714133126395,92.82142761775425,2634.6,91.5714133126395,92.82142761775425,2736.5,91.5714133126395,92.82142761775425,2840.9,91.5714133126395,92.82142761775425,2945.9,91.5714133126395,92.82142761775425,3047,91.5714133126395,92.82142761775425,3149.4,91.5714133126395,92.82142761775425,3256.8,91.5714133126395,92.82142761775425,3356.9,91.5714133126395,92.82142761775425,3460.6,91.5714133126395,92.82142761775425,3561.8,91.5714133126395,92.82142761775425,3668,91.5714133126395,92.82142761775425,3771.1,91.5714133126395,92.82142761775425,3879.1,91.5714133126395,92.82142761775425,3979.4,91.5714133126395,92.82142761775425,4095.5,91.5714133126395,92.82142761775425,4196.6,91.5714133126395,92.82142761775425,4298.3,91.5714133126395,92.82142761775425,4399.2,91.5714133126395,92.82142761775425,4499.3,91.5714133126395,92.82142761775425,4599.5,91.5714133126395,92.82142761775425,4699.8,91.5714133126395,92.82142761775425,4799.9,91.5714133126395,92.82142761775425,4900.3]","[1290,1290,1000,0,290,""smooth"",""left"",""left"",""good_move"",3741.6,2450,2128.9,1291.6,321.1,""smooth"",""up"",""up"",""good_move"",6949.5,3207.5,2880.5,3742.1,326.9,""smooth"",""left"",""left"",""good_move"",9468.7,2518.5,2246.2,6950.2,272.3,""smooth"",""up"",""up"",""good_move""]","","",""
"7680","","<div style=""width:500px;"">
  <p>What determined the result of this run?</p>
  </div>","99","html-slider-response","41","811133","0.0-10.0-1.0","158","1","2025-07-09 09:10:29","7701e855f2ef39aa3fd6c71abdc6918a","41.121.11.66","Mozilla/5.0 (Windows NT 10.0; Win64; x64) AppleWebKit/537.36 (KHTML, like Gecko) Chrome/137.0.0.0 Safari/537.36","WebKit","Chrome","137.0.0.0","Windows","10.0","https://app.prolific.com/","en-US,en;q=0.9","6697c4e76e01a2e71f34cd33","686d226cabeef709c732f8e1","686e31043c6c5a8d23f31894","6697c4e76e01a2e71f34cd33","2025-07-09T09:24:02.956Z","","","","","","AttribQ","","","","","","","","","","","","","","","","","","","","","","","","","","","","","","","","","","","","","","50",""
"4230","","<div style=""width:500px;"">
  <p>How much control did you have over the ball?</p>
  </div>","100","html-slider-response","42","815366","0.0-10.0-2.0","158","1","2025-07-09 09:10:29","7701e855f2ef39aa3fd6c71abdc6918a","41.121.11.66","Mozilla/5.0 (Windows NT 10.0; Win64; x64) AppleWebKit/537.36 (KHTML, like Gecko) Chrome/137.0.0.0 Safari/537.36","WebKit","Chrome","137.0.0.0","Windows","10.0","https://app.prolific.com/","en-US,en;q=0.9","6697c4e76e01a2e71f34cd33","686d226cabeef709c732f8e1","686e31043c6c5a8d23f31894","6697c4e76e01a2e71f34cd33","2025-07-09T09:24:07.189Z","","","","","","ControlQ","","","","","","","","","","","","","","","","","","","","","","","","","","","","","","","","","","","","","","50",""
"6536","","<div style=""width:500px;"">
  <p>How would you describe your current emotional state?</p>
  </div>","1","html-slider-response","43","821905","0.0-10.0-3.0","158","1","2025-07-09 09:10:29","7701e855f2ef39aa3fd6c71abdc6918a","41.121.11.66","Mozilla/5.0 (Windows NT 10.0; Win64; x64) AppleWebKit/537.36 (KHTML, like Gecko) Chrome/137.0.0.0 Safari/537.36","WebKit","Chrome","137.0.0.0","Windows","10.0","https://app.prolific.com/","en-US,en;q=0.9","6697c4e76e01a2e71f34cd33","686d226cabeef709c732f8e1","686e31043c6c5a8d23f31894","6697c4e76e01a2e71f34cd33","2025-07-09T09:24:13.728Z","","","","","","StressQ","","","","","","","","","","","","","","","","","","","","","","","","","","","","","","","","","","","","","","50",""
"3851","","<div style=""width:500px;"">
  <p>What best describes how you currently feel?</p>
  </div>","98","html-slider-response","44","825758","0.0-10.0-4.0","158","1","2025-07-09 09:10:29","7701e855f2ef39aa3fd6c71abdc6918a","41.121.11.66","Mozilla/5.0 (Windows NT 10.0; Win64; x64) AppleWebKit/537.36 (KHTML, like Gecko) Chrome/137.0.0.0 Safari/537.36","WebKit","Chrome","137.0.0.0","Windows","10.0","https://app.prolific.com/","en-US,en;q=0.9","6697c4e76e01a2e71f34cd33","686d226cabeef709c732f8e1","686e31043c6c5a8d23f31894","6697c4e76e01a2e71f34cd33","2025-07-09T09:24:17.581Z","","","","","","MotivationQ","","","","","","","","","","","","","","","","","","","","","","","","","","","","","","","","","","","","","","50",""
"","","","","ctl-task-cpt","45","863844","0.0-10.0-0.1","158","1","2025-07-09 09:10:29","7701e855f2ef39aa3fd6c71abdc6918a","41.121.11.66","Mozilla/5.0 (Windows NT 10.0; Win64; x64) AppleWebKit/537.36 (KHTML, like Gecko) Chrome/137.0.0.0 Safari/537.36","WebKit","Chrome","137.0.0.0","Windows","10.0","https://app.prolific.com/","en-US,en;q=0.9","6697c4e76e01a2e71f34cd33","686d226cabeef709c732f8e1","686e31043c6c5a8d23f31894","6697c4e76e01a2e71f34cd33","2025-07-09T09:24:55.667Z","","","","","","","","","","","","","","","","win-only","3","g1:SW,g2:NE","0.9","2","0","829298.7","2832.7","7837.3","35063.5","1","4","8","6","2","8","7","8","1","0.06060606060606061","1360.7","3000","1475","[""up"",""right""]","{""num_key_presses"":6,""num_perfect"":5,""num_errors"":1,""num_randdir"":0,""num_randdir_good_moves"":0,""num_whilered"":0,""num_whileblue"":1,""num_blue"":4,""num_good_moves"":6}","[420.3214133126395,422.82142761775424,0.4,420.3214133126395,422.82142761775424,103.3,420.3214133126395,422.82142761775424,203.5,420.3214133126395,422.82142761775424,303.8,420.3214133126395,422.82142761775424,403.9,420.3214133126395,422.82142761775424,504.8,420.3214133126395,422.82142761775424,618,420.3214133126395,422.82142761775424,720.8,511.5714133126395,324.07142761775424,825.5,691.5714133126395,139.07142761775424,931.6,741.5714133126395,76.57142761775425,1037.6,747.8214133126395,67.82142761775425,1142.2,749.0714133126395,66.57142761775425,1256.4,749.0714133126395,66.57142761775425,1359.3,749.0714133126395,66.57142761775425,1471.4,749.0714133126395,66.57142761775425,1581.7,749.0714133126395,66.57142761775425,1683,749.0714133126395,66.57142761775425,1783.9,749.0714133126395,66.57142761775425,1884.5,749.0714133126395,66.57142761775425,1991.5,749.0714133126395,66.57142761775425,2096.8,749.0714133126395,66.57142761775425,2203,749.0714133126395,66.57142761775425,2304.6,749.0714133126395,66.57142761775425,2409.2,749.0714133126395,66.57142761775425,2509.6,749.0714133126395,66.57142761775425,2612.9,749.0714133126395,66.57142761775425,2713,749.0714133126395,66.57142761775425,2814.7,749.0714133126395,66.57142761775425,2918.4,749.0714133126395,66.57142761775425,3019,749.0714133126395,66.57142761775425,3122.8,749.0714133126395,66.57142761775425,3224.6,749.0714133126395,66.57142761775425,3329.8,749.0714133126395,66.57142761775425,3430.5,749.0714133126395,66.57142761775425,3539.1,749.0714133126395,66.57142761775425,3645.1,749.0714133126395,66.57142761775425,3749.4,749.0714133126395,66.57142761775425,3853.5,749.0714133126395,66.57142761775425,3953.5,749.0714133126395,66.57142761775425,4053.9,749.0714133126395,66.57142761775425,4157.9,749.0714133126395,66.57142761775425,4258.8,749.0714133126395,66.57142761775425,4368.3,749.0714133126395,66.57142761775425,4474,749.0714133126395,66.57142761775425,4585.3,749.0714133126395,66.57142761775425,4685.8,749.0714133126395,66.57142761775425,4789.6,749.0714133126395,66.57142761775425,4892.8,749.0714133126395,66.57142761775425,4994]","[1398.6,1398.6,1000,0,398.6,""smooth"",""up"",""up"",""good_move"",4629.5,3228.6,2877.5,1400.9,351.1,""smooth"",""right"",""right"",""good_move"",7604.5,2974.1,2699.1,4630.4,275,""while_blue"",""up"",""up"",""good_move"",10663.3,3058.5,2548.9,7604.9,509.5,""smooth"",""right"",""right"",""good_move"",13345.9,2682.1,2182,10663.8,500.1,""smooth"",""up"",""up"",""good_move"",27098.6,13752.5,2783,23849.2,466.5,""smooth"",""right"",""right"",""good_move""]","","",""
"7098","","<div style=""width:500px;"">
  <p>What determined the result of this run?</p>
  </div>","95","html-slider-response","46","870944","0.0-10.0-1.1","158","1","2025-07-09 09:10:29","7701e855f2ef39aa3fd6c71abdc6918a","41.121.11.66","Mozilla/5.0 (Windows NT 10.0; Win64; x64) AppleWebKit/537.36 (KHTML, like Gecko) Chrome/137.0.0.0 Safari/537.36","WebKit","Chrome","137.0.0.0","Windows","10.0","https://app.prolific.com/","en-US,en;q=0.9","6697c4e76e01a2e71f34cd33","686d226cabeef709c732f8e1","686e31043c6c5a8d23f31894","6697c4e76e01a2e71f34cd33","2025-07-09T09:25:02.767Z","","","","","","AttribQ","","","","","","","","","","","","","","","","","","","","","","","","","","","","","","","","","","","","","","50",""
"75641","","<div style=""width:500px;"">
  <p>How much control did you have over the ball?</p>
  </div>","95","html-slider-response","47","946587","0.0-10.0-2.1","158","1","2025-07-09 09:10:29","7701e855f2ef39aa3fd6c71abdc6918a","41.121.11.66","Mozilla/5.0 (Windows NT 10.0; Win64; x64) AppleWebKit/537.36 (KHTML, like Gecko) Chrome/137.0.0.0 Safari/537.36","WebKit","Chrome","137.0.0.0","Windows","10.0","https://app.prolific.com/","en-US,en;q=0.9","6697c4e76e01a2e71f34cd33","686d226cabeef709c732f8e1","686e31043c6c5a8d23f31894","6697c4e76e01a2e71f34cd33","2025-07-09T09:26:18.411Z","","","","","","ControlQ","","","","","","","","","","","","","","","","","","","","","","","","","","","","","","","","","","","","","","50",""
"19229","","<div style=""width:500px;"">
  <p>How would you describe your current emotional state?</p>
  </div>","22","html-slider-response","48","965820","0.0-10.0-3.1","158","1","2025-07-09 09:10:29","7701e855f2ef39aa3fd6c71abdc6918a","41.121.11.66","Mozilla/5.0 (Windows NT 10.0; Win64; x64) AppleWebKit/537.36 (KHTML, like Gecko) Chrome/137.0.0.0 Safari/537.36","WebKit","Chrome","137.0.0.0","Windows","10.0","https://app.prolific.com/","en-US,en;q=0.9","6697c4e76e01a2e71f34cd33","686d226cabeef709c732f8e1","686e31043c6c5a8d23f31894","6697c4e76e01a2e71f34cd33","2025-07-09T09:26:37.643Z","","","","","","StressQ","","","","","","","","","","","","","","","","","","","","","","","","","","","","","","","","","","","","","","50",""
"18234","","<div style=""width:500px;"">
  <p>What best describes how you currently feel?</p>
  </div>","87","html-slider-response","49","984056","0.0-10.0-4.1","158","1","2025-07-09 09:10:29","7701e855f2ef39aa3fd6c71abdc6918a","41.121.11.66","Mozilla/5.0 (Windows NT 10.0; Win64; x64) AppleWebKit/537.36 (KHTML, like Gecko) Chrome/137.0.0.0 Safari/537.36","WebKit","Chrome","137.0.0.0","Windows","10.0","https://app.prolific.com/","en-US,en;q=0.9","6697c4e76e01a2e71f34cd33","686d226cabeef709c732f8e1","686e31043c6c5a8d23f31894","6697c4e76e01a2e71f34cd33","2025-07-09T09:26:55.880Z","","","","","","MotivationQ","","","","","","","","","","","","","","","","","","","","","","","","","","","","","","","","","","","","","","50",""
"","","","","ctl-task-cpt","50","1018989","0.0-10.0-0.2","158","1","2025-07-09 09:10:29","7701e855f2ef39aa3fd6c71abdc6918a","41.121.11.66","Mozilla/5.0 (Windows NT 10.0; Win64; x64) AppleWebKit/537.36 (KHTML, like Gecko) Chrome/137.0.0.0 Safari/537.36","WebKit","Chrome","137.0.0.0","Windows","10.0","https://app.prolific.com/","en-US,en;q=0.9","6697c4e76e01a2e71f34cd33","686d226cabeef709c732f8e1","686e31043c6c5a8d23f31894","6697c4e76e01a2e71f34cd33","2025-07-09T09:27:30.812Z","","","","","","","","","","","","","","","","win-only","0","g1:NW,g2:SE","0.8","3","0","987595.4","6681.5","11684.4","31913.3","1","4","4","6","2","4","4","12","8","0.09090909090909091","3863.4","3000","1015","[""down"",""right""]","{""num_key_presses"":6,""num_perfect"":5,""num_errors"":0,""num_randdir"":1,""num_randdir_good_moves"":1,""num_whilered"":0,""num_whileblue"":0,""num_blue"":1,""num_good_moves"":6}","[420.3214133126395,416.57142761775424,0.3,420.3214133126395,416.57142761775424,102.6,420.3214133126395,416.57142761775424,208.6,420.3214133126395,416.57142761775424,309.2,420.3214133126395,416.57142761775424,412.6,420.3214133126395,416.57142761775424,513.5,420.3214133126395,416.57142761775424,615,420.3214133126395,416.57142761775424,723,420.3214133126395,416.57142761775424,827,420.3214133126395,416.57142761775424,929.9,420.3214133126395,416.57142761775424,1037,420.3214133126395,416.57142761775424,1150.2,420.3214133126395,416.57142761775424,1251.1,420.3214133126395,416.57142761775424,1351.5,420.3214133126395,416.57142761775424,1460.4,420.3214133126395,416.57142761775424,1569,420.3214133126395,416.57142761775424,1679.6,411.5714133126395,426.57142761775424,1786.6,396.5714133126395,429.07142761775424,1894.9,396.5714133126395,425.32142761775424,2001.2,392.8214133126395,419.07142761775424,2117.7,382.8214133126395,415.32142761775424,2228.7,377.8214133126395,410.32142761775424,2336,385.3214133126395,411.57142761775424,2446.3,397.8214133126395,421.57142761775424,2549.7,417.8214133126395,441.57142761775424,2660,429.0714133126395,451.57142761775424,2761.8,460.3214133126395,484.07142761775424,2863.5,532.8214133126395,551.5714276177542,2964.5,632.8214133126395,612.8214276177542,3065.9,701.5714133126395,647.8214276177542,3168.5,737.8214133126395,694.0714276177542,3268.9,745.3214133126395,714.0714276177542,3376.3,751.5714133126395,739.0714276177542,3481.4,756.5714133126395,750.3214276177542,3594.4,756.5714133126395,756.5714276177542,3694.9,756.5714133126395,756.5714276177542,3797,756.5714133126395,756.5714276177542,3900.6,756.5714133126395,756.5714276177542,4012.7,756.5714133126395,756.5714276177542,4121.3,756.5714133126395,756.5714276177542,4228.1,756.5714133126395,756.5714276177542,4330.3,756.5714133126395,756.5714276177542,4438,756.5714133126395,756.5714276177542,4545,756.5714133126395,756.5714276177542,4653.4,756.5714133126395,756.5714276177542,4758.7,756.5714133126395,756.5714276177542,4864.7,756.5714133126395,756.5714276177542,4969]","[1954.9,1954.9,1000,0,954.9,""oops"",""down"",""down"",""good_move"",5038.5,3082.4,2392.7,1956.1,689.7,""smooth"",""down"",""down"",""good_move"",8262.6,3223.1,2744.7,5039.5,478.4,""smooth"",""right"",""right"",""good_move"",11630,3363.3,2152.7,8266.8,1210.5,""smooth"",""down"",""down"",""good_move"",13370.4,1738.9,1283,11631.5,455.9,""smooth"",""right"",""right"",""good_move"",20059.7,6688.6,2304.4,17410.6,344.7,""smooth"",""right"",""right"",""good_move""]","","",""
"5336","","<div style=""width:500px;"">
  <p>What determined the result of this run?</p>
  </div>","9","html-slider-response","51","1024328","0.0-10.0-1.2","158","1","2025-07-09 09:10:29","7701e855f2ef39aa3fd6c71abdc6918a","41.121.11.66","Mozilla/5.0 (Windows NT 10.0; Win64; x64) AppleWebKit/537.36 (KHTML, like Gecko) Chrome/137.0.0.0 Safari/537.36","WebKit","Chrome","137.0.0.0","Windows","10.0","https://app.prolific.com/","en-US,en;q=0.9","6697c4e76e01a2e71f34cd33","686d226cabeef709c732f8e1","686e31043c6c5a8d23f31894","6697c4e76e01a2e71f34cd33","2025-07-09T09:27:36.151Z","","","","","","AttribQ","","","","","","","","","","","","","","","","","","","","","","","","","","","","","","","","","","","","","","50",""
"6452","","<div style=""width:500px;"">
  <p>How much control did you have over the ball?</p>
  </div>","94","html-slider-response","52","1030786","0.0-10.0-2.2","158","1","2025-07-09 09:10:29","7701e855f2ef39aa3fd6c71abdc6918a","41.121.11.66","Mozilla/5.0 (Windows NT 10.0; Win64; x64) AppleWebKit/537.36 (KHTML, like Gecko) Chrome/137.0.0.0 Safari/537.36","WebKit","Chrome","137.0.0.0","Windows","10.0","https://app.prolific.com/","en-US,en;q=0.9","6697c4e76e01a2e71f34cd33","686d226cabeef709c732f8e1","686e31043c6c5a8d23f31894","6697c4e76e01a2e71f34cd33","2025-07-09T09:27:42.610Z","","","","","","ControlQ","","","","","","","","","","","","","","","","","","","","","","","","","","","","","","","","","","","","","","50",""
"5664","","<div style=""width:500px;"">
  <p>How would you describe your current emotional state?</p>
  </div>","8","html-slider-response","53","1036460","0.0-10.0-3.2","158","1","2025-07-09 09:10:29","7701e855f2ef39aa3fd6c71abdc6918a","41.121.11.66","Mozilla/5.0 (Windows NT 10.0; Win64; x64) AppleWebKit/537.36 (KHTML, like Gecko) Chrome/137.0.0.0 Safari/537.36","WebKit","Chrome","137.0.0.0","Windows","10.0","https://app.prolific.com/","en-US,en;q=0.9","6697c4e76e01a2e71f34cd33","686d226cabeef709c732f8e1","686e31043c6c5a8d23f31894","6697c4e76e01a2e71f34cd33","2025-07-09T09:27:48.284Z","","","","","","StressQ","","","","","","","","","","","","","","","","","","","","","","","","","","","","","","","","","","","","","","50",""
"5308","","<div style=""width:500px;"">
  <p>What best describes how you currently feel?</p>
  </div>","95","html-slider-response","54","1041772","0.0-10.0-4.2","158","1","2025-07-09 09:10:29","7701e855f2ef39aa3fd6c71abdc6918a","41.121.11.66","Mozilla/5.0 (Windows NT 10.0; Win64; x64) AppleWebKit/537.36 (KHTML, like Gecko) Chrome/137.0.0.0 Safari/537.36","WebKit","Chrome","137.0.0.0","Windows","10.0","https://app.prolific.com/","en-US,en;q=0.9","6697c4e76e01a2e71f34cd33","686d226cabeef709c732f8e1","686e31043c6c5a8d23f31894","6697c4e76e01a2e71f34cd33","2025-07-09T09:27:53.595Z","","","","","","MotivationQ","","","","","","","","","","","","","","","","","","","","","","","","","","","","","","","","","","","","","","50",""
"","","","","ctl-task-cpt","55","1086437","0.0-10.0-0.3","158","1","2025-07-09 09:10:29","7701e855f2ef39aa3fd6c71abdc6918a","41.121.11.66","Mozilla/5.0 (Windows NT 10.0; Win64; x64) AppleWebKit/537.36 (KHTML, like Gecko) Chrome/137.0.0.0 Safari/537.36","WebKit","Chrome","137.0.0.0","Windows","10.0","https://app.prolific.com/","en-US,en;q=0.9","6697c4e76e01a2e71f34cd33","686d226cabeef709c732f8e1","686e31043c6c5a8d23f31894","6697c4e76e01a2e71f34cd33","2025-07-09T09:28:38.260Z","","","","","","","","","","","","","","","","win-only","0","g1:NW,g2:SE","0.7","4","0","1045313","10977.4","15978.3","41640.4","1","4","8","6","2","8","8","20","12","0.15151515151515152","1459","3000","1770","[""down"",""right""]","{""num_key_presses"":8,""num_perfect"":6,""num_errors"":0,""num_randdir"":2,""num_randdir_good_moves"":1,""num_whilered"":0,""num_whileblue"":0,""num_blue"":1,""num_good_moves"":7}","[415.3214133126395,427.82142761775424,0.4,415.3214133126395,427.82142761775424,101,415.3214133126395,427.82142761775424,205.2,415.3214133126395,427.82142761775424,314.5,415.3214133126395,427.82142761775424,418.5,415.3214133126395,427.82142761775424,524.4,415.3214133126395,427.82142761775424,625.5,457.8214133126395,512.8214276177542,730,556.5714133126395,634.0714276177542,831.4,607.8214133126395,691.5714276177542,938.4,645.3214133126395,711.5714276177542,1045.4,716.5714133126395,726.5714276177542,1146.8,771.5714133126395,764.0714276177542,1253.5,771.5714133126395,766.5714276177542,1362.4,771.5714133126395,766.5714276177542,1473.3,771.5714133126395,766.5714276177542,1585.2,771.5714133126395,766.5714276177542,1701.1,771.5714133126395,766.5714276177542,1803.6,771.5714133126395,766.5714276177542,1914.6,771.5714133126395,766.5714276177542,2025.2,771.5714133126395,766.5714276177542,2131.8,771.5714133126395,766.5714276177542,2239,771.5714133126395,766.5714276177542,2344,771.5714133126395,766.5714276177542,2450.2,771.5714133126395,766.5714276177542,2551.3,771.5714133126395,766.5714276177542,2666.6,771.5714133126395,766.5714276177542,2779.3,771.5714133126395,766.5714276177542,2884.7,771.5714133126395,766.5714276177542,2985.2,771.5714133126395,766.5714276177542,3093.4,771.5714133126395,766.5714276177542,3200.8,771.5714133126395,766.5714276177542,3309.9,771.5714133126395,766.5714276177542,3413.2,771.5714133126395,766.5714276177542,3520.6,771.5714133126395,766.5714276177542,3625.8,771.5714133126395,766.5714276177542,3739.2,771.5714133126395,766.5714276177542,3843.3,771.5714133126395,766.5714276177542,3946.9,771.5714133126395,766.5714276177542,4056.2,771.5714133126395,766.5714276177542,4159.7,771.5714133126395,766.5714276177542,4268.8,771.5714133126395,766.5714276177542,4377.5,771.5714133126395,766.5714276177542,4482.4,771.5714133126395,766.5714276177542,4587.7,771.5714133126395,766.5714276177542,4690.7,771.5714133126395,766.5714276177542,4792.5,771.5714133126395,766.5714276177542,4898.2]","[1356.8,1356.8,1000,0,356.8,""smooth"",""down"",""down"",""good_move"",4302.1,2944.9,2614.7,1357.2,330.2,""oops"",""right"",""up"",""bad_move"",7228.3,2924.6,2450.1,4303.7,474.5,""smooth"",""down"",""down"",""good_move"",9760.6,2531.5,2020.8,7229.2,510.6,""smooth"",""down"",""down"",""good_move"",16065,6304,2447.2,13279.2,338.6,""oops"",""right"",""down"",""good_move"",19020.8,2955.6,2404.6,16065.2,551,""smooth"",""right"",""right"",""good_move"",22420.3,3399,3001.9,19021.3,397.1,""smooth"",""right"",""right"",""good_move"",25435.3,3014.5,2674.1,22420.8,340.4,""smooth"",""right"",""right"",""good_move""]","","",""
"9007","","<div style=""width:500px;"">
  <p>What determined the result of this run?</p>
  </div>","82","html-slider-response","56","1095446","0.0-10.0-1.3","158","1","2025-07-09 09:10:29","7701e855f2ef39aa3fd6c71abdc6918a","41.121.11.66","Mozilla/5.0 (Windows NT 10.0; Win64; x64) AppleWebKit/537.36 (KHTML, like Gecko) Chrome/137.0.0.0 Safari/537.36","WebKit","Chrome","137.0.0.0","Windows","10.0","https://app.prolific.com/","en-US,en;q=0.9","6697c4e76e01a2e71f34cd33","686d226cabeef709c732f8e1","686e31043c6c5a8d23f31894","6697c4e76e01a2e71f34cd33","2025-07-09T09:28:47.269Z","","","","","","AttribQ","","","","","","","","","","","","","","","","","","","","","","","","","","","","","","","","","","","","","","50",""
"3933","","<div style=""width:500px;"">
  <p>How much control did you have over the ball?</p>
  </div>","89","html-slider-response","57","1099381","0.0-10.0-2.3","158","1","2025-07-09 09:10:29","7701e855f2ef39aa3fd6c71abdc6918a","41.121.11.66","Mozilla/5.0 (Windows NT 10.0; Win64; x64) AppleWebKit/537.36 (KHTML, like Gecko) Chrome/137.0.0.0 Safari/537.36","WebKit","Chrome","137.0.0.0","Windows","10.0","https://app.prolific.com/","en-US,en;q=0.9","6697c4e76e01a2e71f34cd33","686d226cabeef709c732f8e1","686e31043c6c5a8d23f31894","6697c4e76e01a2e71f34cd33","2025-07-09T09:28:51.204Z","","","","","","ControlQ","","","","","","","","","","","","","","","","","","","","","","","","","","","","","","","","","","","","","","50",""
"3904","","<div style=""width:500px;"">
  <p>How would you describe your current emotional state?</p>
  </div>","19","html-slider-response","58","1103289","0.0-10.0-3.3","158","1","2025-07-09 09:10:29","7701e855f2ef39aa3fd6c71abdc6918a","41.121.11.66","Mozilla/5.0 (Windows NT 10.0; Win64; x64) AppleWebKit/537.36 (KHTML, like Gecko) Chrome/137.0.0.0 Safari/537.36","WebKit","Chrome","137.0.0.0","Windows","10.0","https://app.prolific.com/","en-US,en;q=0.9","6697c4e76e01a2e71f34cd33","686d226cabeef709c732f8e1","686e31043c6c5a8d23f31894","6697c4e76e01a2e71f34cd33","2025-07-09T09:28:55.112Z","","","","","","StressQ","","","","","","","","","","","","","","","","","","","","","","","","","","","","","","","","","","","","","","50",""
"3508","","<div style=""width:500px;"">
  <p>What best describes how you currently feel?</p>
  </div>","83","html-slider-response","59","1106800","0.0-10.0-4.3","158","1","2025-07-09 09:10:29","7701e855f2ef39aa3fd6c71abdc6918a","41.121.11.66","Mozilla/5.0 (Windows NT 10.0; Win64; x64) AppleWebKit/537.36 (KHTML, like Gecko) Chrome/137.0.0.0 Safari/537.36","WebKit","Chrome","137.0.0.0","Windows","10.0","https://app.prolific.com/","en-US,en;q=0.9","6697c4e76e01a2e71f34cd33","686d226cabeef709c732f8e1","686e31043c6c5a8d23f31894","6697c4e76e01a2e71f34cd33","2025-07-09T09:28:58.623Z","","","","","","MotivationQ","","","","","","","","","","","","","","","","","","","","","","","","","","","","","","","","","","","","","","50",""
"","","","","ctl-task-cpt","60","1158003","0.0-10.0-0.4","158","1","2025-07-09 09:10:29","7701e855f2ef39aa3fd6c71abdc6918a","41.121.11.66","Mozilla/5.0 (Windows NT 10.0; Win64; x64) AppleWebKit/537.36 (KHTML, like Gecko) Chrome/137.0.0.0 Safari/537.36","WebKit","Chrome","137.0.0.0","Windows","10.0","https://app.prolific.com/","en-US,en;q=0.9","6697c4e76e01a2e71f34cd33","686d226cabeef709c732f8e1","686e31043c6c5a8d23f31894","6697c4e76e01a2e71f34cd33","2025-07-09T09:29:49.826Z","","","","","","","","","","","","","","","","win-only","3","g1:SW,g2:NE","0.6","5","0","1110341.2","1964.3","6967.6","48172.5","1","4","4","6","2","4","4","24","20","0.18181818181818182","1762.1","3000","1515","[""up"",""right""]","{""num_key_presses"":10,""num_perfect"":6,""num_errors"":0,""num_randdir"":4,""num_randdir_good_moves"":2,""num_whilered"":0,""num_whileblue"":0,""num_blue"":3,""num_good_moves"":8}","[414.0714133126395,417.82142761775424,0.2,414.0714133126395,417.82142761775424,109.6,414.0714133126395,417.82142761775424,220.2,414.0714133126395,417.82142761775424,329.3,414.0714133126395,417.82142761775424,439.9,414.0714133126395,417.82142761775424,547.9,414.0714133126395,417.82142761775424,657.4,414.0714133126395,417.82142761775424,762.8,414.0714133126395,417.82142761775424,866.8,414.0714133126395,417.82142761775424,971.3,462.8214133126395,374.07142761775424,1095.3,551.5714133126395,261.57142761775424,1224.2,635.3214133126395,179.07142761775424,1346.6,710.3214133126395,124.07142761775425,1447.2,721.5714133126395,119.07142761775425,1563.1,724.0714133126395,119.07142761775425,1675.9,724.0714133126395,119.07142761775425,1776.3,724.0714133126395,119.07142761775425,1890.8,724.0714133126395,119.07142761775425,2009.4,724.0714133126395,119.07142761775425,2111.1,601.5714133126395,240.32142761775424,2231.4,542.8214133126395,311.57142761775424,2338.5,529.0714133126395,341.57142761775424,2452.4,529.0714133126395,341.57142761775424,2554.2,529.0714133126395,341.57142761775424,2658.7,529.0714133126395,341.57142761775424,2765.3,529.0714133126395,341.57142761775424,2885.2,529.0714133126395,341.57142761775424,2990.3,529.0714133126395,341.57142761775424,3135.3,529.0714133126395,341.57142761775424,3242.3,529.0714133126395,341.57142761775424,3356.4,529.0714133126395,341.57142761775424,3470.8,529.0714133126395,341.57142761775424,3596.4,529.0714133126395,341.57142761775424,3706.2,529.0714133126395,341.57142761775424,3812.1,529.0714133126395,341.57142761775424,3917.7,529.0714133126395,341.57142761775424,4029.6,529.0714133126395,341.57142761775424,4132,529.0714133126395,341.57142761775424,4240,529.0714133126395,341.57142761775424,4352.3,529.0714133126395,341.57142761775424,4467.1,529.0714133126395,341.57142761775424,4579,529.0714133126395,341.57142761775424,4688.6,529.0714133126395,341.57142761775424,4799.6,529.0714133126395,341.57142761775424,4907]","[1369.7,1369.7,1000,0,369.7,""oops"",""up"",""down"",""bad_move"",4536.8,3166.5,2711.4,1370.3,455.1,""smooth"",""up"",""up"",""good_move"",12042.6,7505.2,3064.1,8438.6,539.9,""oops"",""up"",""down"",""bad_move"",17832.4,5789,2388.7,15133.6,310.1,""oops"",""right"",""up"",""good_move"",20919.3,3086.6,2743.6,17832.7,343,""smooth"",""right"",""right"",""good_move"",24007.8,3087.7,2550.9,20920.2,536.7,""smooth"",""up"",""up"",""good_move"",27238.1,3229.5,2780.6,24008.7,448.9,""smooth"",""right"",""right"",""good_move"",33983.9,6745.2,2268.1,31236.8,479,""smooth"",""up"",""up"",""good_move"",37406,3420.2,3003.2,33985.8,417,""oops"",""right"",""up"",""good_move"",40869.8,3463,1898.3,37406.9,1564.7,""smooth"",""right"",""right"",""good_move""]","","",""
"4469","","<div style=""width:500px;"">
  <p>What determined the result of this run?</p>
  </div>","69","html-slider-response","61","1162475","0.0-10.0-1.4","158","1","2025-07-09 09:10:29","7701e855f2ef39aa3fd6c71abdc6918a","41.121.11.66","Mozilla/5.0 (Windows NT 10.0; Win64; x64) AppleWebKit/537.36 (KHTML, like Gecko) Chrome/137.0.0.0 Safari/537.36","WebKit","Chrome","137.0.0.0","Windows","10.0","https://app.prolific.com/","en-US,en;q=0.9","6697c4e76e01a2e71f34cd33","686d226cabeef709c732f8e1","686e31043c6c5a8d23f31894","6697c4e76e01a2e71f34cd33","2025-07-09T09:29:54.298Z","","","","","","AttribQ","","","","","","","","","","","","","","","","","","","","","","","","","","","","","","","","","","","","","","50",""
"3182","","<div style=""width:500px;"">
  <p>How much control did you have over the ball?</p>
  </div>","64","html-slider-response","62","1165660","0.0-10.0-2.4","158","1","2025-07-09 09:10:29","7701e855f2ef39aa3fd6c71abdc6918a","41.121.11.66","Mozilla/5.0 (Windows NT 10.0; Win64; x64) AppleWebKit/537.36 (KHTML, like Gecko) Chrome/137.0.0.0 Safari/537.36","WebKit","Chrome","137.0.0.0","Windows","10.0","https://app.prolific.com/","en-US,en;q=0.9","6697c4e76e01a2e71f34cd33","686d226cabeef709c732f8e1","686e31043c6c5a8d23f31894","6697c4e76e01a2e71f34cd33","2025-07-09T09:29:57.483Z","","","","","","ControlQ","","","","","","","","","","","","","","","","","","","","","","","","","","","","","","","","","","","","","","50",""
"3594","","<div style=""width:500px;"">
  <p>How would you describe your current emotional state?</p>
  </div>","13","html-slider-response","63","1169257","0.0-10.0-3.4","158","1","2025-07-09 09:10:29","7701e855f2ef39aa3fd6c71abdc6918a","41.121.11.66","Mozilla/5.0 (Windows NT 10.0; Win64; x64) AppleWebKit/537.36 (KHTML, like Gecko) Chrome/137.0.0.0 Safari/537.36","WebKit","Chrome","137.0.0.0","Windows","10.0","https://app.prolific.com/","en-US,en;q=0.9","6697c4e76e01a2e71f34cd33","686d226cabeef709c732f8e1","686e31043c6c5a8d23f31894","6697c4e76e01a2e71f34cd33","2025-07-09T09:30:01.080Z","","","","","","StressQ","","","","","","","","","","","","","","","","","","","","","","","","","","","","","","","","","","","","","","50",""
"3415","","<div style=""width:500px;"">
  <p>What best describes how you currently feel?</p>
  </div>","79","html-slider-response","64","1172676","0.0-10.0-4.4","158","1","2025-07-09 09:10:29","7701e855f2ef39aa3fd6c71abdc6918a","41.121.11.66","Mozilla/5.0 (Windows NT 10.0; Win64; x64) AppleWebKit/537.36 (KHTML, like Gecko) Chrome/137.0.0.0 Safari/537.36","WebKit","Chrome","137.0.0.0","Windows","10.0","https://app.prolific.com/","en-US,en;q=0.9","6697c4e76e01a2e71f34cd33","686d226cabeef709c732f8e1","686e31043c6c5a8d23f31894","6697c4e76e01a2e71f34cd33","2025-07-09T09:30:04.499Z","","","","","","MotivationQ","","","","","","","","","","","","","","","","","","","","","","","","","","","","","","","","","","","","","","50",""
"","","","","ctl-task-cpt","65","1218905","0.0-10.0-0.5","158","1","2025-07-09 09:10:29","7701e855f2ef39aa3fd6c71abdc6918a","41.121.11.66","Mozilla/5.0 (Windows NT 10.0; Win64; x64) AppleWebKit/537.36 (KHTML, like Gecko) Chrome/137.0.0.0 Safari/537.36","WebKit","Chrome","137.0.0.0","Windows","10.0","https://app.prolific.com/","en-US,en;q=0.9","6697c4e76e01a2e71f34cd33","686d226cabeef709c732f8e1","686e31043c6c5a8d23f31894","6697c4e76e01a2e71f34cd33","2025-07-09T09:30:50.729Z","","","","","","","","","","","","","","","","win-only","3","g1:SW,g2:NE","0.5","6","0","1176219.5","1647.4","6647.9","43194.2","1","4","8","6","2","8","8","32","24","0.24242424242424243","2509.8","3000","1145","[""up"",""right""]","{""num_key_presses"":10,""num_perfect"":5,""num_errors"":0,""num_randdir"":5,""num_randdir_good_moves"":3,""num_whilered"":0,""num_whileblue"":0,""num_blue"":0,""num_good_moves"":8}","[405.3214133126395,412.82142761775424,0.2,405.3214133126395,412.82142761775424,101.3,405.3214133126395,412.82142761775424,202,405.3214133126395,412.82142761775424,313.3,405.3214133126395,412.82142761775424,430.1,405.3214133126395,412.82142761775424,531.9,405.3214133126395,412.82142761775424,635.1,405.3214133126395,412.82142761775424,740.2,405.3214133126395,412.82142761775424,848.3,405.3214133126395,412.82142761775424,962.4,405.3214133126395,412.82142761775424,1073,405.3214133126395,412.82142761775424,1186.3,405.3214133126395,412.82142761775424,1297.9,405.3214133126395,412.82142761775424,1405.1,405.3214133126395,412.82142761775424,1516.6,405.3214133126395,412.82142761775424,1628.4,405.3214133126395,412.82142761775424,1745.5,595.3214133126395,266.57142761775424,1860,692.8214133126395,82.82142761775425,1961.6,757.8214133126395,16.571427617754253,2063.9,766.5714133126395,11.571427617754253,2182.9,776.5714133126395,34.07142761775425,2290.6,776.5714133126395,39.07142761775425,2391.5,776.5714133126395,39.07142761775425,2501,776.5714133126395,39.07142761775425,2614.7,776.5714133126395,39.07142761775425,2723.5,776.5714133126395,39.07142761775425,2840.7,776.5714133126395,39.07142761775425,2947.8,776.5714133126395,39.07142761775425,3066.2,776.5714133126395,39.07142761775425,3186.3,776.5714133126395,39.07142761775425,3288.2,776.5714133126395,39.07142761775425,3406,776.5714133126395,39.07142761775425,3523.1,776.5714133126395,39.07142761775425,3624.7,776.5714133126395,39.07142761775425,3737.6,776.5714133126395,39.07142761775425,3838,776.5714133126395,39.07142761775425,3953.2,776.5714133126395,39.07142761775425,4066.5,776.5714133126395,39.07142761775425,4169.3,776.5714133126395,39.07142761775425,4270.3,776.5714133126395,39.07142761775425,4370.7,776.5714133126395,39.07142761775425,4471,776.5714133126395,39.07142761775425,4577.5,776.5714133126395,39.07142761775425,4683.9,776.5714133126395,39.07142761775425,4786.7,776.5714133126395,39.07142761775425,4893.5]","[3927.4,3927.5,1000,0,2927.5,""smooth"",""up"",""up"",""good_move"",7806.1,3876.9,2961.9,3929.2,915,""smooth"",""right"",""right"",""good_move"",10710.7,2903.3,2255.2,7807.5,648.1,""smooth"",""up"",""up"",""good_move"",15135.1,4423.7,1700,10711.4,2723.7,""oops"",""right"",""up"",""good_move"",20104.2,4968.7,2094.4,15135.6,2874.3,""oops"",""right"",""left"",""bad_move"",23499.3,3393.6,2950.3,20105.7,443.3,""smooth"",""right"",""right"",""good_move"",26385.1,2885.2,2374.8,23499.9,510.4,""oops"",""right"",""left"",""bad_move"",29897.4,3511.8,2726,26385.6,785.8,""smooth"",""right"",""right"",""good_move"",32907.5,3009.7,2556.2,29897.8,453.5,""oops"",""right"",""right"",""good_move"",36292.5,3383.6,2652.6,32908.9,731,""oops"",""right"",""right"",""good_move""]","","",""
"13562","","<div style=""width:500px;"">
  <p>What determined the result of this run?</p>
  </div>","86","html-slider-response","66","1232470","0.0-10.0-1.5","158","1","2025-07-09 09:10:29","7701e855f2ef39aa3fd6c71abdc6918a","41.121.11.66","Mozilla/5.0 (Windows NT 10.0; Win64; x64) AppleWebKit/537.36 (KHTML, like Gecko) Chrome/137.0.0.0 Safari/537.36","WebKit","Chrome","137.0.0.0","Windows","10.0","https://app.prolific.com/","en-US,en;q=0.9","6697c4e76e01a2e71f34cd33","686d226cabeef709c732f8e1","686e31043c6c5a8d23f31894","6697c4e76e01a2e71f34cd33","2025-07-09T09:31:04.294Z","","","","","","AttribQ","","","","","","","","","","","","","","","","","","","","","","","","","","","","","","","","","","","","","","50",""
"4543","","<div style=""width:500px;"">
  <p>How much control did you have over the ball?</p>
  </div>","72","html-slider-response","67","1237016","0.0-10.0-2.5","158","1","2025-07-09 09:10:29","7701e855f2ef39aa3fd6c71abdc6918a","41.121.11.66","Mozilla/5.0 (Windows NT 10.0; Win64; x64) AppleWebKit/537.36 (KHTML, like Gecko) Chrome/137.0.0.0 Safari/537.36","WebKit","Chrome","137.0.0.0","Windows","10.0","https://app.prolific.com/","en-US,en;q=0.9","6697c4e76e01a2e71f34cd33","686d226cabeef709c732f8e1","686e31043c6c5a8d23f31894","6697c4e76e01a2e71f34cd33","2025-07-09T09:31:08.839Z","","","","","","ControlQ","","","","","","","","","","","","","","","","","","","","","","","","","","","","","","","","","","","","","","50",""
"8534","","<div style=""width:500px;"">
  <p>How would you describe your current emotional state?</p>
  </div>","21","html-slider-response","68","1245554","0.0-10.0-3.5","158","1","2025-07-09 09:10:29","7701e855f2ef39aa3fd6c71abdc6918a","41.121.11.66","Mozilla/5.0 (Windows NT 10.0; Win64; x64) AppleWebKit/537.36 (KHTML, like Gecko) Chrome/137.0.0.0 Safari/537.36","WebKit","Chrome","137.0.0.0","Windows","10.0","https://app.prolific.com/","en-US,en;q=0.9","6697c4e76e01a2e71f34cd33","686d226cabeef709c732f8e1","686e31043c6c5a8d23f31894","6697c4e76e01a2e71f34cd33","2025-07-09T09:31:17.377Z","","","","","","StressQ","","","","","","","","","","","","","","","","","","","","","","","","","","","","","","","","","","","","","","50",""
"9443","","<div style=""width:500px;"">
  <p>What best describes how you currently feel?</p>
  </div>","79","html-slider-response","69","1255001","0.0-10.0-4.5","158","1","2025-07-09 09:10:29","7701e855f2ef39aa3fd6c71abdc6918a","41.121.11.66","Mozilla/5.0 (Windows NT 10.0; Win64; x64) AppleWebKit/537.36 (KHTML, like Gecko) Chrome/137.0.0.0 Safari/537.36","WebKit","Chrome","137.0.0.0","Windows","10.0","https://app.prolific.com/","en-US,en;q=0.9","6697c4e76e01a2e71f34cd33","686d226cabeef709c732f8e1","686e31043c6c5a8d23f31894","6697c4e76e01a2e71f34cd33","2025-07-09T09:31:26.825Z","","","","","","MotivationQ","","","","","","","","","","","","","","","","","","","","","","","","","","","","","","","","","","","","","","50",""
"","","","","ctl-task-cpt","70","1323156","0.0-10.0-0.6","158","1","2025-07-09 09:10:29","7701e855f2ef39aa3fd6c71abdc6918a","41.121.11.66","Mozilla/5.0 (Windows NT 10.0; Win64; x64) AppleWebKit/537.36 (KHTML, like Gecko) Chrome/137.0.0.0 Safari/537.36","WebKit","Chrome","137.0.0.0","Windows","10.0","https://app.prolific.com/","en-US,en;q=0.9","6697c4e76e01a2e71f34cd33","686d226cabeef709c732f8e1","686e31043c6c5a8d23f31894","6697c4e76e01a2e71f34cd33","2025-07-09T09:32:34.979Z","","","","","","","","","","","","","","","","win-only","3","g1:SW,g2:NE","0.4","7","0","1258543.6","1853.2","6881.2","65112","1","4","4","6","2","4","4","36","32","0.2727272727272727","3597.4","3000","1080","[""up"",""right""]","{""num_key_presses"":16,""num_perfect"":8,""num_errors"":0,""num_randdir"":8,""num_randdir_good_moves"":3,""num_whilered"":0,""num_whileblue"":0,""num_blue"":0,""num_good_moves"":11}","[419.0714133126395,419.07142761775424,0.3,419.0714133126395,419.07142761775424,101.6,419.0714133126395,419.07142761775424,228.5,419.0714133126395,419.07142761775424,355.4,419.0714133126395,419.07142761775424,479.3,419.0714133126395,419.07142761775424,600.7,419.0714133126395,419.07142761775424,719.7,419.0714133126395,419.07142761775424,837.9,419.0714133126395,419.07142761775424,962.1,419.0714133126395,419.07142761775424,1085.3,419.0714133126395,419.07142761775424,1218.6,530.3214133126395,256.57142761775424,1359.4,611.5714133126395,194.07142761775424,1498.4,704.0714133126395,136.57142761775424,1634.5,720.3214133126395,131.57142761775424,1770,735.3214133126395,125.32142761775425,1930.8,741.5714133126395,122.82142761775425,2066.3,741.5714133126395,122.82142761775425,2190.5,741.5714133126395,122.82142761775425,2317.2,741.5714133126395,122.82142761775425,2450.3,741.5714133126395,122.82142761775425,2577.8,741.5714133126395,122.82142761775425,2708.3,741.5714133126395,122.82142761775425,2830.8,741.5714133126395,122.82142761775425,2957.7,741.5714133126395,122.82142761775425,3086.4,741.5714133126395,122.82142761775425,3214.4,741.5714133126395,122.82142761775425,3342.3,741.5714133126395,122.82142761775425,3479.8,741.5714133126395,122.82142761775425,3631.5,741.5714133126395,122.82142761775425,3766.7,741.5714133126395,122.82142761775425,3897.2,741.5714133126395,122.82142761775425,4015.8,741.5714133126395,122.82142761775425,4144.9,741.5714133126395,122.82142761775425,4268.8,741.5714133126395,122.82142761775425,4389,741.5714133126395,122.82142761775425,4517.6,741.5714133126395,122.82142761775425,4640.1,741.5714133126395,122.82142761775425,4760.3,741.5714133126395,122.82142761775425,4887.5]","[2109.6,2109.6,1000,0,1109.6,""smooth"",""up"",""up"",""good_move"",7240.5,5129.5,2164.6,2111.2,2964.8,""smooth"",""right"",""right"",""good_move"",10640.1,3398.9,2661.6,7241.2,737.3,""oops"",""up"",""left"",""bad_move"",14510.5,3869.4,1963.7,10641.1,1905.7,""oops"",""up"",""up"",""good_move"",18948.6,4436.8,2547.6,14511.8,1889.2,""oops"",""right"",""down"",""bad_move"",21977.2,3027.2,2555.5,18950.1,471.6,""oops"",""up"",""down"",""bad_move"",24884.2,2906.7,2460.2,21977.5,446.5,""oops"",""up"",""right"",""good_move"",28085,3200.2,2679.8,24884.8,520.4,""smooth"",""up"",""up"",""good_move"",32328.7,4243,1711.2,28085.8,2531.8,""smooth"",""up"",""up"",""good_move"",36094.3,3764.7,2319.4,32329.6,1445.3,""oops"",""up"",""left"",""bad_move"",39867,3772,2748.7,36095,1023.3,""oops"",""up"",""down"",""bad_move"",42636.7,2769,2133.1,39867.8,635.9,""smooth"",""right"",""right"",""good_move"",45890.5,3253.1,2799,42637.4,454.1,""smooth"",""up"",""up"",""good_move"",50290.5,4399.5,1913.4,45891,2486.1,""smooth"",""right"",""right"",""good_move"",53290.9,2997.8,2536.3,50293.2,461.4,""smooth"",""up"",""up"",""good_move"",57851.2,4558.9,2201.1,53292.3,2357.8,""oops"",""right"",""right"",""good_move""]","","",""
"7010","","<div style=""width:500px;"">
  <p>What determined the result of this run?</p>
  </div>","83","html-slider-response","71","1330169","0.0-10.0-1.6","158","1","2025-07-09 09:10:29","7701e855f2ef39aa3fd6c71abdc6918a","41.121.11.66","Mozilla/5.0 (Windows NT 10.0; Win64; x64) AppleWebKit/537.36 (KHTML, like Gecko) Chrome/137.0.0.0 Safari/537.36","WebKit","Chrome","137.0.0.0","Windows","10.0","https://app.prolific.com/","en-US,en;q=0.9","6697c4e76e01a2e71f34cd33","686d226cabeef709c732f8e1","686e31043c6c5a8d23f31894","6697c4e76e01a2e71f34cd33","2025-07-09T09:32:41.992Z","","","","","","AttribQ","","","","","","","","","","","","","","","","","","","","","","","","","","","","","","","","","","","","","","50",""
"10008","","<div style=""width:500px;"">
  <p>How much control did you have over the ball?</p>
  </div>","81","html-slider-response","72","1340181","0.0-10.0-2.6","158","1","2025-07-09 09:10:29","7701e855f2ef39aa3fd6c71abdc6918a","41.121.11.66","Mozilla/5.0 (Windows NT 10.0; Win64; x64) AppleWebKit/537.36 (KHTML, like Gecko) Chrome/137.0.0.0 Safari/537.36","WebKit","Chrome","137.0.0.0","Windows","10.0","https://app.prolific.com/","en-US,en;q=0.9","6697c4e76e01a2e71f34cd33","686d226cabeef709c732f8e1","686e31043c6c5a8d23f31894","6697c4e76e01a2e71f34cd33","2025-07-09T09:32:52.004Z","","","","","","ControlQ","","","","","","","","","","","","","","","","","","","","","","","","","","","","","","","","","","","","","","50",""
"10224","","<div style=""width:500px;"">
  <p>How would you describe your current emotional state?</p>
  </div>","20","html-slider-response","73","1350411","0.0-10.0-3.6","158","1","2025-07-09 09:10:29","7701e855f2ef39aa3fd6c71abdc6918a","41.121.11.66","Mozilla/5.0 (Windows NT 10.0; Win64; x64) AppleWebKit/537.36 (KHTML, like Gecko) Chrome/137.0.0.0 Safari/537.36","WebKit","Chrome","137.0.0.0","Windows","10.0","https://app.prolific.com/","en-US,en;q=0.9","6697c4e76e01a2e71f34cd33","686d226cabeef709c732f8e1","686e31043c6c5a8d23f31894","6697c4e76e01a2e71f34cd33","2025-07-09T09:33:02.234Z","","","","","","StressQ","","","","","","","","","","","","","","","","","","","","","","","","","","","","","","","","","","","","","","50",""
"8814","","<div style=""width:500px;"">
  <p>What best describes how you currently feel?</p>
  </div>","83","html-slider-response","74","1359230","0.0-10.0-4.6","158","1","2025-07-09 09:10:29","7701e855f2ef39aa3fd6c71abdc6918a","41.121.11.66","Mozilla/5.0 (Windows NT 10.0; Win64; x64) AppleWebKit/537.36 (KHTML, like Gecko) Chrome/137.0.0.0 Safari/537.36","WebKit","Chrome","137.0.0.0","Windows","10.0","https://app.prolific.com/","en-US,en;q=0.9","6697c4e76e01a2e71f34cd33","686d226cabeef709c732f8e1","686e31043c6c5a8d23f31894","6697c4e76e01a2e71f34cd33","2025-07-09T09:33:11.053Z","","","","","","MotivationQ","","","","","","","","","","","","","","","","","","","","","","","","","","","","","","","","","","","","","","50",""
"","","","","ctl-task-cpt","75","1435846","0.0-10.0-0.7","158","1","2025-07-09 09:10:29","7701e855f2ef39aa3fd6c71abdc6918a","41.121.11.66","Mozilla/5.0 (Windows NT 10.0; Win64; x64) AppleWebKit/537.36 (KHTML, like Gecko) Chrome/137.0.0.0 Safari/537.36","WebKit","Chrome","137.0.0.0","Windows","10.0","https://app.prolific.com/","en-US,en;q=0.9","6697c4e76e01a2e71f34cd33","686d226cabeef709c732f8e1","686e31043c6c5a8d23f31894","6697c4e76e01a2e71f34cd33","2025-07-09T09:34:27.669Z","","","","","","","","","","","","","","","","win-only","3","g1:SW,g2:NE","0.3","8","0","1362772.2","3296","8319.6","73582.6","1","4","8","6","2","8","8","44","36","0.3333333333333333","1277","3000","845","[""up"",""right""]","{""num_key_presses"":14,""num_perfect"":4,""num_errors"":0,""num_randdir"":10,""num_randdir_good_moves"":6,""num_whilered"":0,""num_whileblue"":0,""num_blue"":4,""num_good_moves"":10}","[421.5714133126395,417.82142761775424,0.5,421.5714133126395,417.82142761775424,118.6,421.5714133126395,417.82142761775424,222.6,421.5714133126395,417.82142761775424,349,421.5714133126395,417.82142761775424,470.4,421.5714133126395,417.82142761775424,579.7,474.0714133126395,301.57142761775424,701.7,670.3214133126395,74.07142761775425,802.6,722.8214133126395,29.071427617754253,920.4,761.5714133126395,34.07142761775425,1023.3,774.0714133126395,42.82142761775425,1136.9,774.0714133126395,42.82142761775425,1243.3,774.0714133126395,42.82142761775425,1360.6,774.0714133126395,42.82142761775425,1461.5,774.0714133126395,42.82142761775425,1571.1,774.0714133126395,42.82142761775425,1678.4,774.0714133126395,42.82142761775425,1786.6,774.0714133126395,42.82142761775425,1894.8,774.0714133126395,42.82142761775425,2005,774.0714133126395,42.82142761775425,2108.2,774.0714133126395,42.82142761775425,2236.8,774.0714133126395,42.82142761775425,2339.6,774.0714133126395,42.82142761775425,2450.8,774.0714133126395,42.82142761775425,2556.8,774.0714133126395,42.82142761775425,2668,774.0714133126395,42.82142761775425,2773.3,774.0714133126395,42.82142761775425,2882.6,774.0714133126395,42.82142761775425,3007.1,774.0714133126395,42.82142761775425,3126.5,774.0714133126395,42.82142761775425,3238.9,774.0714133126395,42.82142761775425,3346.6,774.0714133126395,42.82142761775425,3455.8,774.0714133126395,42.82142761775425,3561.4,774.0714133126395,42.82142761775425,3674.7,774.0714133126395,42.82142761775425,3780.9,774.0714133126395,42.82142761775425,3890.7,774.0714133126395,42.82142761775425,3999.7,774.0714133126395,42.82142761775425,4104.9,774.0714133126395,42.82142761775425,4211.6,774.0714133126395,42.82142761775425,4327.4,774.0714133126395,42.82142761775425,4442.6,774.0714133126395,42.82142761775425,4555.7,774.0714133126395,42.82142761775425,4673.1,774.0714133126395,42.82142761775425,4789.4,774.0714133126395,42.82142761775425,4896.6,774.0714133126395,42.82142761775425,4999.6]","[1931.2,1931.2,1000,0,931.2,""oops"",""up"",""left"",""bad_move"",7940.1,6007.8,2674.3,1932.3,3333.6,""oops"",""up"",""right"",""good_move"",14635.6,6694.7,1722.5,11742.7,1170.4,""oops"",""right"",""left"",""bad_move"",19422.4,4786.5,2156.7,14636,2629.8,""smooth"",""up"",""up"",""good_move"",25945.3,6521.9,2328.4,23263.9,353,""oops"",""right"",""down"",""bad_move"",29164.7,3218.8,1518.7,25945.9,1700.1,""smooth"",""up"",""up"",""good_move"",40235.1,11069.9,1972.1,37830.6,432.4,""oops"",""up"",""down"",""bad_move"",42995.5,2760,2386.9,40235.5,373.1,""smooth"",""right"",""right"",""good_move"",46007,3010.4,2609.1,42996.6,401.3,""oops"",""up"",""up"",""good_move"",50751.2,4743.4,3032.9,46007.8,1710.5,""oops"",""right"",""up"",""good_move"",54489.2,3737.7,2260.4,50751.6,1477.2,""smooth"",""right"",""right"",""good_move"",58177.8,3688.2,3194,54489.6,494.2,""oops"",""up"",""up"",""good_move"",61643.6,3465.5,1552.5,58178.1,1913,""oops"",""right"",""right"",""good_move"",64812.8,3168.7,2774.7,61644.1,394,""oops"",""right"",""right"",""good_move""]","","",""
"6386","","<div style=""width:500px;"">
  <p>What determined the result of this run?</p>
  </div>","82","html-slider-response","76","1442235","0.0-10.0-1.7","158","1","2025-07-09 09:10:29","7701e855f2ef39aa3fd6c71abdc6918a","41.121.11.66","Mozilla/5.0 (Windows NT 10.0; Win64; x64) AppleWebKit/537.36 (KHTML, like Gecko) Chrome/137.0.0.0 Safari/537.36","WebKit","Chrome","137.0.0.0","Windows","10.0","https://app.prolific.com/","en-US,en;q=0.9","6697c4e76e01a2e71f34cd33","686d226cabeef709c732f8e1","686e31043c6c5a8d23f31894","6697c4e76e01a2e71f34cd33","2025-07-09T09:34:34.058Z","","","","","","AttribQ","","","","","","","","","","","","","","","","","","","","","","","","","","","","","","","","","","","","","","50",""
"3397","","<div style=""width:500px;"">
  <p>How much control did you have over the ball?</p>
  </div>","34","html-slider-response","77","1445634","0.0-10.0-2.7","158","1","2025-07-09 09:10:29","7701e855f2ef39aa3fd6c71abdc6918a","41.121.11.66","Mozilla/5.0 (Windows NT 10.0; Win64; x64) AppleWebKit/537.36 (KHTML, like Gecko) Chrome/137.0.0.0 Safari/537.36","WebKit","Chrome","137.0.0.0","Windows","10.0","https://app.prolific.com/","en-US,en;q=0.9","6697c4e76e01a2e71f34cd33","686d226cabeef709c732f8e1","686e31043c6c5a8d23f31894","6697c4e76e01a2e71f34cd33","2025-07-09T09:34:37.458Z","","","","","","ControlQ","","","","","","","","","","","","","","","","","","","","","","","","","","","","","","","","","","","","","","50",""
"3785","","<div style=""width:500px;"">
  <p>How would you describe your current emotional state?</p>
  </div>","33","html-slider-response","78","1449423","0.0-10.0-3.7","158","1","2025-07-09 09:10:29","7701e855f2ef39aa3fd6c71abdc6918a","41.121.11.66","Mozilla/5.0 (Windows NT 10.0; Win64; x64) AppleWebKit/537.36 (KHTML, like Gecko) Chrome/137.0.0.0 Safari/537.36","WebKit","Chrome","137.0.0.0","Windows","10.0","https://app.prolific.com/","en-US,en;q=0.9","6697c4e76e01a2e71f34cd33","686d226cabeef709c732f8e1","686e31043c6c5a8d23f31894","6697c4e76e01a2e71f34cd33","2025-07-09T09:34:41.246Z","","","","","","StressQ","","","","","","","","","","","","","","","","","","","","","","","","","","","","","","","","","","","","","","50",""
"5312","","<div style=""width:500px;"">
  <p>What best describes how you currently feel?</p>
  </div>","82","html-slider-response","79","1454739","0.0-10.0-4.7","158","1","2025-07-09 09:10:29","7701e855f2ef39aa3fd6c71abdc6918a","41.121.11.66","Mozilla/5.0 (Windows NT 10.0; Win64; x64) AppleWebKit/537.36 (KHTML, like Gecko) Chrome/137.0.0.0 Safari/537.36","WebKit","Chrome","137.0.0.0","Windows","10.0","https://app.prolific.com/","en-US,en;q=0.9","6697c4e76e01a2e71f34cd33","686d226cabeef709c732f8e1","686e31043c6c5a8d23f31894","6697c4e76e01a2e71f34cd33","2025-07-09T09:34:46.562Z","","","","","","MotivationQ","","","","","","","","","","","","","","","","","","","","","","","","","","","","","","","","","","","","","","50",""
"","","","","ctl-task-cpt","80","1631649","0.0-10.0-0.8","158","1","2025-07-09 09:10:29","7701e855f2ef39aa3fd6c71abdc6918a","41.121.11.66","Mozilla/5.0 (Windows NT 10.0; Win64; x64) AppleWebKit/537.36 (KHTML, like Gecko) Chrome/137.0.0.0 Safari/537.36","WebKit","Chrome","137.0.0.0","Windows","10.0","https://app.prolific.com/","en-US,en;q=0.9","6697c4e76e01a2e71f34cd33","686d226cabeef709c732f8e1","686e31043c6c5a8d23f31894","6697c4e76e01a2e71f34cd33","2025-07-09T09:37:43.473Z","","","","","","","","","","","","","","","","win-only","1","g1:NE,g2:SW","0.2","9","0","1458279.8","9397.2","14401.2","173878.6","1","4","8","6","1","-1","-3","41","44","0.3106060606060606","2056.5","3000","-540","[""up"",""right""]","{""num_key_presses"":30,""num_perfect"":6,""num_errors"":2,""num_randdir"":22,""num_randdir_good_moves"":7,""num_whilered"":0,""num_whileblue"":0,""num_blue"":11,""num_good_moves"":11}","[421.5714133126395,416.57142761775424,0.3,421.5714133126395,416.57142761775424,133.8,421.5714133126395,416.57142761775424,246.4,421.5714133126395,416.57142761775424,362.4,421.5714133126395,416.57142761775424,465,421.5714133126395,416.57142761775424,581.1,421.5714133126395,416.57142761775424,715,421.5714133126395,416.57142761775424,834.2,421.5714133126395,416.57142761775424,956,421.5714133126395,416.57142761775424,1080.8,507.8214133126395,380.32142761775424,1185.6,641.5714133126395,272.82142761775424,1329.7,700.3214133126395,186.57142761775424,1478.1,726.5714133126395,146.57142761775424,1617,744.0714133126395,116.57142761775425,1745.4,744.0714133126395,116.57142761775425,1866.9,744.0714133126395,116.57142761775425,1992.1,744.0714133126395,116.57142761775425,2121.3,744.0714133126395,116.57142761775425,2238.9,744.0714133126395,116.57142761775425,2363.9,744.0714133126395,116.57142761775425,2492.7,744.0714133126395,116.57142761775425,2594.7,707.8214133126395,137.82142761775424,2720.8,594.0714133126395,226.57142761775424,2858.5,554.0714133126395,255.32142761775424,2979.4,549.0714133126395,259.07142761775424,3091.8,549.0714133126395,259.07142761775424,3199,549.0714133126395,259.07142761775424,3317.6,549.0714133126395,259.07142761775424,3441.2,549.0714133126395,259.07142761775424,3541.4,549.0714133126395,259.07142761775424,3654.6,549.0714133126395,259.07142761775424,3795.4,549.0714133126395,259.07142761775424,3896.7,549.0714133126395,259.07142761775424,4007.2,549.0714133126395,259.07142761775424,4114.2,549.0714133126395,259.07142761775424,4218.1,549.0714133126395,259.07142761775424,4318.9,549.0714133126395,259.07142761775424,4429.9,549.0714133126395,259.07142761775424,4543.8,549.0714133126395,259.07142761775424,4664.5,549.0714133126395,259.07142761775424,4783.6,549.0714133126395,259.07142761775424,4892]","[1400,1400,1000,0,400,""oops"",""up"",""right"",""good_move"",4175,2773.7,2325.8,1401.3,447.9,""oops"",""up"",""down"",""bad_move"",6781.2,2605.5,2029.7,4175.7,575.8,""oops"",""right"",""left"",""bad_move"",12466.3,5683.8,2395.1,6782.5,3288.7,""oops"",""up"",""down"",""bad_move"",16069.4,3602.6,2890.8,12466.8,711.8,""smooth"",""up"",""up"",""good_move"",22737.4,6667.4,3047,16070.1,3620.4,""oops"",""right"",""left"",""bad_move"",28335.4,5597.7,2364.3,22737.7,3233.4,""oops"",""up"",""left"",""bad_move"",33652.6,5316.5,2864.3,28336.1,2452.2,""smooth"",""up"",""up"",""good_move"",38535.6,4882.4,1677.4,33653.3,3204.9,""oops"",""right"",""down"",""bad_move"",42386.6,3850.5,2474,38536.1,1376.6,""oops"",""up"",""right"",""good_move"",48506.1,6118.4,2305.6,45785.2,415.3,""oops"",""down"",""right"",""good_move"",51989.6,3483.2,2880.1,48506.5,603,""oops"",""down"",""right"",""good_move"",55520.7,3530.6,3137.3,51990.2,393.2,""smooth"",""down"",""down"",""bad_move"",57789,2267.7,1514.4,55521.3,753.3,""oops"",""left"",""left"",""bad_move"",64898,7108.5,1832.9,62540.2,524.9,""smooth"",""right"",""right"",""good_move"",67481.9,2583.2,2081.6,64898.8,501.6,""oops"",""up"",""left"",""bad_move"",77680.1,10196.9,2663.9,74442.3,573.9,""oops"",""right"",""down"",""bad_move"",80821.3,3140.7,2505,77680.6,635.7,""oops"",""up"",""left"",""bad_move"",84108,3286.1,2310.3,80821.9,975.8,""error"",""-"",""-"",""no_move"",91649.4,7538.8,2099.7,88769.6,780.1,""oops"",""up"",""right"",""good_move"",94429.7,2780,2137.9,91649.8,642,""oops"",""left"",""left"",""bad_move"",96745.9,2315.8,1792.4,94430.2,523.3,""error"",""-"",""-"",""no_move"",101001.1,4254.8,2621.8,97747.7,631.6,""smooth"",""down"",""left"",""bad_move"",105715.5,4714.1,3158.9,101001.6,1555.1,""smooth"",""up"",""up"",""good_move"",110870.5,5154.4,2960.2,105716.1,2194.2,""oops"",""up"",""up"",""good_move"",123684.6,12813.7,2952.8,120000.5,731.3,""oops"",""up"",""left"",""bad_move"",128034.1,4349.1,2406.2,123685,1942.9,""oops"",""up"",""up"",""good_move"",131719.6,3684.9,2493.2,128034.7,1191.7,""oops"",""up"",""down"",""bad_move"",142790.2,11069.7,2821.9,139456.1,512.2,""oops"",""up"",""down"",""bad_move"",150363.8,7573.1,2318.1,146648,1397.7,""oops"",""up"",""down"",""bad_move""]","","",""
"18351","","<div style=""width:500px;"">
  <p>What determined the result of this run?</p>
  </div>","31","html-slider-response","81","1650003","0.0-10.0-1.8","158","1","2025-07-09 09:10:29","7701e855f2ef39aa3fd6c71abdc6918a","41.121.11.66","Mozilla/5.0 (Windows NT 10.0; Win64; x64) AppleWebKit/537.36 (KHTML, like Gecko) Chrome/137.0.0.0 Safari/537.36","WebKit","Chrome","137.0.0.0","Windows","10.0","https://app.prolific.com/","en-US,en;q=0.9","6697c4e76e01a2e71f34cd33","686d226cabeef709c732f8e1","686e31043c6c5a8d23f31894","6697c4e76e01a2e71f34cd33","2025-07-09T09:38:01.826Z","","","","","","AttribQ","","","","","","","","","","","","","","","","","","","","","","","","","","","","","","","","","","","","","","50",""
"10905","","<div style=""width:500px;"">
  <p>How much control did you have over the ball?</p>
  </div>","13","html-slider-response","82","1660912","0.0-10.0-2.8","158","1","2025-07-09 09:10:29","7701e855f2ef39aa3fd6c71abdc6918a","41.121.11.66","Mozilla/5.0 (Windows NT 10.0; Win64; x64) AppleWebKit/537.36 (KHTML, like Gecko) Chrome/137.0.0.0 Safari/537.36","WebKit","Chrome","137.0.0.0","Windows","10.0","https://app.prolific.com/","en-US,en;q=0.9","6697c4e76e01a2e71f34cd33","686d226cabeef709c732f8e1","686e31043c6c5a8d23f31894","6697c4e76e01a2e71f34cd33","2025-07-09T09:38:12.736Z","","","","","","ControlQ","","","","","","","","","","","","","","","","","","","","","","","","","","","","","","","","","","","","","","50",""
"4825","","<div style=""width:500px;"">
  <p>How would you describe your current emotional state?</p>
  </div>","73","html-slider-response","83","1665743","0.0-10.0-3.8","158","1","2025-07-09 09:10:29","7701e855f2ef39aa3fd6c71abdc6918a","41.121.11.66","Mozilla/5.0 (Windows NT 10.0; Win64; x64) AppleWebKit/537.36 (KHTML, like Gecko) Chrome/137.0.0.0 Safari/537.36","WebKit","Chrome","137.0.0.0","Windows","10.0","https://app.prolific.com/","en-US,en;q=0.9","6697c4e76e01a2e71f34cd33","686d226cabeef709c732f8e1","686e31043c6c5a8d23f31894","6697c4e76e01a2e71f34cd33","2025-07-09T09:38:17.566Z","","","","","","StressQ","","","","","","","","","","","","","","","","","","","","","","","","","","","","","","","","","","","","","","50",""
"5255","","<div style=""width:500px;"">
  <p>What best describes how you currently feel?</p>
  </div>","69","html-slider-response","84","1671002","0.0-10.0-4.8","158","1","2025-07-09 09:10:29","7701e855f2ef39aa3fd6c71abdc6918a","41.121.11.66","Mozilla/5.0 (Windows NT 10.0; Win64; x64) AppleWebKit/537.36 (KHTML, like Gecko) Chrome/137.0.0.0 Safari/537.36","WebKit","Chrome","137.0.0.0","Windows","10.0","https://app.prolific.com/","en-US,en;q=0.9","6697c4e76e01a2e71f34cd33","686d226cabeef709c732f8e1","686e31043c6c5a8d23f31894","6697c4e76e01a2e71f34cd33","2025-07-09T09:38:22.825Z","","","","","","MotivationQ","","","","","","","","","","","","","","","","","","","","","","","","","","","","","","","","","","","","","","50",""
