"rt","response_timestamp","stimulus","response","trial_type","trial_index","time_elapsed","internal_node_id","run_id","condition","recorded_at","source_code_version","ip","user_agent","device","browser","browser_version","platform","platform_version","referer","accept_language","PROLIFIC_PID","STUDY_ID","SESSION_ID","prolific_id","realtime","view_history","question_order","consent","success","question_id","eventType","responses","item_order","radio_event_ids","radio_event_times","key_event_times","mouse_event_times","straightlining","zigzagging","honeypot","which_type","canvas_config","goals_layout","control_level","trial_number","tutorial_trial_number","trial_start_time","phase1_start_time","phase2_start_time","phase3_start_time","goal_1_value","goal_1_distance","goal_2_value","goal_2_distance","goal_selected","outcome","outcome_total","participant_final_score","participant_initial_score","participant_final_score_prop","goal_choice_rt","allocated_time","allocated_time_remaining","goal_direction","counts","mouse_movements","key_presses","correct","slider_start","sub_question"
"19730","1752052990512","<p style='font-size:40px;line-height:1.25'><strong>Welcome to the experiment!</strong></p><p style='font-size:1.1em;line-height:1.25'>Thank you for your interest in our experiment! Before you begin, it is important that we obtain your informed consent to participate in the study.</p><p style='font-size:1.1em;line-height:1.25'>On the next screen will be an <strong>information sheet</strong> for you to read. To participate in the study we need you to read this information sheet and the following consent form carefully. If you agree with all the statements, please click the <strong>I agree</strong> button.</p><p style='font-size:1.1em;line-height:1.25'>Press <strong>Next</strong> to read the information sheet.</p>","0","custom-html-button-response","0","19732","0.0-0.0","213","1","2025-07-09 09:22:48","7701e855f2ef39aa3fd6c71abdc6918a","88.24.169.19","Mozilla/5.0 (Windows NT 10.0; Win64; x64) AppleWebKit/537.36 (KHTML, like Gecko) Chrome/138.0.0.0 Safari/537.36","WebKit","Chrome","138.0.0.0","Windows","10.0","https://app.prolific.com/","es-ES,es;q=0.8","67db387c909560bc7b65ea88","686d226cabeef709c732f8e1","686e3126fee396358d14347c","67db387c909560bc7b65ea88","2025-07-09T09:23:10.513Z","","","","","","","","","","","","","","","","","","","","","","","","","","","","","","","","","","","","","","","","","","","","",""
"10929","","","","instructions","1","30661","0.0-1.0","213","1","2025-07-09 09:22:48","7701e855f2ef39aa3fd6c71abdc6918a","88.24.169.19","Mozilla/5.0 (Windows NT 10.0; Win64; x64) AppleWebKit/537.36 (KHTML, like Gecko) Chrome/138.0.0.0 Safari/537.36","WebKit","Chrome","138.0.0.0","Windows","10.0","https://app.prolific.com/","es-ES,es;q=0.8","67db387c909560bc7b65ea88","686d226cabeef709c732f8e1","686e3126fee396358d14347c","67db387c909560bc7b65ea88","","[{""page_index"":0,""viewing_time"":6533},{""page_index"":1,""viewing_time"":4396}]","","","","","","","","","","","","","","","","","","","","","","","","","","","","","","","","","","","","","","","","","","","",""
"4985","","","{""Q0"":"""",""Q1"":"""",""Q2"":"""",""Q3"":"""",""Q4"":"""",""Q5"":"""",""Q6"":""I agree""}","survey-multi-choice","2","35647","0.0-2.0","213","1","2025-07-09 09:22:48","7701e855f2ef39aa3fd6c71abdc6918a","88.24.169.19","Mozilla/5.0 (Windows NT 10.0; Win64; x64) AppleWebKit/537.36 (KHTML, like Gecko) Chrome/138.0.0.0 Safari/537.36","WebKit","Chrome","138.0.0.0","Windows","10.0","https://app.prolific.com/","es-ES,es;q=0.8","67db387c909560bc7b65ea88","686d226cabeef709c732f8e1","686e3126fee396358d14347c","67db387c909560bc7b65ea88","","","[0,1,2,3,4,5,6]","true","","","","","","","","","","","","","","","","","","","","","","","","","","","","","","","","","","","","","","","","","",""
"15215","","","","fullscreen","3","51865","0.0-4.0","213","1","2025-07-09 09:22:48","7701e855f2ef39aa3fd6c71abdc6918a","88.24.169.19","Mozilla/5.0 (Windows NT 10.0; Win64; x64) AppleWebKit/537.36 (KHTML, like Gecko) Chrome/138.0.0.0 Safari/537.36","WebKit","Chrome","138.0.0.0","Windows","10.0","https://app.prolific.com/","es-ES,es;q=0.8","67db387c909560bc7b65ea88","686d226cabeef709c732f8e1","686e3126fee396358d14347c","67db387c909560bc7b65ea88","","","","","true","","","","","","","","","","","","","","","","","","","","","","","","","","","","","","","","","","","","","","","","",""
"9351","1752053031997"," <p style='font-size:1.1em;line-height:1.25'>Thank you for completing the consent form and closing all other tabs.</p><p style='font-size:1.1em;line-height:1.25'>We will now invite you to fill in some demographic information and questionnaires, before starting the game.<br>This will take about 5 minutes.<br></p><p style='font-size:1.1em;line-height:1.25'>Press the <strong>Next</strong> button to continue.</p>","0","custom-html-button-response","4","61216","0.0-5.0","213","1","2025-07-09 09:22:48","7701e855f2ef39aa3fd6c71abdc6918a","88.24.169.19","Mozilla/5.0 (Windows NT 10.0; Win64; x64) AppleWebKit/537.36 (KHTML, like Gecko) Chrome/138.0.0.0 Safari/537.36","WebKit","Chrome","138.0.0.0","Windows","10.0","https://app.prolific.com/","es-ES,es;q=0.8","67db387c909560bc7b65ea88","686d226cabeef709c732f8e1","686e3126fee396358d14347c","67db387c909560bc7b65ea88","2025-07-09T09:23:51.997Z","","","","","","","","","","","","","","","","","","","","","","","","","","","","","","","","","","","","","","","","","","","","",""
"4053","","","{""age"":""24""}","survey-text","5","65271","0.0-6.0-0.0","213","1","2025-07-09 09:22:48","7701e855f2ef39aa3fd6c71abdc6918a","88.24.169.19","Mozilla/5.0 (Windows NT 10.0; Win64; x64) AppleWebKit/537.36 (KHTML, like Gecko) Chrome/138.0.0.0 Safari/537.36","WebKit","Chrome","138.0.0.0","Windows","10.0","https://app.prolific.com/","es-ES,es;q=0.8","67db387c909560bc7b65ea88","686d226cabeef709c732f8e1","686e3126fee396358d14347c","67db387c909560bc7b65ea88","","","","","","0","demographics","","","","","","","","","","","","","","","","","","","","","","","","","","","","","","","","","","","","","","",""
"3127","","","{""gender_identity"":""female/woman""}","survey-multi-choice","6","68399","0.0-6.0-1.0","213","1","2025-07-09 09:22:48","7701e855f2ef39aa3fd6c71abdc6918a","88.24.169.19","Mozilla/5.0 (Windows NT 10.0; Win64; x64) AppleWebKit/537.36 (KHTML, like Gecko) Chrome/138.0.0.0 Safari/537.36","WebKit","Chrome","138.0.0.0","Windows","10.0","https://app.prolific.com/","es-ES,es;q=0.8","67db387c909560bc7b65ea88","686d226cabeef709c732f8e1","686e3126fee396358d14347c","67db387c909560bc7b65ea88","","","[0]","","","1","demographics","","","","","","","","","","","","","","","","","","","","","","","","","","","","","","","","","","","","","","",""
"3873","","","{""assigned_sex"":""female""}","survey-multi-choice","7","72272","0.0-6.0-2.0","213","1","2025-07-09 09:22:48","7701e855f2ef39aa3fd6c71abdc6918a","88.24.169.19","Mozilla/5.0 (Windows NT 10.0; Win64; x64) AppleWebKit/537.36 (KHTML, like Gecko) Chrome/138.0.0.0 Safari/537.36","WebKit","Chrome","138.0.0.0","Windows","10.0","https://app.prolific.com/","es-ES,es;q=0.8","67db387c909560bc7b65ea88","686d226cabeef709c732f8e1","686e3126fee396358d14347c","67db387c909560bc7b65ea88","","","[0]","","","2","demographics","","","","","","","","","","","","","","","","","","","","","","","","","","","","","","","","","","","","","","",""
"4795","","","{""menstrual_cycle"":""Yes""}","survey-multi-choice","8","77068","0.0-6.0-3.0","213","1","2025-07-09 09:22:48","7701e855f2ef39aa3fd6c71abdc6918a","88.24.169.19","Mozilla/5.0 (Windows NT 10.0; Win64; x64) AppleWebKit/537.36 (KHTML, like Gecko) Chrome/138.0.0.0 Safari/537.36","WebKit","Chrome","138.0.0.0","Windows","10.0","https://app.prolific.com/","es-ES,es;q=0.8","67db387c909560bc7b65ea88","686d226cabeef709c732f8e1","686e3126fee396358d14347c","67db387c909560bc7b65ea88","","","[0]","","","4","demographics","","","","","","","","","","","","","","","","","","","","","","","","","","","","","","","","","","","","","","",""
"25381","","","{""education"":""Higher National Diploma""}","survey-multi-choice","9","102450","0.0-6.0-4.0","213","1","2025-07-09 09:22:48","7701e855f2ef39aa3fd6c71abdc6918a","88.24.169.19","Mozilla/5.0 (Windows NT 10.0; Win64; x64) AppleWebKit/537.36 (KHTML, like Gecko) Chrome/138.0.0.0 Safari/537.36","WebKit","Chrome","138.0.0.0","Windows","10.0","https://app.prolific.com/","es-ES,es;q=0.8","67db387c909560bc7b65ea88","686d226cabeef709c732f8e1","686e3126fee396358d14347c","67db387c909560bc7b65ea88","","","[0]","","","5","demographics","","","","","","","","","","","","","","","","","","","","","","","","","","","","","","","","","","","","","","",""
"13079","","","{""education"":""GCSE/Standard Grades""}","survey-multi-choice","10","115530","0.0-6.0-5.0","213","1","2025-07-09 09:22:48","7701e855f2ef39aa3fd6c71abdc6918a","88.24.169.19","Mozilla/5.0 (Windows NT 10.0; Win64; x64) AppleWebKit/537.36 (KHTML, like Gecko) Chrome/138.0.0.0 Safari/537.36","WebKit","Chrome","138.0.0.0","Windows","10.0","https://app.prolific.com/","es-ES,es;q=0.8","67db387c909560bc7b65ea88","686d226cabeef709c732f8e1","686e3126fee396358d14347c","67db387c909560bc7b65ea88","2025-07-09T09:24:46.311Z","","[0]","","","6","demographics","","","","","","","","","","","","","","","","","","","","","","","","","","","","","","","","","","","","","","",""
"12892","","","{""mental_health_condition"":"""",""mental_health_treatment"":"""",""psychiatric_medication"":""""}","survey-text","11","128424","0.0-7.0-0.0","213","1","2025-07-09 09:22:48","7701e855f2ef39aa3fd6c71abdc6918a","88.24.169.19","Mozilla/5.0 (Windows NT 10.0; Win64; x64) AppleWebKit/537.36 (KHTML, like Gecko) Chrome/138.0.0.0 Safari/537.36","WebKit","Chrome","138.0.0.0","Windows","10.0","https://app.prolific.com/","es-ES,es;q=0.8","67db387c909560bc7b65ea88","686d226cabeef709c732f8e1","686e3126fee396358d14347c","67db387c909560bc7b65ea88","2025-07-09T09:24:59.205Z","","","","","1","mental_health","","","","","","","","","","","","","","","","","","","","","","","","","","","","","","","","","","","","","","",""
"8675","","","{""depression_history"":[""No""]}","survey-multi-select","12","137100","0.0-7.0-1.0","213","1","2025-07-09 09:22:48","7701e855f2ef39aa3fd6c71abdc6918a","88.24.169.19","Mozilla/5.0 (Windows NT 10.0; Win64; x64) AppleWebKit/537.36 (KHTML, like Gecko) Chrome/138.0.0.0 Safari/537.36","WebKit","Chrome","138.0.0.0","Windows","10.0","https://app.prolific.com/","es-ES,es;q=0.8","67db387c909560bc7b65ea88","686d226cabeef709c732f8e1","686e3126fee396358d14347c","67db387c909560bc7b65ea88","","","[0]","","","","mental_health","","","","","","","","","","","","","","","","","","","","","","","","","","","","","","","","","","","","","","",""
"199662.60000002384","","","","survey-template","13","336764","0.0-7.0-3.0","213","1","2025-07-09 09:22:48","7701e855f2ef39aa3fd6c71abdc6918a","88.24.169.19","Mozilla/5.0 (Windows NT 10.0; Win64; x64) AppleWebKit/537.36 (KHTML, like Gecko) Chrome/138.0.0.0 Safari/537.36","WebKit","Chrome","138.0.0.0","Windows","10.0","https://app.prolific.com/","es-ES,es;q=0.8","67db387c909560bc7b65ea88","686d226cabeef709c732f8e1","686e3126fee396358d14347c","67db387c909560bc7b65ea88","2025-07-09T09:28:27.545Z","","","","","","ius","{""Q01"":""4"",""Q02"":""3"",""Q03"":""2"",""Q04"":""3"",""Q05"":""1"",""Q06"":""0"",""Q07"":""1"",""Q08"":""0"",""Q09"":""3"",""Q10"":""2"",""Q11"":""0"",""Q12"":""2"",""Q13"":""3""}","[0,1,2,3,4,5,6,7,8,9,10,11,12]","[""Q01"",""Q02"",""Q03"",""Q04"",""Q05"",""Q06"",""Q07"",""Q08"",""Q09"",""Q10"",""Q11"",""Q12"",""Q13"",""Q13""]","[12960.5,16290.199999988079,23494.100000023842,30092,38919.69999998808,43053.90000003576,46715.80000001192,59161.40000003576,106843.19999998808,109842.90000003576,188871.69999998808,194013.80000001192,197857.80000001192,199113.69999998808]","[]","[12960.5,16290.199999988079,23494.100000023842,30092,38919.69999998808,43053.90000003576,46715.80000001192,55299.40000003576,59161.40000003576,94243,101556.80000001192,106843.19999998808,109842.90000003576,188871.69999998808,194013.80000001192,197857.80000001192,199113.69999998808,199661.69999998808]","0.3076923076923077","0.6666666666666666","0","","","","","","","","","","","","","","","","","","","","","","","","","","","","","",""
"4541","1752053312088","<p style='font-size:1.1em;line-height:1.25'>In the following, we will ask you a few questions relating to your experiences over the past month.<br></p><p style='font-size:1.1em;line-height:1.25'>Press the <strong>Next</strong> button to continue.</p>","0","custom-html-button-response","14","341307","0.0-7.0-4.0","213","1","2025-07-09 09:22:48","7701e855f2ef39aa3fd6c71abdc6918a","88.24.169.19","Mozilla/5.0 (Windows NT 10.0; Win64; x64) AppleWebKit/537.36 (KHTML, like Gecko) Chrome/138.0.0.0 Safari/537.36","WebKit","Chrome","138.0.0.0","Windows","10.0","https://app.prolific.com/","es-ES,es;q=0.8","67db387c909560bc7b65ea88","686d226cabeef709c732f8e1","686e3126fee396358d14347c","67db387c909560bc7b65ea88","2025-07-09T09:28:32.088Z","","","","","","","","","","","","","","","","","","","","","","","","","","","","","","","","","","","","","","","","","","","","",""
"69540.60000002384","","","","survey-template","15","410849","0.0-7.0-5.0","213","1","2025-07-09 09:22:48","7701e855f2ef39aa3fd6c71abdc6918a","88.24.169.19","Mozilla/5.0 (Windows NT 10.0; Win64; x64) AppleWebKit/537.36 (KHTML, like Gecko) Chrome/138.0.0.0 Safari/537.36","WebKit","Chrome","138.0.0.0","Windows","10.0","https://app.prolific.com/","es-ES,es;q=0.8","67db387c909560bc7b65ea88","686d226cabeef709c732f8e1","686e3126fee396358d14347c","67db387c909560bc7b65ea88","2025-07-09T09:29:41.630Z","","","","","","pss","{""Q01"":""3"",""Q02"":""1"",""Q03"":""3"",""Q04"":""0"",""Q05"":""1"",""Q06"":""2"",""Q07"":""1"",""Q08"":""1"",""Q09"":""2"",""Q10"":""1""}","[0,1,2,3,4,5,6,7,8,9]","[""Q01"",""Q02"",""Q03"",""Q04"",""Q05"",""Q06"",""Q07"",""Q07"",""Q08"",""Q09"",""Q10""]","[21818.5,29414.100000023842,32870,36812.10000002384,44578,48927.80000001192,53612,55457.80000001192,60103.69999998808,64071.80000001192,68859.69999998808]","[]","[1.9000000357627869,14430.400000035763,21818.5,28984.400000035763,29414.100000023842,32870,36812.10000002384,44578,48927.80000001192,53612,55457.80000001192,60103.69999998808,64071.80000001192,68161.60000002384,68859.69999998808,69539.80000001192]","0.5","0.6666666666666666","0","","","","","","","","","","","","","","","","","","","","","","","","","","","","","",""
"3318","1752053384949","<p style='font-size:1.1em;line-height:1.25'>Thank you for your answers! Now we will ask you a few more questions relating to your feelings in the last 24 hours.<br></p><p style='font-size:1.1em;line-height:1.25'>Press the <strong>Next</strong> button to continue.</p>","0","custom-html-button-response","16","414168","0.0-7.0-6.0","213","1","2025-07-09 09:22:48","7701e855f2ef39aa3fd6c71abdc6918a","88.24.169.19","Mozilla/5.0 (Windows NT 10.0; Win64; x64) AppleWebKit/537.36 (KHTML, like Gecko) Chrome/138.0.0.0 Safari/537.36","WebKit","Chrome","138.0.0.0","Windows","10.0","https://app.prolific.com/","es-ES,es;q=0.8","67db387c909560bc7b65ea88","686d226cabeef709c732f8e1","686e3126fee396358d14347c","67db387c909560bc7b65ea88","2025-07-09T09:29:44.949Z","","","","","","","","","","","","","","","","","","","","","","","","","","","","","","","","","","","","","","","","","","","","",""
"171351.69999998808","","","","survey-template","17","585522","0.0-7.0-7.0","213","1","2025-07-09 09:22:48","7701e855f2ef39aa3fd6c71abdc6918a","88.24.169.19","Mozilla/5.0 (Windows NT 10.0; Win64; x64) AppleWebKit/537.36 (KHTML, like Gecko) Chrome/138.0.0.0 Safari/537.36","WebKit","Chrome","138.0.0.0","Windows","10.0","https://app.prolific.com/","es-ES,es;q=0.8","67db387c909560bc7b65ea88","686d226cabeef709c732f8e1","686e3126fee396358d14347c","67db387c909560bc7b65ea88","2025-07-09T09:32:36.303Z","","","","","","drsp","{""Q01"":""4"",""Q02"":""4"",""Q03"":""1"",""Q04"":""3"",""Q05"":""3"",""Q06"":""4"",""Q07"":""4"",""Q08"":""3"",""Q09"":""2"",""Q10"":""3"",""Q11"":""4"",""Q12"":""3"",""Q13"":""2"",""Q14"":""4"",""Q15"":""4"",""Q16"":""2"",""Q17"":""0"",""Q18"":""1"",""Q19"":""1"",""Q20"":""2"",""Q21"":""2""}","[0,1,2,3,4,5,6,7,8,9,10,11,12,13,14,15,16,17,18,19,20]","[""Q01"",""Q02"",""Q03"",""Q04"",""Q05"",""Q06"",""Q07"",""Q08"",""Q09"",""Q09"",""Q10"",""Q11"",""Q12"",""Q13"",""Q14"",""Q15"",""Q16"",""Q18"",""Q19"",""Q20"",""Q21"",""Q21"",""Q21"",""Q17""]","[2938.199999988079,7159.900000035763,10090.100000023842,12572.100000023842,14407.900000035763,18741.80000001192,20736,22575.80000001192,118640.60000002384,121190.60000002384,124362.40000003576,126228.69999998808,128748.5,130604.40000003576,132886.60000002384,135884.19999998808,137656.30000001192,148910.10000002384,155278.10000002384,159356.10000002384,164266.19999998808,165244,166954,170434]","[]","[2.100000023841858,2008,2938.199999988079,7159.900000035763,8104.199999988079,10090.100000023842,12572.100000023842,14407.900000035763,18741.80000001192,20736,22575.80000001192,118640.60000002384,121190.60000002384,124362.40000003576,126228.69999998808,128748.5,130604.40000003576,132886.60000002384,135884.19999998808,137656.30000001192,139056.40000003576,147962.10000002384,148910.10000002384,155278.10000002384,159356.10000002384,164266.19999998808,165244,166056.10000002384,166697.80000001192,166954,167598,170434,171350.19999998808]","0.3333333333333333","0.45","0","","","","","","","","","","","","","","","","","","","","","","","","","","","","","",""
"18596.399999976158","","","","survey-template","18","604120","0.0-7.0-8.0","213","1","2025-07-09 09:22:48","7701e855f2ef39aa3fd6c71abdc6918a","88.24.169.19","Mozilla/5.0 (Windows NT 10.0; Win64; x64) AppleWebKit/537.36 (KHTML, like Gecko) Chrome/138.0.0.0 Safari/537.36","WebKit","Chrome","138.0.0.0","Windows","10.0","https://app.prolific.com/","es-ES,es;q=0.8","67db387c909560bc7b65ea88","686d226cabeef709c732f8e1","686e3126fee396358d14347c","67db387c909560bc7b65ea88","2025-07-09T09:32:54.901Z","","","","","","stress","{""Q01"":""4"",""Q02"":""2"",""Q03"":""3""}","[0,1,2]","[""Q01"",""Q02"",""Q03""]","[10658.099999964237,12952.099999964237,17870.19999998808]","[]","[10658.099999964237,12952.099999964237,17870.19999998808,18595.899999976158]","0.6666666666666666","0.5","0","","","","","","","","","","","","","","","","","","","","","","","","","","","","","",""
"131713","","","","instructions","19","735834","0.0-8.0-0.0","213","1","2025-07-09 09:22:48","7701e855f2ef39aa3fd6c71abdc6918a","88.24.169.19","Mozilla/5.0 (Windows NT 10.0; Win64; x64) AppleWebKit/537.36 (KHTML, like Gecko) Chrome/138.0.0.0 Safari/537.36","WebKit","Chrome","138.0.0.0","Windows","10.0","https://app.prolific.com/","es-ES,es;q=0.8","67db387c909560bc7b65ea88","686d226cabeef709c732f8e1","686e3126fee396358d14347c","67db387c909560bc7b65ea88","","[{""page_index"":0,""viewing_time"":62332},{""page_index"":1,""viewing_time"":32772},{""page_index"":2,""viewing_time"":28116},{""page_index"":3,""viewing_time"":8494}]","","","","","","","","","","","","","","","","","","","","","","","","","","","","","","","","","","","","","","","","","","","",""
"","","","","ctl-task-cpt","20","778646","0.0-8.0-1.0","213","1","2025-07-09 09:22:48","7701e855f2ef39aa3fd6c71abdc6918a","88.24.169.19","Mozilla/5.0 (Windows NT 10.0; Win64; x64) AppleWebKit/537.36 (KHTML, like Gecko) Chrome/138.0.0.0 Safari/537.36","WebKit","Chrome","138.0.0.0","Windows","10.0","https://app.prolific.com/","es-ES,es;q=0.8","67db387c909560bc7b65ea88","686d226cabeef709c732f8e1","686e3126fee396358d14347c","67db387c909560bc7b65ea88","","","","","","","","","","","","","","","","","win-only","2","g1:SE,g2:NW","1","0","1","737410.5","30798.9","34800.6","39806.3","2","4","4","6","1","-2","-2","0","0","0","2829.5","4000","-3005","[""down"",""right""]","{""num_key_presses"":0,""num_perfect"":0,""num_errors"":0,""num_randdir"":0,""num_randdir_good_moves"":0,""num_whilered"":0,""num_whileblue"":0,""num_blue"":0,""num_good_moves"":0}","[415.57142857142856,413.47767857142856,0.2,415.57142857142856,413.47767857142856,101.9,415.57142857142856,413.47767857142856,202,415.57142857142856,413.47767857142856,302.2,415.57142857142856,413.47767857142856,406.2,415.57142857142856,413.47767857142856,506.4,411.57142857142856,421.47767857142856,606.4,411.57142857142856,421.47767857142856,706.5,411.57142857142856,421.47767857142856,806.6,411.57142857142856,421.47767857142856,906.7,424.57142857142856,419.47767857142856,1006.9,427.57142857142856,419.47767857142856,1111.9,427.57142857142856,419.47767857142856,1212,427.57142857142856,419.47767857142856,1312.1,427.57142857142856,419.47767857142856,1412.1,427.57142857142856,419.47767857142856,1516.2,423.57142857142856,420.47767857142856,1616.3,423.57142857142856,420.47767857142856,1716.5,423.57142857142856,420.47767857142856,1816.5,423.57142857142856,418.47767857142856,1916.6,425.57142857142856,422.47767857142856,2021.7,456.57142857142856,463.47767857142856,2121.8,568.5714285714286,582.4776785714286,2221.9,641.5714285714286,666.4776785714286,2327,679.5714285714286,705.4776785714286,2431.5,694.5714285714286,718.4776785714286,2532.7,709.5714285714286,730.4776785714286,2636.3,717.5714285714286,731.4776785714286,2736.4,717.5714285714286,731.4776785714286,2836.6,717.5714285714286,731.4776785714286,2936.6,717.5714285714286,731.4776785714286,3036.7,717.5714285714286,731.4776785714286,3136.8,717.5714285714286,731.4776785714286,3236.8,717.5714285714286,731.4776785714286,3336.9,717.5714285714286,731.4776785714286,3442,717.5714285714286,731.4776785714286,3542.1,717.5714285714286,731.4776785714286,3642.2,717.5714285714286,731.4776785714286,3746.3,717.5714285714286,731.4776785714286,3846.3,717.5714285714286,731.4776785714286,3946.4]","[]","","",""
"13679","","","","instructions","21","792325","0.0-8.0-2.0","213","1","2025-07-09 09:22:48","7701e855f2ef39aa3fd6c71abdc6918a","88.24.169.19","Mozilla/5.0 (Windows NT 10.0; Win64; x64) AppleWebKit/537.36 (KHTML, like Gecko) Chrome/138.0.0.0 Safari/537.36","WebKit","Chrome","138.0.0.0","Windows","10.0","https://app.prolific.com/","es-ES,es;q=0.8","67db387c909560bc7b65ea88","686d226cabeef709c732f8e1","686e3126fee396358d14347c","67db387c909560bc7b65ea88","","[{""page_index"":0,""viewing_time"":13678}]","","","","","","","","","","","","","","","","","","","","","","","","","","","","","","","","","","","","","","","","","","","",""
"","","","","ctl-task-cpt","22","817542","0.0-8.0-3.0","213","1","2025-07-09 09:22:48","7701e855f2ef39aa3fd6c71abdc6918a","88.24.169.19","Mozilla/5.0 (Windows NT 10.0; Win64; x64) AppleWebKit/537.36 (KHTML, like Gecko) Chrome/138.0.0.0 Safari/537.36","WebKit","Chrome","138.0.0.0","Windows","10.0","https://app.prolific.com/","es-ES,es;q=0.8","67db387c909560bc7b65ea88","686d226cabeef709c732f8e1","686e3126fee396358d14347c","67db387c909560bc7b65ea88","","","","","","","","","","","","","","","","","win-only","2","g1:SE,g2:NW","0.35","0","3","793901.4","1459.6","5460.9","22201","2","4","8","6","2","-8","-10","0","0","0","2371.6","4000","-3015","[""left"",""up""]","{""num_key_presses"":4,""num_perfect"":0,""num_errors"":2,""num_randdir"":2,""num_randdir_good_moves"":2,""num_whilered"":0,""num_whileblue"":0,""num_blue"":1,""num_good_moves"":2}","[413.57142857142856,416.47767857142856,0.1,413.57142857142856,416.47767857142856,103,413.57142857142856,416.47767857142856,205.7,413.57142857142856,416.47767857142856,305.7,413.57142857142856,416.47767857142856,405.8,412.57142857142856,414.47767857142856,506.2,205.57142857142856,216.47767857142856,611.1,105.57142857142857,138.47767857142856,715.8,105.57142857142857,129.47767857142856,820.7,105.57142857142857,129.47767857142856,920.9,105.57142857142857,129.47767857142856,1025.8,105.57142857142857,129.47767857142856,1126.4,105.57142857142857,129.47767857142856,1230.7,105.57142857142857,129.47767857142856,1330.8,105.57142857142857,129.47767857142856,1430.9,105.57142857142857,129.47767857142856,1530.9,105.57142857142857,129.47767857142856,1631,105.57142857142857,129.47767857142856,1731.1,105.57142857142857,129.47767857142856,1831.2,105.57142857142857,129.47767857142856,1935.6,97.57142857142857,123.47767857142857,2036,93.57142857142857,120.47767857142857,2140.9,93.57142857142857,120.47767857142857,2240.9,93.57142857142857,120.47767857142857,2345.7,93.57142857142857,120.47767857142857,2445.8,93.57142857142857,120.47767857142857,2545.8,93.57142857142857,120.47767857142857,2646,93.57142857142857,120.47767857142857,2746,93.57142857142857,120.47767857142857,2846.1,93.57142857142857,120.47767857142857,2946.2,93.57142857142857,120.47767857142857,3050.6,93.57142857142857,120.47767857142857,3151,93.57142857142857,120.47767857142857,3256.5,93.57142857142857,120.47767857142857,3360.9,93.57142857142857,120.47767857142857,3465.7,93.57142857142857,120.47767857142857,3565.8,93.57142857142857,120.47767857142857,3665.9,93.57142857142857,120.47767857142857,3765.9,93.57142857142857,120.47767857142857,3871.1,93.57142857142857,120.47767857142857,3971.1]","[4157.8,4157.8,1000,0,3157.8,""oops"",""up"",""up"",""good_move"",4540.7,382.7,2771,4158,-2388.3,""error"",""-"",""-"",""no_move"",6216.1,1675.3,2609.3,5544.7,-1937.9,""error"",""-"",""-"",""no_move"",13404.7,7188.5,2361,10599.6,444.1,""oops"",""up"",""left"",""good_move""]","","",""
"16728","","","","instructions","23","834270","0.0-8.0-4.0","213","1","2025-07-09 09:22:48","7701e855f2ef39aa3fd6c71abdc6918a","88.24.169.19","Mozilla/5.0 (Windows NT 10.0; Win64; x64) AppleWebKit/537.36 (KHTML, like Gecko) Chrome/138.0.0.0 Safari/537.36","WebKit","Chrome","138.0.0.0","Windows","10.0","https://app.prolific.com/","es-ES,es;q=0.8","67db387c909560bc7b65ea88","686d226cabeef709c732f8e1","686e3126fee396358d14347c","67db387c909560bc7b65ea88","","[{""page_index"":0,""viewing_time"":7258},{""page_index"":1,""viewing_time"":9470}]","","","","","","","","","","","","","","","","","","","","","","","","","","","","","","","","","","","","","","","","","","","",""
"75490","","","{""green_ball"":[""Ball sometimes shakes and moves in a random direction""]}","survey-multi-select","24","909762","0.0-8.0-5.0-0.0","213","1","2025-07-09 09:22:48","7701e855f2ef39aa3fd6c71abdc6918a","88.24.169.19","Mozilla/5.0 (Windows NT 10.0; Win64; x64) AppleWebKit/537.36 (KHTML, like Gecko) Chrome/138.0.0.0 Safari/537.36","WebKit","Chrome","138.0.0.0","Windows","10.0","https://app.prolific.com/","es-ES,es;q=0.8","67db387c909560bc7b65ea88","686d226cabeef709c732f8e1","686e3126fee396358d14347c","67db387c909560bc7b65ea88","","","[0]","","","","quiz","","","","","","","","","","","","","","","","","","","","","","","","","","","","","","","","","","","","","true","",""
"6359","","<p align='center'><b>CORRECT!</b> Indeed, the green ball may sometimes shake and move in a random direction.</p>","0","html-button-response","25","916121","0.0-8.0-5.0-1.0","213","1","2025-07-09 09:22:48","7701e855f2ef39aa3fd6c71abdc6918a","88.24.169.19","Mozilla/5.0 (Windows NT 10.0; Win64; x64) AppleWebKit/537.36 (KHTML, like Gecko) Chrome/138.0.0.0 Safari/537.36","WebKit","Chrome","138.0.0.0","Windows","10.0","https://app.prolific.com/","es-ES,es;q=0.8","67db387c909560bc7b65ea88","686d226cabeef709c732f8e1","686e3126fee396358d14347c","67db387c909560bc7b65ea88","","","","","","","","","","","","","","","","","","","","","","","","","","","","","","","","","","","","","","","","","","","","","",""
"26453","","","{""yellow_ball"":[""Ball doesn‘t move and I get -1 penalty point""]}","survey-multi-select","26","942576","0.0-8.0-6.0-0.0","213","1","2025-07-09 09:22:48","7701e855f2ef39aa3fd6c71abdc6918a","88.24.169.19","Mozilla/5.0 (Windows NT 10.0; Win64; x64) AppleWebKit/537.36 (KHTML, like Gecko) Chrome/138.0.0.0 Safari/537.36","WebKit","Chrome","138.0.0.0","Windows","10.0","https://app.prolific.com/","es-ES,es;q=0.8","67db387c909560bc7b65ea88","686d226cabeef709c732f8e1","686e3126fee396358d14347c","67db387c909560bc7b65ea88","","","[0]","","","","quiz","","","","","","","","","","","","","","","","","","","","","","","","","","","","","","","","","","","","","true","",""
"3741","","<p align='center'><b>CORRECT!</b> Indeed, the yellow ball never moves and you receive a penalty.</p>","0","html-button-response","27","946317","0.0-8.0-6.0-1.0","213","1","2025-07-09 09:22:48","7701e855f2ef39aa3fd6c71abdc6918a","88.24.169.19","Mozilla/5.0 (Windows NT 10.0; Win64; x64) AppleWebKit/537.36 (KHTML, like Gecko) Chrome/138.0.0.0 Safari/537.36","WebKit","Chrome","138.0.0.0","Windows","10.0","https://app.prolific.com/","es-ES,es;q=0.8","67db387c909560bc7b65ea88","686d226cabeef709c732f8e1","686e3126fee396358d14347c","67db387c909560bc7b65ea88","","","","","","","","","","","","","","","","","","","","","","","","","","","","","","","","","","","","","","","","","","","","","",""
"27219","","","{""blue_ball"":[""Ball doesn‘t move and I get -1 penalty point""]}","survey-multi-select","28","973537","0.0-8.0-7.0-0.0","213","1","2025-07-09 09:22:48","7701e855f2ef39aa3fd6c71abdc6918a","88.24.169.19","Mozilla/5.0 (Windows NT 10.0; Win64; x64) AppleWebKit/537.36 (KHTML, like Gecko) Chrome/138.0.0.0 Safari/537.36","WebKit","Chrome","138.0.0.0","Windows","10.0","https://app.prolific.com/","es-ES,es;q=0.8","67db387c909560bc7b65ea88","686d226cabeef709c732f8e1","686e3126fee396358d14347c","67db387c909560bc7b65ea88","","","[0]","","","","quiz","","","","","","","","","","","","","","","","","","","","","","","","","","","","","","","","","","","","","false","",""
"5381","","<p align='center'><b>INCORRECT.</b> The blue ball always shakes and moves randomly.</p>","0","html-button-response","29","978919","0.0-8.0-7.0-1.0","213","1","2025-07-09 09:22:48","7701e855f2ef39aa3fd6c71abdc6918a","88.24.169.19","Mozilla/5.0 (Windows NT 10.0; Win64; x64) AppleWebKit/537.36 (KHTML, like Gecko) Chrome/138.0.0.0 Safari/537.36","WebKit","Chrome","138.0.0.0","Windows","10.0","https://app.prolific.com/","es-ES,es;q=0.8","67db387c909560bc7b65ea88","686d226cabeef709c732f8e1","686e3126fee396358d14347c","67db387c909560bc7b65ea88","","","","","","","","","","","","","","","","","","","","","","","","","","","","","","","","","","","","","","","","","","","","","",""
"32713","","","{""blue_ball"":[""Ball always shakes and moves in a random direction""]}","survey-multi-select","30","1011632","0.0-8.0-7.1-0.1","213","1","2025-07-09 09:22:48","7701e855f2ef39aa3fd6c71abdc6918a","88.24.169.19","Mozilla/5.0 (Windows NT 10.0; Win64; x64) AppleWebKit/537.36 (KHTML, like Gecko) Chrome/138.0.0.0 Safari/537.36","WebKit","Chrome","138.0.0.0","Windows","10.0","https://app.prolific.com/","es-ES,es;q=0.8","67db387c909560bc7b65ea88","686d226cabeef709c732f8e1","686e3126fee396358d14347c","67db387c909560bc7b65ea88","","","[0]","","","","quiz","","","","","","","","","","","","","","","","","","","","","","","","","","","","","","","","","","","","","true","",""
"4453","","<p align='center'><b>CORRECT!</b> Indeed, the blue ball always shakes and moves in a random direction. Also there is a penalty of -1 point.</p>","0","html-button-response","31","1016086","0.0-8.0-7.1-1.1","213","1","2025-07-09 09:22:48","7701e855f2ef39aa3fd6c71abdc6918a","88.24.169.19","Mozilla/5.0 (Windows NT 10.0; Win64; x64) AppleWebKit/537.36 (KHTML, like Gecko) Chrome/138.0.0.0 Safari/537.36","WebKit","Chrome","138.0.0.0","Windows","10.0","https://app.prolific.com/","es-ES,es;q=0.8","67db387c909560bc7b65ea88","686d226cabeef709c732f8e1","686e3126fee396358d14347c","67db387c909560bc7b65ea88","","","","","","","","","","","","","","","","","","","","","","","","","","","","","","","","","","","","","","","","","","","","","",""
"29495","","","{""bonus"":[""When I reach 50% of points""]}","survey-multi-select","32","1045582","0.0-8.0-8.0-0.0","213","1","2025-07-09 09:22:48","7701e855f2ef39aa3fd6c71abdc6918a","88.24.169.19","Mozilla/5.0 (Windows NT 10.0; Win64; x64) AppleWebKit/537.36 (KHTML, like Gecko) Chrome/138.0.0.0 Safari/537.36","WebKit","Chrome","138.0.0.0","Windows","10.0","https://app.prolific.com/","es-ES,es;q=0.8","67db387c909560bc7b65ea88","686d226cabeef709c732f8e1","686e3126fee396358d14347c","67db387c909560bc7b65ea88","","","[0]","","","","quiz","","","","","","","","","","","","","","","","","","","","","","","","","","","","","","","","","","","","","true","",""
"2103","","<p align='center'><b>CORRECT!</b> Indeed, you receive 2 pounds extra when you reach 50% of points.</p>","0","html-button-response","33","1047686","0.0-8.0-8.0-1.0","213","1","2025-07-09 09:22:48","7701e855f2ef39aa3fd6c71abdc6918a","88.24.169.19","Mozilla/5.0 (Windows NT 10.0; Win64; x64) AppleWebKit/537.36 (KHTML, like Gecko) Chrome/138.0.0.0 Safari/537.36","WebKit","Chrome","138.0.0.0","Windows","10.0","https://app.prolific.com/","es-ES,es;q=0.8","67db387c909560bc7b65ea88","686d226cabeef709c732f8e1","686e3126fee396358d14347c","67db387c909560bc7b65ea88","","","","","","","","","","","","","","","","","","","","","","","","","","","","","","","","","","","","","","","","","","","","","",""
"2843","","","","instructions","34","1050530","0.0-8.0-9.0","213","1","2025-07-09 09:22:48","7701e855f2ef39aa3fd6c71abdc6918a","88.24.169.19","Mozilla/5.0 (Windows NT 10.0; Win64; x64) AppleWebKit/537.36 (KHTML, like Gecko) Chrome/138.0.0.0 Safari/537.36","WebKit","Chrome","138.0.0.0","Windows","10.0","https://app.prolific.com/","es-ES,es;q=0.8","67db387c909560bc7b65ea88","686d226cabeef709c732f8e1","686e3126fee396358d14347c","67db387c909560bc7b65ea88","","[{""page_index"":0,""viewing_time"":2843}]","","","","","","","","","","","","","","","","","","","","","","","","","","","","","","","","","","","","","","","","","","","",""
"9625","","<p>Before you start with this game please answer the following three questions yourself. </p>
  <p>Through this game, we measure several aspects of your cognitive performance, such as reaction times, multi-tasking capabilities </p>
  <p>and the ability to assess the situation you are in.</p>
  <p></p>
  <p><b>How good do you usually are in such tasks?</b></p>","100","html-slider-response","35","1060156","0.0-9.0-0.0","213","1","2025-07-09 09:22:48","7701e855f2ef39aa3fd6c71abdc6918a","88.24.169.19","Mozilla/5.0 (Windows NT 10.0; Win64; x64) AppleWebKit/537.36 (KHTML, like Gecko) Chrome/138.0.0.0 Safari/537.36","WebKit","Chrome","138.0.0.0","Windows","10.0","https://app.prolific.com/","es-ES,es;q=0.8","67db387c909560bc7b65ea88","686d226cabeef709c732f8e1","686e3126fee396358d14347c","67db387c909560bc7b65ea88","2025-07-09T09:40:30.937Z","","","","","","PreSkillQ","","","","","","","","","","","","","","","","","","","","","","","","","","","","","","","","","","","","","","50",""
"6025","","<div style=""width:500px;"">
  <p>How well do you think you will perform in this task compared to other participants?</p>
  </div>","77","html-slider-response","36","1066181","0.0-9.0-1.0","213","1","2025-07-09 09:22:48","7701e855f2ef39aa3fd6c71abdc6918a","88.24.169.19","Mozilla/5.0 (Windows NT 10.0; Win64; x64) AppleWebKit/537.36 (KHTML, like Gecko) Chrome/138.0.0.0 Safari/537.36","WebKit","Chrome","138.0.0.0","Windows","10.0","https://app.prolific.com/","es-ES,es;q=0.8","67db387c909560bc7b65ea88","686d226cabeef709c732f8e1","686e3126fee396358d14347c","67db387c909560bc7b65ea88","2025-07-09T09:40:36.962Z","","","","","","PrePerfQ","","","","","","","","","","","","","","","","","","","","","","","","","","","","","","","","","","","","","","50",""
"4719","","<div style=""width:500px;"">
  <p>What best describes how you currently feel?</p>
  </div>","92","html-slider-response","37","1070901","0.0-9.0-2.0","213","1","2025-07-09 09:22:48","7701e855f2ef39aa3fd6c71abdc6918a","88.24.169.19","Mozilla/5.0 (Windows NT 10.0; Win64; x64) AppleWebKit/537.36 (KHTML, like Gecko) Chrome/138.0.0.0 Safari/537.36","WebKit","Chrome","138.0.0.0","Windows","10.0","https://app.prolific.com/","es-ES,es;q=0.8","67db387c909560bc7b65ea88","686d226cabeef709c732f8e1","686e3126fee396358d14347c","67db387c909560bc7b65ea88","2025-07-09T09:40:41.683Z","","","","","","PreMotivationQ","","","","","","","","","","","","","","","","","","","","","","","","","","","","","","","","","","","","","","50",""
"","","","","ctl-task-cpt","38","1097079","0.0-10.0-0.0","213","1","2025-07-09 09:22:48","7701e855f2ef39aa3fd6c71abdc6918a","88.24.169.19","Mozilla/5.0 (Windows NT 10.0; Win64; x64) AppleWebKit/537.36 (KHTML, like Gecko) Chrome/138.0.0.0 Safari/537.36","WebKit","Chrome","138.0.0.0","Windows","10.0","https://app.prolific.com/","es-ES,es;q=0.8","67db387c909560bc7b65ea88","686d226cabeef709c732f8e1","686e3126fee396358d14347c","67db387c909560bc7b65ea88","2025-07-09T09:41:07.860Z","","","","","","","","","","","","","","","","win-only","2","g1:SE,g2:NW","1","1","0","1072478.2","3454.9","8455.9","23160.8","1","4","8","6","1","1","1","1","0","0.007575757575757576","1966.2","3000","785","[""down"",""right""]","{""num_key_presses"":4,""num_perfect"":4,""num_errors"":0,""num_randdir"":0,""num_randdir_good_moves"":0,""num_whilered"":0,""num_whileblue"":0,""num_blue"":1,""num_good_moves"":4}","[412.57142857142856,416.47767857142856,0.1,412.57142857142856,416.47767857142856,101.1,412.57142857142856,416.47767857142856,206.1,412.57142857142856,416.47767857142856,310.4,412.57142857142856,416.47767857142856,411.1,439.57142857142856,461.47767857142856,511.2,476.57142857142856,487.47767857142856,615.3,479.57142857142856,489.47767857142856,715.3,479.57142857142856,489.47767857142856,820.2,479.57142857142856,489.47767857142856,920.4,479.57142857142856,489.47767857142856,1020.5,479.57142857142856,489.47767857142856,1125.3,468.57142857142856,480.47767857142856,1225.4,460.57142857142856,477.47767857142856,1325.5,467.57142857142856,487.47767857142856,1425.6,581.5714285714286,577.4776785714286,1525.6,678.5714285714286,648.4776785714286,1625.8,713.5714285714286,678.4776785714286,1725.9,728.5714285714286,711.4776785714286,1826,728.5714285714286,721.4776785714286,1926.1,728.5714285714286,721.4776785714286,2026.2,728.5714285714286,721.4776785714286,2126.3,728.5714285714286,721.4776785714286,2231.9,707.5714285714286,715.4776785714286,2335.4,707.5714285714286,715.4776785714286,2435.5,707.5714285714286,715.4776785714286,2535.6,622.5714285714286,693.4776785714286,2635.7,518.5714285714286,664.4776785714286,2740.8,330.57142857142856,621.4776785714286,2840.9,283.57142857142856,578.4776785714286,2941,384.57142857142856,521.4776785714286,3041.4,469.57142857142856,520.4776785714286,3146.2,492.57142857142856,516.4776785714286,3250.2,502.57142857142856,509.47767857142856,3350.4,504.57142857142856,506.47767857142856,3450.5,504.57142857142856,506.47767857142856,3550.5,503.57142857142856,501.47767857142856,3650.7,502.57142857142856,498.47767857142856,3750.8,502.57142857142856,498.47767857142856,3855.8,502.57142857142856,498.47767857142856,3955.9,502.57142857142856,498.47767857142856,4056,502.57142857142856,498.47767857142856,4156.1,501.57142857142856,497.47767857142856,4261.1,490.57142857142856,495.47767857142856,4365.2,490.57142857142856,495.47767857142856,4465.3,490.57142857142856,495.47767857142856,4565.6,490.57142857142856,495.47767857142856,4670.3,490.57142857142856,495.47767857142856,4770.6,490.57142857142856,495.47767857142856,4870.7,490.57142857142856,495.47767857142856,4970.8]","[2209.4,2209.4,1000,0,1209.4,""smooth"",""down"",""down"",""good_move"",8297.9,6088.3,1645.8,6339.8,312.3,""smooth"",""right"",""right"",""good_move"",11836.5,3538.4,3172.9,8298.1,365.5,""smooth"",""down"",""down"",""good_move"",14615.2,2778.5,2427.7,11836.7,350.8,""smooth"",""right"",""right"",""good_move""]","","",""
"4453","","<div style=""width:500px;"">
  <p>What determined the result of this run?</p>
  </div>","100","html-slider-response","39","1101533","0.0-10.0-1.0","213","1","2025-07-09 09:22:48","7701e855f2ef39aa3fd6c71abdc6918a","88.24.169.19","Mozilla/5.0 (Windows NT 10.0; Win64; x64) AppleWebKit/537.36 (KHTML, like Gecko) Chrome/138.0.0.0 Safari/537.36","WebKit","Chrome","138.0.0.0","Windows","10.0","https://app.prolific.com/","es-ES,es;q=0.8","67db387c909560bc7b65ea88","686d226cabeef709c732f8e1","686e3126fee396358d14347c","67db387c909560bc7b65ea88","2025-07-09T09:41:12.314Z","","","","","","AttribQ","","","","","","","","","","","","","","","","","","","","","","","","","","","","","","","","","","","","","","50",""
"3397","","<div style=""width:500px;"">
  <p>How much control did you have over the ball?</p>
  </div>","100","html-slider-response","40","1104931","0.0-10.0-2.0","213","1","2025-07-09 09:22:48","7701e855f2ef39aa3fd6c71abdc6918a","88.24.169.19","Mozilla/5.0 (Windows NT 10.0; Win64; x64) AppleWebKit/537.36 (KHTML, like Gecko) Chrome/138.0.0.0 Safari/537.36","WebKit","Chrome","138.0.0.0","Windows","10.0","https://app.prolific.com/","es-ES,es;q=0.8","67db387c909560bc7b65ea88","686d226cabeef709c732f8e1","686e3126fee396358d14347c","67db387c909560bc7b65ea88","2025-07-09T09:41:15.712Z","","","","","","ControlQ","","","","","","","","","","","","","","","","","","","","","","","","","","","","","","","","","","","","","","50",""
"4233","","<div style=""width:500px;"">
  <p>How would you describe your current emotional state?</p>
  </div>","0","html-slider-response","41","1109165","0.0-10.0-3.0","213","1","2025-07-09 09:22:48","7701e855f2ef39aa3fd6c71abdc6918a","88.24.169.19","Mozilla/5.0 (Windows NT 10.0; Win64; x64) AppleWebKit/537.36 (KHTML, like Gecko) Chrome/138.0.0.0 Safari/537.36","WebKit","Chrome","138.0.0.0","Windows","10.0","https://app.prolific.com/","es-ES,es;q=0.8","67db387c909560bc7b65ea88","686d226cabeef709c732f8e1","686e3126fee396358d14347c","67db387c909560bc7b65ea88","2025-07-09T09:41:19.946Z","","","","","","StressQ","","","","","","","","","","","","","","","","","","","","","","","","","","","","","","","","","","","","","","50",""
"3763","","<div style=""width:500px;"">
  <p>What best describes how you currently feel?</p>
  </div>","100","html-slider-response","42","1112929","0.0-10.0-4.0","213","1","2025-07-09 09:22:48","7701e855f2ef39aa3fd6c71abdc6918a","88.24.169.19","Mozilla/5.0 (Windows NT 10.0; Win64; x64) AppleWebKit/537.36 (KHTML, like Gecko) Chrome/138.0.0.0 Safari/537.36","WebKit","Chrome","138.0.0.0","Windows","10.0","https://app.prolific.com/","es-ES,es;q=0.8","67db387c909560bc7b65ea88","686d226cabeef709c732f8e1","686e3126fee396358d14347c","67db387c909560bc7b65ea88","2025-07-09T09:41:23.710Z","","","","","","MotivationQ","","","","","","","","","","","","","","","","","","","","","","","","","","","","","","","","","","","","","","50",""
"","","","","ctl-task-cpt","43","1161602","0.0-10.0-0.1","213","1","2025-07-09 09:22:48","7701e855f2ef39aa3fd6c71abdc6918a","88.24.169.19","Mozilla/5.0 (Windows NT 10.0; Win64; x64) AppleWebKit/537.36 (KHTML, like Gecko) Chrome/138.0.0.0 Safari/537.36","WebKit","Chrome","138.0.0.0","Windows","10.0","https://app.prolific.com/","es-ES,es;q=0.8","67db387c909560bc7b65ea88","686d226cabeef709c732f8e1","686e3126fee396358d14347c","67db387c909560bc7b65ea88","2025-07-09T09:42:12.383Z","","","","","","","","","","","","","","","","win-only","2","g1:SE,g2:NW","0.9","2","0","1114505.5","1165","6166","45655.2","1","4","4","6","2","-4","-4","0","1","0","1822.6","3000","-3015","[""left"",""up""]","{""num_key_presses"":7,""num_perfect"":6,""num_errors"":0,""num_randdir"":1,""num_randdir_good_moves"":0,""num_whilered"":0,""num_whileblue"":0,""num_blue"":5,""num_good_moves"":5}","[411.57142857142856,417.47767857142856,0.2,411.57142857142856,417.47767857142856,100.1,411.57142857142856,417.47767857142856,200.1,411.57142857142856,417.47767857142856,300.3,313.57142857142856,317.47767857142856,405.1,86.57142857142857,122.47767857142857,505.3,74.57142857142857,107.47767857142857,610.2,74.57142857142857,107.47767857142857,710.3,74.57142857142857,107.47767857142857,811.1,74.57142857142857,107.47767857142857,915.9,74.57142857142857,107.47767857142857,1020.7,74.57142857142857,107.47767857142857,1120.7,74.57142857142857,107.47767857142857,1220.9,74.57142857142857,107.47767857142857,1325.3,74.57142857142857,107.47767857142857,1425.7,74.57142857142857,107.47767857142857,1525.9,74.57142857142857,107.47767857142857,1626,74.57142857142857,107.47767857142857,1730.2,74.57142857142857,107.47767857142857,1831,74.57142857142857,107.47767857142857,1935.9,74.57142857142857,107.47767857142857,2035.9,257.57142857142856,408.47767857142856,2136,500.57142857142856,674.4776785714286,2236.1,547.5714285714286,708.4776785714286,2336.1,547.5714285714286,708.4776785714286,2441,541.5714285714286,708.4776785714286,2545.8,498.57142857142856,669.4776785714286,2650.9,326.57142857142856,454.47767857142856,2750.9,316.57142857142856,444.47767857142856,2851,316.57142857142856,444.47767857142856,2951,316.57142857142856,444.47767857142856,3055.1,316.57142857142856,444.47767857142856,3155.2,316.57142857142856,444.47767857142856,3255.3,316.57142857142856,444.47767857142856,3355.4,316.57142857142856,444.47767857142856,3455.5,316.57142857142856,443.47767857142856,3555.5,391.57142857142856,416.47767857142856,3655.7,401.57142857142856,416.47767857142856,3760.7,406.57142857142856,493.47767857142856,3860.8,413.57142857142856,549.4776785714286,3965.5,413.57142857142856,568.4776785714286,4070.8,411.57142857142856,579.4776785714286,4175.1,410.57142857142856,580.4776785714286,4275.2,410.57142857142856,580.4776785714286,4375.3,410.57142857142856,580.4776785714286,4475.5,410.57142857142856,580.4776785714286,4575.5,410.57142857142856,580.4776785714286,4675.6,395.57142857142856,580.4776785714286,4775.7,365.57142857142856,584.4776785714286,4880.7,352.57142857142856,592.4776785714286,4980.9]","[1472.5,1472.5,1000,0,472.5,""smooth"",""up"",""up"",""good_move"",8043.6,6570.9,2841.6,4844.2,357.8,""smooth"",""left"",""left"",""good_move"",10607.6,2563.7,2122,8043.9,441.7,""smooth"",""up"",""up"",""good_move"",17412.3,6804.5,2017.9,15014.7,379.7,""smooth"",""up"",""up"",""good_move"",19849.7,2437.2,2079.6,17412.5,357.6,""oops"",""left"",""right"",""bad_move"",22805.3,2955.4,2378.7,19849.9,576.7,""smooth"",""down"",""down"",""bad_move"",37748.2,14942.8,2779.8,34599.3,369.1,""smooth"",""left"",""left"",""good_move""]","","",""
"3214","","<div style=""width:500px;"">
  <p>What determined the result of this run?</p>
  </div>","21","html-slider-response","44","1164816","0.0-10.0-1.1","213","1","2025-07-09 09:22:48","7701e855f2ef39aa3fd6c71abdc6918a","88.24.169.19","Mozilla/5.0 (Windows NT 10.0; Win64; x64) AppleWebKit/537.36 (KHTML, like Gecko) Chrome/138.0.0.0 Safari/537.36","WebKit","Chrome","138.0.0.0","Windows","10.0","https://app.prolific.com/","es-ES,es;q=0.8","67db387c909560bc7b65ea88","686d226cabeef709c732f8e1","686e3126fee396358d14347c","67db387c909560bc7b65ea88","2025-07-09T09:42:15.597Z","","","","","","AttribQ","","","","","","","","","","","","","","","","","","","","","","","","","","","","","","","","","","","","","","50",""
"2753","","<div style=""width:500px;"">
  <p>How much control did you have over the ball?</p>
  </div>","73","html-slider-response","45","1167570","0.0-10.0-2.1","213","1","2025-07-09 09:22:48","7701e855f2ef39aa3fd6c71abdc6918a","88.24.169.19","Mozilla/5.0 (Windows NT 10.0; Win64; x64) AppleWebKit/537.36 (KHTML, like Gecko) Chrome/138.0.0.0 Safari/537.36","WebKit","Chrome","138.0.0.0","Windows","10.0","https://app.prolific.com/","es-ES,es;q=0.8","67db387c909560bc7b65ea88","686d226cabeef709c732f8e1","686e3126fee396358d14347c","67db387c909560bc7b65ea88","2025-07-09T09:42:18.351Z","","","","","","ControlQ","","","","","","","","","","","","","","","","","","","","","","","","","","","","","","","","","","","","","","50",""
"3501","","<div style=""width:500px;"">
  <p>How would you describe your current emotional state?</p>
  </div>","66","html-slider-response","46","1171072","0.0-10.0-3.1","213","1","2025-07-09 09:22:48","7701e855f2ef39aa3fd6c71abdc6918a","88.24.169.19","Mozilla/5.0 (Windows NT 10.0; Win64; x64) AppleWebKit/537.36 (KHTML, like Gecko) Chrome/138.0.0.0 Safari/537.36","WebKit","Chrome","138.0.0.0","Windows","10.0","https://app.prolific.com/","es-ES,es;q=0.8","67db387c909560bc7b65ea88","686d226cabeef709c732f8e1","686e3126fee396358d14347c","67db387c909560bc7b65ea88","2025-07-09T09:42:21.853Z","","","","","","StressQ","","","","","","","","","","","","","","","","","","","","","","","","","","","","","","","","","","","","","","50",""
"3494","","<div style=""width:500px;"">
  <p>What best describes how you currently feel?</p>
  </div>","80","html-slider-response","47","1174566","0.0-10.0-4.1","213","1","2025-07-09 09:22:48","7701e855f2ef39aa3fd6c71abdc6918a","88.24.169.19","Mozilla/5.0 (Windows NT 10.0; Win64; x64) AppleWebKit/537.36 (KHTML, like Gecko) Chrome/138.0.0.0 Safari/537.36","WebKit","Chrome","138.0.0.0","Windows","10.0","https://app.prolific.com/","es-ES,es;q=0.8","67db387c909560bc7b65ea88","686d226cabeef709c732f8e1","686e3126fee396358d14347c","67db387c909560bc7b65ea88","2025-07-09T09:42:25.347Z","","","","","","MotivationQ","","","","","","","","","","","","","","","","","","","","","","","","","","","","","","","","","","","","","","50",""
"","","","","ctl-task-cpt","48","1205533","0.0-10.0-0.2","213","1","2025-07-09 09:22:48","7701e855f2ef39aa3fd6c71abdc6918a","88.24.169.19","Mozilla/5.0 (Windows NT 10.0; Win64; x64) AppleWebKit/537.36 (KHTML, like Gecko) Chrome/138.0.0.0 Safari/537.36","WebKit","Chrome","138.0.0.0","Windows","10.0","https://app.prolific.com/","es-ES,es;q=0.8","67db387c909560bc7b65ea88","686d226cabeef709c732f8e1","686e3126fee396358d14347c","67db387c909560bc7b65ea88","2025-07-09T09:42:56.314Z","","","","","","","","","","","","","","","","win-only","1","g1:NE,g2:SW","0.8","3","0","1176142.8","983.1","5986.2","27950.7","1","4","8","6","2","-8","-8","0","0","0","1766.1","3000","-3015","[""down"",""left""]","{""num_key_presses"":6,""num_perfect"":4,""num_errors"":0,""num_randdir"":2,""num_randdir_good_moves"":1,""num_whilered"":0,""num_whileblue"":0,""num_blue"":1,""num_good_moves"":5}","[416.57142857142856,424.47767857142856,0.2,416.57142857142856,424.47767857142856,102.4,416.57142857142856,424.47767857142856,207.4,416.57142857142856,424.47767857142856,307.6,416.57142857142856,424.47767857142856,407.7,416.57142857142856,424.47767857142856,507.8,416.57142857142856,424.47767857142856,612.8,434.57142857142856,390.47767857142856,713,439.57142857142856,374.47767857142856,817.1,375.57142857142856,470.47767857142856,917.2,534.5714285714286,216.47767857142856,1017.3,700.5714285714286,102.47767857142857,1122.4,673.5714285714286,137.47767857142856,1222.4,337.57142857142856,571.4776785714286,1322.7,117.57142857142857,676.4776785714286,1427.7,114.57142857142857,666.4776785714286,1527.8,71.57142857142857,746.4776785714286,1632.4,67.57142857142857,748.4776785714286,1733,67.57142857142857,748.4776785714286,1837.2,67.57142857142857,748.4776785714286,1942.1,67.57142857142857,748.4776785714286,2042.2,155.57142857142856,696.4776785714286,2142.3,326.57142857142856,654.4776785714286,2242.5,373.57142857142856,650.4776785714286,2342.5,373.57142857142856,650.4776785714286,2442.6,373.57142857142856,650.4776785714286,2542.8,373.57142857142856,650.4776785714286,2647.8,373.57142857142856,650.4776785714286,2752.1,373.57142857142856,650.4776785714286,2853,373.57142857142856,650.4776785714286,2957.1,373.57142857142856,650.4776785714286,3057.1,373.57142857142856,650.4776785714286,3157.2,373.57142857142856,650.4776785714286,3260.2,373.57142857142856,650.4776785714286,3362.4,373.57142857142856,650.4776785714286,3462.5,373.57142857142856,650.4776785714286,3563.6,373.57142857142856,650.4776785714286,3667.7,373.57142857142856,650.4776785714286,3767.8,373.57142857142856,650.4776785714286,3872.8,373.57142857142856,650.4776785714286,3973,373.57142857142856,650.4776785714286,4078.1,373.57142857142856,650.4776785714286,4182.2,373.57142857142856,650.4776785714286,4282.2,373.57142857142856,650.4776785714286,4382.3,373.57142857142856,650.4776785714286,4482.5,373.57142857142856,650.4776785714286,4582.5,373.57142857142856,650.4776785714286,4682.6,373.57142857142856,650.4776785714286,4782.8,373.57142857142856,650.4776785714286,4887.8,373.57142857142856,650.4776785714286,4987.8]","[1540.4,1540.4,1000,0,540.4,""smooth"",""down"",""down"",""good_move"",4469.2,2928.6,2558.8,1540.6,369.8,""smooth"",""left"",""left"",""good_move"",7266.2,2796.7,2391.6,4469.5,405.1,""smooth"",""left"",""left"",""good_move"",9868.1,2601.8,2183.7,7266.3,418.1,""smooth"",""left"",""left"",""good_move"",16902.2,7033.9,2360.9,13824.1,717.2,""oops"",""down"",""down"",""good_move"",19551.9,2649.5,2263.4,16902.4,386.1,""oops"",""down"",""up"",""bad_move""]","","",""
"2400","","<div style=""width:500px;"">
  <p>What determined the result of this run?</p>
  </div>","2","html-slider-response","49","1207934","0.0-10.0-1.2","213","1","2025-07-09 09:22:48","7701e855f2ef39aa3fd6c71abdc6918a","88.24.169.19","Mozilla/5.0 (Windows NT 10.0; Win64; x64) AppleWebKit/537.36 (KHTML, like Gecko) Chrome/138.0.0.0 Safari/537.36","WebKit","Chrome","138.0.0.0","Windows","10.0","https://app.prolific.com/","es-ES,es;q=0.8","67db387c909560bc7b65ea88","686d226cabeef709c732f8e1","686e3126fee396358d14347c","67db387c909560bc7b65ea88","2025-07-09T09:42:58.715Z","","","","","","AttribQ","","","","","","","","","","","","","","","","","","","","","","","","","","","","","","","","","","","","","","50",""
"1905","","<div style=""width:500px;"">
  <p>How much control did you have over the ball?</p>
  </div>","64","html-slider-response","50","1209840","0.0-10.0-2.2","213","1","2025-07-09 09:22:48","7701e855f2ef39aa3fd6c71abdc6918a","88.24.169.19","Mozilla/5.0 (Windows NT 10.0; Win64; x64) AppleWebKit/537.36 (KHTML, like Gecko) Chrome/138.0.0.0 Safari/537.36","WebKit","Chrome","138.0.0.0","Windows","10.0","https://app.prolific.com/","es-ES,es;q=0.8","67db387c909560bc7b65ea88","686d226cabeef709c732f8e1","686e3126fee396358d14347c","67db387c909560bc7b65ea88","2025-07-09T09:43:00.621Z","","","","","","ControlQ","","","","","","","","","","","","","","","","","","","","","","","","","","","","","","","","","","","","","","50",""
"2667","","<div style=""width:500px;"">
  <p>How would you describe your current emotional state?</p>
  </div>","58","html-slider-response","51","1212508","0.0-10.0-3.2","213","1","2025-07-09 09:22:48","7701e855f2ef39aa3fd6c71abdc6918a","88.24.169.19","Mozilla/5.0 (Windows NT 10.0; Win64; x64) AppleWebKit/537.36 (KHTML, like Gecko) Chrome/138.0.0.0 Safari/537.36","WebKit","Chrome","138.0.0.0","Windows","10.0","https://app.prolific.com/","es-ES,es;q=0.8","67db387c909560bc7b65ea88","686d226cabeef709c732f8e1","686e3126fee396358d14347c","67db387c909560bc7b65ea88","2025-07-09T09:43:03.289Z","","","","","","StressQ","","","","","","","","","","","","","","","","","","","","","","","","","","","","","","","","","","","","","","50",""
"2029","","<div style=""width:500px;"">
  <p>What best describes how you currently feel?</p>
  </div>","66","html-slider-response","52","1214537","0.0-10.0-4.2","213","1","2025-07-09 09:22:48","7701e855f2ef39aa3fd6c71abdc6918a","88.24.169.19","Mozilla/5.0 (Windows NT 10.0; Win64; x64) AppleWebKit/537.36 (KHTML, like Gecko) Chrome/138.0.0.0 Safari/537.36","WebKit","Chrome","138.0.0.0","Windows","10.0","https://app.prolific.com/","es-ES,es;q=0.8","67db387c909560bc7b65ea88","686d226cabeef709c732f8e1","686e3126fee396358d14347c","67db387c909560bc7b65ea88","2025-07-09T09:43:05.319Z","","","","","","MotivationQ","","","","","","","","","","","","","","","","","","","","","","","","","","","","","","","","","","","","","","50",""
"","","","","ctl-task-cpt","53","1248102","0.0-10.0-0.3","213","1","2025-07-09 09:22:48","7701e855f2ef39aa3fd6c71abdc6918a","88.24.169.19","Mozilla/5.0 (Windows NT 10.0; Win64; x64) AppleWebKit/537.36 (KHTML, like Gecko) Chrome/138.0.0.0 Safari/537.36","WebKit","Chrome","138.0.0.0","Windows","10.0","https://app.prolific.com/","es-ES,es;q=0.8","67db387c909560bc7b65ea88","686d226cabeef709c732f8e1","686e3126fee396358d14347c","67db387c909560bc7b65ea88","2025-07-09T09:43:38.883Z","","","","","","","","","","","","","","","","win-only","1","g1:NE,g2:SW","0.7","4","0","1216114.2","941.1","5945.6","30545.3","1","4","4","6","1","1","1","1","0","0.007575757575757576","1404.6","3000","75","[""up"",""right""]","{""num_key_presses"":8,""num_perfect"":6,""num_errors"":0,""num_randdir"":2,""num_randdir_good_moves"":0,""num_whilered"":0,""num_whileblue"":0,""num_blue"":1,""num_good_moves"":6}","[418.57142857142856,415.47767857142856,0,418.57142857142856,415.47767857142856,104.1,418.57142857142856,415.47767857142856,204.4,418.57142857142856,415.47767857142856,304.4,418.57142857142856,415.47767857142856,407,418.57142857142856,415.47767857142856,509.8,418.57142857142856,415.47767857142856,614.2,418.57142857142856,415.47767857142856,714.3,418.57142857142856,415.47767857142856,819.2,468.57142857142856,329.47767857142856,919.2,729.5714285714286,66.47767857142857,1019.8,767.5714285714286,12.47767857142857,1124.2,767.5714285714286,12.47767857142857,1225,759.5714285714286,46.47767857142857,1329.1,759.5714285714286,46.47767857142857,1429.1,759.5714285714286,46.47767857142857,1529.2,758.5714285714286,62.47767857142857,1629.3,659.5714285714286,408.47767857142856,1734,577.5714285714286,482.47767857142856,1834.4,573.5714285714286,483.47767857142856,1939.6,573.5714285714286,483.47767857142856,2039.7,573.5714285714286,483.47767857142856,2139.8,573.5714285714286,483.47767857142856,2244.9,545.5714285714286,493.47767857142856,2349,537.5714285714286,494.47767857142856,2449.1,537.5714285714286,494.47767857142856,2549.1,537.5714285714286,494.47767857142856,2656,537.5714285714286,494.47767857142856,2759.3,537.5714285714286,494.47767857142856,2859.4,537.5714285714286,494.47767857142856,2964.3,537.5714285714286,494.47767857142856,3064.6,537.5714285714286,494.47767857142856,3164.7,537.5714285714286,494.47767857142856,3269.8,537.5714285714286,494.47767857142856,3369.9,537.5714285714286,494.47767857142856,3470,537.5714285714286,494.47767857142856,3574.1,537.5714285714286,494.47767857142856,3674.2,537.5714285714286,494.47767857142856,3779,537.5714285714286,494.47767857142856,3879.4,537.5714285714286,494.47767857142856,3984,537.5714285714286,494.47767857142856,4084.6,537.5714285714286,494.47767857142856,4189.3,537.5714285714286,494.47767857142856,4289.3,537.5714285714286,494.47767857142856,4394.9,537.5714285714286,494.47767857142856,4499.9,537.5714285714286,494.47767857142856,4604,537.5714285714286,494.47767857142856,4704.1,537.5714285714286,494.47767857142856,4804.2,537.5714285714286,494.47767857142856,4904.3]","[4910.2,4910.2,2486.4,2009.7,414.1,""smooth"",""right"",""right"",""good_move"",7901.5,2991,2582.2,4910.5,408.8,""smooth"",""right"",""right"",""good_move"",11116.8,3215.1,2833.6,7901.7,381.5,""oops"",""up"",""left"",""bad_move"",13499.1,2382,2036.5,11117.1,345.5,""smooth"",""up"",""up"",""good_move"",15950.3,2450.9,2133.7,13499.4,317.2,""oops"",""right"",""down"",""bad_move"",18710.7,2760.1,2368.6,15950.6,391.5,""smooth"",""up"",""up"",""good_move"",22263.8,3552.9,3190.4,18710.9,362.5,""smooth"",""up"",""up"",""good_move"",24513.9,2250,1906.2,22263.9,343.8,""smooth"",""right"",""right"",""good_move""]","","",""
"1731","","<div style=""width:500px;"">
  <p>What determined the result of this run?</p>
  </div>","32","html-slider-response","54","1249833","0.0-10.0-1.3","213","1","2025-07-09 09:22:48","7701e855f2ef39aa3fd6c71abdc6918a","88.24.169.19","Mozilla/5.0 (Windows NT 10.0; Win64; x64) AppleWebKit/537.36 (KHTML, like Gecko) Chrome/138.0.0.0 Safari/537.36","WebKit","Chrome","138.0.0.0","Windows","10.0","https://app.prolific.com/","es-ES,es;q=0.8","67db387c909560bc7b65ea88","686d226cabeef709c732f8e1","686e3126fee396358d14347c","67db387c909560bc7b65ea88","2025-07-09T09:43:40.614Z","","","","","","AttribQ","","","","","","","","","","","","","","","","","","","","","","","","","","","","","","","","","","","","","","50",""
"1971","","<div style=""width:500px;"">
  <p>How much control did you have over the ball?</p>
  </div>","75","html-slider-response","55","1251805","0.0-10.0-2.3","213","1","2025-07-09 09:22:48","7701e855f2ef39aa3fd6c71abdc6918a","88.24.169.19","Mozilla/5.0 (Windows NT 10.0; Win64; x64) AppleWebKit/537.36 (KHTML, like Gecko) Chrome/138.0.0.0 Safari/537.36","WebKit","Chrome","138.0.0.0","Windows","10.0","https://app.prolific.com/","es-ES,es;q=0.8","67db387c909560bc7b65ea88","686d226cabeef709c732f8e1","686e3126fee396358d14347c","67db387c909560bc7b65ea88","2025-07-09T09:43:42.586Z","","","","","","ControlQ","","","","","","","","","","","","","","","","","","","","","","","","","","","","","","","","","","","","","","50",""
"1789","","<div style=""width:500px;"">
  <p>How would you describe your current emotional state?</p>
  </div>","25","html-slider-response","56","1253595","0.0-10.0-3.3","213","1","2025-07-09 09:22:48","7701e855f2ef39aa3fd6c71abdc6918a","88.24.169.19","Mozilla/5.0 (Windows NT 10.0; Win64; x64) AppleWebKit/537.36 (KHTML, like Gecko) Chrome/138.0.0.0 Safari/537.36","WebKit","Chrome","138.0.0.0","Windows","10.0","https://app.prolific.com/","es-ES,es;q=0.8","67db387c909560bc7b65ea88","686d226cabeef709c732f8e1","686e3126fee396358d14347c","67db387c909560bc7b65ea88","2025-07-09T09:43:44.376Z","","","","","","StressQ","","","","","","","","","","","","","","","","","","","","","","","","","","","","","","","","","","","","","","50",""
"2141","","<div style=""width:500px;"">
  <p>What best describes how you currently feel?</p>
  </div>","81","html-slider-response","57","1255737","0.0-10.0-4.3","213","1","2025-07-09 09:22:48","7701e855f2ef39aa3fd6c71abdc6918a","88.24.169.19","Mozilla/5.0 (Windows NT 10.0; Win64; x64) AppleWebKit/537.36 (KHTML, like Gecko) Chrome/138.0.0.0 Safari/537.36","WebKit","Chrome","138.0.0.0","Windows","10.0","https://app.prolific.com/","es-ES,es;q=0.8","67db387c909560bc7b65ea88","686d226cabeef709c732f8e1","686e3126fee396358d14347c","67db387c909560bc7b65ea88","2025-07-09T09:43:46.518Z","","","","","","MotivationQ","","","","","","","","","","","","","","","","","","","","","","","","","","","","","","","","","","","","","","50",""
"","","","","ctl-task-cpt","58","1295990","0.0-10.0-0.4","213","1","2025-07-09 09:22:48","7701e855f2ef39aa3fd6c71abdc6918a","88.24.169.19","Mozilla/5.0 (Windows NT 10.0; Win64; x64) AppleWebKit/537.36 (KHTML, like Gecko) Chrome/138.0.0.0 Safari/537.36","WebKit","Chrome","138.0.0.0","Windows","10.0","https://app.prolific.com/","es-ES,es;q=0.8","67db387c909560bc7b65ea88","686d226cabeef709c732f8e1","686e3126fee396358d14347c","67db387c909560bc7b65ea88","2025-07-09T09:44:26.772Z","","","","","","","","","","","","","","","","win-only","1","g1:NE,g2:SW","0.6","5","0","1257313.7","927.3","5930.5","37235.6","1","4","4","6","1","1","1","2","1","0.015151515151515152","1368.8","3000","145","[""up"",""right""]","{""num_key_presses"":6,""num_perfect"":3,""num_errors"":0,""num_randdir"":3,""num_randdir_good_moves"":2,""num_whilered"":0,""num_whileblue"":0,""num_blue"":4,""num_good_moves"":5}","[413.57142857142856,413.47767857142856,0.2,413.57142857142856,413.47767857142856,103.1,413.57142857142856,413.47767857142856,210.9,413.57142857142856,413.47767857142856,313.9,449.57142857142856,370.47767857142856,418.3,626.5714285714286,197.47767857142856,523,667.5714285714286,170.47767857142856,623.1,667.5714285714286,170.47767857142856,723.2,714.5714285714286,107.47767857142857,823.7,720.5714285714286,94.47767857142857,928.1,720.5714285714286,94.47767857142857,1028.6,720.5714285714286,94.47767857142857,1132.9,720.5714285714286,94.47767857142857,1233.1,720.5714285714286,94.47767857142857,1333.1,720.5714285714286,94.47767857142857,1437.9,720.5714285714286,94.47767857142857,1538.1,720.5714285714286,97.47767857142857,1638.1,641.5714285714286,379.47767857142856,1738.7,623.5714285714286,437.47767857142856,1843,623.5714285714286,437.47767857142856,1943.3,623.5714285714286,437.47767857142856,2043.3,623.5714285714286,437.47767857142856,2143.5,623.5714285714286,429.47767857142856,2248.1,623.5714285714286,428.47767857142856,2353.1,623.5714285714286,428.47767857142856,2453.2,623.5714285714286,428.47767857142856,2553.3,623.5714285714286,428.47767857142856,2653.6,623.5714285714286,428.47767857142856,2758.1,623.5714285714286,428.47767857142856,2858.3,623.5714285714286,424.47767857142856,2963,621.5714285714286,414.47767857142856,3063.4,621.5714285714286,414.47767857142856,3168.9,621.5714285714286,414.47767857142856,3272.9,621.5714285714286,414.47767857142856,3373.2,621.5714285714286,414.47767857142856,3478.2,621.5714285714286,414.47767857142856,3578.2,621.5714285714286,414.47767857142856,3678.2,621.5714285714286,414.47767857142856,3783.3,621.5714285714286,414.47767857142856,3888.2,621.5714285714286,414.47767857142856,3988.3,621.5714285714286,414.47767857142856,4088.3,621.5714285714286,414.47767857142856,4193.6,621.5714285714286,414.47767857142856,4297.9,621.5714285714286,414.47767857142856,4398.6,621.5714285714286,414.47767857142856,4503,621.5714285714286,414.47767857142856,4603.1,621.5714285714286,414.47767857142856,4708.3,621.5714285714286,414.47767857142856,4812.9,621.5714285714286,414.47767857142856,4912.9]","[1387,1387,1000,0,387,""smooth"",""up"",""up"",""good_move"",8251.2,6863.9,3185.8,4704.7,360.7,""smooth"",""right"",""right"",""good_move"",15150.3,6898.9,2875,11900,375.3,""oops"",""up"",""left"",""bad_move"",25360.3,10209.9,3057.6,21950.1,352.6,""oops"",""right"",""up"",""good_move"",28693.2,3332.7,2308.6,25360.5,1024.1,""smooth"",""right"",""right"",""good_move"",31215.9,2522.4,2143.6,28693.5,378.8,""oops"",""right"",""right"",""good_move""]","","",""
"2409","","<div style=""width:500px;"">
  <p>What determined the result of this run?</p>
  </div>","34","html-slider-response","59","1298401","0.0-10.0-1.4","213","1","2025-07-09 09:22:48","7701e855f2ef39aa3fd6c71abdc6918a","88.24.169.19","Mozilla/5.0 (Windows NT 10.0; Win64; x64) AppleWebKit/537.36 (KHTML, like Gecko) Chrome/138.0.0.0 Safari/537.36","WebKit","Chrome","138.0.0.0","Windows","10.0","https://app.prolific.com/","es-ES,es;q=0.8","67db387c909560bc7b65ea88","686d226cabeef709c732f8e1","686e3126fee396358d14347c","67db387c909560bc7b65ea88","2025-07-09T09:44:29.182Z","","","","","","AttribQ","","","","","","","","","","","","","","","","","","","","","","","","","","","","","","","","","","","","","","50",""
"1908","","<div style=""width:500px;"">
  <p>How much control did you have over the ball?</p>
  </div>","85","html-slider-response","60","1300310","0.0-10.0-2.4","213","1","2025-07-09 09:22:48","7701e855f2ef39aa3fd6c71abdc6918a","88.24.169.19","Mozilla/5.0 (Windows NT 10.0; Win64; x64) AppleWebKit/537.36 (KHTML, like Gecko) Chrome/138.0.0.0 Safari/537.36","WebKit","Chrome","138.0.0.0","Windows","10.0","https://app.prolific.com/","es-ES,es;q=0.8","67db387c909560bc7b65ea88","686d226cabeef709c732f8e1","686e3126fee396358d14347c","67db387c909560bc7b65ea88","2025-07-09T09:44:31.091Z","","","","","","ControlQ","","","","","","","","","","","","","","","","","","","","","","","","","","","","","","","","","","","","","","50",""
"1834","","<div style=""width:500px;"">
  <p>How would you describe your current emotional state?</p>
  </div>","7","html-slider-response","61","1302145","0.0-10.0-3.4","213","1","2025-07-09 09:22:48","7701e855f2ef39aa3fd6c71abdc6918a","88.24.169.19","Mozilla/5.0 (Windows NT 10.0; Win64; x64) AppleWebKit/537.36 (KHTML, like Gecko) Chrome/138.0.0.0 Safari/537.36","WebKit","Chrome","138.0.0.0","Windows","10.0","https://app.prolific.com/","es-ES,es;q=0.8","67db387c909560bc7b65ea88","686d226cabeef709c732f8e1","686e3126fee396358d14347c","67db387c909560bc7b65ea88","2025-07-09T09:44:32.926Z","","","","","","StressQ","","","","","","","","","","","","","","","","","","","","","","","","","","","","","","","","","","","","","","50",""
"2165","","<div style=""width:500px;"">
  <p>What best describes how you currently feel?</p>
  </div>","87","html-slider-response","62","1304310","0.0-10.0-4.4","213","1","2025-07-09 09:22:48","7701e855f2ef39aa3fd6c71abdc6918a","88.24.169.19","Mozilla/5.0 (Windows NT 10.0; Win64; x64) AppleWebKit/537.36 (KHTML, like Gecko) Chrome/138.0.0.0 Safari/537.36","WebKit","Chrome","138.0.0.0","Windows","10.0","https://app.prolific.com/","es-ES,es;q=0.8","67db387c909560bc7b65ea88","686d226cabeef709c732f8e1","686e3126fee396358d14347c","67db387c909560bc7b65ea88","2025-07-09T09:44:35.092Z","","","","","","MotivationQ","","","","","","","","","","","","","","","","","","","","","","","","","","","","","","","","","","","","","","50",""
"","","","","ctl-task-cpt","63","1336144","0.0-10.0-0.5","213","1","2025-07-09 09:22:48","7701e855f2ef39aa3fd6c71abdc6918a","88.24.169.19","Mozilla/5.0 (Windows NT 10.0; Win64; x64) AppleWebKit/537.36 (KHTML, like Gecko) Chrome/138.0.0.0 Safari/537.36","WebKit","Chrome","138.0.0.0","Windows","10.0","https://app.prolific.com/","es-ES,es;q=0.8","67db387c909560bc7b65ea88","686d226cabeef709c732f8e1","686e3126fee396358d14347c","67db387c909560bc7b65ea88","2025-07-09T09:45:06.925Z","","","","","","","","","","","","","","","","win-only","0","g1:NW,g2:SE","0.5","6","0","1305887.2","933.2","5935.4","28815.7","1","4","8","6","1","-1","-1","1","2","0.007575757575757576","1534.2","3000","-3015","[""left"",""up""]","{""num_key_presses"":6,""num_perfect"":2,""num_errors"":0,""num_randdir"":4,""num_randdir_good_moves"":2,""num_whilered"":0,""num_whileblue"":0,""num_blue"":1,""num_good_moves"":4}","[417.57142857142856,421.47767857142856,0.2,417.57142857142856,421.47767857142856,102.5,417.57142857142856,421.47767857142856,207.3,417.57142857142856,421.47767857142856,312.2,417.57142857142856,421.47767857142856,417.2,364.57142857142856,356.47767857142856,517.2,262.57142857142856,262.47767857142856,617.5,254.57142857142856,257.47767857142856,722.3,164.57142857142856,172.47767857142856,822.3,113.57142857142857,125.47767857142857,922.3,113.57142857142857,125.47767857142857,1022.5,113.57142857142857,125.47767857142857,1122.6,113.57142857142857,125.47767857142857,1222.9,113.57142857142857,125.47767857142857,1327.3,113.57142857142857,125.47767857142857,1432.8,113.57142857142857,125.47767857142857,1539,113.57142857142857,125.47767857142857,1642.3,113.57142857142857,125.47767857142857,1743.3,113.57142857142857,125.47767857142857,1847.9,114.57142857142857,225.47767857142856,1952.7,362.57142857142856,574.4776785714286,2057.3,476.57142857142856,622.4776785714286,2162.5,471.57142857142856,618.4776785714286,2262.5,469.57142857142856,616.4776785714286,2362.6,466.57142857142856,615.4776785714286,2462.7,414.57142857142856,599.4776785714286,2562.8,332.57142857142856,578.4776785714286,2668.5,329.57142857142856,578.4776785714286,2771.9,329.57142857142856,578.4776785714286,2872.4,329.57142857142856,578.4776785714286,2977.2,329.57142857142856,578.4776785714286,3077.2,329.57142857142856,578.4776785714286,3177.3,329.57142857142856,578.4776785714286,3277.4,329.57142857142856,578.4776785714286,3377.5,329.57142857142856,578.4776785714286,3482,329.57142857142856,578.4776785714286,3582,329.57142857142856,578.4776785714286,3682.8,329.57142857142856,578.4776785714286,3787.9,329.57142857142856,578.4776785714286,3892,329.57142857142856,578.4776785714286,3992,329.57142857142856,578.4776785714286,4097.8,329.57142857142856,578.4776785714286,4202.3,329.57142857142856,578.4776785714286,4302.4,329.57142857142856,578.4776785714286,4402.4,339.57142857142856,565.4776785714286,4502.6,341.57142857142856,567.4776785714286,4603.6,341.57142857142856,567.4776785714286,4707.1,341.57142857142856,567.4776785714286,4807.8,341.57142857142856,564.4776785714286,4907.9]","[1471.6,1471.6,1000,0,471.6,""oops"",""up"",""right"",""bad_move"",4557,3085,2644.5,1472,440.5,""oops"",""up"",""up"",""good_move"",7787.9,3230.7,2508.1,4557.3,722.6,""oops"",""up"",""left"",""good_move"",14367.5,6579.4,2497.8,11405.3,464.4,""smooth"",""up"",""up"",""good_move"",17426.1,3058.4,2612,14367.7,446.4,""oops"",""left"",""down"",""bad_move"",20559.8,3133.4,2709.1,17426.4,424.3,""smooth"",""left"",""left"",""good_move""]","","",""
"2127","","<div style=""width:500px;"">
  <p>What determined the result of this run?</p>
  </div>","11","html-slider-response","64","1338272","0.0-10.0-1.5","213","1","2025-07-09 09:22:48","7701e855f2ef39aa3fd6c71abdc6918a","88.24.169.19","Mozilla/5.0 (Windows NT 10.0; Win64; x64) AppleWebKit/537.36 (KHTML, like Gecko) Chrome/138.0.0.0 Safari/537.36","WebKit","Chrome","138.0.0.0","Windows","10.0","https://app.prolific.com/","es-ES,es;q=0.8","67db387c909560bc7b65ea88","686d226cabeef709c732f8e1","686e3126fee396358d14347c","67db387c909560bc7b65ea88","2025-07-09T09:45:09.053Z","","","","","","AttribQ","","","","","","","","","","","","","","","","","","","","","","","","","","","","","","","","","","","","","","50",""
"2109","","<div style=""width:500px;"">
  <p>How much control did you have over the ball?</p>
  </div>","64","html-slider-response","65","1340382","0.0-10.0-2.5","213","1","2025-07-09 09:22:48","7701e855f2ef39aa3fd6c71abdc6918a","88.24.169.19","Mozilla/5.0 (Windows NT 10.0; Win64; x64) AppleWebKit/537.36 (KHTML, like Gecko) Chrome/138.0.0.0 Safari/537.36","WebKit","Chrome","138.0.0.0","Windows","10.0","https://app.prolific.com/","es-ES,es;q=0.8","67db387c909560bc7b65ea88","686d226cabeef709c732f8e1","686e3126fee396358d14347c","67db387c909560bc7b65ea88","2025-07-09T09:45:11.163Z","","","","","","ControlQ","","","","","","","","","","","","","","","","","","","","","","","","","","","","","","","","","","","","","","50",""
"2439","","<div style=""width:500px;"">
  <p>How would you describe your current emotional state?</p>
  </div>","67","html-slider-response","66","1342822","0.0-10.0-3.5","213","1","2025-07-09 09:22:48","7701e855f2ef39aa3fd6c71abdc6918a","88.24.169.19","Mozilla/5.0 (Windows NT 10.0; Win64; x64) AppleWebKit/537.36 (KHTML, like Gecko) Chrome/138.0.0.0 Safari/537.36","WebKit","Chrome","138.0.0.0","Windows","10.0","https://app.prolific.com/","es-ES,es;q=0.8","67db387c909560bc7b65ea88","686d226cabeef709c732f8e1","686e3126fee396358d14347c","67db387c909560bc7b65ea88","2025-07-09T09:45:13.603Z","","","","","","StressQ","","","","","","","","","","","","","","","","","","","","","","","","","","","","","","","","","","","","","","50",""
"1577","","<div style=""width:500px;"">
  <p>What best describes how you currently feel?</p>
  </div>","68","html-slider-response","67","1344400","0.0-10.0-4.5","213","1","2025-07-09 09:22:48","7701e855f2ef39aa3fd6c71abdc6918a","88.24.169.19","Mozilla/5.0 (Windows NT 10.0; Win64; x64) AppleWebKit/537.36 (KHTML, like Gecko) Chrome/138.0.0.0 Safari/537.36","WebKit","Chrome","138.0.0.0","Windows","10.0","https://app.prolific.com/","es-ES,es;q=0.8","67db387c909560bc7b65ea88","686d226cabeef709c732f8e1","686e3126fee396358d14347c","67db387c909560bc7b65ea88","2025-07-09T09:45:15.181Z","","","","","","MotivationQ","","","","","","","","","","","","","","","","","","","","","","","","","","","","","","","","","","","","","","50",""
"","","","","ctl-task-cpt","68","1377304","0.0-10.0-0.6","213","1","2025-07-09 09:22:48","7701e855f2ef39aa3fd6c71abdc6918a","88.24.169.19","Mozilla/5.0 (Windows NT 10.0; Win64; x64) AppleWebKit/537.36 (KHTML, like Gecko) Chrome/138.0.0.0 Safari/537.36","WebKit","Chrome","138.0.0.0","Windows","10.0","https://app.prolific.com/","es-ES,es;q=0.8","67db387c909560bc7b65ea88","686d226cabeef709c732f8e1","686e3126fee396358d14347c","67db387c909560bc7b65ea88","2025-07-09T09:45:48.085Z","","","","","","","","","","","","","","","","win-only","2","g1:SE,g2:NW","0.4","7","0","1345976.8","780.9","5785.7","29885.5","1","4","8","6","1","-1","-2","0","1","0","2184.2","3000","-3015","[""down"",""right""]","{""num_key_presses"":7,""num_perfect"":2,""num_errors"":1,""num_randdir"":4,""num_randdir_good_moves"":2,""num_whilered"":0,""num_whileblue"":0,""num_blue"":1,""num_good_moves"":4}","[417.57142857142856,418.47767857142856,0.1,417.57142857142856,418.47767857142856,104.2,417.57142857142856,418.47767857142856,204.5,417.57142857142856,418.47767857142856,305.3,417.57142857142856,418.47767857142856,410,382.57142857142856,364.47767857142856,510.5,265.57142857142856,262.47767857142856,614.7,262.57142857142856,290.47767857142856,714.8,246.57142857142856,284.47767857142856,819.7,156.57142857142856,189.47767857142856,924.8,119.57142857142857,139.47767857142856,1029.6,108.57142857142857,129.47767857142856,1129.8,108.57142857142857,128.47767857142856,1234.6,97.57142857142857,119.47767857142857,1335.4,96.57142857142857,118.47767857142857,1439.6,415.57142857142856,407.47767857142856,1540.4,646.5714285714286,562.4776785714286,1644.7,656.5714285714286,622.4776785714286,1750.3,694.5714285714286,668.4776785714286,1854.4,714.5714285714286,698.4776785714286,1954.4,716.5714285714286,705.4776785714286,2059.3,716.5714285714286,705.4776785714286,2159.9,716.5714285714286,705.4776785714286,2264.6,716.5714285714286,705.4776785714286,2365.2,716.5714285714286,705.4776785714286,2465.2,715.5714285714286,707.4776785714286,2567.1,715.5714285714286,707.4776785714286,2669.8,711.5714285714286,705.4776785714286,2774.3,678.5714285714286,690.4776785714286,2875.6,566.5714285714286,651.4776785714286,2980,548.5714285714286,647.4776785714286,3080.4,548.5714285714286,647.4776785714286,3180.4,548.5714285714286,647.4776785714286,3284.7,548.5714285714286,647.4776785714286,3390,548.5714285714286,647.4776785714286,3490.8,548.5714285714286,647.4776785714286,3595.1,548.5714285714286,647.4776785714286,3699.4,548.5714285714286,647.4776785714286,3799.9,548.5714285714286,647.4776785714286,3904.6,548.5714285714286,647.4776785714286,4009.4,548.5714285714286,647.4776785714286,4109.4,548.5714285714286,647.4776785714286,4214.6,548.5714285714286,647.4776785714286,4314.8,548.5714285714286,647.4776785714286,4420,548.5714285714286,647.4776785714286,4525.9,548.5714285714286,647.4776785714286,4629.7,548.5714285714286,647.4776785714286,4735.2,548.5714285714286,647.4776785714286,4839.9,548.5714285714286,647.4776785714286,4940.5]","[1436.8,1436.8,1000,0,436.8,""smooth"",""down"",""down"",""good_move"",1878.6,441.5,2498.6,1437.1,-2057.1,""error"",""-"",""-"",""no_move"",10057.8,8179.2,2749.4,6734.8,573.7,""oops"",""right"",""up"",""bad_move"",13551.7,3493.6,2913.8,10058.1,579.8,""oops"",""down"",""down"",""good_move"",16896.6,3344.7,2972.6,13551.9,372.1,""oops"",""down"",""right"",""good_move"",19215.4,2318.7,1770.7,16896.7,548,""oops"",""right"",""up"",""bad_move"",22076.8,2861.2,2409.3,19215.6,451.9,""smooth"",""down"",""down"",""good_move""]","","",""
"2531","","<div style=""width:500px;"">
  <p>What determined the result of this run?</p>
  </div>","11","html-slider-response","69","1379836","0.0-10.0-1.6","213","1","2025-07-09 09:22:48","7701e855f2ef39aa3fd6c71abdc6918a","88.24.169.19","Mozilla/5.0 (Windows NT 10.0; Win64; x64) AppleWebKit/537.36 (KHTML, like Gecko) Chrome/138.0.0.0 Safari/537.36","WebKit","Chrome","138.0.0.0","Windows","10.0","https://app.prolific.com/","es-ES,es;q=0.8","67db387c909560bc7b65ea88","686d226cabeef709c732f8e1","686e3126fee396358d14347c","67db387c909560bc7b65ea88","2025-07-09T09:45:50.617Z","","","","","","AttribQ","","","","","","","","","","","","","","","","","","","","","","","","","","","","","","","","","","","","","","50",""
"3237","","<div style=""width:500px;"">
  <p>How much control did you have over the ball?</p>
  </div>","20","html-slider-response","70","1383073","0.0-10.0-2.6","213","1","2025-07-09 09:22:48","7701e855f2ef39aa3fd6c71abdc6918a","88.24.169.19","Mozilla/5.0 (Windows NT 10.0; Win64; x64) AppleWebKit/537.36 (KHTML, like Gecko) Chrome/138.0.0.0 Safari/537.36","WebKit","Chrome","138.0.0.0","Windows","10.0","https://app.prolific.com/","es-ES,es;q=0.8","67db387c909560bc7b65ea88","686d226cabeef709c732f8e1","686e3126fee396358d14347c","67db387c909560bc7b65ea88","2025-07-09T09:45:53.855Z","","","","","","ControlQ","","","","","","","","","","","","","","","","","","","","","","","","","","","","","","","","","","","","","","50",""
"2113","","<div style=""width:500px;"">
  <p>How would you describe your current emotional state?</p>
  </div>","81","html-slider-response","71","1385187","0.0-10.0-3.6","213","1","2025-07-09 09:22:48","7701e855f2ef39aa3fd6c71abdc6918a","88.24.169.19","Mozilla/5.0 (Windows NT 10.0; Win64; x64) AppleWebKit/537.36 (KHTML, like Gecko) Chrome/138.0.0.0 Safari/537.36","WebKit","Chrome","138.0.0.0","Windows","10.0","https://app.prolific.com/","es-ES,es;q=0.8","67db387c909560bc7b65ea88","686d226cabeef709c732f8e1","686e3126fee396358d14347c","67db387c909560bc7b65ea88","2025-07-09T09:45:55.968Z","","","","","","StressQ","","","","","","","","","","","","","","","","","","","","","","","","","","","","","","","","","","","","","","50",""
"2151","","<div style=""width:500px;"">
  <p>What best describes how you currently feel?</p>
  </div>","13","html-slider-response","72","1387340","0.0-10.0-4.6","213","1","2025-07-09 09:22:48","7701e855f2ef39aa3fd6c71abdc6918a","88.24.169.19","Mozilla/5.0 (Windows NT 10.0; Win64; x64) AppleWebKit/537.36 (KHTML, like Gecko) Chrome/138.0.0.0 Safari/537.36","WebKit","Chrome","138.0.0.0","Windows","10.0","https://app.prolific.com/","es-ES,es;q=0.8","67db387c909560bc7b65ea88","686d226cabeef709c732f8e1","686e3126fee396358d14347c","67db387c909560bc7b65ea88","2025-07-09T09:45:58.121Z","","","","","","MotivationQ","","","","","","","","","","","","","","","","","","","","","","","","","","","","","","","","","","","","","","50",""
"","","","","ctl-task-cpt","73","1425044","0.0-10.0-0.7","213","1","2025-07-09 09:22:48","7701e855f2ef39aa3fd6c71abdc6918a","88.24.169.19","Mozilla/5.0 (Windows NT 10.0; Win64; x64) AppleWebKit/537.36 (KHTML, like Gecko) Chrome/138.0.0.0 Safari/537.36","WebKit","Chrome","138.0.0.0","Windows","10.0","https://app.prolific.com/","es-ES,es;q=0.8","67db387c909560bc7b65ea88","686d226cabeef709c732f8e1","686e3126fee396358d14347c","67db387c909560bc7b65ea88","2025-07-09T09:46:35.825Z","","","","","","","","","","","","","","","","win-only","1","g1:NE,g2:SW","0.3","8","0","1388916.4","893.1","5895.5","34685.6","1","4","4","6","1","-1","-4","0","0","0","1002","3000","-3015","[""up"",""right""]","{""num_key_presses"":11,""num_perfect"":3,""num_errors"":3,""num_randdir"":4,""num_randdir_good_moves"":2,""num_whilered"":1,""num_whileblue"":0,""num_blue"":0,""num_good_moves"":5}","[416.57142857142856,411.47767857142856,0.1,416.57142857142856,411.47767857142856,102.2,416.57142857142856,411.47767857142856,207.1,416.57142857142856,411.47767857142856,311.5,416.57142857142856,411.47767857142856,412.3,416.57142857142856,411.47767857142856,512.7,416.57142857142856,411.47767857142856,617.1,514.5714285714286,289.47767857142856,721.2,759.5714285714286,120.47767857142857,822.3,816.5714285714286,90.47767857142857,922.7,816.5714285714286,90.47767857142857,1027.2,816.5714285714286,90.47767857142857,1127.3,816.5714285714286,90.47767857142857,1227.7,816.5714285714286,90.47767857142857,1332,823.5714285714286,139.47767857142856,1432.8,917.5714285714286,276.47767857142856,1537.9,917.5714285714286,276.47767857142856,1642.2,917.5714285714286,276.47767857142856,1742.2,913.5714285714286,279.47767857142856,1842.4,831.5714285714286,307.47767857142856,1942.6,800.5714285714286,304.47767857142856,2043.5,792.5714285714286,302.47767857142856,2148.4,783.5714285714286,302.47767857142856,2252.5,710.5714285714286,294.47767857142856,2352.9,656.5714285714286,286.47767857142856,2453.2,656.5714285714286,286.47767857142856,2557.6,656.5714285714286,286.47767857142856,2662.1,656.5714285714286,286.47767857142856,2762.1,656.5714285714286,286.47767857142856,2862.3,656.5714285714286,286.47767857142856,2967.3,656.5714285714286,286.47767857142856,3072.2,656.5714285714286,286.47767857142856,3172.5,671.5714285714286,259.47767857142856,3272.9,675.5714285714286,260.47767857142856,3377.4,675.5714285714286,260.47767857142856,3477.8,682.5714285714286,260.47767857142856,3582.7,682.5714285714286,261.47767857142856,3687.8,669.5714285714286,294.47767857142856,3792.1,667.5714285714286,297.47767857142856,3897.1,667.5714285714286,297.47767857142856,4000.7,667.5714285714286,297.47767857142856,4102.1,667.5714285714286,297.47767857142856,4202.2,667.5714285714286,297.47767857142856,4302.2,667.5714285714286,297.47767857142856,4402.7,667.5714285714286,297.47767857142856,4507,667.5714285714286,297.47767857142856,4607.4,667.5714285714286,297.47767857142856,4712.1,667.5714285714286,297.47767857142856,4812.7,667.5714285714286,297.47767857142856,4917.1]","[1416,1416,1000,0,416,""smooth"",""right"",""right"",""good_move"",4418.8,3002.5,2647.4,1416.3,355.1,""oops"",""right"",""up"",""good_move"",8106.9,3687.9,3348.2,4419,339.7,""smooth"",""up"",""up"",""good_move"",10758.6,2651.7,2269.3,8106.9,382.4,""oops"",""right"",""left"",""bad_move"",14577,3818.2,3219.5,10758.8,598.7,""oops"",""right"",""down"",""bad_move"",15297,719.8,2825.7,14577.2,-2105.9,""error"",""-"",""-"",""no_move"",15880,582.9,2825.7,14577.2,-1522.9,""while_red"",""-"",""-"",""no_move"",16723,1425.9,2336.3,16300.1,-1913.4,""error"",""-"",""-"",""no_move"",18268.4,1545.3,2841.5,17725,-2298,""error"",""-"",""-"",""no_move"",22876.8,4608.2,3172.6,19270.2,434,""smooth"",""right"",""right"",""good_move"",24844.5,1967.5,1621,22877,346.5,""oops"",""right"",""up"",""good_move""]","","",""
"2408","","<div style=""width:500px;"">
  <p>What determined the result of this run?</p>
  </div>","7","html-slider-response","74","1427453","0.0-10.0-1.7","213","1","2025-07-09 09:22:48","7701e855f2ef39aa3fd6c71abdc6918a","88.24.169.19","Mozilla/5.0 (Windows NT 10.0; Win64; x64) AppleWebKit/537.36 (KHTML, like Gecko) Chrome/138.0.0.0 Safari/537.36","WebKit","Chrome","138.0.0.0","Windows","10.0","https://app.prolific.com/","es-ES,es;q=0.8","67db387c909560bc7b65ea88","686d226cabeef709c732f8e1","686e3126fee396358d14347c","67db387c909560bc7b65ea88","2025-07-09T09:46:38.234Z","","","","","","AttribQ","","","","","","","","","","","","","","","","","","","","","","","","","","","","","","","","","","","","","","50",""
"2305","","<div style=""width:500px;"">
  <p>How much control did you have over the ball?</p>
  </div>","5","html-slider-response","75","1429759","0.0-10.0-2.7","213","1","2025-07-09 09:22:48","7701e855f2ef39aa3fd6c71abdc6918a","88.24.169.19","Mozilla/5.0 (Windows NT 10.0; Win64; x64) AppleWebKit/537.36 (KHTML, like Gecko) Chrome/138.0.0.0 Safari/537.36","WebKit","Chrome","138.0.0.0","Windows","10.0","https://app.prolific.com/","es-ES,es;q=0.8","67db387c909560bc7b65ea88","686d226cabeef709c732f8e1","686e3126fee396358d14347c","67db387c909560bc7b65ea88","2025-07-09T09:46:40.540Z","","","","","","ControlQ","","","","","","","","","","","","","","","","","","","","","","","","","","","","","","","","","","","","","","50",""
"1886","","<div style=""width:500px;"">
  <p>How would you describe your current emotional state?</p>
  </div>","87","html-slider-response","76","1431645","0.0-10.0-3.7","213","1","2025-07-09 09:22:48","7701e855f2ef39aa3fd6c71abdc6918a","88.24.169.19","Mozilla/5.0 (Windows NT 10.0; Win64; x64) AppleWebKit/537.36 (KHTML, like Gecko) Chrome/138.0.0.0 Safari/537.36","WebKit","Chrome","138.0.0.0","Windows","10.0","https://app.prolific.com/","es-ES,es;q=0.8","67db387c909560bc7b65ea88","686d226cabeef709c732f8e1","686e3126fee396358d14347c","67db387c909560bc7b65ea88","2025-07-09T09:46:42.426Z","","","","","","StressQ","","","","","","","","","","","","","","","","","","","","","","","","","","","","","","","","","","","","","","50",""
"1669","","<div style=""width:500px;"">
  <p>What best describes how you currently feel?</p>
  </div>","29","html-slider-response","77","1433315","0.0-10.0-4.7","213","1","2025-07-09 09:22:48","7701e855f2ef39aa3fd6c71abdc6918a","88.24.169.19","Mozilla/5.0 (Windows NT 10.0; Win64; x64) AppleWebKit/537.36 (KHTML, like Gecko) Chrome/138.0.0.0 Safari/537.36","WebKit","Chrome","138.0.0.0","Windows","10.0","https://app.prolific.com/","es-ES,es;q=0.8","67db387c909560bc7b65ea88","686d226cabeef709c732f8e1","686e3126fee396358d14347c","67db387c909560bc7b65ea88","2025-07-09T09:46:44.096Z","","","","","","MotivationQ","","","","","","","","","","","","","","","","","","","","","","","","","","","","","","","","","","","","","","50",""
"","","","","ctl-task-cpt","78","1470244","0.0-10.0-0.8","213","1","2025-07-09 09:22:48","7701e855f2ef39aa3fd6c71abdc6918a","88.24.169.19","Mozilla/5.0 (Windows NT 10.0; Win64; x64) AppleWebKit/537.36 (KHTML, like Gecko) Chrome/138.0.0.0 Safari/537.36","WebKit","Chrome","138.0.0.0","Windows","10.0","https://app.prolific.com/","es-ES,es;q=0.8","67db387c909560bc7b65ea88","686d226cabeef709c732f8e1","686e3126fee396358d14347c","67db387c909560bc7b65ea88","2025-07-09T09:47:21.025Z","","","","","","","","","","","","","","","","win-only","0","g1:NW,g2:SE","0.2","9","0","1434891.5","921.8","5926.5","33911.1","1","4","4","6","2","-4","-4","0","0","0","3915.4","3000","-2995","[""down"",""right""]","{""num_key_presses"":7,""num_perfect"":1,""num_errors"":0,""num_randdir"":6,""num_randdir_good_moves"":5,""num_whilered"":0,""num_whileblue"":0,""num_blue"":2,""num_good_moves"":6}","[407.57142857142856,416.47767857142856,0.2,407.57142857142856,416.47767857142856,104,407.57142857142856,416.47767857142856,204,405.57142857142856,412.47767857142856,304.4,396.57142857142856,422.47767857142856,405.4,396.57142857142856,422.47767857142856,509.3,370.57142857142856,421.47767857142856,614.5,310.57142857142856,376.47767857142856,719.9,310.57142857142856,371.47767857142856,819.9,310.57142857142856,371.47767857142856,924.4,310.57142857142856,371.47767857142856,1029.2,119.57142857142857,273.47767857142856,1129.5,-1.4285714285714306,245.47767857142856,1234.3,-1.4285714285714306,245.47767857142856,1339.2,-4.428571428571431,240.47767857142856,1439.3,15.57142857142857,191.47767857142856,1544.5,37.57142857142857,143.47767857142856,1649.4,51.57142857142857,128.47767857142856,1749.6,104.57142857142857,108.47767857142857,1854.3,104.57142857142857,108.47767857142857,1954.3,104.57142857142857,108.47767857142857,2054.3,104.57142857142857,108.47767857142857,2154.4,104.57142857142857,108.47767857142857,2259.8,222.57142857142856,303.47767857142856,2364.2,567.5714285714286,613.4776785714286,2465.1,651.5714285714286,684.4776785714286,2569,390.57142857142856,473.47767857142856,2674,93.57142857142857,255.47767857142856,2774.6,62.57142857142857,160.47767857142856,2878.9,62.57142857142857,152.47767857142856,2979.2,70.57142857142857,108.47767857142857,3079.6,73.57142857142857,100.47767857142857,3179.9,73.57142857142857,97.47767857142857,3283,73.57142857142857,97.47767857142857,3384.6,333.57142857142856,322.47767857142856,3489.1,669.5714285714286,594.4776785714286,3589.2,704.5714285714286,648.4776785714286,3694.2,755.5714285714286,700.4776785714286,3794.2,772.5714285714286,725.4776785714286,3894.5,773.5714285714286,726.4776785714286,3999.1,773.5714285714286,726.4776785714286,4099.3,773.5714285714286,726.4776785714286,4199.9,773.5714285714286,726.4776785714286,4304.5,773.5714285714286,726.4776785714286,4405,760.5714285714286,721.4776785714286,4509.2,708.5714285714286,696.4776785714286,4609.5,691.5714285714286,686.4776785714286,4714.2,691.5714285714286,686.4776785714286,4814.3,691.5714285714286,686.4776785714286,4914.5]","[1461.8,1461.8,1000,0,461.8,""smooth"",""down"",""down"",""good_move"",4928.5,3466.5,3091.2,1462,375.3,""oops"",""right"",""left"",""bad_move"",8336.9,3408.1,2984,4928.8,424.1,""oops"",""up"",""right"",""good_move"",14375.2,6038.1,2489,11494.5,391.7,""oops"",""down"",""down"",""good_move"",16976.2,2600.7,2054.2,14375.5,546.6,""oops"",""right"",""down"",""good_move"",23007.2,6030.8,2406,20249.3,352,""oops"",""right"",""right"",""good_move"",26064.1,3056.6,2668,23007.5,388.6,""oops"",""right"",""right"",""good_move""]","","",""
"2270","","<div style=""width:500px;"">
  <p>What determined the result of this run?</p>
  </div>","9","html-slider-response","79","1472515","0.0-10.0-1.8","213","1","2025-07-09 09:22:48","7701e855f2ef39aa3fd6c71abdc6918a","88.24.169.19","Mozilla/5.0 (Windows NT 10.0; Win64; x64) AppleWebKit/537.36 (KHTML, like Gecko) Chrome/138.0.0.0 Safari/537.36","WebKit","Chrome","138.0.0.0","Windows","10.0","https://app.prolific.com/","es-ES,es;q=0.8","67db387c909560bc7b65ea88","686d226cabeef709c732f8e1","686e3126fee396358d14347c","67db387c909560bc7b65ea88","2025-07-09T09:47:23.296Z","","","","","","AttribQ","","","","","","","","","","","","","","","","","","","","","","","","","","","","","","","","","","","","","","50",""
"2565","","<div style=""width:500px;"">
  <p>How much control did you have over the ball?</p>
  </div>","13","html-slider-response","80","1475080","0.0-10.0-2.8","213","1","2025-07-09 09:22:48","7701e855f2ef39aa3fd6c71abdc6918a","88.24.169.19","Mozilla/5.0 (Windows NT 10.0; Win64; x64) AppleWebKit/537.36 (KHTML, like Gecko) Chrome/138.0.0.0 Safari/537.36","WebKit","Chrome","138.0.0.0","Windows","10.0","https://app.prolific.com/","es-ES,es;q=0.8","67db387c909560bc7b65ea88","686d226cabeef709c732f8e1","686e3126fee396358d14347c","67db387c909560bc7b65ea88","2025-07-09T09:47:25.861Z","","","","","","ControlQ","","","","","","","","","","","","","","","","","","","","","","","","","","","","","","","","","","","","","","50",""
"1813","","<div style=""width:500px;"">
  <p>How would you describe your current emotional state?</p>
  </div>","83","html-slider-response","81","1476895","0.0-10.0-3.8","213","1","2025-07-09 09:22:48","7701e855f2ef39aa3fd6c71abdc6918a","88.24.169.19","Mozilla/5.0 (Windows NT 10.0; Win64; x64) AppleWebKit/537.36 (KHTML, like Gecko) Chrome/138.0.0.0 Safari/537.36","WebKit","Chrome","138.0.0.0","Windows","10.0","https://app.prolific.com/","es-ES,es;q=0.8","67db387c909560bc7b65ea88","686d226cabeef709c732f8e1","686e3126fee396358d14347c","67db387c909560bc7b65ea88","2025-07-09T09:47:27.676Z","","","","","","StressQ","","","","","","","","","","","","","","","","","","","","","","","","","","","","","","","","","","","","","","50",""
"3017","","<div style=""width:500px;"">
  <p>What best describes how you currently feel?</p>
  </div>","45","html-slider-response","82","1479913","0.0-10.0-4.8","213","1","2025-07-09 09:22:48","7701e855f2ef39aa3fd6c71abdc6918a","88.24.169.19","Mozilla/5.0 (Windows NT 10.0; Win64; x64) AppleWebKit/537.36 (KHTML, like Gecko) Chrome/138.0.0.0 Safari/537.36","WebKit","Chrome","138.0.0.0","Windows","10.0","https://app.prolific.com/","es-ES,es;q=0.8","67db387c909560bc7b65ea88","686d226cabeef709c732f8e1","686e3126fee396358d14347c","67db387c909560bc7b65ea88","2025-07-09T09:47:30.694Z","","","","","","MotivationQ","","","","","","","","","","","","","","","","","","","","","","","","","","","","","","","","","","","","","","50",""
"","","","","ctl-task-cpt","83","1520130","0.0-10.0-0.9","213","1","2025-07-09 09:22:48","7701e855f2ef39aa3fd6c71abdc6918a","88.24.169.19","Mozilla/5.0 (Windows NT 10.0; Win64; x64) AppleWebKit/537.36 (KHTML, like Gecko) Chrome/138.0.0.0 Safari/537.36","WebKit","Chrome","138.0.0.0","Windows","10.0","https://app.prolific.com/","es-ES,es;q=0.8","67db387c909560bc7b65ea88","686d226cabeef709c732f8e1","686e3126fee396358d14347c","67db387c909560bc7b65ea88","2025-07-09T09:48:10.911Z","","","","","","","","","","","","","","","","win-only","3","g1:SW,g2:NE","0.4","10","0","1481489.2","903","5906.1","37196.2","1","4","8","6","1","-1","-2","0","0","0","964.5","3000","-2600","[""down"",""left""]","{""num_key_presses"":6,""num_perfect"":2,""num_errors"":1,""num_randdir"":3,""num_randdir_good_moves"":0,""num_whilered"":0,""num_whileblue"":0,""num_blue"":4,""num_good_moves"":2}","[411.57142857142856,423.47767857142856,0.2,411.57142857142856,423.47767857142856,102.9,411.57142857142856,423.47767857142856,203.3,412.57142857142856,444.47767857142856,303.8,358.57142857142856,517.4776785714286,404.7,267.57142857142856,600.4776785714286,507.6,300.57142857142856,617.4776785714286,608.3,197.57142857142856,709.4776785714286,712.8,117.57142857142857,778.4776785714286,813.1,94.57142857142857,774.4776785714286,915.9,86.57142857142857,770.4776785714286,1018,86.57142857142857,770.4776785714286,1118.6,86.57142857142857,770.4776785714286,1218.6,86.57142857142857,770.4776785714286,1323.9,101.57142857142857,750.4776785714286,1428.9,112.57142857142857,746.4776785714286,1532.8,112.57142857142857,746.4776785714286,1633.2,112.57142857142857,746.4776785714286,1737.6,112.57142857142857,746.4776785714286,1838.5,112.57142857142857,746.4776785714286,1942.7,112.57142857142857,746.4776785714286,2043.2,112.57142857142857,746.4776785714286,2149.2,112.57142857142857,746.4776785714286,2252.5,112.57142857142857,746.4776785714286,2353.1,112.57142857142857,746.4776785714286,2453.7,112.57142857142857,746.4776785714286,2558.1,112.57142857142857,746.4776785714286,2662.9,112.57142857142857,746.4776785714286,2763.8,112.57142857142857,746.4776785714286,2868.4,112.57142857142857,746.4776785714286,2973,112.57142857142857,746.4776785714286,3073.4,112.57142857142857,746.4776785714286,3173.9,112.57142857142857,746.4776785714286,3278.4,112.57142857142857,746.4776785714286,3383.7,112.57142857142857,746.4776785714286,3488.3,112.57142857142857,746.4776785714286,3593,112.57142857142857,746.4776785714286,3698.2,179.57142857142856,629.4776785714286,3803.3,215.57142857142856,499.47767857142856,3907.4,204.57142857142856,524.4776785714286,4008.1,234.57142857142856,563.4776785714286,4108.6,276.57142857142856,584.4776785714286,4211.1,326.57142857142856,584.4776785714286,4315.4,361.57142857142856,577.4776785714286,4418.8,362.57142857142856,584.4776785714286,4523.6,362.57142857142856,584.4776785714286,4624.8,363.57142857142856,585.4776785714286,4728.1,364.57142857142856,584.4776785714286,4833.1,364.57142857142856,584.4776785714286,4937.5]","[5200.4,5200.4,2835.8,2009.6,355,""smooth"",""down"",""down"",""good_move"",8075.2,2874.6,2338.6,5200.6,536,""oops"",""left"",""right"",""bad_move"",10549.3,2473.9,2050.6,8075.4,423.3,""oops"",""left"",""up"",""bad_move"",17278.4,6728.9,2796.8,13595.9,885.7,""smooth"",""left"",""left"",""good_move"",26537.1,9258.5,2214.6,23910.1,412.4,""oops"",""left"",""up"",""bad_move"",28145.1,1607.7,1958.1,26537.4,-350.4,""error"",""-"",""-"",""no_move""]","","",""
"2454","","<div style=""width:500px;"">
  <p>What determined the result of this run?</p>
  </div>","0","html-slider-response","84","1522586","0.0-10.0-1.9","213","1","2025-07-09 09:22:48","7701e855f2ef39aa3fd6c71abdc6918a","88.24.169.19","Mozilla/5.0 (Windows NT 10.0; Win64; x64) AppleWebKit/537.36 (KHTML, like Gecko) Chrome/138.0.0.0 Safari/537.36","WebKit","Chrome","138.0.0.0","Windows","10.0","https://app.prolific.com/","es-ES,es;q=0.8","67db387c909560bc7b65ea88","686d226cabeef709c732f8e1","686e3126fee396358d14347c","67db387c909560bc7b65ea88","2025-07-09T09:48:13.367Z","","","","","","AttribQ","","","","","","","","","","","","","","","","","","","","","","","","","","","","","","","","","","","","","","50",""
"2567","","<div style=""width:500px;"">
  <p>How much control did you have over the ball?</p>
  </div>","0","html-slider-response","85","1525154","0.0-10.0-2.9","213","1","2025-07-09 09:22:48","7701e855f2ef39aa3fd6c71abdc6918a","88.24.169.19","Mozilla/5.0 (Windows NT 10.0; Win64; x64) AppleWebKit/537.36 (KHTML, like Gecko) Chrome/138.0.0.0 Safari/537.36","WebKit","Chrome","138.0.0.0","Windows","10.0","https://app.prolific.com/","es-ES,es;q=0.8","67db387c909560bc7b65ea88","686d226cabeef709c732f8e1","686e3126fee396358d14347c","67db387c909560bc7b65ea88","2025-07-09T09:48:15.935Z","","","","","","ControlQ","","","","","","","","","","","","","","","","","","","","","","","","","","","","","","","","","","","","","","50",""
"1831","","<div style=""width:500px;"">
  <p>How would you describe your current emotional state?</p>
