"rt","response_timestamp","stimulus","response","trial_type","trial_index","time_elapsed","internal_node_id","run_id","condition","recorded_at","source_code_version","ip","user_agent","device","browser","browser_version","platform","platform_version","referer","accept_language","PROLIFIC_PID","STUDY_ID","SESSION_ID","prolific_id","realtime","view_history","question_order","consent","success","question_id","eventType","responses","item_order","radio_event_ids","radio_event_times","key_event_times","mouse_event_times","straightlining","zigzagging","honeypot","which_type","canvas_config","goals_layout","control_level","trial_number","tutorial_trial_number","trial_start_time","phase1_start_time","phase2_start_time","phase3_start_time","goal_1_value","goal_1_distance","goal_2_value","goal_2_distance","goal_selected","outcome","outcome_total","participant_final_score","participant_initial_score","participant_final_score_prop","goal_choice_rt","allocated_time","allocated_time_remaining","goal_direction","counts","mouse_movements","key_presses","correct","slider_start"
"18610","1752056933919","<p style='font-size:40px;line-height:1.25'><strong>Welcome to the experiment!</strong></p><p style='font-size:1.1em;line-height:1.25'>Thank you for your interest in our experiment! Before you begin, it is important that we obtain your informed consent to participate in the study.</p><p style='font-size:1.1em;line-height:1.25'>On the next screen will be an <strong>information sheet</strong> for you to read. To participate in the study we need you to read this information sheet and the following consent form carefully. If you agree with all the statements, please click the <strong>I agree</strong> button.</p><p style='font-size:1.1em;line-height:1.25'>Press <strong>Next</strong> to read the information sheet.</p>","0","custom-html-button-response","0","18615","0.0-0.0","266","1","2025-07-09 10:28:34","7701e855f2ef39aa3fd6c71abdc6918a","41.145.197.56","Mozilla/5.0 (X11; Linux x86_64) AppleWebKit/537.36 (KHTML, like Gecko) Chrome/138.0.0.0 Safari/537.36","WebKit","Chrome","138.0.0.0","Linux","","https://app.prolific.com/","en-GB,en-US;q=0.9,en;q=0.8,ar;q=0.7","667b1ca693a1d52a0447f22f","686d226cabeef709c732f8e1","686e313d7eb80da74ad69479","667b1ca693a1d52a0447f22f","2025-07-09T10:28:53.925Z","","","","","","","","","","","","","","","","","","","","","","","","","","","","","","","","","","","","","","","","","","","",""
"4095","","","","instructions","1","22719","0.0-1.0","266","1","2025-07-09 10:28:34","7701e855f2ef39aa3fd6c71abdc6918a","41.145.197.56","Mozilla/5.0 (X11; Linux x86_64) AppleWebKit/537.36 (KHTML, like Gecko) Chrome/138.0.0.0 Safari/537.36","WebKit","Chrome","138.0.0.0","Linux","","https://app.prolific.com/","en-GB,en-US;q=0.9,en;q=0.8,ar;q=0.7","667b1ca693a1d52a0447f22f","686d226cabeef709c732f8e1","686e313d7eb80da74ad69479","667b1ca693a1d52a0447f22f","","[{""page_index"":0,""viewing_time"":2770},{""page_index"":1,""viewing_time"":1323}]","","","","","","","","","","","","","","","","","","","","","","","","","","","","","","","","","","","","","","","","","","",""
"2633","","","{""Q0"":"""",""Q1"":"""",""Q2"":"""",""Q3"":"""",""Q4"":"""",""Q5"":"""",""Q6"":""I agree""}","survey-multi-choice","2","25363","0.0-2.0","266","1","2025-07-09 10:28:34","7701e855f2ef39aa3fd6c71abdc6918a","41.145.197.56","Mozilla/5.0 (X11; Linux x86_64) AppleWebKit/537.36 (KHTML, like Gecko) Chrome/138.0.0.0 Safari/537.36","WebKit","Chrome","138.0.0.0","Linux","","https://app.prolific.com/","en-GB,en-US;q=0.9,en;q=0.8,ar;q=0.7","667b1ca693a1d52a0447f22f","686d226cabeef709c732f8e1","686e313d7eb80da74ad69479","667b1ca693a1d52a0447f22f","","","[0,1,2,3,4,5,6]","true","","","","","","","","","","","","","","","","","","","","","","","","","","","","","","","","","","","","","","","","",""
"1235","","","","fullscreen","3","27605","0.0-4.0","266","1","2025-07-09 10:28:34","7701e855f2ef39aa3fd6c71abdc6918a","41.145.197.56","Mozilla/5.0 (X11; Linux x86_64) AppleWebKit/537.36 (KHTML, like Gecko) Chrome/138.0.0.0 Safari/537.36","WebKit","Chrome","138.0.0.0","Linux","","https://app.prolific.com/","en-GB,en-US;q=0.9,en;q=0.8,ar;q=0.7","667b1ca693a1d52a0447f22f","686d226cabeef709c732f8e1","686e313d7eb80da74ad69479","667b1ca693a1d52a0447f22f","","","","","true","","","","","","","","","","","","","","","","","","","","","","","","","","","","","","","","","","","","","","","",""
"10437","1752056953352"," <p style='font-size:1.1em;line-height:1.25'>Thank you for completing the consent form and closing all other tabs.</p><p style='font-size:1.1em;line-height:1.25'>We will now invite you to fill in some demographic information and questionnaires, before starting the game.<br>This will take about 5 minutes.<br></p><p style='font-size:1.1em;line-height:1.25'>Press the <strong>Next</strong> button to continue.</p>","0","custom-html-button-response","4","38045","0.0-5.0","266","1","2025-07-09 10:28:34","7701e855f2ef39aa3fd6c71abdc6918a","41.145.197.56","Mozilla/5.0 (X11; Linux x86_64) AppleWebKit/537.36 (KHTML, like Gecko) Chrome/138.0.0.0 Safari/537.36","WebKit","Chrome","138.0.0.0","Linux","","https://app.prolific.com/","en-GB,en-US;q=0.9,en;q=0.8,ar;q=0.7","667b1ca693a1d52a0447f22f","686d226cabeef709c732f8e1","686e313d7eb80da74ad69479","667b1ca693a1d52a0447f22f","2025-07-09T10:29:13.353Z","","","","","","","","","","","","","","","","","","","","","","","","","","","","","","","","","","","","","","","","","","","",""
"16303","","","{""age"":""30""}","survey-text","5","54356","0.0-6.0-0.0","266","1","2025-07-09 10:28:34","7701e855f2ef39aa3fd6c71abdc6918a","41.145.197.56","Mozilla/5.0 (X11; Linux x86_64) AppleWebKit/537.36 (KHTML, like Gecko) Chrome/138.0.0.0 Safari/537.36","WebKit","Chrome","138.0.0.0","Linux","","https://app.prolific.com/","en-GB,en-US;q=0.9,en;q=0.8,ar;q=0.7","667b1ca693a1d52a0447f22f","686d226cabeef709c732f8e1","686e313d7eb80da74ad69479","667b1ca693a1d52a0447f22f","","","","","","0","demographics","","","","","","","","","","","","","","","","","","","","","","","","","","","","","","","","","","","","","",""
"5638","","","{""gender_identity"":""female/woman""}","survey-multi-choice","6","60007","0.0-6.0-1.0","266","1","2025-07-09 10:28:34","7701e855f2ef39aa3fd6c71abdc6918a","41.145.197.56","Mozilla/5.0 (X11; Linux x86_64) AppleWebKit/537.36 (KHTML, like Gecko) Chrome/138.0.0.0 Safari/537.36","WebKit","Chrome","138.0.0.0","Linux","","https://app.prolific.com/","en-GB,en-US;q=0.9,en;q=0.8,ar;q=0.7","667b1ca693a1d52a0447f22f","686d226cabeef709c732f8e1","686e313d7eb80da74ad69479","667b1ca693a1d52a0447f22f","","","[0]","","","1","demographics","","","","","","","","","","","","","","","","","","","","","","","","","","","","","","","","","","","","","",""
"1986","","","{""assigned_sex"":""female""}","survey-multi-choice","7","62001","0.0-6.0-2.0","266","1","2025-07-09 10:28:34","7701e855f2ef39aa3fd6c71abdc6918a","41.145.197.56","Mozilla/5.0 (X11; Linux x86_64) AppleWebKit/537.36 (KHTML, like Gecko) Chrome/138.0.0.0 Safari/537.36","WebKit","Chrome","138.0.0.0","Linux","","https://app.prolific.com/","en-GB,en-US;q=0.9,en;q=0.8,ar;q=0.7","667b1ca693a1d52a0447f22f","686d226cabeef709c732f8e1","686e313d7eb80da74ad69479","667b1ca693a1d52a0447f22f","","","[0]","","","2","demographics","","","","","","","","","","","","","","","","","","","","","","","","","","","","","","","","","","","","","",""
"3020","","","{""menstrual_cycle"":""Yes""}","survey-multi-choice","8","65029","0.0-6.0-3.0","266","1","2025-07-09 10:28:34","7701e855f2ef39aa3fd6c71abdc6918a","41.145.197.56","Mozilla/5.0 (X11; Linux x86_64) AppleWebKit/537.36 (KHTML, like Gecko) Chrome/138.0.0.0 Safari/537.36","WebKit","Chrome","138.0.0.0","Linux","","https://app.prolific.com/","en-GB,en-US;q=0.9,en;q=0.8,ar;q=0.7","667b1ca693a1d52a0447f22f","686d226cabeef709c732f8e1","686e313d7eb80da74ad69479","667b1ca693a1d52a0447f22f","","","[0]","","","4","demographics","","","","","","","","","","","","","","","","","","","","","","","","","","","","","","","","","","","","","",""
"3223","","","{""education"":""Bachelor's Degree (e.g., BA)""}","survey-multi-choice","9","68261","0.0-6.0-4.0","266","1","2025-07-09 10:28:34","7701e855f2ef39aa3fd6c71abdc6918a","41.145.197.56","Mozilla/5.0 (X11; Linux x86_64) AppleWebKit/537.36 (KHTML, like Gecko) Chrome/138.0.0.0 Safari/537.36","WebKit","Chrome","138.0.0.0","Linux","","https://app.prolific.com/","en-GB,en-US;q=0.9,en;q=0.8,ar;q=0.7","667b1ca693a1d52a0447f22f","686d226cabeef709c732f8e1","686e313d7eb80da74ad69479","667b1ca693a1d52a0447f22f","","","[0]","","","5","demographics","","","","","","","","","","","","","","","","","","","","","","","","","","","","","","","","","","","","","",""
"3289","","","{""education"":""Master's Degree (e.g., MSc)""}","survey-multi-choice","10","71557","0.0-6.0-5.0","266","1","2025-07-09 10:28:34","7701e855f2ef39aa3fd6c71abdc6918a","41.145.197.56","Mozilla/5.0 (X11; Linux x86_64) AppleWebKit/537.36 (KHTML, like Gecko) Chrome/138.0.0.0 Safari/537.36","WebKit","Chrome","138.0.0.0","Linux","","https://app.prolific.com/","en-GB,en-US;q=0.9,en;q=0.8,ar;q=0.7","667b1ca693a1d52a0447f22f","686d226cabeef709c732f8e1","686e313d7eb80da74ad69479","667b1ca693a1d52a0447f22f","2025-07-09T10:29:46.865Z","","[0]","","","6","demographics","","","","","","","","","","","","","","","","","","","","","","","","","","","","","","","","","","","","","",""
"16779","","","{""mental_health_condition"":""No"",""mental_health_treatment"":""No"",""psychiatric_medication"":""None""}","survey-text","11","88342","0.0-7.0-0.0","266","1","2025-07-09 10:28:34","7701e855f2ef39aa3fd6c71abdc6918a","41.145.197.56","Mozilla/5.0 (X11; Linux x86_64) AppleWebKit/537.36 (KHTML, like Gecko) Chrome/138.0.0.0 Safari/537.36","WebKit","Chrome","138.0.0.0","Linux","","https://app.prolific.com/","en-GB,en-US;q=0.9,en;q=0.8,ar;q=0.7","667b1ca693a1d52a0447f22f","686d226cabeef709c732f8e1","686e313d7eb80da74ad69479","667b1ca693a1d52a0447f22f","2025-07-09T10:30:03.651Z","","","","","1","mental_health","","","","","","","","","","","","","","","","","","","","","","","","","","","","","","","","","","","","","",""
"2083","","","{""depression_history"":[""Yes""]}","survey-multi-select","12","90441","0.0-7.0-1.0","266","1","2025-07-09 10:28:34","7701e855f2ef39aa3fd6c71abdc6918a","41.145.197.56","Mozilla/5.0 (X11; Linux x86_64) AppleWebKit/537.36 (KHTML, like Gecko) Chrome/138.0.0.0 Safari/537.36","WebKit","Chrome","138.0.0.0","Linux","","https://app.prolific.com/","en-GB,en-US;q=0.9,en;q=0.8,ar;q=0.7","667b1ca693a1d52a0447f22f","686d226cabeef709c732f8e1","686e313d7eb80da74ad69479","667b1ca693a1d52a0447f22f","","","[0]","","","","mental_health","","","","","","","","","","","","","","","","","","","","","","","","","","","","","","","","","","","","","",""
"5056","","","{""depression_episodes"":""Prefer not to say / I don't know"",""depression_recent"":""More than 1 year ago""}","survey-multi-choice","13","95503","0.0-7.0-2.0-0.0","266","1","2025-07-09 10:28:34","7701e855f2ef39aa3fd6c71abdc6918a","41.145.197.56","Mozilla/5.0 (X11; Linux x86_64) AppleWebKit/537.36 (KHTML, like Gecko) Chrome/138.0.0.0 Safari/537.36","WebKit","Chrome","138.0.0.0","Linux","","https://app.prolific.com/","en-GB,en-US;q=0.9,en;q=0.8,ar;q=0.7","667b1ca693a1d52a0447f22f","686d226cabeef709c732f8e1","686e313d7eb80da74ad69479","667b1ca693a1d52a0447f22f","2025-07-09T10:30:10.811Z","","[0,1]","","","3","mental_health","","","","","","","","","","","","","","","","","","","","","","","","","","","","","","","","","","","","","",""
"15662.799999982119","","","","survey-template","14","111184","0.0-7.0-3.0","266","1","2025-07-09 10:28:34","7701e855f2ef39aa3fd6c71abdc6918a","41.145.197.56","Mozilla/5.0 (X11; Linux x86_64) AppleWebKit/537.36 (KHTML, like Gecko) Chrome/138.0.0.0 Safari/537.36","WebKit","Chrome","138.0.0.0","Linux","","https://app.prolific.com/","en-GB,en-US;q=0.9,en;q=0.8,ar;q=0.7","667b1ca693a1d52a0447f22f","686d226cabeef709c732f8e1","686e313d7eb80da74ad69479","667b1ca693a1d52a0447f22f","2025-07-09T10:30:26.492Z","","","","","","ius","{""Q01"":""3"",""Q02"":""3"",""Q03"":""3"",""Q04"":""3"",""Q05"":""3"",""Q06"":""3"",""Q07"":""3"",""Q08"":""0"",""Q09"":""3"",""Q10"":""3"",""Q11"":""3"",""Q12"":""3"",""Q13"":""3""}","[0,1,2,3,4,5,6,7,8,9,10,11,12]","[""Q08"",""Q01"",""Q02"",""Q03"",""Q04"",""Q05"",""Q06"",""Q07"",""Q09"",""Q10"",""Q11"",""Q12"",""Q13""]","[7381.399999976158,8748.399999976158,9088.09999999404,9355.59999999404,9758.199999988079,10824.799999982119,11287.199999988079,11957,12815.899999976158,13224.59999999404,13603,14020,14350.899999976158]","[]","[7381.399999976158,8748.399999976158,9088.09999999404,9355.59999999404,9758.199999988079,10144.59999999404,10824.799999982119,11287.199999988079,11957,12815.899999976158,13224.59999999404,13603,14020,14350.899999976158,15650]","0.9230769230769231","0","0","","","","","","","","","","","","","","","","","","","","","","","","","","","","",""
"1441","1752057027937","<p style='font-size:1.1em;line-height:1.25'>In the following, we will ask you a few questions relating to your experiences over the past month.<br></p><p style='font-size:1.1em;line-height:1.25'>Press the <strong>Next</strong> button to continue.</p>","0","custom-html-button-response","15","112630","0.0-7.0-4.0","266","1","2025-07-09 10:28:34","7701e855f2ef39aa3fd6c71abdc6918a","41.145.197.56","Mozilla/5.0 (X11; Linux x86_64) AppleWebKit/537.36 (KHTML, like Gecko) Chrome/138.0.0.0 Safari/537.36","WebKit","Chrome","138.0.0.0","Linux","","https://app.prolific.com/","en-GB,en-US;q=0.9,en;q=0.8,ar;q=0.7","667b1ca693a1d52a0447f22f","686d226cabeef709c732f8e1","686e313d7eb80da74ad69479","667b1ca693a1d52a0447f22f","2025-07-09T10:30:27.939Z","","","","","","","","","","","","","","","","","","","","","","","","","","","","","","","","","","","","","","","","","","","",""
"11255.5","","","","survey-template","16","123893","0.0-7.0-5.0","266","1","2025-07-09 10:28:34","7701e855f2ef39aa3fd6c71abdc6918a","41.145.197.56","Mozilla/5.0 (X11; Linux x86_64) AppleWebKit/537.36 (KHTML, like Gecko) Chrome/138.0.0.0 Safari/537.36","WebKit","Chrome","138.0.0.0","Linux","","https://app.prolific.com/","en-GB,en-US;q=0.9,en;q=0.8,ar;q=0.7","667b1ca693a1d52a0447f22f","686d226cabeef709c732f8e1","686e313d7eb80da74ad69479","667b1ca693a1d52a0447f22f","2025-07-09T10:30:39.201Z","","","","","","pss","{""Q01"":""2"",""Q02"":""2"",""Q03"":""2"",""Q04"":""2"",""Q05"":""2"",""Q06"":""2"",""Q07"":""2"",""Q08"":""2"",""Q09"":""2"",""Q10"":""2""}","[0,1,2,3,4,5,6,7,8,9]","[""Q01"",""Q02"",""Q05"",""Q04"",""Q03"",""Q08"",""Q09"",""Q10"",""Q07"",""Q06""]","[2950.2000000178814,3272.5,4473.300000011921,4757.4000000059605,5036.9000000059605,6348.5,6764.600000023842,7126.800000011921,10385.90000000596,10701.300000011921]","[]","[0.20000001788139343,2950.2000000178814,3272.5,3547.300000011921,3901.2000000178814,4473.300000011921,4757.4000000059605,5036.9000000059605,5690.5,6010.4000000059605,6348.5,6764.600000023842,7126.800000011921,7595.300000011921,8853.800000011921,10385.90000000596,10701.300000011921,11244.90000000596]","1","0","0","","","","","","","","","","","","","","","","","","","","","","","","","","","","",""
"871","1752057040074","<p style='font-size:1.1em;line-height:1.25'>Thank you for your answers! Now we will ask you a few more questions relating to your feelings in the last 24 hours.<br></p><p style='font-size:1.1em;line-height:1.25'>Press the <strong>Next</strong> button to continue.</p>","0","custom-html-button-response","17","124767","0.0-7.0-6.0","266","1","2025-07-09 10:28:34","7701e855f2ef39aa3fd6c71abdc6918a","41.145.197.56","Mozilla/5.0 (X11; Linux x86_64) AppleWebKit/537.36 (KHTML, like Gecko) Chrome/138.0.0.0 Safari/537.36","WebKit","Chrome","138.0.0.0","Linux","","https://app.prolific.com/","en-GB,en-US;q=0.9,en;q=0.8,ar;q=0.7","667b1ca693a1d52a0447f22f","686d226cabeef709c732f8e1","686e313d7eb80da74ad69479","667b1ca693a1d52a0447f22f","2025-07-09T10:30:40.075Z","","","","","","","","","","","","","","","","","","","","","","","","","","","","","","","","","","","","","","","","","","","",""
"20775.5","","","","survey-template","18","145552","0.0-7.0-7.0","266","1","2025-07-09 10:28:34","7701e855f2ef39aa3fd6c71abdc6918a","41.145.197.56","Mozilla/5.0 (X11; Linux x86_64) AppleWebKit/537.36 (KHTML, like Gecko) Chrome/138.0.0.0 Safari/537.36","WebKit","Chrome","138.0.0.0","Linux","","https://app.prolific.com/","en-GB,en-US;q=0.9,en;q=0.8,ar;q=0.7","667b1ca693a1d52a0447f22f","686d226cabeef709c732f8e1","686e313d7eb80da74ad69479","667b1ca693a1d52a0447f22f","2025-07-09T10:31:00.861Z","","","","","","drsp","{""Q01"":""0"",""Q02"":""0"",""Q03"":""0"",""Q04"":""0"",""Q05"":""0"",""Q06"":""0"",""Q07"":""0"",""Q08"":""0"",""Q09"":""0"",""Q10"":""0"",""Q11"":""0"",""Q12"":""0"",""Q13"":""0"",""Q14"":""0"",""Q15"":""0"",""Q16"":""0"",""Q17"":""0"",""Q18"":""0"",""Q19"":""0"",""Q20"":""0"",""Q21"":""0""}","[0,1,2,3,4,5,6,7,8,9,10,11,12,13,14,15,16,17,18,19,20]","[""Q01"",""Q03"",""Q07"",""Q06"",""Q05"",""Q04"",""Q08"",""Q09"",""Q12"",""Q11"",""Q10"",""Q13"",""Q15"",""Q14"",""Q16"",""Q17"",""Q18"",""Q19"",""Q20"",""Q21"",""Q02""]","[1700.2000000178814,2400.100000023842,3520.9000000059605,3877.5,4112.4000000059605,4927.4000000059605,5697.4000000059605,6020.100000023842,7109.200000017881,7595,8033.600000023842,8836.600000023842,9746.600000023842,10131.90000000596,10852.600000023842,11354.5,11862.600000023842,12914.90000000596,13306.40000000596,13977.700000017881,19384.30000001192]","[]","[0.10000002384185791,1700.2000000178814,2016.4000000059605,2400.100000023842,2752.600000023842,3082.2000000178814,3520.9000000059605,3877.5,4112.4000000059605,4927.4000000059605,5697.4000000059605,6020.100000023842,6404.800000011921,6737,7109.200000017881,7595,8033.600000023842,8836.600000023842,9315.300000011921,9746.600000023842,10131.90000000596,10852.600000023842,11354.5,11862.600000023842,12914.90000000596,13306.40000000596,13977.700000017881,15145.5,18479.5,19384.30000001192,20765.20000001788]","1","0","0","","","","","","","","","","","","","","","","","","","","","","","","","","","","",""
"3772.199999988079","","","","survey-template","19","149330","0.0-7.0-8.0","266","1","2025-07-09 10:28:34","7701e855f2ef39aa3fd6c71abdc6918a","41.145.197.56","Mozilla/5.0 (X11; Linux x86_64) AppleWebKit/537.36 (KHTML, like Gecko) Chrome/138.0.0.0 Safari/537.36","WebKit","Chrome","138.0.0.0","Linux","","https://app.prolific.com/","en-GB,en-US;q=0.9,en;q=0.8,ar;q=0.7","667b1ca693a1d52a0447f22f","686d226cabeef709c732f8e1","686e313d7eb80da74ad69479","667b1ca693a1d52a0447f22f","2025-07-09T10:31:04.639Z","","","","","","stress","{""Q01"":""1"",""Q02"":""4"",""Q03"":""0""}","[0,1,2]","[""Q01"",""Q02"",""Q03""]","[1638.0999999940395,2188.5,2940.9000000059605]","[]","[1638.0999999940395,2188.5,2940.9000000059605,3765.800000011921]","0.6666666666666666","0.5","0","","","","","","","","","","","","","","","","","","","","","","","","","","","","",""
"4130","","","","instructions","20","153463","0.0-8.0-0.0","266","1","2025-07-09 10:28:34","7701e855f2ef39aa3fd6c71abdc6918a","41.145.197.56","Mozilla/5.0 (X11; Linux x86_64) AppleWebKit/537.36 (KHTML, like Gecko) Chrome/138.0.0.0 Safari/537.36","WebKit","Chrome","138.0.0.0","Linux","","https://app.prolific.com/","en-GB,en-US;q=0.9,en;q=0.8,ar;q=0.7","667b1ca693a1d52a0447f22f","686d226cabeef709c732f8e1","686e313d7eb80da74ad69479","667b1ca693a1d52a0447f22f","","[{""page_index"":0,""viewing_time"":1039},{""page_index"":1,""viewing_time"":2023},{""page_index"":2,""viewing_time"":546},{""page_index"":3,""viewing_time"":521}]","","","","","","","","","","","","","","","","","","","","","","","","","","","","","","","","","","","","","","","","","","",""
"","","","","ctl-task-cpt","21","182464","0.0-8.0-1.0","266","1","2025-07-09 10:28:34","7701e855f2ef39aa3fd6c71abdc6918a","41.145.197.56","Mozilla/5.0 (X11; Linux x86_64) AppleWebKit/537.36 (KHTML, like Gecko) Chrome/138.0.0.0 Safari/537.36","WebKit","Chrome","138.0.0.0","Linux","","https://app.prolific.com/","en-GB,en-US;q=0.9,en;q=0.8,ar;q=0.7","667b1ca693a1d52a0447f22f","686d226cabeef709c732f8e1","686e313d7eb80da74ad69479","667b1ca693a1d52a0447f22f","","","","","","","","","","","","","","","","","win-only","1","g1:NE,g2:SW","1","0","1","155658.7","883.2","4887.5","25982.5","2","4","4","6","1","2","0","0","0","0","2812.9","4000","705","[""up"",""right""]","{""num_key_presses"":6,""num_perfect"":4,""num_errors"":2,""num_randdir"":0,""num_randdir_good_moves"":0,""num_whilered"":0,""num_whileblue"":0,""num_blue"":1,""num_good_moves"":4}","[468.28807839381454,474.4687996483682,1.4,468.28807839381454,474.4687996483682,103.1,468.28807839381454,474.4687996483682,208.2,468.28807839381454,474.4687996483682,327.5,468.28807839381454,474.4687996483682,428.5,468.28807839381454,474.4687996483682,528.9,468.28807839381454,474.4687996483682,632.9,468.28807839381454,474.4687996483682,735,468.28807839381454,474.4687996483682,838,468.28807839381454,474.4687996483682,938.9,468.28807839381454,474.4687996483682,1042.7,468.28807839381454,474.4687996483682,1144,468.28807839381454,474.4687996483682,1249.8,468.28807839381454,474.4687996483682,1350.3,786.3915434740758,223.88729649552093,1453,866.6676537655568,23.57214277752624,1553.2,1084.9886639975286,-133.97910171977296,1653.4,870.4188738726353,206.6316840029596,1758.1,800.6461798809743,376.93707686432583,1858.1,757.8822706602788,496.2258762694238,1958.5,749.629586424706,499.22685235508663,2058.5,1064.7320754193045,21.321410713279107,2161.8,1074.4852476977087,-39.44835502139344,2277.9,967.200352635262,27.32336288460479,2384.2,924.4364434145665,71.58776014813171,2490.1,904.1798548363423,95.59556883343444,2593.5,894.4266825579381,101.59752100476013,2698.8,894.4266825579381,101.59752100476013,2803.4,894.4266825579381,101.59752100476013,2903.4,894.4266825579381,101.59752100476013,3003.4,894.4266825579381,101.59752100476013,3108.1,894.4266825579381,101.59752100476013,3215.8,892.175950493691,102.34776502617584,3326,892.175950493691,102.34776502617584,3429.3,892.175950493691,102.34776502617584,3533,892.175950493691,102.34776502617584,3637.2,892.175950493691,102.34776502617584,3738.1,890.6754624508595,108.34971719750152,3838.7,890.6754624508595,108.34971719750152,3938.8]","[534.1,534,1000,0.2,-466,""error"",""-"",""-"",""no_move"",9577.2,9042,2663.9,5388.3,1525,""smooth"",""up"",""up"",""good_move"",12595,3016.1,2390.4,9579.1,625.6,""smooth"",""up"",""up"",""good_move"",15769.8,3173.4,2181,12596.5,992.4,""smooth"",""right"",""right"",""good_move"",16189.6,417.5,2268.5,15772.3,-1851.1,""error"",""-"",""-"",""no_move"",20974.8,4784.3,2591,17193.5,1190.4,""smooth"",""right"",""right"",""good_move""]","",""
"1993","","","","instructions","22","184458","0.0-8.0-2.0","266","1","2025-07-09 10:28:34","7701e855f2ef39aa3fd6c71abdc6918a","41.145.197.56","Mozilla/5.0 (X11; Linux x86_64) AppleWebKit/537.36 (KHTML, like Gecko) Chrome/138.0.0.0 Safari/537.36","WebKit","Chrome","138.0.0.0","Linux","","https://app.prolific.com/","en-GB,en-US;q=0.9,en;q=0.8,ar;q=0.7","667b1ca693a1d52a0447f22f","686d226cabeef709c732f8e1","686e313d7eb80da74ad69479","667b1ca693a1d52a0447f22f","","[{""page_index"":0,""viewing_time"":1993}]","","","","","","","","","","","","","","","","","","","","","","","","","","","","","","","","","","","","","","","","","","",""
"","","","","ctl-task-cpt","23","229318","0.0-8.0-3.0","266","1","2025-07-09 10:28:34","7701e855f2ef39aa3fd6c71abdc6918a","41.145.197.56","Mozilla/5.0 (X11; Linux x86_64) AppleWebKit/537.36 (KHTML, like Gecko) Chrome/138.0.0.0 Safari/537.36","WebKit","Chrome","138.0.0.0","Linux","","https://app.prolific.com/","en-GB,en-US;q=0.9,en;q=0.8,ar;q=0.7","667b1ca693a1d52a0447f22f","686d226cabeef709c732f8e1","686e313d7eb80da74ad69479","667b1ca693a1d52a0447f22f","","","","","","","","","","","","","","","","","win-only","1","g1:NE,g2:SW","0.35","0","3","186644.7","1529.5","5543.6","41846.9","2","4","8","6","2","-8","-8","0","0","0","3698","4000","-2850","[""down"",""left""]","{""num_key_presses"":12,""num_perfect"":5,""num_errors"":0,""num_randdir"":7,""num_randdir_good_moves"":2,""num_whilered"":0,""num_whileblue"":0,""num_blue"":0,""num_good_moves"":6}","[461.53588220107315,453.4619670487283,1.1,461.53588220107315,453.4619670487283,101,461.53588220107315,453.4619670487283,201,461.53588220107315,453.4619670487283,301.2,461.53588220107315,453.4619670487283,410.6,461.53588220107315,453.4619670487283,511.3,461.53588220107315,453.4619670487283,611.4,461.53588220107315,453.4619670487283,711.7,461.53588220107315,453.4619670487283,816.6,461.53588220107315,453.4619670487283,916.8,461.53588220107315,453.4619670487283,1017.2,461.53588220107315,453.4619670487283,1121.8,461.53588220107315,453.4619670487283,1221.8,461.53588220107315,453.4619670487283,1322,461.53588220107315,453.4619670487283,1426.8,461.53588220107315,453.4619670487283,1526.9,461.53588220107315,453.4619670487283,1627.1,461.53588220107315,453.4619670487283,1727.1,461.53588220107315,453.4619670487283,1832.1,461.53588220107315,453.4619670487283,1936.5,461.53588220107315,453.4619670487283,2036.5,461.53588220107315,453.4619670487283,2140.7,461.53588220107315,453.4619670487283,2244.6,461.53588220107315,453.4619670487283,2345.9,461.53588220107315,453.4619670487283,2447.7,461.53588220107315,453.4619670487283,2548.4,461.53588220107315,453.4619670487283,2652,461.53588220107315,453.4619670487283,2756.5,461.53588220107315,453.4619670487283,2856.7,461.53588220107315,453.4619670487283,2961.6,461.53588220107315,453.4619670487283,3062,461.53588220107315,453.4619670487283,3166.3,461.53588220107315,453.4619670487283,3266.4,461.53588220107315,453.4619670487283,3367.6,461.53588220107315,453.4619670487283,3471.8,461.53588220107315,453.4619670487283,3571.8,461.53588220107315,453.4619670487283,3672.7,96.16704377162219,840.5878820992349,3773.1,96.16704377162219,840.5878820992349,3877.4,96.16704377162219,840.5878820992349,3980.5]","[1642.3,1642.3,1000,0,642.3,""smooth"",""down"",""down"",""good_move"",5251.9,3608.5,2500.7,1643.5,1107.8,""smooth"",""down"",""down"",""good_move"",8497.4,3244.5,2660.5,5253,584,""smooth"",""down"",""down"",""good_move"",11987.5,3488.3,3096.7,8499.2,391.6,""oops"",""left"",""right"",""bad_move"",15114.1,3125.7,2739.3,11988.5,386.4,""smooth"",""left"",""left"",""good_move"",17103.4,1986.1,1534.1,15117.4,452,""oops"",""left"",""right"",""bad_move"",19732.7,2628.3,2301.8,17104.4,326.5,""oops"",""up"",""left"",""good_move"",22884.4,3150.7,2808.3,19733.7,342.4,""oops"",""up"",""right"",""bad_move"",26405,3519.4,3182.5,22885.6,336.9,""oops"",""left"",""right"",""bad_move"",29440.2,3034.1,2666.4,26406.1,367.7,""oops"",""left"",""up"",""bad_move"",32255.9,2814.8,2303.1,29441.1,511.7,""oops"",""right"",""left"",""good_move"",34292.4,2035.2,1629.6,32257.3,405.5,""smooth"",""right"",""right"",""bad_move""]","",""
"18367","","","","instructions","24","247688","0.0-8.0-4.0","266","1","2025-07-09 10:28:34","7701e855f2ef39aa3fd6c71abdc6918a","41.145.197.56","Mozilla/5.0 (X11; Linux x86_64) AppleWebKit/537.36 (KHTML, like Gecko) Chrome/138.0.0.0 Safari/537.36","WebKit","Chrome","138.0.0.0","Linux","","https://app.prolific.com/","en-GB,en-US;q=0.9,en;q=0.8,ar;q=0.7","667b1ca693a1d52a0447f22f","686d226cabeef709c732f8e1","686e313d7eb80da74ad69479","667b1ca693a1d52a0447f22f","","[{""page_index"":0,""viewing_time"":2908},{""page_index"":1,""viewing_time"":15459}]","","","","","","","","","","","","","","","","","","","","","","","","","","","","","","","","","","","","","","","","","","",""
"16864","","","{""green_ball"":[""Ball always moves in the direction I press""]}","survey-multi-select","25","264556","0.0-8.0-5.0-0.0","266","1","2025-07-09 10:28:34","7701e855f2ef39aa3fd6c71abdc6918a","41.145.197.56","Mozilla/5.0 (X11; Linux x86_64) AppleWebKit/537.36 (KHTML, like Gecko) Chrome/138.0.0.0 Safari/537.36","WebKit","Chrome","138.0.0.0","Linux","","https://app.prolific.com/","en-GB,en-US;q=0.9,en;q=0.8,ar;q=0.7","667b1ca693a1d52a0447f22f","686d226cabeef709c732f8e1","686e313d7eb80da74ad69479","667b1ca693a1d52a0447f22f","","","[0]","","","","quiz","","","","","","","","","","","","","","","","","","","","","","","","","","","","","","","","","","","","","false",""
"1152","","<p align='center'><b>INCORRECT.</b> Usually the green ball moves in the indicated direction, but sometimes it shakes and moves randomly. </p>","0","html-button-response","26","265711","0.0-8.0-5.0-1.0","266","1","2025-07-09 10:28:34","7701e855f2ef39aa3fd6c71abdc6918a","41.145.197.56","Mozilla/5.0 (X11; Linux x86_64) AppleWebKit/537.36 (KHTML, like Gecko) Chrome/138.0.0.0 Safari/537.36","WebKit","Chrome","138.0.0.0","Linux","","https://app.prolific.com/","en-GB,en-US;q=0.9,en;q=0.8,ar;q=0.7","667b1ca693a1d52a0447f22f","686d226cabeef709c732f8e1","686e313d7eb80da74ad69479","667b1ca693a1d52a0447f22f","","","","","","","","","","","","","","","","","","","","","","","","","","","","","","","","","","","","","","","","","","","","",""
"958","","","{""green_ball"":[""Ball sometimes shakes and moves in a random direction""]}","survey-multi-select","27","266673","0.0-8.0-5.1-0.1","266","1","2025-07-09 10:28:34","7701e855f2ef39aa3fd6c71abdc6918a","41.145.197.56","Mozilla/5.0 (X11; Linux x86_64) AppleWebKit/537.36 (KHTML, like Gecko) Chrome/138.0.0.0 Safari/537.36","WebKit","Chrome","138.0.0.0","Linux","","https://app.prolific.com/","en-GB,en-US;q=0.9,en;q=0.8,ar;q=0.7","667b1ca693a1d52a0447f22f","686d226cabeef709c732f8e1","686e313d7eb80da74ad69479","667b1ca693a1d52a0447f22f","","","[0]","","","","quiz","","","","","","","","","","","","","","","","","","","","","","","","","","","","","","","","","","","","","true",""
"1117","","<p align='center'><b>CORRECT!</b> Indeed, the green ball may sometimes shake and move in a random direction.</p>","0","html-button-response","28","267793","0.0-8.0-5.1-1.1","266","1","2025-07-09 10:28:34","7701e855f2ef39aa3fd6c71abdc6918a","41.145.197.56","Mozilla/5.0 (X11; Linux x86_64) AppleWebKit/537.36 (KHTML, like Gecko) Chrome/138.0.0.0 Safari/537.36","WebKit","Chrome","138.0.0.0","Linux","","https://app.prolific.com/","en-GB,en-US;q=0.9,en;q=0.8,ar;q=0.7","667b1ca693a1d52a0447f22f","686d226cabeef709c732f8e1","686e313d7eb80da74ad69479","667b1ca693a1d52a0447f22f","","","","","","","","","","","","","","","","","","","","","","","","","","","","","","","","","","","","","","","","","","","","",""
"4617","","","{""yellow_ball"":[""Ball doesn‘t move and I get -1 penalty point""]}","survey-multi-select","29","272414","0.0-8.0-6.0-0.0","266","1","2025-07-09 10:28:34","7701e855f2ef39aa3fd6c71abdc6918a","41.145.197.56","Mozilla/5.0 (X11; Linux x86_64) AppleWebKit/537.36 (KHTML, like Gecko) Chrome/138.0.0.0 Safari/537.36","WebKit","Chrome","138.0.0.0","Linux","","https://app.prolific.com/","en-GB,en-US;q=0.9,en;q=0.8,ar;q=0.7","667b1ca693a1d52a0447f22f","686d226cabeef709c732f8e1","686e313d7eb80da74ad69479","667b1ca693a1d52a0447f22f","","","[0]","","","","quiz","","","","","","","","","","","","","","","","","","","","","","","","","","","","","","","","","","","","","true",""
"785","","<p align='center'><b>CORRECT!</b> Indeed, the yellow ball never moves and you receive a penalty.</p>","0","html-button-response","30","273203","0.0-8.0-6.0-1.0","266","1","2025-07-09 10:28:34","7701e855f2ef39aa3fd6c71abdc6918a","41.145.197.56","Mozilla/5.0 (X11; Linux x86_64) AppleWebKit/537.36 (KHTML, like Gecko) Chrome/138.0.0.0 Safari/537.36","WebKit","Chrome","138.0.0.0","Linux","","https://app.prolific.com/","en-GB,en-US;q=0.9,en;q=0.8,ar;q=0.7","667b1ca693a1d52a0447f22f","686d226cabeef709c732f8e1","686e313d7eb80da74ad69479","667b1ca693a1d52a0447f22f","","","","","","","","","","","","","","","","","","","","","","","","","","","","","","","","","","","","","","","","","","","","",""
"4472","","","{""blue_ball"":[""Ball always shakes and moves in a random direction""]}","survey-multi-select","31","277679","0.0-8.0-7.0-0.0","266","1","2025-07-09 10:28:34","7701e855f2ef39aa3fd6c71abdc6918a","41.145.197.56","Mozilla/5.0 (X11; Linux x86_64) AppleWebKit/537.36 (KHTML, like Gecko) Chrome/138.0.0.0 Safari/537.36","WebKit","Chrome","138.0.0.0","Linux","","https://app.prolific.com/","en-GB,en-US;q=0.9,en;q=0.8,ar;q=0.7","667b1ca693a1d52a0447f22f","686d226cabeef709c732f8e1","686e313d7eb80da74ad69479","667b1ca693a1d52a0447f22f","","","[0]","","","","quiz","","","","","","","","","","","","","","","","","","","","","","","","","","","","","","","","","","","","","true",""
"1083","","<p align='center'><b>CORRECT!</b> Indeed, the blue ball always shakes and moves in a random direction. Also there is a penalty of -1 point.</p>","0","html-button-response","32","278766","0.0-8.0-7.0-1.0","266","1","2025-07-09 10:28:34","7701e855f2ef39aa3fd6c71abdc6918a","41.145.197.56","Mozilla/5.0 (X11; Linux x86_64) AppleWebKit/537.36 (KHTML, like Gecko) Chrome/138.0.0.0 Safari/537.36","WebKit","Chrome","138.0.0.0","Linux","","https://app.prolific.com/","en-GB,en-US;q=0.9,en;q=0.8,ar;q=0.7","667b1ca693a1d52a0447f22f","686d226cabeef709c732f8e1","686e313d7eb80da74ad69479","667b1ca693a1d52a0447f22f","","","","","","","","","","","","","","","","","","","","","","","","","","","","","","","","","","","","","","","","","","","","",""
"2289","","","{""bonus"":[""When I reach 50% of points""]}","survey-multi-select","33","281061","0.0-8.0-8.0-0.0","266","1","2025-07-09 10:28:34","7701e855f2ef39aa3fd6c71abdc6918a","41.145.197.56","Mozilla/5.0 (X11; Linux x86_64) AppleWebKit/537.36 (KHTML, like Gecko) Chrome/138.0.0.0 Safari/537.36","WebKit","Chrome","138.0.0.0","Linux","","https://app.prolific.com/","en-GB,en-US;q=0.9,en;q=0.8,ar;q=0.7","667b1ca693a1d52a0447f22f","686d226cabeef709c732f8e1","686e313d7eb80da74ad69479","667b1ca693a1d52a0447f22f","","","[0]","","","","quiz","","","","","","","","","","","","","","","","","","","","","","","","","","","","","","","","","","","","","true",""
"1076","","<p align='center'><b>CORRECT!</b> Indeed, you receive 2 pounds extra when you reach 50% of points.</p>","0","html-button-response","34","282141","0.0-8.0-8.0-1.0","266","1","2025-07-09 10:28:34","7701e855f2ef39aa3fd6c71abdc6918a","41.145.197.56","Mozilla/5.0 (X11; Linux x86_64) AppleWebKit/537.36 (KHTML, like Gecko) Chrome/138.0.0.0 Safari/537.36","WebKit","Chrome","138.0.0.0","Linux","","https://app.prolific.com/","en-GB,en-US;q=0.9,en;q=0.8,ar;q=0.7","667b1ca693a1d52a0447f22f","686d226cabeef709c732f8e1","686e313d7eb80da74ad69479","667b1ca693a1d52a0447f22f","","","","","","","","","","","","","","","","","","","","","","","","","","","","","","","","","","","","","","","","","","","","",""
"1123","","","","instructions","35","283266","0.0-8.0-9.0","266","1","2025-07-09 10:28:34","7701e855f2ef39aa3fd6c71abdc6918a","41.145.197.56","Mozilla/5.0 (X11; Linux x86_64) AppleWebKit/537.36 (KHTML, like Gecko) Chrome/138.0.0.0 Safari/537.36","WebKit","Chrome","138.0.0.0","Linux","","https://app.prolific.com/","en-GB,en-US;q=0.9,en;q=0.8,ar;q=0.7","667b1ca693a1d52a0447f22f","686d226cabeef709c732f8e1","686e313d7eb80da74ad69479","667b1ca693a1d52a0447f22f","","[{""page_index"":0,""viewing_time"":1122}]","","","","","","","","","","","","","","","","","","","","","","","","","","","","","","","","","","","","","","","","","","",""
"2752","","<p>Before you start with this game please answer the following three questions yourself. </p>
  <p>Through this game, we measure several aspects of your cognitive performance, such as reaction times, multi-tasking capabilities </p>
  <p>and the ability to assess the situation you are in.</p>
  <p></p>
  <p><b>How good do you usually are in such tasks?</b></p>","100","html-slider-response","36","286022","0.0-9.0-0.0","266","1","2025-07-09 10:28:34","7701e855f2ef39aa3fd6c71abdc6918a","41.145.197.56","Mozilla/5.0 (X11; Linux x86_64) AppleWebKit/537.36 (KHTML, like Gecko) Chrome/138.0.0.0 Safari/537.36","WebKit","Chrome","138.0.0.0","Linux","","https://app.prolific.com/","en-GB,en-US;q=0.9,en;q=0.8,ar;q=0.7","667b1ca693a1d52a0447f22f","686d226cabeef709c732f8e1","686e313d7eb80da74ad69479","667b1ca693a1d52a0447f22f","2025-07-09T10:33:21.330Z","","","","","","PreSkillQ","","","","","","","","","","","","","","","","","","","","","","","","","","","","","","","","","","","","","","50"
"3660","","<div style=""width:500px;"">
  <p>How well do you think you will perform in this task compared to other participants?</p>
  </div>","100","html-slider-response","37","289684","0.0-9.0-1.0","266","1","2025-07-09 10:28:34","7701e855f2ef39aa3fd6c71abdc6918a","41.145.197.56","Mozilla/5.0 (X11; Linux x86_64) AppleWebKit/537.36 (KHTML, like Gecko) Chrome/138.0.0.0 Safari/537.36","WebKit","Chrome","138.0.0.0","Linux","","https://app.prolific.com/","en-GB,en-US;q=0.9,en;q=0.8,ar;q=0.7","667b1ca693a1d52a0447f22f","686d226cabeef709c732f8e1","686e313d7eb80da74ad69479","667b1ca693a1d52a0447f22f","2025-07-09T10:33:24.992Z","","","","","","PrePerfQ","","","","","","","","","","","","","","","","","","","","","","","","","","","","","","","","","","","","","","50"
"2335","","<div style=""width:500px;"">
  <p>What best describes how you currently feel?</p>
  </div>","100","html-slider-response","38","292023","0.0-9.0-2.0","266","1","2025-07-09 10:28:34","7701e855f2ef39aa3fd6c71abdc6918a","41.145.197.56","Mozilla/5.0 (X11; Linux x86_64) AppleWebKit/537.36 (KHTML, like Gecko) Chrome/138.0.0.0 Safari/537.36","WebKit","Chrome","138.0.0.0","Linux","","https://app.prolific.com/","en-GB,en-US;q=0.9,en;q=0.8,ar;q=0.7","667b1ca693a1d52a0447f22f","686d226cabeef709c732f8e1","686e313d7eb80da74ad69479","667b1ca693a1d52a0447f22f","2025-07-09T10:33:27.331Z","","","","","","PreMotivationQ","","","","","","","","","","","","","","","","","","","","","","","","","","","","","","","","","","","","","","50"
"","","","","ctl-task-cpt","39","321357","0.0-10.0-0.0","266","1","2025-07-09 10:28:34","7701e855f2ef39aa3fd6c71abdc6918a","41.145.197.56","Mozilla/5.0 (X11; Linux x86_64) AppleWebKit/537.36 (KHTML, like Gecko) Chrome/138.0.0.0 Safari/537.36","WebKit","Chrome","138.0.0.0","Linux","","https://app.prolific.com/","en-GB,en-US;q=0.9,en;q=0.8,ar;q=0.7","667b1ca693a1d52a0447f22f","686d226cabeef709c732f8e1","686e313d7eb80da74ad69479","667b1ca693a1d52a0447f22f","2025-07-09T10:33:56.666Z","","","","","","","","","","","","","","","","win-only","0","g1:NW,g2:SE","1","1","0","294212","1747.1","6751.7","26315.7","1","4","4","6","1","1","0","0","0","0","1752.4","3000","130","[""left"",""up""]","{""num_key_presses"":5,""num_perfect"":4,""num_errors"":1,""num_randdir"":0,""num_randdir_good_moves"":0,""num_whilered"":0,""num_whileblue"":0,""num_blue"":1,""num_good_moves"":4}","[462.28612622248886,468.4668474770425,0.5,462.28612622248886,468.4668474770425,103.7,462.28612622248886,468.4668474770425,203.7,462.28612622248886,468.4668474770425,303.7,462.28612622248886,468.4668474770425,408.9,462.28612622248886,468.4668474770425,513.6,462.28612622248886,468.4668474770425,613.8,462.28612622248886,468.4668474770425,718.4,462.28612622248886,468.4668474770425,818.5,462.28612622248886,468.4668474770425,918.7,462.28612622248886,468.4668474770425,1018.8,462.28612622248886,468.4668474770425,1128.5,462.28612622248886,468.4668474770425,1232.5,462.28612622248886,468.4668474770425,1332.8,462.28612622248886,468.4668474770425,1438.7,462.28612622248886,468.4668474770425,1540.1,462.28612622248886,468.4668474770425,1644.3,462.28612622248886,468.4668474770425,1745.2,57.154354658005246,84.34190851219878,1848.8,57.154354658005246,84.34190851219878,1949,57.154354658005246,84.34190851219878,2054.3,57.154354658005246,84.34190851219878,2155.7,57.154354658005246,84.34190851219878,2258.6,57.154354658005246,84.34190851219878,2360.3,57.154354658005246,84.34190851219878,2464.6,57.154354658005246,84.34190851219878,2567.4,57.154354658005246,84.34190851219878,2668.8,57.154354658005246,84.34190851219878,2768.8,57.154354658005246,84.34190851219878,2881.2,57.154354658005246,84.34190851219878,2983.6,57.154354658005246,84.34190851219878,3095.4,57.154354658005246,84.34190851219878,3199.2,57.154354658005246,84.34190851219878,3299.8,57.154354658005246,84.34190851219878,3402.2,57.154354658005246,84.34190851219878,3503.7,57.154354658005246,84.34190851219878,3603.7,57.154354658005246,84.34190851219878,3703.8,57.154354658005246,84.34190851219878,3803.8,57.154354658005246,84.34190851219878,3909,57.154354658005246,84.34190851219878,4009,57.154354658005246,84.34190851219878,4109.4,57.154354658005246,84.34190851219878,4234.9,57.154354658005246,84.34190851219878,4338.6,57.154354658005246,84.34190851219878,4440.6,57.154354658005246,84.34190851219878,4540.6,57.154354658005246,84.34190851219878,4644,57.154354658005246,84.34190851219878,4744.7,57.154354658005246,84.34190851219878,4845.1,57.154354658005246,84.34190851219878,4948.8]","[433.2,433.2,1000,0,-566.8,""error"",""-"",""-"",""no_move"",6336.7,5902.5,3115.4,1439.6,1781.7,""smooth"",""up"",""up"",""good_move"",9677.7,3340,2597.7,6337.7,742.3,""smooth"",""left"",""left"",""good_move"",16930.6,7251.6,3221,13329.1,380.5,""smooth"",""up"",""up"",""good_move"",19477.4,2546,2160.7,16931.4,385.3,""smooth"",""left"",""left"",""good_move""]","",""
"2131","","<div style=""width:500px;"">
  <p>What determined the result of this run?</p>
  </div>","100","html-slider-response","40","323492","0.0-10.0-1.0","266","1","2025-07-09 10:28:34","7701e855f2ef39aa3fd6c71abdc6918a","41.145.197.56","Mozilla/5.0 (X11; Linux x86_64) AppleWebKit/537.36 (KHTML, like Gecko) Chrome/138.0.0.0 Safari/537.36","WebKit","Chrome","138.0.0.0","Linux","","https://app.prolific.com/","en-GB,en-US;q=0.9,en;q=0.8,ar;q=0.7","667b1ca693a1d52a0447f22f","686d226cabeef709c732f8e1","686e313d7eb80da74ad69479","667b1ca693a1d52a0447f22f","2025-07-09T10:33:58.800Z","","","","","","AttribQ","","","","","","","","","","","","","","","","","","","","","","","","","","","","","","","","","","","","","","50"
"1330","","<div style=""width:500px;"">
  <p>How much control did you have over the ball?</p>
  </div>","100","html-slider-response","41","324824","0.0-10.0-2.0","266","1","2025-07-09 10:28:34","7701e855f2ef39aa3fd6c71abdc6918a","41.145.197.56","Mozilla/5.0 (X11; Linux x86_64) AppleWebKit/537.36 (KHTML, like Gecko) Chrome/138.0.0.0 Safari/537.36","WebKit","Chrome","138.0.0.0","Linux","","https://app.prolific.com/","en-GB,en-US;q=0.9,en;q=0.8,ar;q=0.7","667b1ca693a1d52a0447f22f","686d226cabeef709c732f8e1","686e313d7eb80da74ad69479","667b1ca693a1d52a0447f22f","2025-07-09T10:34:00.132Z","","","","","","ControlQ","","","","","","","","","","","","","","","","","","","","","","","","","","","","","","","","","","","","","","50"
"1246","","<div style=""width:500px;"">
  <p>How would you describe your current emotional state?</p>
  </div>","100","html-slider-response","42","326072","0.0-10.0-3.0","266","1","2025-07-09 10:28:34","7701e855f2ef39aa3fd6c71abdc6918a","41.145.197.56","Mozilla/5.0 (X11; Linux x86_64) AppleWebKit/537.36 (KHTML, like Gecko) Chrome/138.0.0.0 Safari/537.36","WebKit","Chrome","138.0.0.0","Linux","","https://app.prolific.com/","en-GB,en-US;q=0.9,en;q=0.8,ar;q=0.7","667b1ca693a1d52a0447f22f","686d226cabeef709c732f8e1","686e313d7eb80da74ad69479","667b1ca693a1d52a0447f22f","2025-07-09T10:34:01.381Z","","","","","","StressQ","","","","","","","","","","","","","","","","","","","","","","","","","","","","","","","","","","","","","","50"
"1338","","<div style=""width:500px;"">
  <p>What best describes how you currently feel?</p>
  </div>","100","html-slider-response","43","327414","0.0-10.0-4.0","266","1","2025-07-09 10:28:34","7701e855f2ef39aa3fd6c71abdc6918a","41.145.197.56","Mozilla/5.0 (X11; Linux x86_64) AppleWebKit/537.36 (KHTML, like Gecko) Chrome/138.0.0.0 Safari/537.36","WebKit","Chrome","138.0.0.0","Linux","","https://app.prolific.com/","en-GB,en-US;q=0.9,en;q=0.8,ar;q=0.7","667b1ca693a1d52a0447f22f","686d226cabeef709c732f8e1","686e313d7eb80da74ad69479","667b1ca693a1d52a0447f22f","2025-07-09T10:34:02.722Z","","","","","","MotivationQ","","","","","","","","","","","","","","","","","","","","","","","","","","","","","","","","","","","","","","50"
"","","","","ctl-task-cpt","44","368970","0.0-10.0-0.1","266","1","2025-07-09 10:28:34","7701e855f2ef39aa3fd6c71abdc6918a","41.145.197.56","Mozilla/5.0 (X11; Linux x86_64) AppleWebKit/537.36 (KHTML, like Gecko) Chrome/138.0.0.0 Safari/537.36","WebKit","Chrome","138.0.0.0","Linux","","https://app.prolific.com/","en-GB,en-US;q=0.9,en;q=0.8,ar;q=0.7","667b1ca693a1d52a0447f22f","686d226cabeef709c732f8e1","686e313d7eb80da74ad69479","667b1ca693a1d52a0447f22f","2025-07-09T10:34:44.279Z","","","","","","","","","","","","","","","","win-only","1","g1:NE,g2:SW","0.9","2","0","329603.1","10214.8","15216.4","38535.9","1","4","8","6","2","8","6","6","0","0.045454545454545456","2067.7","3000","395","[""down"",""left""]","{""num_key_presses"":7,""num_perfect"":5,""num_errors"":2,""num_randdir"":0,""num_randdir_good_moves"":0,""num_whilered"":0,""num_whileblue"":1,""num_blue"":2,""num_good_moves"":6}","[456.2841740511632,463.21513932713253,0.7,456.2841740511632,463.21513932713253,103,456.2841740511632,461.7146512843011,205.8,456.2841740511632,461.7146512843011,306.2,456.2841740511632,461.7146512843011,411.6,456.2841740511632,461.7146512843011,511.7,456.2841740511632,463.21513932713253,616,456.2841740511632,463.21513932713253,724.7,456.2841740511632,463.21513932713253,825.7,456.2841740511632,463.21513932713253,930.7,456.2841740511632,463.21513932713253,1030.9,456.2841740511632,463.21513932713253,1131,454.03344198691605,465.46587139137966,1232.4,454.03344198691605,465.46587139137966,1337.2,454.03344198691605,465.46587139137966,1441,454.03344198691605,465.46587139137966,1541,454.03344198691605,465.46587139137966,1641.2,454.03344198691605,465.46587139137966,1745.8,454.03344198691605,465.46587139137966,1846,454.03344198691605,465.46587139137966,1946,454.03344198691605,465.46587139137966,2051.2,111.1719241999364,867.5966668702005,2156.4,111.1719241999364,867.5966668702005,2256.5,111.1719241999364,867.5966668702005,2357,111.1719241999364,867.5966668702005,2457.1,111.1719241999364,867.5966668702005,2561,111.1719241999364,867.5966668702005,2661.2,111.1719241999364,867.5966668702005,2766.9,111.1719241999364,867.5966668702005,2867.1,111.1719241999364,867.5966668702005,2971,111.1719241999364,867.5966668702005,3071.4,111.1719241999364,867.5966668702005,3179.8,111.1719241999364,867.5966668702005,3280.4,111.1719241999364,867.5966668702005,3380.6,111.1719241999364,867.5966668702005,3481,111.1719241999364,867.5966668702005,3585.7,111.1719241999364,867.5966668702005,3686,111.1719241999364,867.5966668702005,3786.2,111.1719241999364,867.5966668702005,3890.9,111.1719241999364,867.5966668702005,3990.9,111.1719241999364,867.5966668702005,4095.7,111.1719241999364,867.5966668702005,4195.9,111.1719241999364,867.5966668702005,4296.1,111.1719241999364,867.5966668702005,4396.3,111.1719241999364,867.5966668702005,4500.8,111.1719241999364,867.5966668702005,4601,111.1719241999364,867.5966668702005,4701.7,111.1719241999364,867.5966668702005,4805.9,111.1719241999364,867.5966668702005,4906.4]","[1600.6,1600.6,1000,0,600.6,""smooth"",""left"",""left"",""good_move"",5032.5,3430.9,3009.1,1601.6,421.8,""smooth"",""left"",""left"",""good_move"",12184.8,7151.7,2892.9,8909,382.9,""smooth"",""left"",""left"",""good_move"",15415.9,3230.5,2774.1,12185.4,456.4,""while_blue"",""down"",""down"",""good_move"",15556.5,139.6,2212.3,15416.9,-2072.7,""error"",""-"",""-"",""no_move"",20459.2,4902.5,2908.7,16559.2,991.3,""smooth"",""down"",""down"",""good_move"",23230.6,2770.7,2355.7,20459.9,415,""smooth"",""down"",""down"",""good_move""]","",""
"2320","","<div style=""width:500px;"">
  <p>What determined the result of this run?</p>
  </div>","100","html-slider-response","45","371294","0.0-10.0-1.1","266","1","2025-07-09 10:28:34","7701e855f2ef39aa3fd6c71abdc6918a","41.145.197.56","Mozilla/5.0 (X11; Linux x86_64) AppleWebKit/537.36 (KHTML, like Gecko) Chrome/138.0.0.0 Safari/537.36","WebKit","Chrome","138.0.0.0","Linux","","https://app.prolific.com/","en-GB,en-US;q=0.9,en;q=0.8,ar;q=0.7","667b1ca693a1d52a0447f22f","686d226cabeef709c732f8e1","686e313d7eb80da74ad69479","667b1ca693a1d52a0447f22f","2025-07-09T10:34:46.602Z","","","","","","AttribQ","","","","","","","","","","","","","","","","","","","","","","","","","","","","","","","","","","","","","","50"
"2362","","<div style=""width:500px;"">
  <p>How much control did you have over the ball?</p>
  </div>","100","html-slider-response","46","373657","0.0-10.0-2.1","266","1","2025-07-09 10:28:34","7701e855f2ef39aa3fd6c71abdc6918a","41.145.197.56","Mozilla/5.0 (X11; Linux x86_64) AppleWebKit/537.36 (KHTML, like Gecko) Chrome/138.0.0.0 Safari/537.36","WebKit","Chrome","138.0.0.0","Linux","","https://app.prolific.com/","en-GB,en-US;q=0.9,en;q=0.8,ar;q=0.7","667b1ca693a1d52a0447f22f","686d226cabeef709c732f8e1","686e313d7eb80da74ad69479","667b1ca693a1d52a0447f22f","2025-07-09T10:34:48.966Z","","","","","","ControlQ","","","","","","","","","","","","","","","","","","","","","","","","","","","","","","","","","","","","","","50"
"5678","","<div style=""width:500px;"">
  <p>How would you describe your current emotional state?</p>
  </div>","0","html-slider-response","47","379338","0.0-10.0-3.1","266","1","2025-07-09 10:28:34","7701e855f2ef39aa3fd6c71abdc6918a","41.145.197.56","Mozilla/5.0 (X11; Linux x86_64) AppleWebKit/537.36 (KHTML, like Gecko) Chrome/138.0.0.0 Safari/537.36","WebKit","Chrome","138.0.0.0","Linux","","https://app.prolific.com/","en-GB,en-US;q=0.9,en;q=0.8,ar;q=0.7","667b1ca693a1d52a0447f22f","686d226cabeef709c732f8e1","686e313d7eb80da74ad69479","667b1ca693a1d52a0447f22f","2025-07-09T10:34:54.646Z","","","","","","StressQ","","","","","","","","","","","","","","","","","","","","","","","","","","","","","","","","","","","","","","50"
"2628","","<div style=""width:500px;"">
  <p>What best describes how you currently feel?</p>
  </div>","100","html-slider-response","48","381968","0.0-10.0-4.1","266","1","2025-07-09 10:28:34","7701e855f2ef39aa3fd6c71abdc6918a","41.145.197.56","Mozilla/5.0 (X11; Linux x86_64) AppleWebKit/537.36 (KHTML, like Gecko) Chrome/138.0.0.0 Safari/537.36","WebKit","Chrome","138.0.0.0","Linux","","https://app.prolific.com/","en-GB,en-US;q=0.9,en;q=0.8,ar;q=0.7","667b1ca693a1d52a0447f22f","686d226cabeef709c732f8e1","686e313d7eb80da74ad69479","667b1ca693a1d52a0447f22f","2025-07-09T10:34:57.276Z","","","","","","MotivationQ","","","","","","","","","","","","","","","","","","","","","","","","","","","","","","","","","","","","","","50"
"","","","","ctl-task-cpt","49","410726","0.0-10.0-0.2","266","1","2025-07-09 10:28:34","7701e855f2ef39aa3fd6c71abdc6918a","41.145.197.56","Mozilla/5.0 (X11; Linux x86_64) AppleWebKit/537.36 (KHTML, like Gecko) Chrome/138.0.0.0 Safari/537.36","WebKit","Chrome","138.0.0.0","Linux","","https://app.prolific.com/","en-GB,en-US;q=0.9,en;q=0.8,ar;q=0.7","667b1ca693a1d52a0447f22f","686d226cabeef709c732f8e1","686e313d7eb80da74ad69479","667b1ca693a1d52a0447f22f","2025-07-09T10:35:26.034Z","","","","","","","","","","","","","","","","win-only","0","g1:NW,g2:SE","0.8","3","0","384155.8","2774.4","7776","25745.9","1","4","4","6","2","-4","-4","2","6","0.015151515151515152","2133.1","3000","-2840","[""down"",""right""]","{""num_key_presses"":4,""num_perfect"":3,""num_errors"":0,""num_randdir"":1,""num_randdir_good_moves"":1,""num_whilered"":0,""num_whileblue"":0,""num_blue"":1,""num_good_moves"":4}","[450.2822218798375,471.46782356270535,0.4,450.2822218798375,473.7185556269525,102.5,450.2822218798375,473.7185556269525,202.9,450.2822218798375,473.7185556269525,302.9,450.2822218798375,473.7185556269525,406.8,450.2822218798375,473.7185556269525,513.5,448.03148981559036,473.7185556269525,616.8,448.03148981559036,473.7185556269525,722.2,448.03148981559036,473.7185556269525,824.8,448.03148981559036,473.7185556269525,926.5,448.03148981559036,473.7185556269525,1031.3,448.03148981559036,473.7185556269525,1132.5,448.03148981559036,473.7185556269525,1232.8,448.03148981559036,473.7185556269525,1337.2,448.03148981559036,473.7185556269525,1448.6,448.03148981559036,473.7185556269525,1549.1,448.03148981559036,473.7185556269525,1651.5,448.03148981559036,473.7185556269525,1756.1,448.03148981559036,473.7185556269525,1856.3,448.03148981559036,473.7185556269525,1961.2,448.03148981559036,473.7185556269525,2061.7,869.6686298512196,789.5712886429666,2169.5,869.6686298512196,789.5712886429666,2273.3,869.6686298512196,789.5712886429666,2374.1,869.6686298512196,789.5712886429666,2474.3,869.6686298512196,789.5712886429666,2579.3,869.6686298512196,789.5712886429666,2680.3,869.6686298512196,789.5712886429666,2791.1,869.6686298512196,789.5712886429666,2892.8,869.6686298512196,789.5712886429666,3003.4,869.6686298512196,789.5712886429666,3106.2,869.6686298512196,789.5712886429666,3206.3,869.6686298512196,789.5712886429666,3311.2,869.6686298512196,789.5712886429666,3411.7,869.6686298512196,789.5712886429666,3516.8,869.6686298512196,789.5712886429666,3621.2,869.6686298512196,789.5712886429666,3726.4,869.6686298512196,789.5712886429666,3829.1,869.6686298512196,789.5712886429666,3931,869.6686298512196,789.5712886429666,4033,869.6686298512196,789.5712886429666,4138.4,869.6686298512196,789.5712886429666,4247.7,869.6686298512196,789.5712886429666,4350.2,869.6686298512196,789.5712886429666,4450.9,869.6686298512196,789.5712886429666,4562.8,869.6686298512196,789.5712886429666,4667,869.6686298512196,789.5712886429666,4767,869.6686298512196,789.5712886429666,4871.7,869.6686298512196,789.5712886429666,4972.6]","[1645.6,1645.6,1000,0,645.6,""smooth"",""down"",""down"",""good_move"",4808.7,3162.5,2296.5,1646.2,866,""smooth"",""down"",""down"",""good_move"",12207.8,7398.5,2872,8116.4,1219.4,""oops"",""right"",""right"",""good_move"",15143,2934.2,2294.7,12208.8,639.5,""smooth"",""down"",""down"",""good_move""]","",""
"2487","","<div style=""width:500px;"">
  <p>What determined the result of this run?</p>
  </div>","100","html-slider-response","50","413215","0.0-10.0-1.2","266","1","2025-07-09 10:28:34","7701e855f2ef39aa3fd6c71abdc6918a","41.145.197.56","Mozilla/5.0 (X11; Linux x86_64) AppleWebKit/537.36 (KHTML, like Gecko) Chrome/138.0.0.0 Safari/537.36","WebKit","Chrome","138.0.0.0","Linux","","https://app.prolific.com/","en-GB,en-US;q=0.9,en;q=0.8,ar;q=0.7","667b1ca693a1d52a0447f22f","686d226cabeef709c732f8e1","686e313d7eb80da74ad69479","667b1ca693a1d52a0447f22f","2025-07-09T10:35:28.523Z","","","","","","AttribQ","","","","","","","","","","","","","","","","","","","","","","","","","","","","","","","","","","","","","","50"
"1666","","<div style=""width:500px;"">
  <p>How much control did you have over the ball?</p>
  </div>","100","html-slider-response","51","414883","0.0-10.0-2.2","266","1","2025-07-09 10:28:34","7701e855f2ef39aa3fd6c71abdc6918a","41.145.197.56","Mozilla/5.0 (X11; Linux x86_64) AppleWebKit/537.36 (KHTML, like Gecko) Chrome/138.0.0.0 Safari/537.36","WebKit","Chrome","138.0.0.0","Linux","","https://app.prolific.com/","en-GB,en-US;q=0.9,en;q=0.8,ar;q=0.7","667b1ca693a1d52a0447f22f","686d226cabeef709c732f8e1","686e313d7eb80da74ad69479","667b1ca693a1d52a0447f22f","2025-07-09T10:35:30.191Z","","","","","","ControlQ","","","","","","","","","","","","","","","","","","","","","","","","","","","","","","","","","","","","","","50"
"5585","","<div style=""width:500px;"">
  <p>How would you describe your current emotional state?</p>
  </div>","0","html-slider-response","52","420470","0.0-10.0-3.2","266","1","2025-07-09 10:28:34","7701e855f2ef39aa3fd6c71abdc6918a","41.145.197.56","Mozilla/5.0 (X11; Linux x86_64) AppleWebKit/537.36 (KHTML, like Gecko) Chrome/138.0.0.0 Safari/537.36","WebKit","Chrome","138.0.0.0","Linux","","https://app.prolific.com/","en-GB,en-US;q=0.9,en;q=0.8,ar;q=0.7","667b1ca693a1d52a0447f22f","686d226cabeef709c732f8e1","686e313d7eb80da74ad69479","667b1ca693a1d52a0447f22f","2025-07-09T10:35:35.778Z","","","","","","StressQ","","","","","","","","","","","","","","","","","","","","","","","","","","","","","","","","","","","","","","50"
"1627","","<div style=""width:500px;"">
  <p>What best describes how you currently feel?</p>
  </div>","100","html-slider-response","53","422099","0.0-10.0-4.2","266","1","2025-07-09 10:28:34","7701e855f2ef39aa3fd6c71abdc6918a","41.145.197.56","Mozilla/5.0 (X11; Linux x86_64) AppleWebKit/537.36 (KHTML, like Gecko) Chrome/138.0.0.0 Safari/537.36","WebKit","Chrome","138.0.0.0","Linux","","https://app.prolific.com/","en-GB,en-US;q=0.9,en;q=0.8,ar;q=0.7","667b1ca693a1d52a0447f22f","686d226cabeef709c732f8e1","686e313d7eb80da74ad69479","667b1ca693a1d52a0447f22f","2025-07-09T10:35:37.407Z","","","","","","MotivationQ","","","","","","","","","","","","","","","","","","","","","","","","","","","","","","","","","","","","","","50"
"","","","","ctl-task-cpt","54","469822","0.0-10.0-0.3","266","1","2025-07-09 10:28:34","7701e855f2ef39aa3fd6c71abdc6918a","41.145.197.56","Mozilla/5.0 (X11; Linux x86_64) AppleWebKit/537.36 (KHTML, like Gecko) Chrome/138.0.0.0 Safari/537.36","WebKit","Chrome","138.0.0.0","Linux","","https://app.prolific.com/","en-GB,en-US;q=0.9,en;q=0.8,ar;q=0.7","667b1ca693a1d52a0447f22f","686d226cabeef709c732f8e1","686e313d7eb80da74ad69479","667b1ca693a1d52a0447f22f","2025-07-09T10:36:25.130Z","","","","","","","","","","","","","","","","win-only","2","g1:SE,g2:NW","0.7","4","0","424287","4761.3","9766.5","44703.8","1","4","8","6","1","-1","-3","0","2","0","1867.2","3000","-2595","[""down"",""right""]","{""num_key_presses"":11,""num_perfect"":6,""num_errors"":2,""num_randdir"":3,""num_randdir_good_moves"":2,""num_whilered"":0,""num_whileblue"":1,""num_blue"":1,""num_good_moves"":6}","[457.7846620939946,459.463919220054,0.7,457.7846620939946,463.21513932713253,104.2,457.7846620939946,463.21513932713253,209.4,457.7846620939946,463.21513932713253,314,457.7846620939946,463.21513932713253,414.7,457.7846620939946,463.21513932713253,519.9,457.7846620939946,463.21513932713253,620.8,489.29491099345444,466.9663594342111,722.1,753.3808065317845,599.7595512247918,826.2,800.6461798809743,629.7693120814203,934.5,875.6705820225453,896.8561837054132,1041,913.1827830933308,1049.9059640742182,1142.3,908.6813189648366,1043.9040119028925,1249.7,869.6686298512196,946.3722891188501,1352.8,865.9174097441411,935.8688728190301,1460.4,852.4130173586583,878.8503271914361,1567,852.4130173586583,876.599595127189,1673.6,852.4130173586583,876.599595127189,1778,852.4130173586583,875.0991070843576,1878.5,852.4130173586583,875.0991070843576,1980.2,852.4130173586583,875.0991070843576,2081.4,852.4130173586583,875.0991070843576,2186.6,852.4130173586583,869.0971549130319,2291.8,852.4130173586583,869.0971549130319,2401.8,852.4130173586583,869.0971549130319,2504.3,919.9349792860722,693.5400539017556,2606.5,919.9349792860722,614.0141876316903,2709.2,919.9349792860722,616.2649196959375,2812.4,919.9349792860722,616.2649196959375,2915.1,919.9349792860722,616.2649196959375,3018.8,919.9349792860722,616.2649196959375,3125.8,919.9349792860722,616.2649196959375,3233,919.9349792860722,616.2649196959375,3333.1,919.9349792860722,616.2649196959375,3435.3,919.9349792860722,616.2649196959375,3537.7,919.9349792860722,616.2649196959375,3647.5,919.9349792860722,616.2649196959375,3755.1,919.9349792860722,616.2649196959375,3859.3,919.9349792860722,616.2649196959375,3963.5,919.9349792860722,616.2649196959375,4066.1,919.9349792860722,616.2649196959375,4169.3,919.9349792860722,616.2649196959375,4271.8,919.9349792860722,616.2649196959375,4375.8,919.9349792860722,616.2649196959375,4478.3,919.9349792860722,616.2649196959375,4581.9,919.9349792860722,616.2649196959375,4683.4,919.9349792860722,616.2649196959375,4787.5,919.9349792860722,616.2649196959375,4888.8,919.9349792860722,616.2649196959375,4992.9]","[418.1,418.1,1000,0,-581.9,""error"",""-"",""-"",""no_move"",4534.5,4115.6,2698,1419.4,417.1,""oops"",""down"",""right"",""good_move"",8191,3655.7,2748.5,4535.3,907.2,""smooth"",""up"",""up"",""bad_move"",10934.1,2742.2,2335.1,8191.9,407.1,""smooth"",""down"",""down"",""good_move"",14534.3,3599.3,3237.5,10935,361.8,""oops"",""down"",""up"",""bad_move"",17806.8,3269.9,2849.1,14536.9,420.8,""smooth"",""down"",""down"",""good_move"",20590.4,2782.5,2412.4,17807.9,370.1,""smooth"",""right"",""right"",""good_move"",23086.7,2495.9,2078.3,20590.8,417.6,""while_blue"",""down"",""up"",""bad_move"",25537.8,2450.5,2019.7,23087.3,430.8,""oops"",""down"",""down"",""good_move"",28668.2,3129.7,2655.3,25538.5,474.4,""smooth"",""up"",""up"",""bad_move"",32425.2,3756.5,3329.5,28668.7,427,""smooth"",""down"",""down"",""good_move""]","",""
"3274","","<div style=""width:500px;"">
  <p>What determined the result of this run?</p>
  </div>","86","html-slider-response","55","473100","0.0-10.0-1.3","266","1","2025-07-09 10:28:34","7701e855f2ef39aa3fd6c71abdc6918a","41.145.197.56","Mozilla/5.0 (X11; Linux x86_64) AppleWebKit/537.36 (KHTML, like Gecko) Chrome/138.0.0.0 Safari/537.36","WebKit","Chrome","138.0.0.0","Linux","","https://app.prolific.com/","en-GB,en-US;q=0.9,en;q=0.8,ar;q=0.7","667b1ca693a1d52a0447f22f","686d226cabeef709c732f8e1","686e313d7eb80da74ad69479","667b1ca693a1d52a0447f22f","2025-07-09T10:36:28.408Z","","","","","","AttribQ","","","","","","","","","","","","","","","","","","","","","","","","","","","","","","","","","","","","","","50"
"6467","","<div style=""width:500px;"">
  <p>How much control did you have over the ball?</p>
  </div>","78","html-slider-response","56","479570","0.0-10.0-2.3","266","1","2025-07-09 10:28:34","7701e855f2ef39aa3fd6c71abdc6918a","41.145.197.56","Mozilla/5.0 (X11; Linux x86_64) AppleWebKit/537.36 (KHTML, like Gecko) Chrome/138.0.0.0 Safari/537.36","WebKit","Chrome","138.0.0.0","Linux","","https://app.prolific.com/","en-GB,en-US;q=0.9,en;q=0.8,ar;q=0.7","667b1ca693a1d52a0447f22f","686d226cabeef709c732f8e1","686e313d7eb80da74ad69479","667b1ca693a1d52a0447f22f","2025-07-09T10:36:34.878Z","","","","","","ControlQ","","","","","","","","","","","","","","","","","","","","","","","","","","","","","","","","","","","","","","50"
"5690","","<div style=""width:500px;"">
  <p>How would you describe your current emotional state?</p>
  </div>","39","html-slider-response","57","485262","0.0-10.0-3.3","266","1","2025-07-09 10:28:34","7701e855f2ef39aa3fd6c71abdc6918a","41.145.197.56","Mozilla/5.0 (X11; Linux x86_64) AppleWebKit/537.36 (KHTML, like Gecko) Chrome/138.0.0.0 Safari/537.36","WebKit","Chrome","138.0.0.0","Linux","","https://app.prolific.com/","en-GB,en-US;q=0.9,en;q=0.8,ar;q=0.7","667b1ca693a1d52a0447f22f","686d226cabeef709c732f8e1","686e313d7eb80da74ad69479","667b1ca693a1d52a0447f22f","2025-07-09T10:36:40.570Z","","","","","","StressQ","","","","","","","","","","","","","","","","","","","","","","","","","","","","","","","","","","","","","","50"
"5410","","<div style=""width:500px;"">
  <p>What best describes how you currently feel?</p>
  </div>","66","html-slider-response","58","490674","0.0-10.0-4.3","266","1","2025-07-09 10:28:34","7701e855f2ef39aa3fd6c71abdc6918a","41.145.197.56","Mozilla/5.0 (X11; Linux x86_64) AppleWebKit/537.36 (KHTML, like Gecko) Chrome/138.0.0.0 Safari/537.36","WebKit","Chrome","138.0.0.0","Linux","","https://app.prolific.com/","en-GB,en-US;q=0.9,en;q=0.8,ar;q=0.7","667b1ca693a1d52a0447f22f","686d226cabeef709c732f8e1","686e313d7eb80da74ad69479","667b1ca693a1d52a0447f22f","2025-07-09T10:36:45.982Z","","","","","","MotivationQ","","","","","","","","","","","","","","","","","","","","","","","","","","","","","","","","","","","","","","50"
"","","","","ctl-task-cpt","59","548042","0.0-10.0-0.4","266","1","2025-07-09 10:28:34","7701e855f2ef39aa3fd6c71abdc6918a","41.145.197.56","Mozilla/5.0 (X11; Linux x86_64) AppleWebKit/537.36 (KHTML, like Gecko) Chrome/138.0.0.0 Safari/537.36","WebKit","Chrome","138.0.0.0","Linux","","https://app.prolific.com/","en-GB,en-US;q=0.9,en;q=0.8,ar;q=0.7","667b1ca693a1d52a0447f22f","686d226cabeef709c732f8e1","686e313d7eb80da74ad69479","667b1ca693a1d52a0447f22f","2025-07-09T10:37:43.350Z","","","","","","","","","","","","","","","","win-only","0","g1:NW,g2:SE","0.6","5","0","492862.8","3451","8458.5","54345.7","1","4","8","6","2","-8","-13","0","0","0","1958.5","3000","-1640","[""down"",""right""]","{""num_key_presses"":16,""num_perfect"":7,""num_errors"":5,""num_randdir"":4,""num_randdir_good_moves"":1,""num_whilered"":0,""num_whileblue"":3,""num_blue"":3,""num_good_moves"":9}","[456.2841740511632,466.2161154127954,0.6,456.2841740511632,466.2161154127954,104,456.2841740511632,466.2161154127954,206.9,456.2841740511632,466.2161154127954,313.5,456.2841740511632,466.2161154127954,420,450.2822218798375,466.2161154127954,522.2,439.02856155860184,499.22685235508663,622.4,791.6432516239857,912.6113081551431,730.2,918.4344912432408,967.37912171849,834.4,929.6881515644765,910.360576090896,941.1,829.905696716187,819.581049499595,1043.2,722.6208016537404,792.5722647286294,1147.1,767.635442938683,827.8337337351678,1249.3,1108.9964726828314,959.8766815043329,1353.2,1108.9964726828314,950.1235092259286,1460.9,1058.7301232479788,905.8591119624017,1567.5,994.9593814276433,908.1098440266488,1669.4,924.4364434145665,899.1069157696603,1774.7,882.4227782152867,882.6015472985147,1880.2,882.4227782152867,882.6015472985147,1985,882.4227782152867,882.6015472985147,2085.6,880.1720461510396,878.8503271914361,2192.4,897.4276586436009,869.8473989344476,2299.3,897.4276586436009,871.347886977279,2403.5,897.4276586436009,871.347886977279,2510.1,897.4276586436009,871.347886977279,2614.8,897.4276586436009,871.347886977279,2721.4,897.4276586436009,871.347886977279,2833.9,897.4276586436009,871.347886977279,2938.8,897.4276586436009,871.347886977279,3043.9,897.4276586436009,871.347886977279,3150,897.4276586436009,871.347886977279,3255,897.4276586436009,871.347886977279,3360.3,897.4276586436009,871.347886977279,3465.8,897.4276586436009,871.347886977279,3570.3,897.4276586436009,871.347886977279,3676.6,897.4276586436009,871.347886977279,3778.2,897.4276586436009,871.347886977279,3881.8,897.4276586436009,871.347886977279,3989,897.4276586436009,871.347886977279,4089.2,897.4276586436009,871.347886977279,4203.4,897.4276586436009,871.347886977279,4311.4,897.4276586436009,871.347886977279,4412,897.4276586436009,871.347886977279,4515,897.4276586436009,871.347886977279,4621.8,897.4276586436009,871.347886977279,4724.2,897.4276586436009,871.347886977279,4831,897.4276586436009,871.347886977279,4933.2]","[1606.6,1606.6,1000,0,606.6,""oops"",""right"",""left"",""bad_move"",5517.7,3910.2,3560.3,1607.5,349.9,""smooth"",""down"",""down"",""good_move"",9151.1,3632.6,3252.3,5518.5,380.3,""oops"",""right"",""up"",""bad_move"",11694.5,2542.1,2137.1,9152.4,405,""smooth"",""right"",""right"",""good_move"",14395.2,2699.9,2233.9,11695.3,466,""oops"",""right"",""right"",""good_move"",17458.4,3062.6,2661.5,14395.8,401.1,""smooth"",""down"",""down"",""good_move"",20617.4,3158.6,2299.9,17458.9,858.6,""while_blue"",""right"",""down"",""good_move"",24108.3,3490.2,2630.8,20618.2,859.3,""smooth"",""right"",""right"",""good_move"",26265.6,2156.6,1701.2,24109.1,455.3,""smooth"",""right"",""right"",""good_move"",28919,2652.6,2262.1,26266.4,390.5,""while_blue"",""down"",""up"",""bad_move"",31581.4,2661.5,2281.2,28919.9,380.4,""oops"",""down"",""up"",""bad_move"",34861.3,3279.1,2975,31582.2,304.1,""smooth"",""down"",""down"",""good_move"",38090.2,3228.1,2896.3,34862.1,331.8,""smooth"",""down"",""down"",""good_move"",41002.6,2911.7,2580.3,38090.9,331.4,""while_blue"",""down"",""left"",""bad_move"",41164.8,161.4,3193.9,41003.5,-3032.5,""error"",""-"",""-"",""no_move"",43003.2,1838.2,2344.6,42176.4,-1517.8,""error"",""-"",""-"",""no_move""]","",""
"3942","","<div style=""width:500px;"">
  <p>What determined the result of this run?</p>
  </div>","76","html-slider-response","60","551986","0.0-10.0-1.4","266","1","2025-07-09 10:28:34","7701e855f2ef39aa3fd6c71abdc6918a","41.145.197.56","Mozilla/5.0 (X11; Linux x86_64) AppleWebKit/537.36 (KHTML, like Gecko) Chrome/138.0.0.0 Safari/537.36","WebKit","Chrome","138.0.0.0","Linux","","https://app.prolific.com/","en-GB,en-US;q=0.9,en;q=0.8,ar;q=0.7","667b1ca693a1d52a0447f22f","686d226cabeef709c732f8e1","686e313d7eb80da74ad69479","667b1ca693a1d52a0447f22f","2025-07-09T10:37:47.295Z","","","","","","AttribQ","","","","","","","","","","","","","","","","","","","","","","","","","","","","","","","","","","","","","","50"
"1606","","<div style=""width:500px;"">
  <p>How much control did you have over the ball?</p>
  </div>","68","html-slider-response","61","553596","0.0-10.0-2.4","266","1","2025-07-09 10:28:34","7701e855f2ef39aa3fd6c71abdc6918a","41.145.197.56","Mozilla/5.0 (X11; Linux x86_64) AppleWebKit/537.36 (KHTML, like Gecko) Chrome/138.0.0.0 Safari/537.36","WebKit","Chrome","138.0.0.0","Linux","","https://app.prolific.com/","en-GB,en-US;q=0.9,en;q=0.8,ar;q=0.7","667b1ca693a1d52a0447f22f","686d226cabeef709c732f8e1","686e313d7eb80da74ad69479","667b1ca693a1d52a0447f22f","2025-07-09T10:37:48.904Z","","","","","","ControlQ","","","","","","","","","","","","","","","","","","","","","","","","","","","","","","","","","","","","","","50"
"2900","","<div style=""width:500px;"">
  <p>How would you describe your current emotional state?</p>
  </div>","69","html-slider-response","62","556499","0.0-10.0-3.4","266","1","2025-07-09 10:28:34","7701e855f2ef39aa3fd6c71abdc6918a","41.145.197.56","Mozilla/5.0 (X11; Linux x86_64) AppleWebKit/537.36 (KHTML, like Gecko) Chrome/138.0.0.0 Safari/537.36","WebKit","Chrome","138.0.0.0","Linux","","https://app.prolific.com/","en-GB,en-US;q=0.9,en;q=0.8,ar;q=0.7","667b1ca693a1d52a0447f22f","686d226cabeef709c732f8e1","686e313d7eb80da74ad69479","667b1ca693a1d52a0447f22f","2025-07-09T10:37:51.807Z","","","","","","StressQ","","","","","","","","","","","","","","","","","","","","","","","","","","","","","","","","","","","","","","50"
"10109","","<div style=""width:500px;"">
  <p>What best describes how you currently feel?</p>
  </div>","58","html-slider-response","63","566611","0.0-10.0-4.4","266","1","2025-07-09 10:28:34","7701e855f2ef39aa3fd6c71abdc6918a","41.145.197.56","Mozilla/5.0 (X11; Linux x86_64) AppleWebKit/537.36 (KHTML, like Gecko) Chrome/138.0.0.0 Safari/537.36","WebKit","Chrome","138.0.0.0","Linux","","https://app.prolific.com/","en-GB,en-US;q=0.9,en;q=0.8,ar;q=0.7","667b1ca693a1d52a0447f22f","686d226cabeef709c732f8e1","686e313d7eb80da74ad69479","667b1ca693a1d52a0447f22f","2025-07-09T10:38:01.919Z","","","","","","MotivationQ","","","","","","","","","","","","","","","","","","","","","","","","","","","","","","","","","","","","","","50"
"","","","","ctl-task-cpt","64","608944","0.0-10.0-0.5","266","1","2025-07-09 10:28:34","7701e855f2ef39aa3fd6c71abdc6918a","41.145.197.56","Mozilla/5.0 (X11; Linux x86_64) AppleWebKit/537.36 (KHTML, like Gecko) Chrome/138.0.0.0 Safari/537.36","WebKit","Chrome","138.0.0.0","Linux","","https://app.prolific.com/","en-GB,en-US;q=0.9,en;q=0.8,ar;q=0.7","667b1ca693a1d52a0447f22f","686d226cabeef709c732f8e1","686e313d7eb80da74ad69479","667b1ca693a1d52a0447f22f","2025-07-09T10:38:44.252Z","","","","","","","","","","","","","","","","win-only","3","g1:SW,g2:NE","0.5","6","0","568798.7","3492.4","8500.9","39305.5","1","4","4","6","1","1","-1","0","0","0","1211","3000","1165","[""down"",""left""]","{""num_key_presses"":11,""num_perfect"":4,""num_errors"":2,""num_randdir"":5,""num_randdir_good_moves"":3,""num_whilered"":0,""num_whileblue"":1,""num_blue"":1,""num_good_moves"":7}","[463.7866142653203,472.96831160553677,0.4,463.7866142653203,471.46782356270535,100.9,463.7866142653203,471.46782356270535,208.4,463.7866142653203,471.46782356270535,308.5,463.7866142653203,471.46782356270535,411.2,463.7866142653203,471.46782356270535,515.1,439.02856155860184,538.2395414687036,619.9,76.66069921481372,820.3312935210107,725.1,42.14947422969104,846.5898342705606,831.4,46.6509383581853,845.0893462277292,941,70.65874704348803,835.3361739493249,1052.5,72.90947910773517,835.3361739493249,1161,72.90947910773517,833.0854418850778,1264.3,116.42363234984637,825.5830016709207,1366.5,1178.0189226530767,578.7527186251519,1471.9,1214.7808797024466,575.7517425394891,1577.1,1214.7808797024466,578.0024746037362,1677.1,1214.7808797024466,578.0024746037362,1781.9,1214.7808797024466,578.0024746037362,1889.5,1214.7808797024466,578.0024746037362,1995.5,1214.7808797024466,578.0024746037362,2096.1,1214.7808797024466,578.0024746037362,2206.1,1214.7808797024466,578.0024746037362,2318.5,1214.7808797024466,578.0024746037362,2419.6,1214.7808797024466,578.0024746037362,2523.9,1214.7808797024466,578.0024746037362,2623.9,1214.7808797024466,578.0024746037362,2730.8,1214.7808797024466,578.0024746037362,2838.4,1214.7808797024466,578.0024746037362,2940.2,1213.2803916596151,580.2532066679834,3043.4,1213.2803916596151,580.2532066679834,3150.2,1213.2803916596151,580.2532066679834,3256.3,1213.2803916596151,580.2532066679834,3366.8,1213.2803916596151,580.2532066679834,3471.7,1213.2803916596151,580.2532066679834,3575.9,1213.2803916596151,580.2532066679834,3685.1,1213.2803916596151,580.2532066679834,3788.2,1213.2803916596151,580.2532066679834,3893.2,1213.2803916596151,580.2532066679834,3995,1213.2803916596151,580.2532066679834,4099.7,1213.2803916596151,580.2532066679834,4201.4,1213.2803916596151,580.2532066679834,4302.5,1213.2803916596151,580.2532066679834,4413,1213.2803916596151,580.2532066679834,4515.2,1213.2803916596151,580.2532066679834,4617.9,1213.2803916596151,580.2532066679834,4720.2,1213.2803916596151,580.2532066679834,4822.2,1213.2803916596151,580.2532066679834,4922.3]","[894.3,894.3,1000,0,-105.7,""error"",""-"",""-"",""no_move"",4700.7,3805.9,2215.3,1898.9,586.5,""while_blue"",""down"",""right"",""bad_move"",7358.6,2657.1,2042.9,4701.5,614.2,""oops"",""left"",""up"",""bad_move"",10249.7,2890.2,2531.8,7359.5,358.4,""smooth"",""down"",""down"",""good_move"",12699.3,2448.6,1949.6,10250.7,499,""smooth"",""left"",""left"",""good_move"",15415.4,2715.2,2026.9,12700.2,688.3,""smooth"",""left"",""left"",""good_move"",18422.9,3007,1814.9,15415.9,1192.1,""oops"",""down"",""left"",""good_move"",21875.5,3452.3,3110.9,18423.3,341.4,""oops"",""down"",""down"",""good_move"",24558.4,2682.3,2260.6,21876.1,421.7,""oops"",""down"",""right"",""bad_move"",27539.3,2979.9,2445.2,24559.5,534.7,""oops"",""down"",""left"",""good_move"",30576.9,3036.9,2702.8,27540,334.1,""smooth"",""down"",""down"",""good_move""]","",""
"4172","","<div style=""width:500px;"">
  <p>What determined the result of this run?</p>
  </div>","84","html-slider-response","65","613119","0.0-10.0-1.5","266","1","2025-07-09 10:28:34","7701e855f2ef39aa3fd6c71abdc6918a","41.145.197.56","Mozilla/5.0 (X11; Linux x86_64) AppleWebKit/537.36 (KHTML, like Gecko) Chrome/138.0.0.0 Safari/537.36","WebKit","Chrome","138.0.0.0","Linux","","https://app.prolific.com/","en-GB,en-US;q=0.9,en;q=0.8,ar;q=0.7","667b1ca693a1d52a0447f22f","686d226cabeef709c732f8e1","686e313d7eb80da74ad69479","667b1ca693a1d52a0447f22f","2025-07-09T10:38:48.428Z","","","","","","AttribQ","","","","","","","","","","","","","","","","","","","","","","","","","","","","","","","","","","","","","","50"
"24884","","<div style=""width:500px;"">
  <p>How much control did you have over the ball?</p>
  </div>","79","html-slider-response","66","638006","0.0-10.0-2.5","266","1","2025-07-09 10:28:34","7701e855f2ef39aa3fd6c71abdc6918a","41.145.197.56","Mozilla/5.0 (X11; Linux x86_64) AppleWebKit/537.36 (KHTML, like Gecko) Chrome/138.0.0.0 Safari/537.36","WebKit","Chrome","138.0.0.0","Linux","","https://app.prolific.com/","en-GB,en-US;q=0.9,en;q=0.8,ar;q=0.7","667b1ca693a1d52a0447f22f","686d226cabeef709c732f8e1","686e313d7eb80da74ad69479","667b1ca693a1d52a0447f22f","2025-07-09T10:39:13.314Z","","","","","","ControlQ","","","","","","","","","","","","","","","","","","","","","","","","","","","","","","","","","","","","","","50"
"12458","","<div style=""width:500px;"">
  <p>How would you describe your current emotional state?</p>
  </div>","73","html-slider-response","67","650468","0.0-10.0-3.5","266","1","2025-07-09 10:28:34","7701e855f2ef39aa3fd6c71abdc6918a","41.145.197.56","Mozilla/5.0 (X11; Linux x86_64) AppleWebKit/537.36 (KHTML, like Gecko) Chrome/138.0.0.0 Safari/537.36","WebKit","Chrome","138.0.0.0","Linux","","https://app.prolific.com/","en-GB,en-US;q=0.9,en;q=0.8,ar;q=0.7","667b1ca693a1d52a0447f22f","686d226cabeef709c732f8e1","686e313d7eb80da74ad69479","667b1ca693a1d52a0447f22f","2025-07-09T10:39:25.776Z","","","","","","StressQ","","","","","","","","","","","","","","","","","","","","","","","","","","","","","","","","","","","","","","50"
"12164","","<div style=""width:500px;"">
  <p>What best describes how you currently feel?</p>
  </div>","70","html-slider-response","68","662635","0.0-10.0-4.5","266","1","2025-07-09 10:28:34","7701e855f2ef39aa3fd6c71abdc6918a","41.145.197.56","Mozilla/5.0 (X11; Linux x86_64) AppleWebKit/537.36 (KHTML, like Gecko) Chrome/138.0.0.0 Safari/537.36","WebKit","Chrome","138.0.0.0","Linux","","https://app.prolific.com/","en-GB,en-US;q=0.9,en;q=0.8,ar;q=0.7","667b1ca693a1d52a0447f22f","686d226cabeef709c732f8e1","686e313d7eb80da74ad69479","667b1ca693a1d52a0447f22f","2025-07-09T10:39:37.943Z","","","","","","MotivationQ","","","","","","","","","","","","","","","","","","","","","","","","","","","","","","","","","","","","","","50"
"","","","","ctl-task-cpt","69","709842","0.0-10.0-0.6","266","1","2025-07-09 10:28:34","7701e855f2ef39aa3fd6c71abdc6918a","41.145.197.56","Mozilla/5.0 (X11; Linux x86_64) AppleWebKit/537.36 (KHTML, like Gecko) Chrome/138.0.0.0 Safari/537.36","WebKit","Chrome","138.0.0.0","Linux","","https://app.prolific.com/","en-GB,en-US;q=0.9,en;q=0.8,ar;q=0.7","667b1ca693a1d52a0447f22f","686d226cabeef709c732f8e1","686e313d7eb80da74ad69479","667b1ca693a1d52a0447f22f","2025-07-09T10:40:25.151Z","","","","","","","","","","","","","","","","win-only","3","g1:SW,g2:NE","0.4","7","0","664822.8","4477.8","9484.4","44185","1","4","8","6","1","-1","-2","0","0","0","2674.8","3000","-1660","[""down"",""left""]","{""num_key_presses"":12,""num_perfect"":4,""num_errors"":1,""num_randdir"":6,""num_randdir_good_moves"":2,""num_whilered"":1,""num_whileblue"":0,""num_blue"":0,""num_good_moves"":6}","[461.53588220107315,475.9692876911996,0.5,461.53588220107315,475.9692876911996,103.9,461.53588220107315,474.4687996483682,222.2,461.53588220107315,474.4687996483682,323.6,461.53588220107315,472.21806758412106,424.4,461.53588220107315,472.21806758412106,532,442.7797816656804,483.4717279053567,636.5,481.79247077929733,451.9614790058969,753.8,470.5388104580617,468.4668474770425,855.5,147.1836372278905,812.0786092854379,960.4,153.9358334206319,809.8278772211908,1061,150.18461331355334,813.5790973282693,1168.7,327.242202367661,637.2717522955774,1270,400.7661164664006,581.0034506893991,1379.1,-433.5052353478694,1064.9108445025324,1479.9,-488.2730489112163,1059.6591363526225,1586.5,-365.23302939903976,994.3879064894555,1697.6,-175.421291980865,942.6210690117715,1803.8,-131.9071387387538,935.8688728190301,1914.5,217.70657524096728,868.3469108916162,2024.4,225.9592594765401,854.8425185061334,2126,207.95340296256305,852.5917864418863,2237.4,195.19925459849597,854.0922744847177,2340.2,159.93778559195758,836.0864179707406,2444.1,133.6792448424077,835.3361739493249,2547.2,133.6792448424077,833.0854418850778,2662.6,133.6792448424077,833.0854418850778,2764.4,133.6792448424077,830.8347098208307,2873,139.6811970137334,824.832757649505,2976.7,159.93778559195758,795.5732408142923,3088.9,164.43924972045184,791.071776685798,3192.6,164.43924972045184,791.071776685798,3300.8,355.751475181458,668.7820011950372,3406.5,493.7963751219487,558.4961300469278,3508.6,493.7963751219487,554.7449099398492,3610.7,454.03344198691605,565.2483262396692,3718.5,441.27929362284897,573.501010475242,3823.4,442.0295376442647,627.5185800171731,3926.5,541.0617484711385,602.010283289039,4031.3,541.0617484711385,602.010283289039,4140.6,541.0617484711385,602.010283289039,4242.4,541.0617484711385,602.010283289039,4352.7,541.0617484711385,602.010283289039,4465.5,541.0617484711385,602.010283289039,4574.9,541.0617484711385,602.010283289039,4677.7,541.0617484711385,602.010283289039,4780.2,541.0617484711385,602.010283289039,4886.5,541.0617484711385,602.010283289039,4988.7]","[1039.3,1039.4,1000,0,39.4,""oops"",""down"",""up"",""bad_move"",4628.3,3588.2,2685.8,1040.2,902.3,""oops"",""left"",""up"",""bad_move"",8722,4093.2,2125.8,4628.8,1967.4,""oops"",""left"",""up"",""bad_move"",11680.4,2957.8,2343.2,8722.6,614.7,""oops"",""left"",""down"",""good_move"",14276.9,2595.6,2116.7,11681.3,478.9,""oops"",""left"",""up"",""bad_move"",16786.8,2509.1,2674.8,14277.7,-165.7,""error"",""-"",""-"",""no_move"",17233.5,446.1,2674.8,14277.7,281,""while_red"",""-"",""-"",""no_move"",21120.3,4332.9,2560.6,17788.6,771.1,""smooth"",""down"",""down"",""good_move"",23976,2855.3,2104.5,21120.7,750.8,""smooth"",""down"",""down"",""good_move"",26324.7,2348.1,1896.4,23976.6,451.7,""smooth"",""down"",""down"",""good_move"",29428.6,3103.4,2737.4,26325.2,366,""smooth"",""down"",""down"",""good_move"",32457.4,3028.3,2609.6,29429.2,418.6,""oops"",""left"",""left"",""good_move""]","",""
"6696","","<div style=""width:500px;"">
  <p>What determined the result of this run?</p>
  </div>","83","html-slider-response","70","716541","0.0-10.0-1.6","266","1","2025-07-09 10:28:34","7701e855f2ef39aa3fd6c71abdc6918a","41.145.197.56","Mozilla/5.0 (X11; Linux x86_64) AppleWebKit/537.36 (KHTML, like Gecko) Chrome/138.0.0.0 Safari/537.36","WebKit","Chrome","138.0.0.0","Linux","","https://app.prolific.com/","en-GB,en-US;q=0.9,en;q=0.8,ar;q=0.7","667b1ca693a1d52a0447f22f","686d226cabeef709c732f8e1","686e313d7eb80da74ad69479","667b1ca693a1d52a0447f22f","2025-07-09T10:40:31.850Z","","","","","","AttribQ","","","","","","","","","","","","","","","","","","","","","","","","","","","","","","","","","","","","","","50"
"6837","","<div style=""width:500px;"">
  <p>How much control did you have over the ball?</p>
  </div>","80","html-slider-response","71","723381","0.0-10.0-2.6","266","1","2025-07-09 10:28:34","7701e855f2ef39aa3fd6c71abdc6918a","41.145.197.56","Mozilla/5.0 (X11; Linux x86_64) AppleWebKit/537.36 (KHTML, like Gecko) Chrome/138.0.0.0 Safari/537.36","WebKit","Chrome","138.0.0.0","Linux","","https://app.prolific.com/","en-GB,en-US;q=0.9,en;q=0.8,ar;q=0.7","667b1ca693a1d52a0447f22f","686d226cabeef709c732f8e1","686e313d7eb80da74ad69479","667b1ca693a1d52a0447f22f","2025-07-09T10:40:38.689Z","","","","","","ControlQ","","","","","","","","","","","","","","","","","","","","","","","","","","","","","","","","","","","","","","50"
"11832","","<div style=""width:500px;"">
  <p>How would you describe your current emotional state?</p>
  </div>","99","html-slider-response","72","735216","0.0-10.0-3.6","266","1","2025-07-09 10:28:34","7701e855f2ef39aa3fd6c71abdc6918a","41.145.197.56","Mozilla/5.0 (X11; Linux x86_64) AppleWebKit/537.36 (KHTML, like Gecko) Chrome/138.0.0.0 Safari/537.36","WebKit","Chrome","138.0.0.0","Linux","","https://app.prolific.com/","en-GB,en-US;q=0.9,en;q=0.8,ar;q=0.7","667b1ca693a1d52a0447f22f","686d226cabeef709c732f8e1","686e313d7eb80da74ad69479","667b1ca693a1d52a0447f22f","2025-07-09T10:40:50.524Z","","","","","","StressQ","","","","","","","","","","","","","","","","","","","","","","","","","","","","","","","","","","","","","","50"
"10030","","<div style=""width:500px;"">
  <p>What best describes how you currently feel?</p>
  </div>","63","html-slider-response","73","745250","0.0-10.0-4.6","266","1","2025-07-09 10:28:34","7701e855f2ef39aa3fd6c71abdc6918a","41.145.197.56","Mozilla/5.0 (X11; Linux x86_64) AppleWebKit/537.36 (KHTML, like Gecko) Chrome/138.0.0.0 Safari/537.36","WebKit","Chrome","138.0.0.0","Linux","","https://app.prolific.com/","en-GB,en-US;q=0.9,en;q=0.8,ar;q=0.7","667b1ca693a1d52a0447f22f","686d226cabeef709c732f8e1","686e313d7eb80da74ad69479","667b1ca693a1d52a0447f22f","2025-07-09T10:41:00.558Z","","","","","","MotivationQ","","","","","","","","","","","","","","","","","","","","","","","","","","","","","","","","","","","","","","50"
"","","","","ctl-task-cpt","74","770765","0.0-10.0-0.7","266","1","2025-07-09 10:28:34","7701e855f2ef39aa3fd6c71abdc6918a","41.145.197.56","Mozilla/5.0 (X11; Linux x86_64) AppleWebKit/537.36 (KHTML, like Gecko) Chrome/138.0.0.0 Safari/537.36","WebKit","Chrome","138.0.0.0","Linux","","https://app.prolific.com/","en-GB,en-US;q=0.9,en;q=0.8,ar;q=0.7","667b1ca693a1d52a0447f22f","686d226cabeef709c732f8e1","686e313d7eb80da74ad69479","667b1ca693a1d52a0447f22f","2025-07-09T10:41:26.073Z","","","","","","","","","","","","","","","","win-only","2","g1:SE,g2:NW","0.3","8","0","747437.2","4089","9095.2","22483.8","1","4","4","6","1","1","1","1","0","0.007575757575757576","1325","3000","2025","[""down"",""right""]","{""num_key_presses"":4,""num_perfect"":2,""num_errors"":0,""num_randdir"":2,""num_randdir_good_moves"":2,""num_whilered"":0,""num_whileblue"":0,""num_blue"":1,""num_good_moves"":4}","[458.5349061154103,465.46587139137966,2,458.5349061154103,465.46587139137966,104.9,458.5349061154103,465.46587139137966,205.9,460.03539415824173,464.71562736996395,311.2,460.03539415824173,464.71562736996395,421,502.0490593575215,568.249302325332,537,526.80711206424,603.5107713318704,643.6,656.5993277691579,643.273704466903,754.3,832.9066728018498,960.6269255257486,863.4,832.9066728018498,963.6279016114114,968.6,833.6569168232655,959.1264374829171,1069.8,848.6617972515797,855.5927625275491,1171.4,848.6617972515797,849.5908103562234,1276.8,850.9125293158269,849.5908103562234,1384.3,848.6617972515797,849.5908103562234,1487.4,840.4091130160069,854.8425185061334,1598,838.9086249731755,852.5917864418863,1700,864.4169217013097,839.0873940564035,1802.8,865.9174097441411,836.8366619921563,1911.4,865.9174097441411,836.8366619921563,2015.6,865.9174097441411,836.8366619921563,2121.4,865.9174097441411,839.0873940564035,2232.2,865.9174097441411,839.0873940564035,2332.9,865.9174097441411,839.0873940564035,2435.2,865.9174097441411,839.0873940564035,2540.7,865.9174097441411,839.0873940564035,2651.1,865.9174097441411,839.0873940564035,2754.9,865.9174097441411,839.0873940564035,2860.9,865.9174097441411,839.0873940564035,2974.3,864.4169217013097,839.0873940564035,3076.7,864.4169217013097,839.0873940564035,3182.3,864.4169217013097,839.0873940564035,3284.6,864.4169217013097,839.0873940564035,3396.9,864.4169217013097,839.0873940564035,3508.2,864.4169217013097,839.0873940564035,3614.8,862.1661896370625,839.0873940564035,3718.2,862.1661896370625,839.0873940564035,3830,862.1661896370625,839.0873940564035,3935,862.1661896370625,839.0873940564035,4041.1,862.1661896370625,839.0873940564035,4150.9,862.1661896370625,839.0873940564035,4258.7,862.1661896370625,839.0873940564035,4364.3,862.1661896370625,839.0873940564035,4472,862.1661896370625,839.0873940564035,4581.9,862.1661896370625,839.0873940564035,4690.1,862.1661896370625,839.0873940564035,4793.2,862.1661896370625,839.0873940564035,4894.1]","[4363.8,4363.8,1992.3,2013.7,357.8,""oops"",""down"",""down"",""good_move"",7080.6,2715.9,2194.6,4364.7,521.4,""smooth"",""right"",""right"",""good_move"",10048.7,2967.2,2091,7081.5,876.2,""smooth"",""right"",""right"",""good_move"",13221.5,3172.3,2824.4,10049.2,347.9,""oops"",""down"",""down"",""good_move""]","",""
"4440","","<div style=""width:500px;"">
  <p>What determined the result of this run?</p>
  </div>","100","html-slider-response","75","775208","0.0-10.0-1.7","266","1","2025-07-09 10:28:34","7701e855f2ef39aa3fd6c71abdc6918a","41.145.197.56","Mozilla/5.0 (X11; Linux x86_64) AppleWebKit/537.36 (KHTML, like Gecko) Chrome/138.0.0.0 Safari/537.36","WebKit","Chrome","138.0.0.0","Linux","","https://app.prolific.com/","en-GB,en-US;q=0.9,en;q=0.8,ar;q=0.7","667b1ca693a1d52a0447f22f","686d226cabeef709c732f8e1","686e313d7eb80da74ad69479","667b1ca693a1d52a0447f22f","2025-07-09T10:41:30.517Z","","","","","","AttribQ","","","","","","","","","","","","","","","","","","","","","","","","","","","","","","","","","","","","","","50"
"8145","","<div style=""width:500px;"">
  <p>How much control did you have over the ball?</p>
  </div>","100","html-slider-response","76","783357","0.0-10.0-2.7","266","1","2025-07-09 10:28:34","7701e855f2ef39aa3fd6c71abdc6918a","41.145.197.56","Mozilla/5.0 (X11; Linux x86_64) AppleWebKit/537.36 (KHTML, like Gecko) Chrome/138.0.0.0 Safari/537.36","WebKit","Chrome","138.0.0.0","Linux","","https://app.prolific.com/","en-GB,en-US;q=0.9,en;q=0.8,ar;q=0.7","667b1ca693a1d52a0447f22f","686d226cabeef709c732f8e1","686e313d7eb80da74ad69479","667b1ca693a1d52a0447f22f","2025-07-09T10:41:38.665Z","","","","","","ControlQ","","","","","","","","","","","","","","","","","","","","","","","","","","","","","","","","","","","","","","50"
"6169","","<div style=""width:500px;"">
  <p>How would you describe your current emotional state?</p>
  </div>","0","html-slider-response","77","789529","0.0-10.0-3.7","266","1","2025-07-09 10:28:34","7701e855f2ef39aa3fd6c71abdc6918a","41.145.197.56","Mozilla/5.0 (X11; Linux x86_64) AppleWebKit/537.36 (KHTML, like Gecko) Chrome/138.0.0.0 Safari/537.36","WebKit","Chrome","138.0.0.0","Linux","","https://app.prolific.com/","en-GB,en-US;q=0.9,en;q=0.8,ar;q=0.7","667b1ca693a1d52a0447f22f","686d226cabeef709c732f8e1","686e313d7eb80da74ad69479","667b1ca693a1d52a0447f22f","2025-07-09T10:41:44.837Z","","","","","","StressQ","","","","","","","","","","","","","","","","","","","","","","","","","","","","","","","","","","","","","","50"
"6489","","<div style=""width:500px;"">
  <p>What best describes how you currently feel?</p>
  </div>","84","html-slider-response","78","796020","0.0-10.0-4.7","266","1","2025-07-09 10:28:34","7701e855f2ef39aa3fd6c71abdc6918a","41.145.197.56","Mozilla/5.0 (X11; Linux x86_64) AppleWebKit/537.36 (KHTML, like Gecko) Chrome/138.0.0.0 Safari/537.36","WebKit","Chrome","138.0.0.0","Linux","","https://app.prolific.com/","en-GB,en-US;q=0.9,en;q=0.8,ar;q=0.7","667b1ca693a1d52a0447f22f","686d226cabeef709c732f8e1","686e313d7eb80da74ad69479","667b1ca693a1d52a0447f22f","2025-07-09T10:41:51.328Z","","","","","","MotivationQ","","","","","","","","","","","","","","","","","","","","","","","","","","","","","","","","","","","","","","50"
"","","","","ctl-task-cpt","79","862823","0.0-10.0-0.8","266","1","2025-07-09 10:28:34","7701e855f2ef39aa3fd6c71abdc6918a","41.145.197.56","Mozilla/5.0 (X11; Linux x86_64) AppleWebKit/537.36 (KHTML, like Gecko) Chrome/138.0.0.0 Safari/537.36","WebKit","Chrome","138.0.0.0","Linux","","https://app.prolific.com/","en-GB,en-US;q=0.9,en;q=0.8,ar;q=0.7","667b1ca693a1d52a0447f22f","686d226cabeef709c732f8e1","686e313d7eb80da74ad69479","667b1ca693a1d52a0447f22f","2025-07-09T10:42:58.132Z","","","","","","","","","","","","","","","","win-only","0","g1:NW,g2:SE","0.2","9","0","798207.9","3630.2","8641.3","63780","1","4","8","6","1","-1","-4","0","1","0","2292.9","3000","-1505","[""left"",""up""]","{""num_key_presses"":17,""num_perfect"":2,""num_errors"":3,""num_randdir"":12,""num_randdir_good_moves"":5,""num_whilered"":0,""num_whileblue"":3,""num_blue"":3,""num_good_moves"":9}","[472.7895425223088,460.9644072628854,0.7,472.7895425223088,460.9644072628854,101.7,472.7895425223088,460.9644072628854,211.9,472.7895425223088,460.9644072628854,315.1,472.7895425223088,460.9644072628854,416.3,450.2822218798375,478.97026377686245,529.2,428.5251452587819,517.9829528904794,632.4,428.5251452587819,513.4814887619851,736.7,492.2958870791173,594.5078430748819,846.4,544.0627245568013,665.0307810879586,949,760.1330027245259,805.3264130926965,1056.5,763.1339788101888,800.8249489642022,1168.7,648.346643533585,719.7985946513055,1275.8,-85.39200941097974,380.6882969714044,1390.4,-29.123707804801455,337.1741437292932,1500.2,27.89483782279254,244.89412909516082,1601.5,35.39727803694964,199.12924378880248,1704.2,41.39923020827533,174.37119108208404,1817.5,57.90459867942096,138.35947805412994,1935.8,67.65777095782519,119.60337751873718,2051.5,69.90850302207232,115.85215741165862,2164.2,71.40899106490374,111.35069328316436,2266.9,71.40899106490374,110.60044926174865,2391.6,73.65972312915088,112.85118132599578,2501.4,182.4451062344289,259.899009523475,2608.4,182.4451062344289,259.899009523475,2710.2,182.4451062344289,259.899009523475,2811.9,182.4451062344289,259.899009523475,2919.5,182.4451062344289,259.899009523475,3019.7,182.4451062344289,259.899009523475,3125.1,182.4451062344289,259.899009523475,3225.1,182.4451062344289,259.899009523475,3329.3,182.4451062344289,259.899009523475,3438.5,182.4451062344289,259.899009523475,3548.2,182.4451062344289,259.899009523475,3653.9,182.4451062344289,259.899009523475,3755.6,182.4451062344289,259.899009523475,3861.7,182.4451062344289,259.899009523475,3968.1,182.4451062344289,259.899009523475,4069.8,182.4451062344289,259.899009523475,4174.1,182.4451062344289,259.899009523475,4279.9,182.4451062344289,259.899009523475,4381.9,182.4451062344289,259.899009523475,4486.1,182.4451062344289,259.899009523475,4588.6,182.4451062344289,259.899009523475,4694.2,182.4451062344289,259.899009523475,4798.3,182.4451062344289,259.899009523475,4904.1]","[1231.1,1231.1,1000,0,231.1,""oops"",""up"",""right"",""bad_move"",4296.4,3064.5,2711.7,1231.9,352.8,""while_blue"",""right"",""left"",""good_move"",7825.8,3528.8,2521.9,4297.1,1006.8,""smooth"",""right"",""right"",""bad_move"",11203.1,3376.8,2444.5,7826.3,932.3,""oops"",""up"",""up"",""good_move"",14865.8,3662,2775.9,11203.9,886.1,""oops"",""up"",""right"",""bad_move"",18253.8,3387.4,2984,14866.4,403.4,""oops"",""up"",""right"",""bad_move"",21539,3284.7,2878.6,18254.4,406.1,""smooth"",""up"",""up"",""good_move"",23888.8,2349,1871.2,21539.9,477.8,""oops"",""left"",""down"",""bad_move"",26930.6,3041.1,2705,23889.6,336.1,""oops"",""left"",""left"",""good_move"",29841.5,2909.8,2535.6,26931.7,374.2,""oops"",""left"",""right"",""bad_move"",32932,3090,2708.5,29842.1,381.5,""while_blue"",""left"",""up"",""good_move"",36693.1,3760.5,2389.8,32932.6,1370.7,""oops"",""left"",""left"",""good_move"",39215.6,2522,2054.4,36693.7,467.6,""oops"",""left"",""left"",""good_move"",41902,2685.8,2330.8,39216.2,355,""oops"",""left"",""down"",""bad_move"",45488.1,3585.3,3252.4,41902.9,332.9,""while_blue"",""left"",""left"",""good_move"",49214.1,3725.4,1590,45488.7,2135.4,""oops"",""left"",""right"",""bad_move"",52083.8,2869.1,1578.4,49214.7,1290.7,""oops"",""left"",""left"",""good_move""]","",""
"5444","","<div style=""width:500px;"">
  <p>What determined the result of this run?</p>
  </div>","16","html-slider-response","80","868270","0.0-10.0-1.8","266","1","2025-07-09 10:28:34","7701e855f2ef39aa3fd6c71abdc6918a","41.145.197.56","Mozilla/5.0 (X11; Linux x86_64) AppleWebKit/537.36 (KHTML, like Gecko) Chrome/138.0.0.0 Safari/537.36","WebKit","Chrome","138.0.0.0","Linux","","https://app.prolific.com/","en-GB,en-US;q=0.9,en;q=0.8,ar;q=0.7","667b1ca693a1d52a0447f22f","686d226cabeef709c732f8e1","686e313d7eb80da74ad69479","667b1ca693a1d52a0447f22f","2025-07-09T10:43:03.578Z","","","","","","AttribQ","","","","","","","","","","","","","","","","","","","","","","","","","","","","","","","","","","","","","","50"
"5588","","<div style=""width:500px;"">
  <p>How much control did you have over the ball?</p>
  </div>","17","html-slider-response","81","873861","0.0-10.0-2.8","266","1","2025-07-09 10:28:34","7701e855f2ef39aa3fd6c71abdc6918a","41.145.197.56","Mozilla/5.0 (X11; Linux x86_64) AppleWebKit/537.36 (KHTML, like Gecko) Chrome/138.0.0.0 Safari/537.36","WebKit","Chrome","138.0.0.0","Linux","","https://app.prolific.com/","en-GB,en-US;q=0.9,en;q=0.8,ar;q=0.7","667b1ca693a1d52a0447f22f","686d226cabeef709c732f8e1","686e313d7eb80da74ad69479","667b1ca693a1d52a0447f22f","2025-07-09T10:43:09.169Z","","","","","","ControlQ","","","","","","","","","","","","","","","","","","","","","","","","","","","","","","","","","","","","","","50"
"8155","","<div style=""width:500px;"">
  <p>How would you describe your current emotional state?</p>
  </div>","72","html-slider-response","82","882019","0.0-10.0-3.8","266","1","2025-07-09 10:28:34","7701e855f2ef39aa3fd6c71abdc6918a","41.145.197.56","Mozilla/5.0 (X11; Linux x86_64) AppleWebKit/537.36 (KHTML, like Gecko) Chrome/138.0.0.0 Safari/537.36","WebKit","Chrome","138.0.0.0","Linux","","https://app.prolific.com/","en-GB,en-US;q=0.9,en;q=0.8,ar;q=0.7","667b1ca693a1d52a0447f22f","686d226cabeef709c732f8e1","686e313d7eb80da74ad69479","667b1ca693a1d52a0447f22f","2025-07-09T10:43:17.327Z","","","","","","StressQ","","","","","","","","","","","","","","","","","","","","","","","","","","","","","","","","","","","","","","50"
"10804","","<div style=""width:500px;"">
  <p>What best describes how you currently feel?</p>
  </div>","66","html-slider-response","83","892826","0.0-10.0-4.8","266","1","2025-07-09 10:28:34","7701e855f2ef39aa3fd6c71abdc6918a","41.145.197.56","Mozilla/5.0 (X11; Linux x86_64) AppleWebKit/537.36 (KHTML, like Gecko) Chrome/138.0.0.0 Safari/537.36","WebKit","Chrome","138.0.0.0","Linux","","https://app.prolific.com/","en-GB,en-US;q=0.9,en;q=0.8,ar;q=0.7","667b1ca693a1d52a0447f22f","686d226cabeef709c732f8e1","686e313d7eb80da74ad69479","667b1ca693a1d52a0447f22f","2025-07-09T10:43:28.134Z","","","","","","MotivationQ","","","","","","","","","","","","","","","","","","","","","","","","","","","","","","","","","","","","","","50"
