"rt","response_timestamp","stimulus","response","trial_type","trial_index","time_elapsed","internal_node_id","run_id","condition","recorded_at","source_code_version","ip","user_agent","device","browser","browser_version","platform","platform_version","referer","accept_language","PROLIFIC_PID","STUDY_ID","SESSION_ID","prolific_id","realtime","view_history","question_order","consent","success","question_id","eventType","responses","item_order","radio_event_ids","radio_event_times","key_event_times","mouse_event_times","straightlining","zigzagging","honeypot","which_type","canvas_config","goals_layout","control_level","trial_number","tutorial_trial_number","trial_start_time","phase1_start_time","phase2_start_time","phase3_start_time","goal_1_value","goal_1_distance","goal_2_value","goal_2_distance","goal_selected","outcome","outcome_total","participant_final_score","participant_initial_score","participant_final_score_prop","goal_choice_rt","allocated_time","allocated_time_remaining","goal_direction","counts","mouse_movements","key_presses","correct","slider_start","sub_question"
"26071","1752052139868","<p style='font-size:40px;line-height:1.25'><strong>Welcome to the experiment!</strong></p><p style='font-size:1.1em;line-height:1.25'>Thank you for your interest in our experiment! Before you begin, it is important that we obtain your informed consent to participate in the study.</p><p style='font-size:1.1em;line-height:1.25'>On the next screen will be an <strong>information sheet</strong> for you to read. To participate in the study we need you to read this information sheet and the following consent form carefully. If you agree with all the statements, please click the <strong>I agree</strong> button.</p><p style='font-size:1.1em;line-height:1.25'>Press <strong>Next</strong> to read the information sheet.</p>","0","custom-html-button-response","0","26073","0.0-0.0","121","1","2025-07-09 09:08:31","7701e855f2ef39aa3fd6c71abdc6918a","196.13.185.1","Mozilla/5.0 (Windows NT 10.0; Win64; x64) AppleWebKit/537.36 (KHTML, like Gecko) Chrome/138.0.0.0 Safari/537.36 Edg/138.0.0.0","WebKit","Edge","138.0.0.0","Windows","10.0","https://app.prolific.com/","en-GB,en;q=0.9,en-US;q=0.8","675ee689e18bf69c5cb1b944","686d226cabeef709c732f8e1","686e3145f852156e7865d67c","675ee689e18bf69c5cb1b944","2025-07-09T09:08:59.869Z","","","","","","","","","","","","","","","","","","","","","","","","","","","","","","","","","","","","","","","","","","","","",""
"22779","","","","instructions","1","48853","0.0-1.0","121","1","2025-07-09 09:08:31","7701e855f2ef39aa3fd6c71abdc6918a","196.13.185.1","Mozilla/5.0 (Windows NT 10.0; Win64; x64) AppleWebKit/537.36 (KHTML, like Gecko) Chrome/138.0.0.0 Safari/537.36 Edg/138.0.0.0","WebKit","Edge","138.0.0.0","Windows","10.0","https://app.prolific.com/","en-GB,en;q=0.9,en-US;q=0.8","675ee689e18bf69c5cb1b944","686d226cabeef709c732f8e1","686e3145f852156e7865d67c","675ee689e18bf69c5cb1b944","","[{""page_index"":0,""viewing_time"":17869},{""page_index"":1,""viewing_time"":4909}]","","","","","","","","","","","","","","","","","","","","","","","","","","","","","","","","","","","","","","","","","","","",""
"50195","","","{""Q0"":"""",""Q1"":"""",""Q2"":"""",""Q3"":"""",""Q4"":"""",""Q5"":"""",""Q6"":""I agree""}","survey-multi-choice","2","99059","0.0-2.0","121","1","2025-07-09 09:08:31","7701e855f2ef39aa3fd6c71abdc6918a","196.13.185.1","Mozilla/5.0 (Windows NT 10.0; Win64; x64) AppleWebKit/537.36 (KHTML, like Gecko) Chrome/138.0.0.0 Safari/537.36 Edg/138.0.0.0","WebKit","Edge","138.0.0.0","Windows","10.0","https://app.prolific.com/","en-GB,en;q=0.9,en-US;q=0.8","675ee689e18bf69c5cb1b944","686d226cabeef709c732f8e1","686e3145f852156e7865d67c","675ee689e18bf69c5cb1b944","","","[0,1,2,3,4,5,6]","true","","","","","","","","","","","","","","","","","","","","","","","","","","","","","","","","","","","","","","","","","",""
"1897","","","","fullscreen","3","101961","0.0-4.0","121","1","2025-07-09 09:08:31","7701e855f2ef39aa3fd6c71abdc6918a","196.13.185.1","Mozilla/5.0 (Windows NT 10.0; Win64; x64) AppleWebKit/537.36 (KHTML, like Gecko) Chrome/138.0.0.0 Safari/537.36 Edg/138.0.0.0","WebKit","Edge","138.0.0.0","Windows","10.0","https://app.prolific.com/","en-GB,en;q=0.9,en-US;q=0.8","675ee689e18bf69c5cb1b944","686d226cabeef709c732f8e1","686e3145f852156e7865d67c","675ee689e18bf69c5cb1b944","","","","","true","","","","","","","","","","","","","","","","","","","","","","","","","","","","","","","","","","","","","","","","",""
"27228","1752052242987"," <p style='font-size:1.1em;line-height:1.25'>Thank you for completing the consent form and closing all other tabs.</p><p style='font-size:1.1em;line-height:1.25'>We will now invite you to fill in some demographic information and questionnaires, before starting the game.<br>This will take about 5 minutes.<br></p><p style='font-size:1.1em;line-height:1.25'>Press the <strong>Next</strong> button to continue.</p>","0","custom-html-button-response","4","129191","0.0-5.0","121","1","2025-07-09 09:08:31","7701e855f2ef39aa3fd6c71abdc6918a","196.13.185.1","Mozilla/5.0 (Windows NT 10.0; Win64; x64) AppleWebKit/537.36 (KHTML, like Gecko) Chrome/138.0.0.0 Safari/537.36 Edg/138.0.0.0","WebKit","Edge","138.0.0.0","Windows","10.0","https://app.prolific.com/","en-GB,en;q=0.9,en-US;q=0.8","675ee689e18bf69c5cb1b944","686d226cabeef709c732f8e1","686e3145f852156e7865d67c","675ee689e18bf69c5cb1b944","2025-07-09T09:10:42.987Z","","","","","","","","","","","","","","","","","","","","","","","","","","","","","","","","","","","","","","","","","","","","",""
"5446","","","{""age"":""22""}","survey-text","5","134642","0.0-6.0-0.0","121","1","2025-07-09 09:08:31","7701e855f2ef39aa3fd6c71abdc6918a","196.13.185.1","Mozilla/5.0 (Windows NT 10.0; Win64; x64) AppleWebKit/537.36 (KHTML, like Gecko) Chrome/138.0.0.0 Safari/537.36 Edg/138.0.0.0","WebKit","Edge","138.0.0.0","Windows","10.0","https://app.prolific.com/","en-GB,en;q=0.9,en-US;q=0.8","675ee689e18bf69c5cb1b944","686d226cabeef709c732f8e1","686e3145f852156e7865d67c","675ee689e18bf69c5cb1b944","","","","","","0","demographics","","","","","","","","","","","","","","","","","","","","","","","","","","","","","","","","","","","","","","",""
"2696","","","{""gender_identity"":""female/woman""}","survey-multi-choice","6","137346","0.0-6.0-1.0","121","1","2025-07-09 09:08:31","7701e855f2ef39aa3fd6c71abdc6918a","196.13.185.1","Mozilla/5.0 (Windows NT 10.0; Win64; x64) AppleWebKit/537.36 (KHTML, like Gecko) Chrome/138.0.0.0 Safari/537.36 Edg/138.0.0.0","WebKit","Edge","138.0.0.0","Windows","10.0","https://app.prolific.com/","en-GB,en;q=0.9,en-US;q=0.8","675ee689e18bf69c5cb1b944","686d226cabeef709c732f8e1","686e3145f852156e7865d67c","675ee689e18bf69c5cb1b944","","","[0]","","","1","demographics","","","","","","","","","","","","","","","","","","","","","","","","","","","","","","","","","","","","","","",""
"20276","","","{""assigned_sex"":""female""}","survey-multi-choice","7","157623","0.0-6.0-2.0","121","1","2025-07-09 09:08:31","7701e855f2ef39aa3fd6c71abdc6918a","196.13.185.1","Mozilla/5.0 (Windows NT 10.0; Win64; x64) AppleWebKit/537.36 (KHTML, like Gecko) Chrome/138.0.0.0 Safari/537.36 Edg/138.0.0.0","WebKit","Edge","138.0.0.0","Windows","10.0","https://app.prolific.com/","en-GB,en;q=0.9,en-US;q=0.8","675ee689e18bf69c5cb1b944","686d226cabeef709c732f8e1","686e3145f852156e7865d67c","675ee689e18bf69c5cb1b944","","","[0]","","","2","demographics","","","","","","","","","","","","","","","","","","","","","","","","","","","","","","","","","","","","","","",""
"7397","","","{""menstrual_cycle"":""Yes""}","survey-multi-choice","8","165022","0.0-6.0-3.0","121","1","2025-07-09 09:08:31","7701e855f2ef39aa3fd6c71abdc6918a","196.13.185.1","Mozilla/5.0 (Windows NT 10.0; Win64; x64) AppleWebKit/537.36 (KHTML, like Gecko) Chrome/138.0.0.0 Safari/537.36 Edg/138.0.0.0","WebKit","Edge","138.0.0.0","Windows","10.0","https://app.prolific.com/","en-GB,en;q=0.9,en-US;q=0.8","675ee689e18bf69c5cb1b944","686d226cabeef709c732f8e1","686e3145f852156e7865d67c","675ee689e18bf69c5cb1b944","","","[0]","","","4","demographics","","","","","","","","","","","","","","","","","","","","","","","","","","","","","","","","","","","","","","",""
"4419","","","{""education"":""Bachelor's Degree (e.g., BA)""}","survey-multi-choice","9","169443","0.0-6.0-4.0","121","1","2025-07-09 09:08:31","7701e855f2ef39aa3fd6c71abdc6918a","196.13.185.1","Mozilla/5.0 (Windows NT 10.0; Win64; x64) AppleWebKit/537.36 (KHTML, like Gecko) Chrome/138.0.0.0 Safari/537.36 Edg/138.0.0.0","WebKit","Edge","138.0.0.0","Windows","10.0","https://app.prolific.com/","en-GB,en;q=0.9,en-US;q=0.8","675ee689e18bf69c5cb1b944","686d226cabeef709c732f8e1","686e3145f852156e7865d67c","675ee689e18bf69c5cb1b944","","","[0]","","","5","demographics","","","","","","","","","","","","","","","","","","","","","","","","","","","","","","","","","","","","","","",""
"12467","","","{""education"":""Bachelor's Degree (e.g., BA)""}","survey-multi-choice","10","181912","0.0-6.0-5.0","121","1","2025-07-09 09:08:31","7701e855f2ef39aa3fd6c71abdc6918a","196.13.185.1","Mozilla/5.0 (Windows NT 10.0; Win64; x64) AppleWebKit/537.36 (KHTML, like Gecko) Chrome/138.0.0.0 Safari/537.36 Edg/138.0.0.0","WebKit","Edge","138.0.0.0","Windows","10.0","https://app.prolific.com/","en-GB,en;q=0.9,en-US;q=0.8","675ee689e18bf69c5cb1b944","686d226cabeef709c732f8e1","686e3145f852156e7865d67c","675ee689e18bf69c5cb1b944","2025-07-09T09:11:35.708Z","","[0]","","","6","demographics","","","","","","","","","","","","","","","","","","","","","","","","","","","","","","","","","","","","","","",""
"38990","","","{""mental_health_condition"":""NO"",""mental_health_treatment"":""NO"",""psychiatric_medication"":""NO""}","survey-text","11","220910","0.0-7.0-0.0","121","1","2025-07-09 09:08:31","7701e855f2ef39aa3fd6c71abdc6918a","196.13.185.1","Mozilla/5.0 (Windows NT 10.0; Win64; x64) AppleWebKit/537.36 (KHTML, like Gecko) Chrome/138.0.0.0 Safari/537.36 Edg/138.0.0.0","WebKit","Edge","138.0.0.0","Windows","10.0","https://app.prolific.com/","en-GB,en;q=0.9,en-US;q=0.8","675ee689e18bf69c5cb1b944","686d226cabeef709c732f8e1","686e3145f852156e7865d67c","675ee689e18bf69c5cb1b944","2025-07-09T09:12:14.706Z","","","","","1","mental_health","","","","","","","","","","","","","","","","","","","","","","","","","","","","","","","","","","","","","","",""
"12911","","","{""depression_history"":[""No""]}","survey-multi-select","12","233825","0.0-7.0-1.0","121","1","2025-07-09 09:08:31","7701e855f2ef39aa3fd6c71abdc6918a","196.13.185.1","Mozilla/5.0 (Windows NT 10.0; Win64; x64) AppleWebKit/537.36 (KHTML, like Gecko) Chrome/138.0.0.0 Safari/537.36 Edg/138.0.0.0","WebKit","Edge","138.0.0.0","Windows","10.0","https://app.prolific.com/","en-GB,en;q=0.9,en-US;q=0.8","675ee689e18bf69c5cb1b944","686d226cabeef709c732f8e1","686e3145f852156e7865d67c","675ee689e18bf69c5cb1b944","","","[0]","","","","mental_health","","","","","","","","","","","","","","","","","","","","","","","","","","","","","","","","","","","","","","",""
"209329.20000004768","","","","survey-template","13","443170","0.0-7.0-3.0","121","1","2025-07-09 09:08:31","7701e855f2ef39aa3fd6c71abdc6918a","196.13.185.1","Mozilla/5.0 (Windows NT 10.0; Win64; x64) AppleWebKit/537.36 (KHTML, like Gecko) Chrome/138.0.0.0 Safari/537.36 Edg/138.0.0.0","WebKit","Edge","138.0.0.0","Windows","10.0","https://app.prolific.com/","en-GB,en;q=0.9,en-US;q=0.8","675ee689e18bf69c5cb1b944","686d226cabeef709c732f8e1","686e3145f852156e7865d67c","675ee689e18bf69c5cb1b944","2025-07-09T09:15:56.967Z","","","","","","ius","{""Q01"":""2"",""Q02"":""4"",""Q03"":""3"",""Q04"":""4"",""Q05"":""2"",""Q06"":""1"",""Q07"":""3"",""Q08"":""0"",""Q09"":""3"",""Q10"":""1"",""Q11"":""3"",""Q12"":""4"",""Q13"":""3""}","[0,1,2,3,4,5,6,7,8,9,10,11,12]","[""Q01"",""Q02"",""Q03"",""Q04"",""Q05"",""Q06"",""Q07"",""Q08"",""Q09"",""Q10"",""Q11"",""Q12"",""Q13""]","[19918.5,27569.700000047684,30841.800000071526,65296.300000071526,84054.5,91341,101632.80000007153,104788.89999997616,183604.89999997616,189224.30000007153,194577.30000007153,202152.30000007153,207844.39999997616]","[]","[19918.5,27569.700000047684,29597,30841.800000071526,65296.300000071526,82351.30000007153,84054.5,87900.70000004768,90206.39999997616,91341,101632.80000007153,104788.89999997616,183604.89999997616,187932.60000002384,189224.30000007153,194577.30000007153,201023.20000004768,202152.30000007153,207844.39999997616,209327.70000004768]","0.38461538461538464","0.4166666666666667","0","","","","","","","","","","","","","","","","","","","","","","","","","","","","","",""
"2402","1752052559370","<p style='font-size:1.1em;line-height:1.25'>In the following, we will ask you a few questions relating to your experiences over the past month.<br></p><p style='font-size:1.1em;line-height:1.25'>Press the <strong>Next</strong> button to continue.</p>","0","custom-html-button-response","14","445574","0.0-7.0-4.0","121","1","2025-07-09 09:08:31","7701e855f2ef39aa3fd6c71abdc6918a","196.13.185.1","Mozilla/5.0 (Windows NT 10.0; Win64; x64) AppleWebKit/537.36 (KHTML, like Gecko) Chrome/138.0.0.0 Safari/537.36 Edg/138.0.0.0","WebKit","Edge","138.0.0.0","Windows","10.0","https://app.prolific.com/","en-GB,en;q=0.9,en-US;q=0.8","675ee689e18bf69c5cb1b944","686d226cabeef709c732f8e1","686e3145f852156e7865d67c","675ee689e18bf69c5cb1b944","2025-07-09T09:15:59.370Z","","","","","","","","","","","","","","","","","","","","","","","","","","","","","","","","","","","","","","","","","","","","",""
"73479.60000002384","","","","survey-template","15","519059","0.0-7.0-5.0","121","1","2025-07-09 09:08:31","7701e855f2ef39aa3fd6c71abdc6918a","196.13.185.1","Mozilla/5.0 (Windows NT 10.0; Win64; x64) AppleWebKit/537.36 (KHTML, like Gecko) Chrome/138.0.0.0 Safari/537.36 Edg/138.0.0.0","WebKit","Edge","138.0.0.0","Windows","10.0","https://app.prolific.com/","en-GB,en;q=0.9,en-US;q=0.8","675ee689e18bf69c5cb1b944","686d226cabeef709c732f8e1","686e3145f852156e7865d67c","675ee689e18bf69c5cb1b944","2025-07-09T09:17:12.855Z","","","","","","pss","{""Q01"":""2"",""Q02"":""3"",""Q03"":""1"",""Q04"":""0"",""Q05"":""1"",""Q06"":""4"",""Q07"":""1"",""Q08"":""1"",""Q09"":""4"",""Q10"":""2""}","[0,1,2,3,4,5,6,7,8,9]","[""Q01"",""Q01"",""Q02"",""Q03"",""Q04"",""Q05"",""Q06"",""Q07"",""Q08"",""Q09"",""Q10"",""Q10""]","[28304.100000023842,30716.700000047684,37163.60000002384,41855.700000047684,48172.10000002384,49815.10000002384,55600.799999952316,57566.39999997616,62319.89999997616,68176.5,71262,72416.89999997616]","[]","[0,28304.100000023842,30716.700000047684,37163.60000002384,38615.39999997616,40967.700000047684,41855.700000047684,46105.799999952316,48172.10000002384,49815.10000002384,54040.10000002384,55600.799999952316,57566.39999997616,62319.89999997616,63849.10000002384,68176.5,71262,72416.89999997616,73478.70000004768]","0.4","0.5555555555555556","0","","","","","","","","","","","","","","","","","","","","","","","","","","","","","",""
"20848","1752052653706","<p style='font-size:1.1em;line-height:1.25'>Thank you for your answers! Now we will ask you a few more questions relating to your feelings in the last 24 hours.<br></p><p style='font-size:1.1em;line-height:1.25'>Press the <strong>Next</strong> button to continue.</p>","0","custom-html-button-response","16","539910","0.0-7.0-6.0","121","1","2025-07-09 09:08:31","7701e855f2ef39aa3fd6c71abdc6918a","196.13.185.1","Mozilla/5.0 (Windows NT 10.0; Win64; x64) AppleWebKit/537.36 (KHTML, like Gecko) Chrome/138.0.0.0 Safari/537.36 Edg/138.0.0.0","WebKit","Edge","138.0.0.0","Windows","10.0","https://app.prolific.com/","en-GB,en;q=0.9,en-US;q=0.8","675ee689e18bf69c5cb1b944","686d226cabeef709c732f8e1","686e3145f852156e7865d67c","675ee689e18bf69c5cb1b944","2025-07-09T09:17:33.706Z","","","","","","","","","","","","","","","","","","","","","","","","","","","","","","","","","","","","","","","","","","","","",""
"128101.30000007153","","","","survey-template","17","668019","0.0-7.0-7.0","121","1","2025-07-09 09:08:31","7701e855f2ef39aa3fd6c71abdc6918a","196.13.185.1","Mozilla/5.0 (Windows NT 10.0; Win64; x64) AppleWebKit/537.36 (KHTML, like Gecko) Chrome/138.0.0.0 Safari/537.36 Edg/138.0.0.0","WebKit","Edge","138.0.0.0","Windows","10.0","https://app.prolific.com/","en-GB,en;q=0.9,en-US;q=0.8","675ee689e18bf69c5cb1b944","686d226cabeef709c732f8e1","686e3145f852156e7865d67c","675ee689e18bf69c5cb1b944","2025-07-09T09:19:41.815Z","","","","","","drsp","{""Q01"":""3"",""Q02"":""0"",""Q03"":""0"",""Q04"":""2"",""Q05"":""1"",""Q06"":""2"",""Q07"":""0"",""Q08"":""0"",""Q09"":""2"",""Q10"":""4"",""Q11"":""0"",""Q12"":""1"",""Q13"":""2"",""Q14"":""3"",""Q15"":""4"",""Q16"":""1"",""Q17"":""2"",""Q18"":""0"",""Q19"":""1"",""Q20"":""1"",""Q21"":""3""}","[0,1,2,3,4,5,6,7,8,9,10,11,12,13,14,15,16,17,18,19,20]","[""Q01"",""Q02"",""Q03"",""Q04"",""Q05"",""Q05"",""Q06"",""Q07"",""Q08"",""Q09"",""Q10"",""Q11"",""Q12"",""Q13"",""Q13"",""Q14"",""Q15"",""Q16"",""Q17"",""Q18"",""Q19"",""Q20"",""Q20"",""Q21""]","[5788.600000023842,8335.5,9954.700000047684,11935.600000023842,18208,23188.800000071526,40703,43415.60000002384,45553.60000002384,48247.700000047684,58219.89999997616,61232.89999997616,75013.60000002384,79236,80232.20000004768,93234.80000007153,98006.30000007153,100873.5,103866.5,117396.80000007153,119113.39999997616,120731.70000004768,123926.60000002384,125587.60000002384]","[]","[0,5788.600000023842,8335.5,9954.700000047684,11935.600000023842,18208,23188.800000071526,38376.300000071526,40703,43415.60000002384,45553.60000002384,48247.700000047684,58219.89999997616,61232.89999997616,75013.60000002384,79236,80232.20000004768,93234.80000007153,98006.30000007153,100873.5,102806,103866.5,117396.80000007153,119113.39999997616,120731.70000004768,123926.60000002384,125587.60000002384,128098.89999997616]","0.2857142857142857","0.4","0","","","","","","","","","","","","","","","","","","","","","","","","","","","","","",""
"15294.5","","","","survey-template","18","683315","0.0-7.0-8.0","121","1","2025-07-09 09:08:31","7701e855f2ef39aa3fd6c71abdc6918a","196.13.185.1","Mozilla/5.0 (Windows NT 10.0; Win64; x64) AppleWebKit/537.36 (KHTML, like Gecko) Chrome/138.0.0.0 Safari/537.36 Edg/138.0.0.0","WebKit","Edge","138.0.0.0","Windows","10.0","https://app.prolific.com/","en-GB,en;q=0.9,en-US;q=0.8","675ee689e18bf69c5cb1b944","686d226cabeef709c732f8e1","686e3145f852156e7865d67c","675ee689e18bf69c5cb1b944","2025-07-09T09:19:57.111Z","","","","","","stress","{""Q01"":""0"",""Q02"":""2"",""Q03"":""4""}","[0,1,2]","[""Q01"",""Q02"",""Q03""]","[4253.100000023842,6048.799999952316,14423.600000023842]","[]","[4253.100000023842,6048.799999952316,11964.799999952316,13349.200000047684,14423.600000023842,15293.899999976158]","0.3333333333333333","0.5","0","","","","","","","","","","","","","","","","","","","","","","","","","","","","","",""
"122462","","","","instructions","19","805781","0.0-8.0-0.0","121","1","2025-07-09 09:08:31","7701e855f2ef39aa3fd6c71abdc6918a","196.13.185.1","Mozilla/5.0 (Windows NT 10.0; Win64; x64) AppleWebKit/537.36 (KHTML, like Gecko) Chrome/138.0.0.0 Safari/537.36 Edg/138.0.0.0","WebKit","Edge","138.0.0.0","Windows","10.0","https://app.prolific.com/","en-GB,en;q=0.9,en-US;q=0.8","675ee689e18bf69c5cb1b944","686d226cabeef709c732f8e1","686e3145f852156e7865d67c","675ee689e18bf69c5cb1b944","","[{""page_index"":0,""viewing_time"":24681},{""page_index"":1,""viewing_time"":71202},{""page_index"":2,""viewing_time"":4232},{""page_index"":3,""viewing_time"":22346}]","","","","","","","","","","","","","","","","","","","","","","","","","","","","","","","","","","","","","","","","","","","",""
"","","","","ctl-task-cpt","20","843397","0.0-8.0-1.0","121","1","2025-07-09 09:08:31","7701e855f2ef39aa3fd6c71abdc6918a","196.13.185.1","Mozilla/5.0 (Windows NT 10.0; Win64; x64) AppleWebKit/537.36 (KHTML, like Gecko) Chrome/138.0.0.0 Safari/537.36 Edg/138.0.0.0","WebKit","Edge","138.0.0.0","Windows","10.0","https://app.prolific.com/","en-GB,en;q=0.9,en-US;q=0.8","675ee689e18bf69c5cb1b944","686d226cabeef709c732f8e1","686e3145f852156e7865d67c","675ee689e18bf69c5cb1b944","","","","","","","","","","","","","","","","","win-only","0","g1:NW,g2:SE","1","0","1","808834.7","6842.5","10846.2","34609.9","2","4","4","6","1","2","-1","0","0","0","4003.7","4000","90","[""left"",""up""]","{""num_key_presses"":10,""num_perfect"":4,""num_errors"":3,""num_randdir"":0,""num_randdir_good_moves"":0,""num_whilered"":3,""num_whileblue"":0,""num_blue"":2,""num_good_moves"":4}","[416.57142857142856,412.47767857142856,0.2,416.57142857142856,412.47767857142856,103.4,416.57142857142856,412.47767857142856,208,416.57142857142856,412.47767857142856,308,416.57142857142856,412.47767857142856,409.9,416.57142857142856,412.47767857142856,513.6,416.57142857142856,412.47767857142856,618.5,416.57142857142856,412.47767857142856,719.2,400.57142857142856,388.47767857142856,823.5,380.57142857142856,367.47767857142856,923.9,374.57142857142856,361.47767857142856,1028.2,367.57142857142856,356.47767857142856,1128.5,359.57142857142856,353.47767857142856,1233.5,357.57142857142856,352.47767857142856,1333.6,350.57142857142856,351.47767857142856,1438.8,345.57142857142856,351.47767857142856,1546.6,344.57142857142856,351.47767857142856,1649,344.57142857142856,351.47767857142856,1753.4,344.57142857142856,351.47767857142856,1858.2,344.57142857142856,351.47767857142856,1963.4,344.57142857142856,351.47767857142856,2063.8,344.57142857142856,351.47767857142856,2169.1,344.57142857142856,351.47767857142856,2273.5,344.57142857142856,351.47767857142856,2373.8,344.57142857142856,351.47767857142856,2479.2,344.57142857142856,351.47767857142856,2583.5,344.57142857142856,351.47767857142856,2689.4,344.57142857142856,351.47767857142856,2794.7,344.57142857142856,351.47767857142856,2899.2,344.57142857142856,351.47767857142856,3002.9,344.57142857142856,351.47767857142856,3103.4,344.57142857142856,351.47767857142856,3203.6,344.57142857142856,351.47767857142856,3308.2,344.57142857142856,351.47767857142856,3408.2,344.57142857142856,351.47767857142856,3508.2,344.57142857142856,351.47767857142856,3613.1,344.57142857142856,351.47767857142856,3714.6,344.57142857142856,351.47767857142856,3819.4,344.57142857142856,351.47767857142856,3923.2]","[3792.3,3792.3,1000,0,2792.3,""smooth"",""left"",""left"",""good_move"",4636.5,843.1,2331.4,3793.4,-1488.3,""error"",""-"",""-"",""no_move"",4803.5,166.8,2331.4,3793.4,-1321.3,""while_red"",""-"",""-"",""no_move"",4994.4,357.7,2331.4,3793.4,-1130.4,""while_red"",""-"",""-"",""no_move"",8060.7,3424,1791.2,5639.7,629.8,""smooth"",""up"",""up"",""good_move"",8489,427.8,2430.7,8061.2,-2002.9,""error"",""-"",""-"",""no_move"",8736.9,247.6,2430.7,8061.2,-1755,""while_red"",""-"",""-"",""no_move"",12033.3,3544,2231.5,9489.7,312.1,""smooth"",""left"",""left"",""good_move"",12329.4,295.9,2182.1,12033.5,-1886.2,""error"",""-"",""-"",""no_move"",23673.5,11343.9,2953.1,20360,360.4,""smooth"",""up"",""up"",""good_move""]","","",""
"3313","","","","instructions","21","846709","0.0-8.0-2.0","121","1","2025-07-09 09:08:31","7701e855f2ef39aa3fd6c71abdc6918a","196.13.185.1","Mozilla/5.0 (Windows NT 10.0; Win64; x64) AppleWebKit/537.36 (KHTML, like Gecko) Chrome/138.0.0.0 Safari/537.36 Edg/138.0.0.0","WebKit","Edge","138.0.0.0","Windows","10.0","https://app.prolific.com/","en-GB,en;q=0.9,en-US;q=0.8","675ee689e18bf69c5cb1b944","686d226cabeef709c732f8e1","686e3145f852156e7865d67c","675ee689e18bf69c5cb1b944","","[{""page_index"":0,""viewing_time"":3312}]","","","","","","","","","","","","","","","","","","","","","","","","","","","","","","","","","","","","","","","","","","","",""
"","","","","ctl-task-cpt","22","880416","0.0-8.0-3.0","121","1","2025-07-09 09:08:31","7701e855f2ef39aa3fd6c71abdc6918a","196.13.185.1","Mozilla/5.0 (Windows NT 10.0; Win64; x64) AppleWebKit/537.36 (KHTML, like Gecko) Chrome/138.0.0.0 Safari/537.36 Edg/138.0.0.0","WebKit","Edge","138.0.0.0","Windows","10.0","https://app.prolific.com/","en-GB,en;q=0.9,en-US;q=0.8","675ee689e18bf69c5cb1b944","686d226cabeef709c732f8e1","686e3145f852156e7865d67c","675ee689e18bf69c5cb1b944","","","","","","","","","","","","","","","","","win-only","0","g1:NW,g2:SE","0.35","0","3","849762.3","2098.7","6101.6","30686.7","2","4","8","6","1","-2","-4","0","0","0","3210","4000","-3000","[""left"",""up""]","{""num_key_presses"":8,""num_perfect"":3,""num_errors"":2,""num_randdir"":3,""num_randdir_good_moves"":1,""num_whilered"":0,""num_whileblue"":1,""num_blue"":1,""num_good_moves"":5}","[409.57142857142856,412.47767857142856,0.2,409.57142857142856,412.47767857142856,107.8,409.57142857142856,412.47767857142856,212.4,409.57142857142856,412.47767857142856,312.9,409.57142857142856,412.47767857142856,417.7,409.57142857142856,412.47767857142856,522.4,397.57142857142856,401.47767857142856,623,359.57142857142856,361.47767857142856,727.3,353.57142857142856,355.47767857142856,827.4,353.57142857142856,355.47767857142856,933.3,353.57142857142856,355.47767857142856,1037.9,353.57142857142856,355.47767857142856,1143.1,353.57142857142856,355.47767857142856,1248.6,353.57142857142856,355.47767857142856,1353.2,353.57142857142856,355.47767857142856,1456.8,353.57142857142856,355.47767857142856,1557.2,353.57142857142856,355.47767857142856,1657.8,353.57142857142856,355.47767857142856,1757.9,353.57142857142856,355.47767857142856,1862.9,353.57142857142856,355.47767857142856,1968,333.57142857142856,334.47767857142856,2072,650.5714285714286,550.4776785714286,2173,766.5714285714286,688.4776785714286,2277,766.5714285714286,688.4776785714286,2377.9,766.5714285714286,688.4776785714286,2482.4,674.5714285714286,636.4776785714286,2582.5,674.5714285714286,636.4776785714286,2683.1,674.5714285714286,636.4776785714286,2787.4,127.57142857142857,17.47767857142857,2889.1,121.57142857142857,16.47767857142857,2993,121.57142857142857,16.47767857142857,3093.1,102.57142857142857,62.47767857142857,3197.9,102.57142857142857,62.47767857142857,3308.2,102.57142857142857,62.47767857142857,3412.6,102.57142857142857,62.47767857142857,3513,102.57142857142857,62.47767857142857,3613.4,136.57142857142856,77.47767857142857,3717.9,385.57142857142856,311.47767857142856,3822.3,416.57142857142856,336.47767857142856,3927.2]","[430.2,430.2,1000,0,-569.8,""error"",""-"",""-"",""no_move"",4987.9,4557.5,3209.8,1435.5,342.6,""while_blue"",""left"",""up"",""good_move"",7479.4,2491.1,1970.2,4988.3,520.9,""smooth"",""left"",""left"",""good_move"",10448.7,2969.1,2507.7,7479.8,461.3,""oops"",""up"",""down"",""bad_move"",13708.6,3259,2866.6,10449.6,392.4,""oops"",""up"",""left"",""good_move"",16377.9,2669,2146.6,13708.9,522.4,""smooth"",""up"",""up"",""good_move"",18543.7,2165.5,1458.8,16378.2,706.7,""oops"",""up"",""down"",""bad_move"",22211.6,3667.6,2341.9,18544,1325.7,""smooth"",""up"",""up"",""good_move""]","","",""
"23987","","","","instructions","23","904404","0.0-8.0-4.0","121","1","2025-07-09 09:08:31","7701e855f2ef39aa3fd6c71abdc6918a","196.13.185.1","Mozilla/5.0 (Windows NT 10.0; Win64; x64) AppleWebKit/537.36 (KHTML, like Gecko) Chrome/138.0.0.0 Safari/537.36 Edg/138.0.0.0","WebKit","Edge","138.0.0.0","Windows","10.0","https://app.prolific.com/","en-GB,en;q=0.9,en-US;q=0.8","675ee689e18bf69c5cb1b944","686d226cabeef709c732f8e1","686e3145f852156e7865d67c","675ee689e18bf69c5cb1b944","","[{""page_index"":0,""viewing_time"":4762},{""page_index"":1,""viewing_time"":19225}]","","","","","","","","","","","","","","","","","","","","","","","","","","","","","","","","","","","","","","","","","","","",""
"10874","","","{""green_ball"":[""Ball always moves in the direction I press""]}","survey-multi-select","24","915280","0.0-8.0-5.0-0.0","121","1","2025-07-09 09:08:31","7701e855f2ef39aa3fd6c71abdc6918a","196.13.185.1","Mozilla/5.0 (Windows NT 10.0; Win64; x64) AppleWebKit/537.36 (KHTML, like Gecko) Chrome/138.0.0.0 Safari/537.36 Edg/138.0.0.0","WebKit","Edge","138.0.0.0","Windows","10.0","https://app.prolific.com/","en-GB,en;q=0.9,en-US;q=0.8","675ee689e18bf69c5cb1b944","686d226cabeef709c732f8e1","686e3145f852156e7865d67c","675ee689e18bf69c5cb1b944","","","[0]","","","","quiz","","","","","","","","","","","","","","","","","","","","","","","","","","","","","","","","","","","","","false","",""
"1518","","<p align='center'><b>INCORRECT.</b> Usually the green ball moves in the indicated direction, but sometimes it shakes and moves randomly. </p>","0","html-button-response","25","916799","0.0-8.0-5.0-1.0","121","1","2025-07-09 09:08:31","7701e855f2ef39aa3fd6c71abdc6918a","196.13.185.1","Mozilla/5.0 (Windows NT 10.0; Win64; x64) AppleWebKit/537.36 (KHTML, like Gecko) Chrome/138.0.0.0 Safari/537.36 Edg/138.0.0.0","WebKit","Edge","138.0.0.0","Windows","10.0","https://app.prolific.com/","en-GB,en;q=0.9,en-US;q=0.8","675ee689e18bf69c5cb1b944","686d226cabeef709c732f8e1","686e3145f852156e7865d67c","675ee689e18bf69c5cb1b944","","","","","","","","","","","","","","","","","","","","","","","","","","","","","","","","","","","","","","","","","","","","","",""
"11194","","","{""green_ball"":[""Ball always shakes and moves in a random direction""]}","survey-multi-select","26","927995","0.0-8.0-5.1-0.1","121","1","2025-07-09 09:08:31","7701e855f2ef39aa3fd6c71abdc6918a","196.13.185.1","Mozilla/5.0 (Windows NT 10.0; Win64; x64) AppleWebKit/537.36 (KHTML, like Gecko) Chrome/138.0.0.0 Safari/537.36 Edg/138.0.0.0","WebKit","Edge","138.0.0.0","Windows","10.0","https://app.prolific.com/","en-GB,en;q=0.9,en-US;q=0.8","675ee689e18bf69c5cb1b944","686d226cabeef709c732f8e1","686e3145f852156e7865d67c","675ee689e18bf69c5cb1b944","","","[0]","","","","quiz","","","","","","","","","","","","","","","","","","","","","","","","","","","","","","","","","","","","","false","",""
"1001","","<p align='center'><b>INCORRECT.</b> Usually the green ball moves in the indicated direction, but sometimes it shakes and moves randomly. </p>","0","html-button-response","27","928996","0.0-8.0-5.1-1.1","121","1","2025-07-09 09:08:31","7701e855f2ef39aa3fd6c71abdc6918a","196.13.185.1","Mozilla/5.0 (Windows NT 10.0; Win64; x64) AppleWebKit/537.36 (KHTML, like Gecko) Chrome/138.0.0.0 Safari/537.36 Edg/138.0.0.0","WebKit","Edge","138.0.0.0","Windows","10.0","https://app.prolific.com/","en-GB,en;q=0.9,en-US;q=0.8","675ee689e18bf69c5cb1b944","686d226cabeef709c732f8e1","686e3145f852156e7865d67c","675ee689e18bf69c5cb1b944","","","","","","","","","","","","","","","","","","","","","","","","","","","","","","","","","","","","","","","","","","","","","",""
"1811","","","{""green_ball"":[""Ball doesn‘t move and I get -1 penalty point""]}","survey-multi-select","28","930808","0.0-8.0-5.2-0.2","121","1","2025-07-09 09:08:31","7701e855f2ef39aa3fd6c71abdc6918a","196.13.185.1","Mozilla/5.0 (Windows NT 10.0; Win64; x64) AppleWebKit/537.36 (KHTML, like Gecko) Chrome/138.0.0.0 Safari/537.36 Edg/138.0.0.0","WebKit","Edge","138.0.0.0","Windows","10.0","https://app.prolific.com/","en-GB,en;q=0.9,en-US;q=0.8","675ee689e18bf69c5cb1b944","686d226cabeef709c732f8e1","686e3145f852156e7865d67c","675ee689e18bf69c5cb1b944","","","[0]","","","","quiz","","","","","","","","","","","","","","","","","","","","","","","","","","","","","","","","","","","","","false","",""
"981","","<p align='center'><b>INCORRECT.</b> Usually the green ball moves in the indicated direction, but sometimes it shakes and moves randomly. </p>","0","html-button-response","29","931790","0.0-8.0-5.2-1.2","121","1","2025-07-09 09:08:31","7701e855f2ef39aa3fd6c71abdc6918a","196.13.185.1","Mozilla/5.0 (Windows NT 10.0; Win64; x64) AppleWebKit/537.36 (KHTML, like Gecko) Chrome/138.0.0.0 Safari/537.36 Edg/138.0.0.0","WebKit","Edge","138.0.0.0","Windows","10.0","https://app.prolific.com/","en-GB,en;q=0.9,en-US;q=0.8","675ee689e18bf69c5cb1b944","686d226cabeef709c732f8e1","686e3145f852156e7865d67c","675ee689e18bf69c5cb1b944","","","","","","","","","","","","","","","","","","","","","","","","","","","","","","","","","","","","","","","","","","","","","",""
"4900","","","{""green_ball"":[""Ball sometimes shakes and moves in a random direction""]}","survey-multi-select","30","936691","0.0-8.0-5.3-0.3","121","1","2025-07-09 09:08:31","7701e855f2ef39aa3fd6c71abdc6918a","196.13.185.1","Mozilla/5.0 (Windows NT 10.0; Win64; x64) AppleWebKit/537.36 (KHTML, like Gecko) Chrome/138.0.0.0 Safari/537.36 Edg/138.0.0.0","WebKit","Edge","138.0.0.0","Windows","10.0","https://app.prolific.com/","en-GB,en;q=0.9,en-US;q=0.8","675ee689e18bf69c5cb1b944","686d226cabeef709c732f8e1","686e3145f852156e7865d67c","675ee689e18bf69c5cb1b944","","","[0]","","","","quiz","","","","","","","","","","","","","","","","","","","","","","","","","","","","","","","","","","","","","true","",""
"4182","","<p align='center'><b>CORRECT!</b> Indeed, the green ball may sometimes shake and move in a random direction.</p>","0","html-button-response","31","940874","0.0-8.0-5.3-1.3","121","1","2025-07-09 09:08:31","7701e855f2ef39aa3fd6c71abdc6918a","196.13.185.1","Mozilla/5.0 (Windows NT 10.0; Win64; x64) AppleWebKit/537.36 (KHTML, like Gecko) Chrome/138.0.0.0 Safari/537.36 Edg/138.0.0.0","WebKit","Edge","138.0.0.0","Windows","10.0","https://app.prolific.com/","en-GB,en;q=0.9,en-US;q=0.8","675ee689e18bf69c5cb1b944","686d226cabeef709c732f8e1","686e3145f852156e7865d67c","675ee689e18bf69c5cb1b944","","","","","","","","","","","","","","","","","","","","","","","","","","","","","","","","","","","","","","","","","","","","","",""
"7735","","","{""yellow_ball"":[""Ball always shakes and moves in a random direction""]}","survey-multi-select","32","948611","0.0-8.0-6.0-0.0","121","1","2025-07-09 09:08:31","7701e855f2ef39aa3fd6c71abdc6918a","196.13.185.1","Mozilla/5.0 (Windows NT 10.0; Win64; x64) AppleWebKit/537.36 (KHTML, like Gecko) Chrome/138.0.0.0 Safari/537.36 Edg/138.0.0.0","WebKit","Edge","138.0.0.0","Windows","10.0","https://app.prolific.com/","en-GB,en;q=0.9,en-US;q=0.8","675ee689e18bf69c5cb1b944","686d226cabeef709c732f8e1","686e3145f852156e7865d67c","675ee689e18bf69c5cb1b944","","","[0]","","","","quiz","","","","","","","","","","","","","","","","","","","","","","","","","","","","","","","","","","","","","false","",""
"1139","","<p align='center'><b>INCORRECT.</b> The yellow ball never moves and you reveice a penalty if you press anyways. </p>","0","html-button-response","33","949750","0.0-8.0-6.0-1.0","121","1","2025-07-09 09:08:31","7701e855f2ef39aa3fd6c71abdc6918a","196.13.185.1","Mozilla/5.0 (Windows NT 10.0; Win64; x64) AppleWebKit/537.36 (KHTML, like Gecko) Chrome/138.0.0.0 Safari/537.36 Edg/138.0.0.0","WebKit","Edge","138.0.0.0","Windows","10.0","https://app.prolific.com/","en-GB,en;q=0.9,en-US;q=0.8","675ee689e18bf69c5cb1b944","686d226cabeef709c732f8e1","686e3145f852156e7865d67c","675ee689e18bf69c5cb1b944","","","","","","","","","","","","","","","","","","","","","","","","","","","","","","","","","","","","","","","","","","","","","",""
"2108","","","{""yellow_ball"":[""Ball doesn‘t move and I get -1 penalty point""]}","survey-multi-select","34","951860","0.0-8.0-6.1-0.1","121","1","2025-07-09 09:08:31","7701e855f2ef39aa3fd6c71abdc6918a","196.13.185.1","Mozilla/5.0 (Windows NT 10.0; Win64; x64) AppleWebKit/537.36 (KHTML, like Gecko) Chrome/138.0.0.0 Safari/537.36 Edg/138.0.0.0","WebKit","Edge","138.0.0.0","Windows","10.0","https://app.prolific.com/","en-GB,en;q=0.9,en-US;q=0.8","675ee689e18bf69c5cb1b944","686d226cabeef709c732f8e1","686e3145f852156e7865d67c","675ee689e18bf69c5cb1b944","","","[0]","","","","quiz","","","","","","","","","","","","","","","","","","","","","","","","","","","","","","","","","","","","","true","",""
"1161","","<p align='center'><b>CORRECT!</b> Indeed, the yellow ball never moves and you receive a penalty.</p>","0","html-button-response","35","953022","0.0-8.0-6.1-1.1","121","1","2025-07-09 09:08:31","7701e855f2ef39aa3fd6c71abdc6918a","196.13.185.1","Mozilla/5.0 (Windows NT 10.0; Win64; x64) AppleWebKit/537.36 (KHTML, like Gecko) Chrome/138.0.0.0 Safari/537.36 Edg/138.0.0.0","WebKit","Edge","138.0.0.0","Windows","10.0","https://app.prolific.com/","en-GB,en;q=0.9,en-US;q=0.8","675ee689e18bf69c5cb1b944","686d226cabeef709c732f8e1","686e3145f852156e7865d67c","675ee689e18bf69c5cb1b944","","","","","","","","","","","","","","","","","","","","","","","","","","","","","","","","","","","","","","","","","","","","","",""
"5838","","","{""blue_ball"":[""Ball always moves in the direction I press""]}","survey-multi-select","36","958861","0.0-8.0-7.0-0.0","121","1","2025-07-09 09:08:31","7701e855f2ef39aa3fd6c71abdc6918a","196.13.185.1","Mozilla/5.0 (Windows NT 10.0; Win64; x64) AppleWebKit/537.36 (KHTML, like Gecko) Chrome/138.0.0.0 Safari/537.36 Edg/138.0.0.0","WebKit","Edge","138.0.0.0","Windows","10.0","https://app.prolific.com/","en-GB,en;q=0.9,en-US;q=0.8","675ee689e18bf69c5cb1b944","686d226cabeef709c732f8e1","686e3145f852156e7865d67c","675ee689e18bf69c5cb1b944","","","[0]","","","","quiz","","","","","","","","","","","","","","","","","","","","","","","","","","","","","","","","","","","","","false","",""
"1102","","<p align='center'><b>INCORRECT.</b> The blue ball always shakes and moves randomly.</p>","0","html-button-response","37","959964","0.0-8.0-7.0-1.0","121","1","2025-07-09 09:08:31","7701e855f2ef39aa3fd6c71abdc6918a","196.13.185.1","Mozilla/5.0 (Windows NT 10.0; Win64; x64) AppleWebKit/537.36 (KHTML, like Gecko) Chrome/138.0.0.0 Safari/537.36 Edg/138.0.0.0","WebKit","Edge","138.0.0.0","Windows","10.0","https://app.prolific.com/","en-GB,en;q=0.9,en-US;q=0.8","675ee689e18bf69c5cb1b944","686d226cabeef709c732f8e1","686e3145f852156e7865d67c","675ee689e18bf69c5cb1b944","","","","","","","","","","","","","","","","","","","","","","","","","","","","","","","","","","","","","","","","","","","","","",""
"2832","","","{""blue_ball"":[""Ball always shakes and moves in a random direction""]}","survey-multi-select","38","962798","0.0-8.0-7.1-0.1","121","1","2025-07-09 09:08:31","7701e855f2ef39aa3fd6c71abdc6918a","196.13.185.1","Mozilla/5.0 (Windows NT 10.0; Win64; x64) AppleWebKit/537.36 (KHTML, like Gecko) Chrome/138.0.0.0 Safari/537.36 Edg/138.0.0.0","WebKit","Edge","138.0.0.0","Windows","10.0","https://app.prolific.com/","en-GB,en;q=0.9,en-US;q=0.8","675ee689e18bf69c5cb1b944","686d226cabeef709c732f8e1","686e3145f852156e7865d67c","675ee689e18bf69c5cb1b944","","","[0]","","","","quiz","","","","","","","","","","","","","","","","","","","","","","","","","","","","","","","","","","","","","true","",""
"1207","","<p align='center'><b>CORRECT!</b> Indeed, the blue ball always shakes and moves in a random direction. Also there is a penalty of -1 point.</p>","0","html-button-response","39","964006","0.0-8.0-7.1-1.1","121","1","2025-07-09 09:08:31","7701e855f2ef39aa3fd6c71abdc6918a","196.13.185.1","Mozilla/5.0 (Windows NT 10.0; Win64; x64) AppleWebKit/537.36 (KHTML, like Gecko) Chrome/138.0.0.0 Safari/537.36 Edg/138.0.0.0","WebKit","Edge","138.0.0.0","Windows","10.0","https://app.prolific.com/","en-GB,en;q=0.9,en-US;q=0.8","675ee689e18bf69c5cb1b944","686d226cabeef709c732f8e1","686e3145f852156e7865d67c","675ee689e18bf69c5cb1b944","","","","","","","","","","","","","","","","","","","","","","","","","","","","","","","","","","","","","","","","","","","","","",""
"8668","","","{""bonus"":[""When I reach 80% of points""]}","survey-multi-select","40","972676","0.0-8.0-8.0-0.0","121","1","2025-07-09 09:08:31","7701e855f2ef39aa3fd6c71abdc6918a","196.13.185.1","Mozilla/5.0 (Windows NT 10.0; Win64; x64) AppleWebKit/537.36 (KHTML, like Gecko) Chrome/138.0.0.0 Safari/537.36 Edg/138.0.0.0","WebKit","Edge","138.0.0.0","Windows","10.0","https://app.prolific.com/","en-GB,en;q=0.9,en-US;q=0.8","675ee689e18bf69c5cb1b944","686d226cabeef709c732f8e1","686e3145f852156e7865d67c","675ee689e18bf69c5cb1b944","","","[0]","","","","quiz","","","","","","","","","","","","","","","","","","","","","","","","","","","","","","","","","","","","","false","",""
"943","","<p align='center'><b>INCORRECT.</b> You receive 2 pounds extra when you reach 50% of points </p>","0","html-button-response","41","973620","0.0-8.0-8.0-1.0","121","1","2025-07-09 09:08:31","7701e855f2ef39aa3fd6c71abdc6918a","196.13.185.1","Mozilla/5.0 (Windows NT 10.0; Win64; x64) AppleWebKit/537.36 (KHTML, like Gecko) Chrome/138.0.0.0 Safari/537.36 Edg/138.0.0.0","WebKit","Edge","138.0.0.0","Windows","10.0","https://app.prolific.com/","en-GB,en;q=0.9,en-US;q=0.8","675ee689e18bf69c5cb1b944","686d226cabeef709c732f8e1","686e3145f852156e7865d67c","675ee689e18bf69c5cb1b944","","","","","","","","","","","","","","","","","","","","","","","","","","","","","","","","","","","","","","","","","","","","","",""
"1369","","","{""bonus"":[""When I reach all possible points""]}","survey-multi-select","42","974991","0.0-8.0-8.1-0.1","121","1","2025-07-09 09:08:31","7701e855f2ef39aa3fd6c71abdc6918a","196.13.185.1","Mozilla/5.0 (Windows NT 10.0; Win64; x64) AppleWebKit/537.36 (KHTML, like Gecko) Chrome/138.0.0.0 Safari/537.36 Edg/138.0.0.0","WebKit","Edge","138.0.0.0","Windows","10.0","https://app.prolific.com/","en-GB,en;q=0.9,en-US;q=0.8","675ee689e18bf69c5cb1b944","686d226cabeef709c732f8e1","686e3145f852156e7865d67c","675ee689e18bf69c5cb1b944","","","[0]","","","","quiz","","","","","","","","","","","","","","","","","","","","","","","","","","","","","","","","","","","","","false","",""
"1049","","<p align='center'><b>INCORRECT.</b> You receive 2 pounds extra when you reach 50% of points </p>","0","html-button-response","43","976041","0.0-8.0-8.1-1.1","121","1","2025-07-09 09:08:31","7701e855f2ef39aa3fd6c71abdc6918a","196.13.185.1","Mozilla/5.0 (Windows NT 10.0; Win64; x64) AppleWebKit/537.36 (KHTML, like Gecko) Chrome/138.0.0.0 Safari/537.36 Edg/138.0.0.0","WebKit","Edge","138.0.0.0","Windows","10.0","https://app.prolific.com/","en-GB,en;q=0.9,en-US;q=0.8","675ee689e18bf69c5cb1b944","686d226cabeef709c732f8e1","686e3145f852156e7865d67c","675ee689e18bf69c5cb1b944","","","","","","","","","","","","","","","","","","","","","","","","","","","","","","","","","","","","","","","","","","","","","",""
"3094","","","{""bonus"":[""When I reach 50% of points""]}","survey-multi-select","44","979136","0.0-8.0-8.2-0.2","121","1","2025-07-09 09:08:31","7701e855f2ef39aa3fd6c71abdc6918a","196.13.185.1","Mozilla/5.0 (Windows NT 10.0; Win64; x64) AppleWebKit/537.36 (KHTML, like Gecko) Chrome/138.0.0.0 Safari/537.36 Edg/138.0.0.0","WebKit","Edge","138.0.0.0","Windows","10.0","https://app.prolific.com/","en-GB,en;q=0.9,en-US;q=0.8","675ee689e18bf69c5cb1b944","686d226cabeef709c732f8e1","686e3145f852156e7865d67c","675ee689e18bf69c5cb1b944","","","[0]","","","","quiz","","","","","","","","","","","","","","","","","","","","","","","","","","","","","","","","","","","","","true","",""
"1428","","<p align='center'><b>CORRECT!</b> Indeed, you receive 2 pounds extra when you reach 50% of points.</p>","0","html-button-response","45","980566","0.0-8.0-8.2-1.2","121","1","2025-07-09 09:08:31","7701e855f2ef39aa3fd6c71abdc6918a","196.13.185.1","Mozilla/5.0 (Windows NT 10.0; Win64; x64) AppleWebKit/537.36 (KHTML, like Gecko) Chrome/138.0.0.0 Safari/537.36 Edg/138.0.0.0","WebKit","Edge","138.0.0.0","Windows","10.0","https://app.prolific.com/","en-GB,en;q=0.9,en-US;q=0.8","675ee689e18bf69c5cb1b944","686d226cabeef709c732f8e1","686e3145f852156e7865d67c","675ee689e18bf69c5cb1b944","","","","","","","","","","","","","","","","","","","","","","","","","","","","","","","","","","","","","","","","","","","","","",""
"2926","","","","instructions","46","983492","0.0-8.0-9.0","121","1","2025-07-09 09:08:31","7701e855f2ef39aa3fd6c71abdc6918a","196.13.185.1","Mozilla/5.0 (Windows NT 10.0; Win64; x64) AppleWebKit/537.36 (KHTML, like Gecko) Chrome/138.0.0.0 Safari/537.36 Edg/138.0.0.0","WebKit","Edge","138.0.0.0","Windows","10.0","https://app.prolific.com/","en-GB,en;q=0.9,en-US;q=0.8","675ee689e18bf69c5cb1b944","686d226cabeef709c732f8e1","686e3145f852156e7865d67c","675ee689e18bf69c5cb1b944","","[{""page_index"":0,""viewing_time"":2925}]","","","","","","","","","","","","","","","","","","","","","","","","","","","","","","","","","","","","","","","","","","","",""
"7583","","<p>Before you start with this game please answer the following three questions yourself. </p>
  <p>Through this game, we measure several aspects of your cognitive performance, such as reaction times, multi-tasking capabilities </p>
  <p>and the ability to assess the situation you are in.</p>
  <p></p>
  <p><b>How good do you usually are in such tasks?</b></p>","62","html-slider-response","47","991077","0.0-9.0-0.0","121","1","2025-07-09 09:08:31","7701e855f2ef39aa3fd6c71abdc6918a","196.13.185.1","Mozilla/5.0 (Windows NT 10.0; Win64; x64) AppleWebKit/537.36 (KHTML, like Gecko) Chrome/138.0.0.0 Safari/537.36 Edg/138.0.0.0","WebKit","Edge","138.0.0.0","Windows","10.0","https://app.prolific.com/","en-GB,en;q=0.9,en-US;q=0.8","675ee689e18bf69c5cb1b944","686d226cabeef709c732f8e1","686e3145f852156e7865d67c","675ee689e18bf69c5cb1b944","2025-07-09T09:25:04.873Z","","","","","","PreSkillQ","","","","","","","","","","","","","","","","","","","","","","","","","","","","","","","","","","","","","","50",""
"4759","","<div style=""width:500px;"">
  <p>How well do you think you will perform in this task compared to other participants?</p>
  </div>","43","html-slider-response","48","995839","0.0-9.0-1.0","121","1","2025-07-09 09:08:31","7701e855f2ef39aa3fd6c71abdc6918a","196.13.185.1","Mozilla/5.0 (Windows NT 10.0; Win64; x64) AppleWebKit/537.36 (KHTML, like Gecko) Chrome/138.0.0.0 Safari/537.36 Edg/138.0.0.0","WebKit","Edge","138.0.0.0","Windows","10.0","https://app.prolific.com/","en-GB,en;q=0.9,en-US;q=0.8","675ee689e18bf69c5cb1b944","686d226cabeef709c732f8e1","686e3145f852156e7865d67c","675ee689e18bf69c5cb1b944","2025-07-09T09:25:09.635Z","","","","","","PrePerfQ","","","","","","","","","","","","","","","","","","","","","","","","","","","","","","","","","","","","","","50",""
"4102","","<div style=""width:500px;"">
  <p>What best describes how you currently feel?</p>
  </div>","39","html-slider-response","49","999942","0.0-9.0-2.0","121","1","2025-07-09 09:08:31","7701e855f2ef39aa3fd6c71abdc6918a","196.13.185.1","Mozilla/5.0 (Windows NT 10.0; Win64; x64) AppleWebKit/537.36 (KHTML, like Gecko) Chrome/138.0.0.0 Safari/537.36 Edg/138.0.0.0","WebKit","Edge","138.0.0.0","Windows","10.0","https://app.prolific.com/","en-GB,en;q=0.9,en-US;q=0.8","675ee689e18bf69c5cb1b944","686d226cabeef709c732f8e1","686e3145f852156e7865d67c","675ee689e18bf69c5cb1b944","2025-07-09T09:25:13.738Z","","","","","","PreMotivationQ","","","","","","","","","","","","","","","","","","","","","","","","","","","","","","","","","","","","","","50",""
"","","","","ctl-task-cpt","50","1019893","0.0-10.0-0.0","121","1","2025-07-09 09:08:31","7701e855f2ef39aa3fd6c71abdc6918a","196.13.185.1","Mozilla/5.0 (Windows NT 10.0; Win64; x64) AppleWebKit/537.36 (KHTML, like Gecko) Chrome/138.0.0.0 Safari/537.36 Edg/138.0.0.0","WebKit","Edge","138.0.0.0","Windows","10.0","https://app.prolific.com/","en-GB,en;q=0.9,en-US;q=0.8","675ee689e18bf69c5cb1b944","686d226cabeef709c732f8e1","686e3145f852156e7865d67c","675ee689e18bf69c5cb1b944","2025-07-09T09:25:33.689Z","","","","","","","","","","","","","","","","win-only","1","g1:NE,g2:SW","1","1","0","1002993.1","1503.2","6506.8","16946.8","1","4","8","6","1","1","0","0","0","0","1542","3000","1720","[""up"",""right""]","{""num_key_presses"":4,""num_perfect"":3,""num_errors"":1,""num_randdir"":0,""num_randdir_good_moves"":0,""num_whilered"":0,""num_whileblue"":1,""num_blue"":1,""num_good_moves"":4}","[419.57142857142856,417.47767857142856,0.2,419.57142857142856,417.47767857142856,103.5,419.57142857142856,417.47767857142856,209.2,419.57142857142856,417.47767857142856,311.1,419.57142857142856,417.47767857142856,412,419.57142857142856,417.47767857142856,512.9,419.57142857142856,417.47767857142856,613.1,419.57142857142856,417.47767857142856,717.6,419.57142857142856,417.47767857142856,817.9,637.5714285714286,232.47767857142856,919.4,891.5714285714286,37.47767857142857,1024.5,903.5714285714286,25.47767857142857,1128.7,864.5714285714286,36.47767857142857,1232.2,793.5714285714286,65.47767857142857,1332.4,788.5714285714286,66.47767857142857,1433.4,788.5714285714286,66.47767857142857,1538.2,788.5714285714286,66.47767857142857,1638.5,788.5714285714286,66.47767857142857,1744.5,788.5714285714286,66.47767857142857,1844.5,788.5714285714286,66.47767857142857,1949.9,788.5714285714286,66.47767857142857,2053.3,788.5714285714286,66.47767857142857,2157.9,788.5714285714286,66.47767857142857,2262.5,788.5714285714286,66.47767857142857,2362.6,788.5714285714286,66.47767857142857,2463,788.5714285714286,66.47767857142857,2563.6,788.5714285714286,66.47767857142857,2663.8,788.5714285714286,66.47767857142857,2767.7,788.5714285714286,66.47767857142857,2868.5,788.5714285714286,66.47767857142857,2972.2,788.5714285714286,66.47767857142857,3074.3,788.5714285714286,66.47767857142857,3177.3,788.5714285714286,66.47767857142857,3278.8,788.5714285714286,66.47767857142857,3383.2,788.5714285714286,66.47767857142857,3483.2,788.5714285714286,66.47767857142857,3588.1,788.5714285714286,66.47767857142857,3688.1,788.5714285714286,66.47767857142857,3793.1,788.5714285714286,66.47767857142857,3894.8,788.5714285714286,66.47767857142857,3998.2,788.5714285714286,66.47767857142857,4102.9,788.5714285714286,66.47767857142857,4210.4,788.5714285714286,66.47767857142857,4313.3,788.5714285714286,66.47767857142857,4418,788.5714285714286,66.47767857142857,4524.2,788.5714285714286,66.47767857142857,4624.7,788.5714285714286,66.47767857142857,4728.3,788.5714285714286,66.47767857142857,4833.1,788.5714285714286,66.47767857142857,4933.1]","[1364.8,1364.8,1000,0,364.8,""smooth"",""up"",""up"",""good_move"",4130,2765,2351.9,1365,413.1,""smooth"",""right"",""right"",""good_move"",7694.2,3563.7,3247.6,4130.5,316.1,""while_blue"",""up"",""up"",""good_move"",10347.4,2653,2122.9,7694.4,530.1,""smooth"",""right"",""right"",""good_move""]","","",""
"25384","","<div style=""width:500px;"">
  <p>What determined the result of this run?</p>
  </div>","86","html-slider-response","51","1045280","0.0-10.0-1.0","121","1","2025-07-09 09:08:31","7701e855f2ef39aa3fd6c71abdc6918a","196.13.185.1","Mozilla/5.0 (Windows NT 10.0; Win64; x64) AppleWebKit/537.36 (KHTML, like Gecko) Chrome/138.0.0.0 Safari/537.36 Edg/138.0.0.0","WebKit","Edge","138.0.0.0","Windows","10.0","https://app.prolific.com/","en-GB,en;q=0.9,en-US;q=0.8","675ee689e18bf69c5cb1b944","686d226cabeef709c732f8e1","686e3145f852156e7865d67c","675ee689e18bf69c5cb1b944","2025-07-09T09:25:59.076Z","","","","","","AttribQ","","","","","","","","","","","","","","","","","","","","","","","","","","","","","","","","","","","","","","50",""
"3528","","<div style=""width:500px;"">
  <p>How much control did you have over the ball?</p>
  </div>","81","html-slider-response","52","1048809","0.0-10.0-2.0","121","1","2025-07-09 09:08:31","7701e855f2ef39aa3fd6c71abdc6918a","196.13.185.1","Mozilla/5.0 (Windows NT 10.0; Win64; x64) AppleWebKit/537.36 (KHTML, like Gecko) Chrome/138.0.0.0 Safari/537.36 Edg/138.0.0.0","WebKit","Edge","138.0.0.0","Windows","10.0","https://app.prolific.com/","en-GB,en;q=0.9,en-US;q=0.8","675ee689e18bf69c5cb1b944","686d226cabeef709c732f8e1","686e3145f852156e7865d67c","675ee689e18bf69c5cb1b944","2025-07-09T09:26:02.605Z","","","","","","ControlQ","","","","","","","","","","","","","","","","","","","","","","","","","","","","","","","","","","","","","","50",""
"5743","","<div style=""width:500px;"">
  <p>How would you describe your current emotional state?</p>
  </div>","35","html-slider-response","53","1054553","0.0-10.0-3.0","121","1","2025-07-09 09:08:31","7701e855f2ef39aa3fd6c71abdc6918a","196.13.185.1","Mozilla/5.0 (Windows NT 10.0; Win64; x64) AppleWebKit/537.36 (KHTML, like Gecko) Chrome/138.0.0.0 Safari/537.36 Edg/138.0.0.0","WebKit","Edge","138.0.0.0","Windows","10.0","https://app.prolific.com/","en-GB,en;q=0.9,en-US;q=0.8","675ee689e18bf69c5cb1b944","686d226cabeef709c732f8e1","686e3145f852156e7865d67c","675ee689e18bf69c5cb1b944","2025-07-09T09:26:08.349Z","","","","","","StressQ","","","","","","","","","","","","","","","","","","","","","","","","","","","","","","","","","","","","","","50",""
"6243","","<div style=""width:500px;"">
  <p>What best describes how you currently feel?</p>
  </div>","66","html-slider-response","54","1060797","0.0-10.0-4.0","121","1","2025-07-09 09:08:31","7701e855f2ef39aa3fd6c71abdc6918a","196.13.185.1","Mozilla/5.0 (Windows NT 10.0; Win64; x64) AppleWebKit/537.36 (KHTML, like Gecko) Chrome/138.0.0.0 Safari/537.36 Edg/138.0.0.0","WebKit","Edge","138.0.0.0","Windows","10.0","https://app.prolific.com/","en-GB,en;q=0.9,en-US;q=0.8","675ee689e18bf69c5cb1b944","686d226cabeef709c732f8e1","686e3145f852156e7865d67c","675ee689e18bf69c5cb1b944","2025-07-09T09:26:14.593Z","","","","","","MotivationQ","","","","","","","","","","","","","","","","","","","","","","","","","","","","","","","","","","","","","","50",""
"","","","","ctl-task-cpt","55","1088278","0.0-10.0-0.1","121","1","2025-07-09 09:08:31","7701e855f2ef39aa3fd6c71abdc6918a","196.13.185.1","Mozilla/5.0 (Windows NT 10.0; Win64; x64) AppleWebKit/537.36 (KHTML, like Gecko) Chrome/138.0.0.0 Safari/537.36 Edg/138.0.0.0","WebKit","Edge","138.0.0.0","Windows","10.0","https://app.prolific.com/","en-GB,en;q=0.9,en-US;q=0.8","675ee689e18bf69c5cb1b944","686d226cabeef709c732f8e1","686e3145f852156e7865d67c","675ee689e18bf69c5cb1b944","2025-07-09T09:26:42.075Z","","","","","","","","","","","","","","","","win-only","3","g1:SW,g2:NE","0.9","2","0","1063848.2","1884.3","6887","24461.8","1","4","4","6","1","1","1","1","0","0.007575757575757576","1359.9","3000","1460","[""down"",""left""]","{""num_key_presses"":4,""num_perfect"":4,""num_errors"":0,""num_randdir"":0,""num_randdir_good_moves"":0,""num_whilered"":0,""num_whileblue"":0,""num_blue"":2,""num_good_moves"":4}","[407.57142857142856,413.47767857142856,0.3,407.57142857142856,413.47767857142856,101.6,407.57142857142856,413.47767857142856,202.3,407.57142857142856,413.47767857142856,306.6,407.57142857142856,413.47767857142856,407.1,407.57142857142856,413.47767857142856,511.9,407.57142857142856,413.47767857142856,617.1,407.57142857142856,413.47767857142856,721.2,407.57142857142856,413.47767857142856,822.5,323.57142857142856,466.47767857142856,927.2,184.57142857142856,651.4776785714286,1027.9,148.57142857142856,725.4776785714286,1132.2,94.57142857142857,774.4776785714286,1232.2,93.57142857142857,774.4776785714286,1332.3,93.57142857142857,774.4776785714286,1432.7,93.57142857142857,774.4776785714286,1536.1,93.57142857142857,774.4776785714286,1637.1,93.57142857142857,774.4776785714286,1742.3,93.57142857142857,774.4776785714286,1842.7,93.57142857142857,774.4776785714286,1946.8,93.57142857142857,774.4776785714286,2052.5,93.57142857142857,774.4776785714286,2158,93.57142857142857,774.4776785714286,2260,93.57142857142857,774.4776785714286,2361.2,93.57142857142857,774.4776785714286,2461.5,93.57142857142857,774.4776785714286,2562.9,93.57142857142857,774.4776785714286,2666.5,93.57142857142857,774.4776785714286,2767.6,93.57142857142857,774.4776785714286,2871.1,93.57142857142857,774.4776785714286,2973.3,93.57142857142857,774.4776785714286,3075,93.57142857142857,774.4776785714286,3176.9,93.57142857142857,774.4776785714286,3278.2,93.57142857142857,774.4776785714286,3381.7,93.57142857142857,774.4776785714286,3482,93.57142857142857,774.4776785714286,3586,93.57142857142857,774.4776785714286,3687.6,93.57142857142857,774.4776785714286,3797.1,93.57142857142857,774.4776785714286,3901.4,93.57142857142857,774.4776785714286,4002.8,93.57142857142857,774.4776785714286,4108.9,93.57142857142857,774.4776785714286,4209.8,93.57142857142857,774.4776785714286,4310.1,93.57142857142857,774.4776785714286,4412.6,93.57142857142857,774.4776785714286,4516.2,93.57142857142857,774.4776785714286,4617.1,93.57142857142857,774.4776785714286,4723.9,93.57142857142857,774.4776785714286,4825.5,93.57142857142857,774.4776785714286,4925.7]","[1354.6,1354.6,1000,0,354.6,""smooth"",""left"",""left"",""good_move"",3824.3,2469.3,2079.1,1355,390.2,""smooth"",""down"",""down"",""good_move"",6887.6,3063.1,2707.7,3824.5,355.4,""smooth"",""down"",""down"",""good_move"",17489.4,10601.6,2693.1,14258.1,538.2,""smooth"",""left"",""left"",""good_move""]","","",""
"3680","","<div style=""width:500px;"">
  <p>What determined the result of this run?</p>
  </div>","71","html-slider-response","56","1091960","0.0-10.0-1.1","121","1","2025-07-09 09:08:31","7701e855f2ef39aa3fd6c71abdc6918a","196.13.185.1","Mozilla/5.0 (Windows NT 10.0; Win64; x64) AppleWebKit/537.36 (KHTML, like Gecko) Chrome/138.0.0.0 Safari/537.36 Edg/138.0.0.0","WebKit","Edge","138.0.0.0","Windows","10.0","https://app.prolific.com/","en-GB,en;q=0.9,en-US;q=0.8","675ee689e18bf69c5cb1b944","686d226cabeef709c732f8e1","686e3145f852156e7865d67c","675ee689e18bf69c5cb1b944","2025-07-09T09:26:45.756Z","","","","","","AttribQ","","","","","","","","","","","","","","","","","","","","","","","","","","","","","","","","","","","","","","50",""
"2607","","<div style=""width:500px;"">
  <p>How much control did you have over the ball?</p>
  </div>","43","html-slider-response","57","1094569","0.0-10.0-2.1","121","1","2025-07-09 09:08:31","7701e855f2ef39aa3fd6c71abdc6918a","196.13.185.1","Mozilla/5.0 (Windows NT 10.0; Win64; x64) AppleWebKit/537.36 (KHTML, like Gecko) Chrome/138.0.0.0 Safari/537.36 Edg/138.0.0.0","WebKit","Edge","138.0.0.0","Windows","10.0","https://app.prolific.com/","en-GB,en;q=0.9,en-US;q=0.8","675ee689e18bf69c5cb1b944","686d226cabeef709c732f8e1","686e3145f852156e7865d67c","675ee689e18bf69c5cb1b944","2025-07-09T09:26:48.365Z","","","","","","ControlQ","","","","","","","","","","","","","","","","","","","","","","","","","","","","","","","","","","","","","","50",""
"4143","","<div style=""width:500px;"">
  <p>How would you describe your current emotional state?</p>
  </div>","80","html-slider-response","58","1098713","0.0-10.0-3.1","121","1","2025-07-09 09:08:31","7701e855f2ef39aa3fd6c71abdc6918a","196.13.185.1","Mozilla/5.0 (Windows NT 10.0; Win64; x64) AppleWebKit/537.36 (KHTML, like Gecko) Chrome/138.0.0.0 Safari/537.36 Edg/138.0.0.0","WebKit","Edge","138.0.0.0","Windows","10.0","https://app.prolific.com/","en-GB,en;q=0.9,en-US;q=0.8","675ee689e18bf69c5cb1b944","686d226cabeef709c732f8e1","686e3145f852156e7865d67c","675ee689e18bf69c5cb1b944","2025-07-09T09:26:52.509Z","","","","","","StressQ","","","","","","","","","","","","","","","","","","","","","","","","","","","","","","","","","","","","","","50",""
"22307","","<div style=""width:500px;"">
  <p>What best describes how you currently feel?</p>
  </div>","76","html-slider-response","59","1121022","0.0-10.0-4.1","121","1","2025-07-09 09:08:31","7701e855f2ef39aa3fd6c71abdc6918a","196.13.185.1","Mozilla/5.0 (Windows NT 10.0; Win64; x64) AppleWebKit/537.36 (KHTML, like Gecko) Chrome/138.0.0.0 Safari/537.36 Edg/138.0.0.0","WebKit","Edge","138.0.0.0","Windows","10.0","https://app.prolific.com/","en-GB,en;q=0.9,en-US;q=0.8","675ee689e18bf69c5cb1b944","686d226cabeef709c732f8e1","686e3145f852156e7865d67c","675ee689e18bf69c5cb1b944","2025-07-09T09:27:14.818Z","","","","","","MotivationQ","","","","","","","","","","","","","","","","","","","","","","","","","","","","","","","","","","","","","","50",""
"","","","","ctl-task-cpt","60","1146912","0.0-10.0-0.2","121","1","2025-07-09 09:08:31","7701e855f2ef39aa3fd6c71abdc6918a","196.13.185.1","Mozilla/5.0 (Windows NT 10.0; Win64; x64) AppleWebKit/537.36 (KHTML, like Gecko) Chrome/138.0.0.0 Safari/537.36 Edg/138.0.0.0","WebKit","Edge","138.0.0.0","Windows","10.0","https://app.prolific.com/","en-GB,en;q=0.9,en-US;q=0.8","675ee689e18bf69c5cb1b944","686d226cabeef709c732f8e1","686e3145f852156e7865d67c","675ee689e18bf69c5cb1b944","2025-07-09T09:27:40.708Z","","","","","","","","","","","","","","","","win-only","3","g1:SW,g2:NE","0.8","3","0","1124071.7","1362.4","6367.1","22868.7","1","4","8","6","1","1","0","1","1","0.007575757575757576","1230.9","3000","175","[""down"",""left""]","{""num_key_presses"":6,""num_perfect"":4,""num_errors"":1,""num_randdir"":1,""num_randdir_good_moves"":0,""num_whilered"":0,""num_whileblue"":1,""num_blue"":1,""num_good_moves"":5}","[410.57142857142856,422.47767857142856,0.2,410.57142857142856,422.47767857142856,103.9,410.57142857142856,422.47767857142856,208.2,410.57142857142856,422.47767857142856,309.9,410.57142857142856,422.47767857142856,414,410.57142857142856,422.47767857142856,518.6,410.57142857142856,422.47767857142856,623.4,410.57142857142856,422.47767857142856,724.1,186.57142857142856,613.4776785714286,826.3,117.57142857142857,707.4776785714286,929.4,79.57142857142857,788.4776785714286,1033,68.57142857142857,802.4776785714286,1134.3,68.57142857142857,802.4776785714286,1238.6,68.57142857142857,802.4776785714286,1347.2,68.57142857142857,802.4776785714286,1449.8,68.57142857142857,802.4776785714286,1558.7,68.57142857142857,802.4776785714286,1658.8,68.57142857142857,802.4776785714286,1760.9,68.57142857142857,802.4776785714286,1863.1,68.57142857142857,802.4776785714286,1964.7,68.57142857142857,802.4776785714286,2065.9,68.57142857142857,802.4776785714286,2168.1,68.57142857142857,802.4776785714286,2270.5,68.57142857142857,802.4776785714286,2377.1,68.57142857142857,802.4776785714286,2478.4,68.57142857142857,802.4776785714286,2580,68.57142857142857,802.4776785714286,2683,68.57142857142857,802.4776785714286,2783.1,68.57142857142857,802.4776785714286,2884.4,68.57142857142857,802.4776785714286,2989.7,68.57142857142857,802.4776785714286,3098.3,68.57142857142857,802.4776785714286,3199.9,68.57142857142857,802.4776785714286,3304.1,68.57142857142857,802.4776785714286,3410.6,68.57142857142857,802.4776785714286,3518.5,68.57142857142857,802.4776785714286,3619.2,68.57142857142857,802.4776785714286,3723,68.57142857142857,802.4776785714286,3823.8,68.57142857142857,802.4776785714286,3924.5,68.57142857142857,802.4776785714286,4028.4,68.57142857142857,802.4776785714286,4133.2,68.57142857142857,802.4776785714286,4234.1,68.57142857142857,802.4776785714286,4338.1,68.57142857142857,802.4776785714286,4440.3,68.57142857142857,802.4776785714286,4543.3,68.57142857142857,802.4776785714286,4648.1,68.57142857142857,802.4776785714286,4748.5,68.57142857142857,802.4776785714286,4857.1,68.57142857142857,802.4776785714286,4959.9]","[1739.7,1739.7,1000,0,739.7,""smooth"",""left"",""left"",""good_move"",4423.8,2683.3,2319.4,1740.5,363.9,""while_blue"",""down"",""down"",""good_move"",7523.1,3098.9,2645.8,4424.2,453.1,""smooth"",""down"",""down"",""good_move"",10504.4,2981.1,2358.9,7523.3,622.2,""oops"",""left"",""up"",""bad_move"",13541.2,3035.5,2343.2,10505.7,692.3,""smooth"",""left"",""left"",""good_move"",16403.6,2862.2,2273.3,13541.4,588.9,""smooth"",""down"",""down"",""good_move""]","","",""
"8400","","<div style=""width:500px;"">
  <p>What determined the result of this run?</p>
  </div>","94","html-slider-response","61","1155314","0.0-10.0-1.2","121","1","2025-07-09 09:08:31","7701e855f2ef39aa3fd6c71abdc6918a","196.13.185.1","Mozilla/5.0 (Windows NT 10.0; Win64; x64) AppleWebKit/537.36 (KHTML, like Gecko) Chrome/138.0.0.0 Safari/537.36 Edg/138.0.0.0","WebKit","Edge","138.0.0.0","Windows","10.0","https://app.prolific.com/","en-GB,en;q=0.9,en-US;q=0.8","675ee689e18bf69c5cb1b944","686d226cabeef709c732f8e1","686e3145f852156e7865d67c","675ee689e18bf69c5cb1b944","2025-07-09T09:27:49.110Z","","","","","","AttribQ","","","","","","","","","","","","","","","","","","","","","","","","","","","","","","","","","","","","","","50",""
"3018","","<div style=""width:500px;"">
  <p>How much control did you have over the ball?</p>
  </div>","70","html-slider-response","62","1158334","0.0-10.0-2.2","121","1","2025-07-09 09:08:31","7701e855f2ef39aa3fd6c71abdc6918a","196.13.185.1","Mozilla/5.0 (Windows NT 10.0; Win64; x64) AppleWebKit/537.36 (KHTML, like Gecko) Chrome/138.0.0.0 Safari/537.36 Edg/138.0.0.0","WebKit","Edge","138.0.0.0","Windows","10.0","https://app.prolific.com/","en-GB,en;q=0.9,en-US;q=0.8","675ee689e18bf69c5cb1b944","686d226cabeef709c732f8e1","686e3145f852156e7865d67c","675ee689e18bf69c5cb1b944","2025-07-09T09:27:52.130Z","","","","","","ControlQ","","","","","","","","","","","","","","","","","","","","","","","","","","","","","","","","","","","","","","50",""
"3332","","<div style=""width:500px;"">
  <p>How would you describe your current emotional state?</p>
  </div>","73","html-slider-response","63","1161667","0.0-10.0-3.2","121","1","2025-07-09 09:08:31","7701e855f2ef39aa3fd6c71abdc6918a","196.13.185.1","Mozilla/5.0 (Windows NT 10.0; Win64; x64) AppleWebKit/537.36 (KHTML, like Gecko) Chrome/138.0.0.0 Safari/537.36 Edg/138.0.0.0","WebKit","Edge","138.0.0.0","Windows","10.0","https://app.prolific.com/","en-GB,en;q=0.9,en-US;q=0.8","675ee689e18bf69c5cb1b944","686d226cabeef709c732f8e1","686e3145f852156e7865d67c","675ee689e18bf69c5cb1b944","2025-07-09T09:27:55.463Z","","","","","","StressQ","","","","","","","","","","","","","","","","","","","","","","","","","","","","","","","","","","","","","","50",""
"3158","","<div style=""width:500px;"">
  <p>What best describes how you currently feel?</p>
  </div>","82","html-slider-response","64","1164827","0.0-10.0-4.2","121","1","2025-07-09 09:08:31","7701e855f2ef39aa3fd6c71abdc6918a","196.13.185.1","Mozilla/5.0 (Windows NT 10.0; Win64; x64) AppleWebKit/537.36 (KHTML, like Gecko) Chrome/138.0.0.0 Safari/537.36 Edg/138.0.0.0","WebKit","Edge","138.0.0.0","Windows","10.0","https://app.prolific.com/","en-GB,en;q=0.9,en-US;q=0.8","675ee689e18bf69c5cb1b944","686d226cabeef709c732f8e1","686e3145f852156e7865d67c","675ee689e18bf69c5cb1b944","2025-07-09T09:27:58.623Z","","","","","","MotivationQ","","","","","","","","","","","","","","","","","","","","","","","","","","","","","","","","","","","","","","50",""
"","","","","ctl-task-cpt","65","1194367","0.0-10.0-0.3","121","1","2025-07-09 09:08:31","7701e855f2ef39aa3fd6c71abdc6918a","196.13.185.1","Mozilla/5.0 (Windows NT 10.0; Win64; x64) AppleWebKit/537.36 (KHTML, like Gecko) Chrome/138.0.0.0 Safari/537.36 Edg/138.0.0.0","WebKit","Edge","138.0.0.0","Windows","10.0","https://app.prolific.com/","en-GB,en;q=0.9,en-US;q=0.8","675ee689e18bf69c5cb1b944","686d226cabeef709c732f8e1","686e3145f852156e7865d67c","675ee689e18bf69c5cb1b944","2025-07-09T09:28:28.163Z","","","","","","","","","","","","","","","","win-only","2","g1:SE,g2:NW","0.7","4","0","1167876","1187.2","6192.3","26521","1","4","4","6","1","1","1","2","1","0.015151515151515152","1416.4","3000","595","[""down"",""right""]","{""num_key_presses"":6,""num_perfect"":5,""num_errors"":0,""num_randdir"":1,""num_randdir_good_moves"":0,""num_whilered"":0,""num_whileblue"":0,""num_blue"":1,""num_good_moves"":5}","[413.57142857142856,416.47767857142856,0.5,413.57142857142856,416.47767857142856,103.6,413.57142857142856,416.47767857142856,204.8,413.57142857142856,416.47767857142856,307.9,413.57142857142856,416.47767857142856,409.1,413.57142857142856,416.47767857142856,509.6,413.57142857142856,416.47767857142856,613.6,591.5714285714286,555.4776785714286,716.9,655.5714285714286,646.4776785714286,818,655.5714285714286,646.4776785714286,919,655.5714285714286,646.4776785714286,1023.9,712.5714285714286,714.4776785714286,1124.5,731.5714285714286,740.4776785714286,1229.7,731.5714285714286,740.4776785714286,1333.2,731.5714285714286,740.4776785714286,1434.4,731.5714285714286,740.4776785714286,1536.1,731.5714285714286,740.4776785714286,1638.5,731.5714285714286,740.4776785714286,1739,731.5714285714286,740.4776785714286,1843.2,731.5714285714286,740.4776785714286,1948.3,731.5714285714286,740.4776785714286,2048.8,731.5714285714286,740.4776785714286,2153.3,731.5714285714286,740.4776785714286,2259.8,731.5714285714286,740.4776785714286,2371.4,731.5714285714286,740.4776785714286,2473.3,731.5714285714286,740.4776785714286,2574.3,731.5714285714286,740.4776785714286,2680.1,731.5714285714286,740.4776785714286,2784.8,731.5714285714286,740.4776785714286,2887.8,731.5714285714286,740.4776785714286,2988.1,731.5714285714286,740.4776785714286,3089.2,731.5714285714286,740.4776785714286,3193.3,731.5714285714286,740.4776785714286,3295,731.5714285714286,740.4776785714286,3397.6,731.5714285714286,740.4776785714286,3498.3,731.5714285714286,740.4776785714286,3604.7,731.5714285714286,740.4776785714286,3709.2,731.5714285714286,740.4776785714286,3812.1,731.5714285714286,740.4776785714286,3913.3,731.5714285714286,740.4776785714286,4018.6,731.5714285714286,740.4776785714286,4119.2,731.5714285714286,740.4776785714286,4219.5,731.5714285714286,740.4776785714286,4320.6,731.5714285714286,740.4776785714286,4423.6,731.5714285714286,740.4776785714286,4530.4,731.5714285714286,740.4776785714286,4636.5,731.5714285714286,740.4776785714286,4739,731.5714285714286,740.4776785714286,4849.2,731.5714285714286,740.4776785714286,4953.2]","[1492.4,1492.4,1000,0,492.4,""smooth"",""down"",""down"",""good_move"",5118.6,3625.3,3123.4,1493.3,501.9,""smooth"",""down"",""down"",""good_move"",10862.3,5743.6,2361.5,8079.3,421.6,""oops"",""right"",""up"",""bad_move"",13630.6,2768,2340.5,10862.6,427.5,""smooth"",""right"",""right"",""good_move"",17036.9,3406,2954.1,13631,451.9,""smooth"",""down"",""down"",""good_move"",20229.8,3192.5,2704.6,17037.3,487.9,""smooth"",""right"",""right"",""good_move""]","","",""
"14402","","<div style=""width:500px;"">
  <p>What determined the result of this run?</p>
  </div>","84","html-slider-response","66","1208771","0.0-10.0-1.3","121","1","2025-07-09 09:08:31","7701e855f2ef39aa3fd6c71abdc6918a","196.13.185.1","Mozilla/5.0 (Windows NT 10.0; Win64; x64) AppleWebKit/537.36 (KHTML, like Gecko) Chrome/138.0.0.0 Safari/537.36 Edg/138.0.0.0","WebKit","Edge","138.0.0.0","Windows","10.0","https://app.prolific.com/","en-GB,en;q=0.9,en-US;q=0.8","675ee689e18bf69c5cb1b944","686d226cabeef709c732f8e1","686e3145f852156e7865d67c","675ee689e18bf69c5cb1b944","2025-07-09T09:28:42.567Z","","","","","","AttribQ","","","","","","","","","","","","","","","","","","","","","","","","","","","","","","","","","","","","","","50",""
"7401","","<div style=""width:500px;"">
  <p>How much control did you have over the ball?</p>
  </div>","81","html-slider-response","67","1216174","0.0-10.0-2.3","121","1","2025-07-09 09:08:31","7701e855f2ef39aa3fd6c71abdc6918a","196.13.185.1","Mozilla/5.0 (Windows NT 10.0; Win64; x64) AppleWebKit/537.36 (KHTML, like Gecko) Chrome/138.0.0.0 Safari/537.36 Edg/138.0.0.0","WebKit","Edge","138.0.0.0","Windows","10.0","https://app.prolific.com/","en-GB,en;q=0.9,en-US;q=0.8","675ee689e18bf69c5cb1b944","686d226cabeef709c732f8e1","686e3145f852156e7865d67c","675ee689e18bf69c5cb1b944","2025-07-09T09:28:49.970Z","","","","","","ControlQ","","","","","","","","","","","","","","","","","","","","","","","","","","","","","","","","","","","","","","50",""
"6202","","<div style=""width:500px;"">
  <p>How would you describe your current emotional state?</p>
  </div>","90","html-slider-response","68","1222378","0.0-10.0-3.3","121","1","2025-07-09 09:08:31","7701e855f2ef39aa3fd6c71abdc6918a","196.13.185.1","Mozilla/5.0 (Windows NT 10.0; Win64; x64) AppleWebKit/537.36 (KHTML, like Gecko) Chrome/138.0.0.0 Safari/537.36 Edg/138.0.0.0","WebKit","Edge","138.0.0.0","Windows","10.0","https://app.prolific.com/","en-GB,en;q=0.9,en-US;q=0.8","675ee689e18bf69c5cb1b944","686d226cabeef709c732f8e1","686e3145f852156e7865d67c","675ee689e18bf69c5cb1b944","2025-07-09T09:28:56.174Z","","","","","","StressQ","","","","","","","","","","","","","","","","","","","","","","","","","","","","","","","","","","","","","","50",""
"3910","","<div style=""width:500px;"">
  <p>What best describes how you currently feel?</p>
  </div>","39","html-slider-response","69","1226289","0.0-10.0-4.3","121","1","2025-07-09 09:08:31","7701e855f2ef39aa3fd6c71abdc6918a","196.13.185.1","Mozilla/5.0 (Windows NT 10.0; Win64; x64) AppleWebKit/537.36 (KHTML, like Gecko) Chrome/138.0.0.0 Safari/537.36 Edg/138.0.0.0","WebKit","Edge","138.0.0.0","Windows","10.0","https://app.prolific.com/","en-GB,en;q=0.9,en-US;q=0.8","675ee689e18bf69c5cb1b944","686d226cabeef709c732f8e1","686e3145f852156e7865d67c","675ee689e18bf69c5cb1b944","2025-07-09T09:29:00.085Z","","","","","","MotivationQ","","","","","","","","","","","","","","","","","","","","","","","","","","","","","","","","","","","","","","50",""
"","","","","ctl-task-cpt","70","1254295","0.0-10.0-0.4","121","1","2025-07-09 09:08:31","7701e855f2ef39aa3fd6c71abdc6918a","196.13.185.1","Mozilla/5.0 (Windows NT 10.0; Win64; x64) AppleWebKit/537.36 (KHTML, like Gecko) Chrome/138.0.0.0 Safari/537.36 Edg/138.0.0.0","WebKit","Edge","138.0.0.0","Windows","10.0","https://app.prolific.com/","en-GB,en;q=0.9,en-US;q=0.8","675ee689e18bf69c5cb1b944","686d226cabeef709c732f8e1","686e3145f852156e7865d67c","675ee689e18bf69c5cb1b944","2025-07-09T09:29:28.091Z","","","","","","","","","","","","","","","","win-only","1","g1:NE,g2:SW","0.6","5","0","1229336.4","1746.8","6751.5","24987.6","1","4","4","6","1","1","1","3","2","0.022727272727272728","1482.9","3000","1190","[""up"",""right""]","{""num_key_presses"":6,""num_perfect"":5,""num_errors"":0,""num_randdir"":1,""num_randdir_good_moves"":0,""num_whilered"":0,""num_whileblue"":0,""num_blue"":1,""num_good_moves"":5}","[417.57142857142856,418.47767857142856,0.4,417.57142857142856,418.47767857142856,100,417.57142857142856,418.47767857142856,204.5,417.57142857142856,418.47767857142856,304.6,417.57142857142856,418.47767857142856,404.9,417.57142857142856,418.47767857142856,507.4,417.57142857142856,418.47767857142856,609.4,450.57142857142856,379.47767857142856,714,655.5714285714286,178.47767857142856,814,687.5714285714286,155.47767857142856,919,687.5714285714286,155.47767857142856,1019,687.5714285714286,155.47767857142856,1119.1,736.5714285714286,96.47767857142857,1220.1,754.5714285714286,78.47767857142857,1324.9,754.5714285714286,78.47767857142857,1428.8,754.5714285714286,78.47767857142857,1529,754.5714285714286,78.47767857142857,1629.1,754.5714285714286,78.47767857142857,1729.1,754.5714285714286,78.47767857142857,1836.4,754.5714285714286,78.47767857142857,1950.5,754.5714285714286,78.47767857142857,2054.1,754.5714285714286,78.47767857142857,2159,754.5714285714286,78.47767857142857,2260.7,754.5714285714286,78.47767857142857,2365,754.5714285714286,78.47767857142857,2469.2,754.5714285714286,78.47767857142857,2569.8,754.5714285714286,78.47767857142857,2675.7,754.5714285714286,78.47767857142857,2780,754.5714285714286,78.47767857142857,2880.5,754.5714285714286,78.47767857142857,2984.1,754.5714285714286,78.47767857142857,3089.5,754.5714285714286,78.47767857142857,3203.4,754.5714285714286,78.47767857142857,3304,754.5714285714286,78.47767857142857,3404.7,754.5714285714286,78.47767857142857,3510.6,754.5714285714286,78.47767857142857,3610.8,754.5714285714286,78.47767857142857,3716.6,754.5714285714286,78.47767857142857,3819.3,754.5714285714286,78.47767857142857,3924.2,754.5714285714286,78.47767857142857,4028.9,754.5714285714286,78.47767857142857,4129.2,754.5714285714286,78.47767857142857,4236.5,754.5714285714286,78.47767857142857,4348.3,754.5714285714286,78.47767857142857,4448.4,754.5714285714286,78.47767857142857,4548.8,754.5714285714286,78.47767857142857,4655.2,754.5714285714286,78.47767857142857,4760,754.5714285714286,78.47767857142857,4860.9,754.5714285714286,78.47767857142857,4963.6]","[1398.1,1398.1,1000,0,398.1,""smooth"",""up"",""up"",""good_move"",4342,2943.4,2538.4,1398.6,405,""smooth"",""right"",""right"",""good_move"",10147.7,5805.2,2299.3,7549,299.4,""smooth"",""right"",""right"",""good_move"",12474,2326.1,1928.8,10148,397.3,""oops"",""up"",""down"",""bad_move"",15580.2,3105.5,2760.5,12474.7,345,""smooth"",""up"",""up"",""good_move"",18128.1,2547.6,2145.2,15580.5,402.4,""smooth"",""up"",""up"",""good_move""]","","",""
"9180","","<div style=""width:500px;"">
  <p>What determined the result of this run?</p>
  </div>","40","html-slider-response","71","1263477","0.0-10.0-1.4","121","1","2025-07-09 09:08:31","7701e855f2ef39aa3fd6c71abdc6918a","196.13.185.1","Mozilla/5.0 (Windows NT 10.0; Win64; x64) AppleWebKit/537.36 (KHTML, like Gecko) Chrome/138.0.0.0 Safari/537.36 Edg/138.0.0.0","WebKit","Edge","138.0.0.0","Windows","10.0","https://app.prolific.com/","en-GB,en;q=0.9,en-US;q=0.8","675ee689e18bf69c5cb1b944","686d226cabeef709c732f8e1","686e3145f852156e7865d67c","675ee689e18bf69c5cb1b944","2025-07-09T09:29:37.273Z","","","","","","AttribQ","","","","","","","","","","","","","","","","","","","","","","","","","","","","","","","","","","","","","","50",""
"2627","","<div style=""width:500px;"">
  <p>How much control did you have over the ball?</p>
  </div>","61","html-slider-response","72","1266105","0.0-10.0-2.4","121","1","2025-07-09 09:08:31","7701e855f2ef39aa3fd6c71abdc6918a","196.13.185.1","Mozilla/5.0 (Windows NT 10.0; Win64; x64) AppleWebKit/537.36 (KHTML, like Gecko) Chrome/138.0.0.0 Safari/537.36 Edg/138.0.0.0","WebKit","Edge","138.0.0.0","Windows","10.0","https://app.prolific.com/","en-GB,en;q=0.9,en-US;q=0.8","675ee689e18bf69c5cb1b944","686d226cabeef709c732f8e1","686e3145f852156e7865d67c","675ee689e18bf69c5cb1b944","2025-07-09T09:29:39.901Z","","","","","","ControlQ","","","","","","","","","","","","","","","","","","","","","","","","","","","","","","","","","","","","","","50",""
"3476","","<div style=""width:500px;"">
  <p>How would you describe your current emotional state?</p>
  </div>","38","html-slider-response","73","1269582","0.0-10.0-3.4","121","1","2025-07-09 09:08:31","7701e855f2ef39aa3fd6c71abdc6918a","196.13.185.1","Mozilla/5.0 (Windows NT 10.0; Win64; x64) AppleWebKit/537.36 (KHTML, like Gecko) Chrome/138.0.0.0 Safari/537.36 Edg/138.0.0.0","WebKit","Edge","138.0.0.0","Windows","10.0","https://app.prolific.com/","en-GB,en;q=0.9,en-US;q=0.8","675ee689e18bf69c5cb1b944","686d226cabeef709c732f8e1","686e3145f852156e7865d67c","675ee689e18bf69c5cb1b944","2025-07-09T09:29:43.378Z","","","","","","StressQ","","","","","","","","","","","","","","","","","","","","","","","","","","","","","","","","","","","","","","50",""
"2520","","<div style=""width:500px;"">
  <p>What best describes how you currently feel?</p>
  </div>","77","html-slider-response","74","1272104","0.0-10.0-4.4","121","1","2025-07-09 09:08:31","7701e855f2ef39aa3fd6c71abdc6918a","196.13.185.1","Mozilla/5.0 (Windows NT 10.0; Win64; x64) AppleWebKit/537.36 (KHTML, like Gecko) Chrome/138.0.0.0 Safari/537.36 Edg/138.0.0.0","WebKit","Edge","138.0.0.0","Windows","10.0","https://app.prolific.com/","en-GB,en;q=0.9,en-US;q=0.8","675ee689e18bf69c5cb1b944","686d226cabeef709c732f8e1","686e3145f852156e7865d67c","675ee689e18bf69c5cb1b944","2025-07-09T09:29:45.901Z","","","","","","MotivationQ","","","","","","","","","","","","","","","","","","","","","","","","","","","","","","","","","","","","","","50",""
"","","","","ctl-task-cpt","75","1311053","0.0-10.0-0.5","121","1","2025-07-09 09:08:31","7701e855f2ef39aa3fd6c71abdc6918a","196.13.185.1","Mozilla/5.0 (Windows NT 10.0; Win64; x64) AppleWebKit/537.36 (KHTML, like Gecko) Chrome/138.0.0.0 Safari/537.36 Edg/138.0.0.0","WebKit","Edge","138.0.0.0","Windows","10.0","https://app.prolific.com/","en-GB,en;q=0.9,en-US;q=0.8","675ee689e18bf69c5cb1b944","686d226cabeef709c732f8e1","686e3145f852156e7865d67c","675ee689e18bf69c5cb1b944","2025-07-09T09:30:24.849Z","","","","","","","","","","","","","","","","win-only","0","g1:NW,g2:SE","0.5","6","0","1275154.3","1520.9","6529.8","35925.6","1","4","8","6","1","-1","-1","2","3","0.015151515151515152","1759.2","3000","-2460","[""left"",""up""]","{""num_key_presses"":10,""num_perfect"":5,""num_errors"":0,""num_randdir"":5,""num_randdir_good_moves"":1,""num_whilered"":0,""num_whileblue"":0,""num_blue"":0,""num_good_moves"":6}","[421.57142857142856,422.47767857142856,0.2,421.57142857142856,422.47767857142856,105,421.57142857142856,422.47767857142856,211.9,421.57142857142856,422.47767857142856,320.1,421.57142857142856,422.47767857142856,426.6,421.57142857142856,422.47767857142856,530.6,421.57142857142856,422.47767857142856,634.4,421.57142857142856,422.47767857142856,735.3,421.57142857142856,422.47767857142856,840,421.57142857142856,422.47767857142856,945.1,395.57142857142856,406.47767857142856,1045.8,191.57142857142856,225.47767857142856,1151.9,189.57142857142856,225.47767857142856,1256.9,189.57142857142856,225.47767857142856,1360.2,189.57142857142856,225.47767857142856,1467.6,117.57142857142857,138.47767857142856,1570.8,117.57142857142857,138.47767857142856,1677.2,117.57142857142857,138.47767857142856,1787.2,117.57142857142857,138.47767857142856,1895.5,117.57142857142857,138.47767857142856,1999.6,117.57142857142857,138.47767857142856,2113.8,117.57142857142857,138.47767857142856,2214.4,117.57142857142857,138.47767857142856,2314.5,117.57142857142857,138.47767857142856,2423.6,117.57142857142857,138.47767857142856,2524.8,117.57142857142857,138.47767857142856,2627.4,154.57142857142856,182.47767857142856,2730.4,241.57142857142856,317.47767857142856,2831.1,256.57142857142856,354.47767857142856,2943.2,256.57142857142856,354.47767857142856,3046.4,256.57142857142856,354.47767857142856,3149.7,256.57142857142856,354.47767857142856,3251,256.57142857142856,354.47767857142856,3356.1,256.57142857142856,354.47767857142856,3456.5,256.57142857142856,354.47767857142856,3560.3,256.57142857142856,354.47767857142856,3660.6,256.57142857142856,354.47767857142856,3764.7,256.57142857142856,354.47767857142856,3867.6,256.57142857142856,354.47767857142856,3973.9,256.57142857142856,354.47767857142856,4074.3,256.57142857142856,354.47767857142856,4174.4,256.57142857142856,354.47767857142856,4274.9,256.57142857142856,354.47767857142856,4380.7,256.57142857142856,354.47767857142856,4488.2,256.57142857142856,354.47767857142856,4594.1,256.57142857142856,354.47767857142856,4694.9,256.57142857142856,354.47767857142856,4795.1,256.57142857142856,354.47767857142856,4895.5]","[1340.8,1340.8,1000,0,340.8,""oops"",""left"",""down"",""bad_move"",3977.3,2636,2194.9,1341.3,441.1,""smooth"",""left"",""left"",""good_move"",7357.1,3378.9,2966.3,3978.3,412.6,""oops"",""up"",""right"",""bad_move"",9765.3,2407.4,2019.8,7358,387.5,""oops"",""left"",""down"",""bad_move"",12572.8,2807.5,2395.9,9765.4,411.5,""smooth"",""up"",""up"",""good_move"",15099.5,2526.4,2206.2,12573.2,320.2,""oops"",""up"",""up"",""good_move"",18184.4,3084.5,2770.9,15099.9,313.6,""smooth"",""up"",""up"",""good_move"",20574,2389.3,1964,18184.7,425.3,""smooth"",""left"",""left"",""good_move"",23741.6,3167.4,2846.5,20574.4,320.8,""smooth"",""left"",""left"",""good_move"",26718.6,2976.7,2640.7,23742,335.9,""oops"",""up"",""down"",""bad_move""]","","",""
"9772","","<div style=""width:500px;"">
  <p>What determined the result of this run?</p>
  </div>","34","html-slider-response","76","1320826","0.0-10.0-1.5","121","1","2025-07-09 09:08:31","7701e855f2ef39aa3fd6c71abdc6918a","196.13.185.1","Mozilla/5.0 (Windows NT 10.0; Win64; x64) AppleWebKit/537.36 (KHTML, like Gecko) Chrome/138.0.0.0 Safari/537.36 Edg/138.0.0.0","WebKit","Edge","138.0.0.0","Windows","10.0","https://app.prolific.com/","en-GB,en;q=0.9,en-US;q=0.8","675ee689e18bf69c5cb1b944","686d226cabeef709c732f8e1","686e3145f852156e7865d67c","675ee689e18bf69c5cb1b944","2025-07-09T09:30:34.622Z","","","","","","AttribQ","","","","","","","","","","","","","","","","","","","","","","","","","","","","","","","","","","","","","","50",""
"2584","","<div style=""width:500px;"">
  <p>How much control did you have over the ball?</p>
  </div>","74","html-slider-response","77","1323412","0.0-10.0-2.5","121","1","2025-07-09 09:08:31","7701e855f2ef39aa3fd6c71abdc6918a","196.13.185.1","Mozilla/5.0 (Windows NT 10.0; Win64; x64) AppleWebKit/537.36 (KHTML, like Gecko) Chrome/138.0.0.0 Safari/537.36 Edg/138.0.0.0","WebKit","Edge","138.0.0.0","Windows","10.0","https://app.prolific.com/","en-GB,en;q=0.9,en-US;q=0.8","675ee689e18bf69c5cb1b944","686d226cabeef709c732f8e1","686e3145f852156e7865d67c","675ee689e18bf69c5cb1b944","2025-07-09T09:30:37.208Z","","","","","","ControlQ","","","","","","","","","","","","","","","","","","","","","","","","","","","","","","","","","","","","","","50",""
"1664","","<div style=""width:500px;"">
  <p>How would you describe your current emotional state?</p>
  </div>","57","html-slider-response","78","1325077","0.0-10.0-3.5","121","1","2025-07-09 09:08:31","7701e855f2ef39aa3fd6c71abdc6918a","196.13.185.1","Mozilla/5.0 (Windows NT 10.0; Win64; x64) AppleWebKit/537.36 (KHTML, like Gecko) Chrome/138.0.0.0 Safari/537.36 Edg/138.0.0.0","WebKit","Edge","138.0.0.0","Windows","10.0","https://app.prolific.com/","en-GB,en;q=0.9,en-US;q=0.8","675ee689e18bf69c5cb1b944","686d226cabeef709c732f8e1","686e3145f852156e7865d67c","675ee689e18bf69c5cb1b944","2025-07-09T09:30:38.873Z","","","","","","StressQ","","","","","","","","","","","","","","","","","","","","","","","","","","","","","","","","","","","","","","50",""
"2531","","<div style=""width:500px;"">
  <p>What best describes how you currently feel?</p>
  </div>","68","html-slider-response","79","1327610","0.0-10.0-4.5","121","1","2025-07-09 09:08:31","7701e855f2ef39aa3fd6c71abdc6918a","196.13.185.1","Mozilla/5.0 (Windows NT 10.0; Win64; x64) AppleWebKit/537.36 (KHTML, like Gecko) Chrome/138.0.0.0 Safari/537.36 Edg/138.0.0.0","WebKit","Edge","138.0.0.0","Windows","10.0","https://app.prolific.com/","en-GB,en;q=0.9,en-US;q=0.8","675ee689e18bf69c5cb1b944","686d226cabeef709c732f8e1","686e3145f852156e7865d67c","675ee689e18bf69c5cb1b944","2025-07-09T09:30:41.406Z","","","","","","MotivationQ","","","","","","","","","","","","","","","","","","","","","","","","","","","","","","","","","","","","","","50",""
"","","","","ctl-task-cpt","80","1347159","0.0-10.0-0.6","121","1","2025-07-09 09:08:31","7701e855f2ef39aa3fd6c71abdc6918a","196.13.185.1","Mozilla/5.0 (Windows NT 10.0; Win64; x64) AppleWebKit/537.36 (KHTML, like Gecko) Chrome/138.0.0.0 Safari/537.36 Edg/138.0.0.0","WebKit","Edge","138.0.0.0","Windows","10.0","https://app.prolific.com/","en-GB,en;q=0.9,en-US;q=0.8","675ee689e18bf69c5cb1b944","686d226cabeef709c732f8e1","686e3145f852156e7865d67c","675ee689e18bf69c5cb1b944","2025-07-09T09:31:00.955Z","","","","","","","","","","","","","","","","win-only","2","g1:SE,g2:NW","0.4","7","0","1330657","1177.4","6181.2","16521.9","1","4","8","6","1","1","1","3","2","0.022727272727272728","1236.2","3000","1855","[""down"",""right""]","{""num_key_presses"":4,""num_perfect"":3,""num_errors"":0,""num_randdir"":1,""num_randdir_good_moves"":1,""num_whilered"":0,""num_whileblue"":0,""num_blue"":0,""num_good_moves"":4}","[418.57142857142856,417.47767857142856,0.3,418.57142857142856,417.47767857142856,100.5,418.57142857142856,417.47767857142856,203,418.57142857142856,417.47767857142856,303.4,418.57142857142856,417.47767857142856,405.2,418.57142857142856,417.47767857142856,514.9,418.57142857142856,417.47767857142856,615,632.5714285714286,562.4776785714286,719.2,736.5714285714286,693.4776785714286,823.7,736.5714285714286,693.4776785714286,929.2,736.5714285714286,693.4776785714286,1034.2,762.5714285714286,736.4776785714286,1138.7,765.5714285714286,742.4776785714286,1244.8,765.5714285714286,742.4776785714286,1353.5,765.5714285714286,742.4776785714286,1458.5,765.5714285714286,742.4776785714286,1559.4,765.5714285714286,742.4776785714286,1667.3,765.5714285714286,742.4776785714286,1767.4,765.5714285714286,742.4776785714286,1867.8,765.5714285714286,742.4776785714286,1968.2,765.5714285714286,742.4776785714286,2075,765.5714285714286,742.4776785714286,2181.7,765.5714285714286,742.4776785714286,2281.7,765.5714285714286,742.4776785714286,2384.8,765.5714285714286,742.4776785714286,2489.6,765.5714285714286,742.4776785714286,2589.6,765.5714285714286,742.4776785714286,2697,765.5714285714286,742.4776785714286,2798.7,765.5714285714286,742.4776785714286,2904.2,765.5714285714286,742.4776785714286,3009.7,765.5714285714286,742.4776785714286,3117.4,765.5714285714286,742.4776785714286,3218.1,765.5714285714286,742.4776785714286,3319.1,765.5714285714286,742.4776785714286,3419.3,765.5714285714286,742.4776785714286,3532.6,765.5714285714286,742.4776785714286,3634.7,765.5714285714286,742.4776785714286,3738.5,765.5714285714286,742.4776785714286,3847.4,765.5714285714286,742.4776785714286,3948.5,765.5714285714286,742.4776785714286,4053.3,765.5714285714286,742.4776785714286,4153.6,765.5714285714286,742.4776785714286,4255,765.5714285714286,742.4776785714286,4367.9,765.5714285714286,742.4776785714286,4468,765.5714285714286,742.4776785714286,4569.7,765.5714285714286,742.4776785714286,4673.1,765.5714285714286,742.4776785714286,4778.5,765.5714285714286,742.4776785714286,4881.9,765.5714285714286,742.4776785714286,4984.4]","[1413.1,1413.1,1000,0,413.1,""oops"",""right"",""down"",""good_move"",4430.2,3016.7,2638.2,1413.5,378.5,""smooth"",""right"",""right"",""good_move"",7832.8,3402.2,3016.5,4430.6,385.7,""smooth"",""right"",""right"",""good_move"",10227.2,2394.2,2026.1,7833,368.1,""smooth"",""down"",""down"",""good_move""]","","",""
"4119","","<div style=""width:500px;"">
  <p>What determined the result of this run?</p>
  </div>","82","html-slider-response","81","1351280","0.0-10.0-1.6","121","1","2025-07-09 09:08:31","7701e855f2ef39aa3fd6c71abdc6918a","196.13.185.1","Mozilla/5.0 (Windows NT 10.0; Win64; x64) AppleWebKit/537.36 (KHTML, like Gecko) Chrome/138.0.0.0 Safari/537.36 Edg/138.0.0.0","WebKit","Edge","138.0.0.0","Windows","10.0","https://app.prolific.com/","en-GB,en;q=0.9,en-US;q=0.8","675ee689e18bf69c5cb1b944","686d226cabeef709c732f8e1","686e3145f852156e7865d67c","675ee689e18bf69c5cb1b944","2025-07-09T09:31:05.076Z","","","","","","AttribQ","","","","","","","","","","","","","","","","","","","","","","","","","","","","","","","","","","","","","","50",""
"4380","","<div style=""width:500px;"">
  <p>How much control did you have over the ball?</p>
  </div>","65","html-slider-response","82","1355662","0.0-10.0-2.6","121","1","2025-07-09 09:08:31","7701e855f2ef39aa3fd6c71abdc6918a","196.13.185.1","Mozilla/5.0 (Windows NT 10.0; Win64; x64) AppleWebKit/537.36 (KHTML, like Gecko) Chrome/138.0.0.0 Safari/537.36 Edg/138.0.0.0","WebKit","Edge","138.0.0.0","Windows","10.0","https://app.prolific.com/","en-GB,en;q=0.9,en-US;q=0.8","675ee689e18bf69c5cb1b944","686d226cabeef709c732f8e1","686e3145f852156e7865d67c","675ee689e18bf69c5cb1b944","2025-07-09T09:31:09.459Z","","","","","","ControlQ","","","","","","","","","","","","","","","","","","","","","","","","","","","","","","","","","","","","","","50",""
"2871","","<div style=""width:500px;"">
  <p>How would you describe your current emotional state?</p>
  </div>","29","html-slider-response","83","1358535","0.0-10.0-3.6","121","1","2025-07-09 09:08:31","7701e855f2ef39aa3fd6c71abdc6918a","196.13.185.1","Mozilla/5.0 (Windows NT 10.0; Win64; x64) AppleWebKit/537.36 (KHTML, like Gecko) Chrome/138.0.0.0 Safari/537.36 Edg/138.0.0.0","WebKit","Edge","138.0.0.0","Windows","10.0","https://app.prolific.com/","en-GB,en;q=0.9,en-US;q=0.8","675ee689e18bf69c5cb1b944","686d226cabeef709c732f8e1","686e3145f852156e7865d67c","675ee689e18bf69c5cb1b944","2025-07-09T09:31:12.331Z","","","","","","StressQ","","","","","","","","","","","","","","","","","","","","","","","","","","","","","","","","","","","","","","50",""
"5650","","<div style=""width:500px;"">
  <p>What best describes how you currently feel?</p>
  </div>","72","html-slider-response","84","1364186","0.0-10.0-4.6","121","1","2025-07-09 09:08:31","7701e855f2ef39aa3fd6c71abdc6918a","196.13.185.1","Mozilla/5.0 (Windows NT 10.0; Win64; x64) AppleWebKit/537.36 (KHTML, like Gecko) Chrome/138.0.0.0 Safari/537.36 Edg/138.0.0.0","WebKit","Edge","138.0.0.0","Windows","10.0","https://app.prolific.com/","en-GB,en;q=0.9,en-US;q=0.8","675ee689e18bf69c5cb1b944","686d226cabeef709c732f8e1","686e3145f852156e7865d67c","675ee689e18bf69c5cb1b944","2025-07-09T09:31:17.982Z","","","","","","MotivationQ","","","","","","","","","","","","","","","","","","","","","","","","","","","","","","","","","","","","","","50",""
"","","","","ctl-task-cpt","85","1408627","0.0-10.0-0.7","121","1","2025-07-09 09:08:31","7701e855f2ef39aa3fd6c71abdc6918a","196.13.185.1","Mozilla/5.0 (Windows NT 10.0; Win64; x64) AppleWebKit/537.36 (KHTML, like Gecko) Chrome/138.0.0.0 Safari/537.36 Edg/138.0.0.0","WebKit","Edge","138.0.0.0","Windows","10.0","https://app.prolific.com/","en-GB,en;q=0.9,en-US;q=0.8","675ee689e18bf69c5cb1b944","686d226cabeef709c732f8e1","686e3145f852156e7865d67c","675ee689e18bf69c5cb1b944","2025-07-09T09:32:02.423Z","","","","","","","","","","","","","","","","win-only","1","g1:NE,g2:SW","0.3","8","0","1367230.4","1425.6","6426.5","41410.9","1","4","4","6","1","-1","-1","2","3","0.015151515151515152","1445.8","3000","-2175","[""up"",""right""]","{""num_key_presses"":10,""num_perfect"":3,""num_errors"":0,""num_randdir"":7,""num_randdir_good_moves"":4,""num_whilered"":0,""num_whileblue"":0,""num_blue"":1,""num_good_moves"":6}","[421.57142857142856,422.47767857142856,0.4,421.57142857142856,422.47767857142856,101.9,421.57142857142856,422.47767857142856,205,421.57142857142856,422.47767857142856,308.5,421.57142857142856,422.47767857142856,413.8,421.57142857142856,422.47767857142856,513.8,422.57142857142856,422.47767857142856,615.5,520.5714285714286,324.47767857142856,716.2,637.5714285714286,220.47767857142856,817.8,647.5714285714286,213.47767857142856,919.8,647.5714285714286,213.47767857142856,1019.9,695.5714285714286,163.47767857142856,1123.1,756.5714285714286,108.47767857142857,1224.2,759.5714285714286,106.47767857142857,1329.9,759.5714285714286,106.47767857142857,1430.5,759.5714285714286,106.47767857142857,1531.5,759.5714285714286,106.47767857142857,1632.2,759.5714285714286,106.47767857142857,1734.9,759.5714285714286,106.47767857142857,1835,759.5714285714286,106.47767857142857,1935.8,759.5714285714286,106.47767857142857,2048.6,675.5714285714286,167.47767857142856,2152.2,630.5714285714286,213.47767857142856,2257.3,630.5714285714286,213.47767857142856,2361.8,630.5714285714286,213.47767857142856,2467.3,630.5714285714286,213.47767857142856,2581.1,630.5714285714286,213.47767857142856,2686.1,609.5714285714286,233.47767857142856,2790.5,587.5714285714286,262.47767857142856,2896.2,575.5714285714286,286.47767857142856,3000.8,575.5714285714286,286.47767857142856,3100.8,575.5714285714286,286.47767857142856,3205.2,575.5714285714286,286.47767857142856,3306.6,575.5714285714286,286.47767857142856,3407.5,575.5714285714286,286.47767857142856,3512.6,575.5714285714286,286.47767857142856,3618.5,575.5714285714286,286.47767857142856,3718.5,575.5714285714286,286.47767857142856,3823.1,575.5714285714286,286.47767857142856,3931.1,575.5714285714286,286.47767857142856,4032.1,575.5714285714286,286.47767857142856,4133.2,575.5714285714286,286.47767857142856,4235.9,575.5714285714286,286.47767857142856,4335.9,575.5714285714286,286.47767857142856,4442.1,575.5714285714286,286.47767857142856,4546.1,575.5714285714286,286.47767857142856,4651.3,575.5714285714286,286.47767857142856,4755.8,575.5714285714286,286.47767857142856,4856.4,575.5714285714286,286.47767857142856,4961.8]","[1363.3,1363.3,1000,0,363.3,""oops"",""up"",""right"",""good_move"",4886.4,3522.6,3160.4,1363.8,362.2,""oops"",""up"",""right"",""good_move"",8560.5,3673.8,3340.3,4886.7,333.5,""oops"",""up"",""down"",""bad_move"",11208.2,2647.1,2276.3,8561.1,370.9,""smooth"",""down"",""down"",""bad_move"",14313,3104.2,2769,11208.8,335.2,""oops"",""up"",""down"",""bad_move"",21301.5,6988.4,3787.7,17190.4,323.4,""smooth"",""up"",""up"",""good_move"",24392,3090,2054.7,21302,1035.3,""smooth"",""up"",""up"",""good_move"",27327.6,2935.1,2535.7,24392.5,399.4,""oops"",""up"",""up"",""good_move"",29943.3,2615.2,2248.2,27328.1,367,""oops"",""up"",""down"",""bad_move"",32490.1,2546.1,2215.3,29944.1,330.7,""oops"",""up"",""up"",""good_move""]","","",""
"3767","","<div style=""width:500px;"">
  <p>What determined the result of this run?</p>
  </div>","10","html-slider-response","86","1412396","0.0-10.0-1.7","121","1","2025-07-09 09:08:31","7701e855f2ef39aa3fd6c71abdc6918a","196.13.185.1","Mozilla/5.0 (Windows NT 10.0; Win64; x64) AppleWebKit/537.36 (KHTML, like Gecko) Chrome/138.0.0.0 Safari/537.36 Edg/138.0.0.0","WebKit","Edge","138.0.0.0","Windows","10.0","https://app.prolific.com/","en-GB,en;q=0.9,en-US;q=0.8","675ee689e18bf69c5cb1b944","686d226cabeef709c732f8e1","686e3145f852156e7865d67c","675ee689e18bf69c5cb1b944","2025-07-09T09:32:06.192Z","","","","","","AttribQ","","","","","","","","","","","","","","","","","","","","","","","","","","","","","","","","","","","","","","50",""
"3918","","<div style=""width:500px;"">
  <p>How much control did you have over the ball?</p>
  </div>","71","html-slider-response","87","1416315","0.0-10.0-2.7","121","1","2025-07-09 09:08:31","7701e855f2ef39aa3fd6c71abdc6918a","196.13.185.1","Mozilla/5.0 (Windows NT 10.0; Win64; x64) AppleWebKit/537.36 (KHTML, like Gecko) Chrome/138.0.0.0 Safari/537.36 Edg/138.0.0.0","WebKit","Edge","138.0.0.0","Windows","10.0","https://app.prolific.com/","en-GB,en;q=0.9,en-US;q=0.8","675ee689e18bf69c5cb1b944","686d226cabeef709c732f8e1","686e3145f852156e7865d67c","675ee689e18bf69c5cb1b944","2025-07-09T09:32:10.112Z","","","","","","ControlQ","","","","","","","","","","","","","","","","","","","","","","","","","","","","","","","","","","","","","","50",""
"2404","","<div style=""width:500px;"">
  <p>How would you describe your current emotional state?</p>
  </div>","64","html-slider-response","88","1418722","0.0-10.0-3.7","121","1","2025-07-09 09:08:31","7701e855f2ef39aa3fd6c71abdc6918a","196.13.185.1","Mozilla/5.0 (Windows NT 10.0; Win64; x64) AppleWebKit/537.36 (KHTML, like Gecko) Chrome/138.0.0.0 Safari/537.36 Edg/138.0.0.0","WebKit","Edge","138.0.0.0","Windows","10.0","https://app.prolific.com/","en-GB,en;q=0.9,en-US;q=0.8","675ee689e18bf69c5cb1b944","686d226cabeef709c732f8e1","686e3145f852156e7865d67c","675ee689e18bf69c5cb1b944","2025-07-09T09:32:12.518Z","","","","","","StressQ","","","","","","","","","","","","","","","","","","","","","","","","","","","","","","","","","","","","","","50",""
"4518","","<div style=""width:500px;"">
  <p>What best describes how you currently feel?</p>
  </div>","42","html-slider-response","89","1423241","0.0-10.0-4.7","121","1","2025-07-09 09:08:31","7701e855f2ef39aa3fd6c71abdc6918a","196.13.185.1","Mozilla/5.0 (Windows NT 10.0; Win64; x64) AppleWebKit/537.36 (KHTML, like Gecko) Chrome/138.0.0.0 Safari/537.36 Edg/138.0.0.0","WebKit","Edge","138.0.0.0","Windows","10.0","https://app.prolific.com/","en-GB,en;q=0.9,en-US;q=0.8","675ee689e18bf69c5cb1b944","686d226cabeef709c732f8e1","686e3145f852156e7865d67c","675ee689e18bf69c5cb1b944","2025-07-09T09:32:17.038Z","","","","","","MotivationQ","","","","","","","","","","","","","","","","","","","","","","","","","","","","","","","","","","","","","","50",""
