"rt","response_timestamp","stimulus","response","trial_type","trial_index","time_elapsed","internal_node_id","run_id","condition","recorded_at","source_code_version","ip","user_agent","device","browser","browser_version","platform","platform_version","referer","accept_language","PROLIFIC_PID","STUDY_ID","SESSION_ID","prolific_id","realtime","view_history","question_order","consent","success","question_id","eventType","responses","item_order","radio_event_ids","radio_event_times","key_event_times","mouse_event_times","straightlining","zigzagging","honeypot","which_type","canvas_config","goals_layout","control_level","trial_number","tutorial_trial_number","trial_start_time","phase1_start_time","phase2_start_time","phase3_start_time","goal_1_value","goal_1_distance","goal_2_value","goal_2_distance","goal_selected","outcome","outcome_total","participant_final_score","participant_initial_score","participant_final_score_prop","goal_choice_rt","allocated_time","allocated_time_remaining","goal_direction","counts","mouse_movements","key_presses","correct","slider_start"
"58003","1752052899496","<p style='font-size:40px;line-height:1.25'><strong>Welcome to the experiment!</strong></p><p style='font-size:1.1em;line-height:1.25'>Thank you for your interest in our experiment! Before you begin, it is important that we obtain your informed consent to participate in the study.</p><p style='font-size:1.1em;line-height:1.25'>On the next screen will be an <strong>information sheet</strong> for you to read. To participate in the study we need you to read this information sheet and the following consent form carefully. If you agree with all the statements, please click the <strong>I agree</strong> button.</p><p style='font-size:1.1em;line-height:1.25'>Press <strong>Next</strong> to read the information sheet.</p>","0","custom-html-button-response","0","58016","0.0-0.0","208","1","2025-07-09 09:20:40","7701e855f2ef39aa3fd6c71abdc6918a","87.123.247.159","Mozilla/5.0 (Windows NT 10.0; Win64; x64; rv:140.0) Gecko/20100101 Firefox/140.0","","Firefox","140.0","Windows","10.0","https://app.prolific.com/","de,en-US;q=0.7,en;q=0.3","66ebc8c5e5b772065830754d","686d226cabeef709c732f8e1","686e3136b4e3453715f3a912","66ebc8c5e5b772065830754d","2025-07-09T09:21:39.496Z","","","","","","","","","","","","","","","","","","","","","","","","","","","","","","","","","","","","","","","","","","","",""
"525861","","","","instructions","1","583880","0.0-1.0","208","1","2025-07-09 09:20:40","7701e855f2ef39aa3fd6c71abdc6918a","87.123.247.159","Mozilla/5.0 (Windows NT 10.0; Win64; x64; rv:140.0) Gecko/20100101 Firefox/140.0","","Firefox","140.0","Windows","10.0","https://app.prolific.com/","de,en-US;q=0.7,en;q=0.3","66ebc8c5e5b772065830754d","686d226cabeef709c732f8e1","686e3136b4e3453715f3a912","66ebc8c5e5b772065830754d","","[{""page_index"":0,""viewing_time"":521850},{""page_index"":1,""viewing_time"":4011}]","","","","","","","","","","","","","","","","","","","","","","","","","","","","","","","","","","","","","","","","","","",""
"6912","","","{""Q0"":"""",""Q1"":"""",""Q2"":"""",""Q3"":"""",""Q4"":"""",""Q5"":"""",""Q6"":""I agree""}","survey-multi-choice","2","590797","0.0-2.0","208","1","2025-07-09 09:20:40","7701e855f2ef39aa3fd6c71abdc6918a","87.123.247.159","Mozilla/5.0 (Windows NT 10.0; Win64; x64; rv:140.0) Gecko/20100101 Firefox/140.0","","Firefox","140.0","Windows","10.0","https://app.prolific.com/","de,en-US;q=0.7,en;q=0.3","66ebc8c5e5b772065830754d","686d226cabeef709c732f8e1","686e3136b4e3453715f3a912","66ebc8c5e5b772065830754d","","","[0,1,2,3,4,5,6]","true","","","","","","","","","","","","","","","","","","","","","","","","","","","","","","","","","","","","","","","","",""
"1163691","","","","fullscreen","3","1755501","0.0-4.0","208","1","2025-07-09 09:20:40","7701e855f2ef39aa3fd6c71abdc6918a","87.123.247.159","Mozilla/5.0 (Windows NT 10.0; Win64; x64; rv:140.0) Gecko/20100101 Firefox/140.0","","Firefox","140.0","Windows","10.0","https://app.prolific.com/","de,en-US;q=0.7,en;q=0.3","66ebc8c5e5b772065830754d","686d226cabeef709c732f8e1","686e3136b4e3453715f3a912","66ebc8c5e5b772065830754d","","","","","true","","","","","","","","","","","","","","","","","","","","","","","","","","","","","","","","","","","","","","","",""
"3280","1752054600267"," <p style='font-size:1.1em;line-height:1.25'>Thank you for completing the consent form and closing all other tabs.</p><p style='font-size:1.1em;line-height:1.25'>We will now invite you to fill in some demographic information and questionnaires, before starting the game.<br>This will take about 5 minutes.<br></p><p style='font-size:1.1em;line-height:1.25'>Press the <strong>Next</strong> button to continue.</p>","0","custom-html-button-response","4","1758787","0.0-5.0","208","1","2025-07-09 09:20:40","7701e855f2ef39aa3fd6c71abdc6918a","87.123.247.159","Mozilla/5.0 (Windows NT 10.0; Win64; x64; rv:140.0) Gecko/20100101 Firefox/140.0","","Firefox","140.0","Windows","10.0","https://app.prolific.com/","de,en-US;q=0.7,en;q=0.3","66ebc8c5e5b772065830754d","686d226cabeef709c732f8e1","686e3136b4e3453715f3a912","66ebc8c5e5b772065830754d","2025-07-09T09:50:00.267Z","","","","","","","","","","","","","","","","","","","","","","","","","","","","","","","","","","","","","","","","","","","",""
"2675","","","{""age"":""29""}","survey-text","5","1761504","0.0-6.0-0.0","208","1","2025-07-09 09:20:40","7701e855f2ef39aa3fd6c71abdc6918a","87.123.247.159","Mozilla/5.0 (Windows NT 10.0; Win64; x64; rv:140.0) Gecko/20100101 Firefox/140.0","","Firefox","140.0","Windows","10.0","https://app.prolific.com/","de,en-US;q=0.7,en;q=0.3","66ebc8c5e5b772065830754d","686d226cabeef709c732f8e1","686e3136b4e3453715f3a912","66ebc8c5e5b772065830754d","","","","","","0","demographics","","","","","","","","","","","","","","","","","","","","","","","","","","","","","","","","","","","","","",""
"3133","","","{""gender_identity"":""female/woman""}","survey-multi-choice","6","1764639","0.0-6.0-1.0","208","1","2025-07-09 09:20:40","7701e855f2ef39aa3fd6c71abdc6918a","87.123.247.159","Mozilla/5.0 (Windows NT 10.0; Win64; x64; rv:140.0) Gecko/20100101 Firefox/140.0","","Firefox","140.0","Windows","10.0","https://app.prolific.com/","de,en-US;q=0.7,en;q=0.3","66ebc8c5e5b772065830754d","686d226cabeef709c732f8e1","686e3136b4e3453715f3a912","66ebc8c5e5b772065830754d","","","[0]","","","1","demographics","","","","","","","","","","","","","","","","","","","","","","","","","","","","","","","","","","","","","",""
"1348","","","{""assigned_sex"":""female""}","survey-multi-choice","7","1765989","0.0-6.0-2.0","208","1","2025-07-09 09:20:40","7701e855f2ef39aa3fd6c71abdc6918a","87.123.247.159","Mozilla/5.0 (Windows NT 10.0; Win64; x64; rv:140.0) Gecko/20100101 Firefox/140.0","","Firefox","140.0","Windows","10.0","https://app.prolific.com/","de,en-US;q=0.7,en;q=0.3","66ebc8c5e5b772065830754d","686d226cabeef709c732f8e1","686e3136b4e3453715f3a912","66ebc8c5e5b772065830754d","","","[0]","","","2","demographics","","","","","","","","","","","","","","","","","","","","","","","","","","","","","","","","","","","","","",""
"2865","","","{""menstrual_cycle"":""Yes""}","survey-multi-choice","8","1768854","0.0-6.0-3.0","208","1","2025-07-09 09:20:40","7701e855f2ef39aa3fd6c71abdc6918a","87.123.247.159","Mozilla/5.0 (Windows NT 10.0; Win64; x64; rv:140.0) Gecko/20100101 Firefox/140.0","","Firefox","140.0","Windows","10.0","https://app.prolific.com/","de,en-US;q=0.7,en;q=0.3","66ebc8c5e5b772065830754d","686d226cabeef709c732f8e1","686e3136b4e3453715f3a912","66ebc8c5e5b772065830754d","","","[0]","","","4","demographics","","","","","","","","","","","","","","","","","","","","","","","","","","","","","","","","","","","","","",""
"2840","","","{""education"":""Master's Degree (e.g., MSc)""}","survey-multi-choice","9","1771696","0.0-6.0-4.0","208","1","2025-07-09 09:20:40","7701e855f2ef39aa3fd6c71abdc6918a","87.123.247.159","Mozilla/5.0 (Windows NT 10.0; Win64; x64; rv:140.0) Gecko/20100101 Firefox/140.0","","Firefox","140.0","Windows","10.0","https://app.prolific.com/","de,en-US;q=0.7,en;q=0.3","66ebc8c5e5b772065830754d","686d226cabeef709c732f8e1","686e3136b4e3453715f3a912","66ebc8c5e5b772065830754d","","","[0]","","","5","demographics","","","","","","","","","","","","","","","","","","","","","","","","","","","","","","","","","","","","","",""
"5150","","","{""education"":""Others""}","survey-multi-choice","10","1776849","0.0-6.0-5.0","208","1","2025-07-09 09:20:40","7701e855f2ef39aa3fd6c71abdc6918a","87.123.247.159","Mozilla/5.0 (Windows NT 10.0; Win64; x64; rv:140.0) Gecko/20100101 Firefox/140.0","","Firefox","140.0","Windows","10.0","https://app.prolific.com/","de,en-US;q=0.7,en;q=0.3","66ebc8c5e5b772065830754d","686d226cabeef709c732f8e1","686e3136b4e3453715f3a912","66ebc8c5e5b772065830754d","2025-07-09T09:50:18.329Z","","[0]","","","6","demographics","","","","","","","","","","","","","","","","","","","","","","","","","","","","","","","","","","","","","",""
"10280","","","{""mental_health_condition"":""no"",""mental_health_treatment"":""no"",""psychiatric_medication"":""no""}","survey-text","11","1787146","0.0-7.0-0.0","208","1","2025-07-09 09:20:40","7701e855f2ef39aa3fd6c71abdc6918a","87.123.247.159","Mozilla/5.0 (Windows NT 10.0; Win64; x64; rv:140.0) Gecko/20100101 Firefox/140.0","","Firefox","140.0","Windows","10.0","https://app.prolific.com/","de,en-US;q=0.7,en;q=0.3","66ebc8c5e5b772065830754d","686d226cabeef709c732f8e1","686e3136b4e3453715f3a912","66ebc8c5e5b772065830754d","2025-07-09T09:50:28.627Z","","","","","1","mental_health","","","","","","","","","","","","","","","","","","","","","","","","","","","","","","","","","","","","","",""
"3846","","","{""depression_history"":[""Yes""]}","survey-multi-select","12","1790994","0.0-7.0-1.0","208","1","2025-07-09 09:20:40","7701e855f2ef39aa3fd6c71abdc6918a","87.123.247.159","Mozilla/5.0 (Windows NT 10.0; Win64; x64; rv:140.0) Gecko/20100101 Firefox/140.0","","Firefox","140.0","Windows","10.0","https://app.prolific.com/","de,en-US;q=0.7,en;q=0.3","66ebc8c5e5b772065830754d","686d226cabeef709c732f8e1","686e3136b4e3453715f3a912","66ebc8c5e5b772065830754d","","","[0]","","","","mental_health","","","","","","","","","","","","","","","","","","","","","","","","","","","","","","","","","","","","","",""
"3884","","","{""depression_episodes"":""3-5"",""depression_recent"":""Within the past year""}","survey-multi-choice","13","1794879","0.0-7.0-2.0-0.0","208","1","2025-07-09 09:20:40","7701e855f2ef39aa3fd6c71abdc6918a","87.123.247.159","Mozilla/5.0 (Windows NT 10.0; Win64; x64; rv:140.0) Gecko/20100101 Firefox/140.0","","Firefox","140.0","Windows","10.0","https://app.prolific.com/","de,en-US;q=0.7,en;q=0.3","66ebc8c5e5b772065830754d","686d226cabeef709c732f8e1","686e3136b4e3453715f3a912","66ebc8c5e5b772065830754d","2025-07-09T09:50:36.359Z","","[0,1]","","","3","mental_health","","","","","","","","","","","","","","","","","","","","","","","","","","","","","","","","","","","","","",""
"31736","","","","survey-template","14","1826621","0.0-7.0-3.0","208","1","2025-07-09 09:20:40","7701e855f2ef39aa3fd6c71abdc6918a","87.123.247.159","Mozilla/5.0 (Windows NT 10.0; Win64; x64; rv:140.0) Gecko/20100101 Firefox/140.0","","Firefox","140.0","Windows","10.0","https://app.prolific.com/","de,en-US;q=0.7,en;q=0.3","66ebc8c5e5b772065830754d","686d226cabeef709c732f8e1","686e3136b4e3453715f3a912","66ebc8c5e5b772065830754d","2025-07-09T09:51:08.101Z","","","","","","ius","{""Q01"":""1"",""Q02"":""2"",""Q03"":""3"",""Q04"":""2"",""Q05"":""2"",""Q06"":""2"",""Q07"":""2"",""Q08"":""0"",""Q09"":""2"",""Q10"":""2"",""Q11"":""2"",""Q12"":""2"",""Q13"":""2""}","[0,1,2,3,4,5,6,7,8,9,10,11,12]","[""Q03"",""Q01"",""Q02"",""Q04"",""Q05"",""Q06"",""Q07"",""Q08"",""Q08"",""Q09"",""Q10"",""Q12"",""Q13"",""Q11""]","[9274,12071,12708,15303,16330,17763,18506,19579,21498,24484,25301,26314,28084,30948]","[]","[6348,8396,8877,9274,10235,10744,11178,11629,12071,12708,13450,14268,14636,15011,15303,15798,16001,16330,17763,18506,19579,21498,24484,25301,26314,28084,28961,29238,30948,31735]","0.7692307692307693","0.25","0","","","","","","","","","","","","","","","","","","","","","","","","","","","","",""
"1790","1752054669892","<p style='font-size:1.1em;line-height:1.25'>In the following, we will ask you a few questions relating to your experiences over the past month.<br></p><p style='font-size:1.1em;line-height:1.25'>Press the <strong>Next</strong> button to continue.</p>","0","custom-html-button-response","15","1828413","0.0-7.0-4.0","208","1","2025-07-09 09:20:40","7701e855f2ef39aa3fd6c71abdc6918a","87.123.247.159","Mozilla/5.0 (Windows NT 10.0; Win64; x64; rv:140.0) Gecko/20100101 Firefox/140.0","","Firefox","140.0","Windows","10.0","https://app.prolific.com/","de,en-US;q=0.7,en;q=0.3","66ebc8c5e5b772065830754d","686d226cabeef709c732f8e1","686e3136b4e3453715f3a912","66ebc8c5e5b772065830754d","2025-07-09T09:51:09.893Z","","","","","","","","","","","","","","","","","","","","","","","","","","","","","","","","","","","","","","","","","","","",""
"40454","","","","survey-template","16","1868870","0.0-7.0-5.0","208","1","2025-07-09 09:20:40","7701e855f2ef39aa3fd6c71abdc6918a","87.123.247.159","Mozilla/5.0 (Windows NT 10.0; Win64; x64; rv:140.0) Gecko/20100101 Firefox/140.0","","Firefox","140.0","Windows","10.0","https://app.prolific.com/","de,en-US;q=0.7,en;q=0.3","66ebc8c5e5b772065830754d","686d226cabeef709c732f8e1","686e3136b4e3453715f3a912","66ebc8c5e5b772065830754d","2025-07-09T09:51:50.350Z","","","","","","pss","{""Q01"":""1"",""Q02"":""2"",""Q03"":""2"",""Q04"":""1"",""Q05"":""2"",""Q06"":""1"",""Q07"":""2"",""Q08"":""2"",""Q09"":""3"",""Q10"":""2""}","[0,1,2,3,4,5,6,7,8,9]","[""Q01"",""Q02"",""Q03"",""Q04"",""Q05"",""Q06"",""Q08"",""Q07"",""Q09"",""Q10""]","[23644,24679,27410,28234,29299,31383,32562,33410,38592,39096]","[]","[0,21161,21724,22108,22511,23014,23329,23644,24326,24679,26247,26855,27410,27957,28234,28962,29299,31077,31383,31812,32179,32562,33088,33410,35112,35456,36325,37760,38278,38592,39096,40453]","0.6","0.7777777777777778","0","","","","","","","","","","","","","","","","","","","","","","","","","","","","",""
"1232","1752054711584","<p style='font-size:1.1em;line-height:1.25'>Thank you for your answers! Now we will ask you a few more questions relating to your feelings in the last 24 hours.<br></p><p style='font-size:1.1em;line-height:1.25'>Press the <strong>Next</strong> button to continue.</p>","0","custom-html-button-response","17","1870104","0.0-7.0-6.0","208","1","2025-07-09 09:20:40","7701e855f2ef39aa3fd6c71abdc6918a","87.123.247.159","Mozilla/5.0 (Windows NT 10.0; Win64; x64; rv:140.0) Gecko/20100101 Firefox/140.0","","Firefox","140.0","Windows","10.0","https://app.prolific.com/","de,en-US;q=0.7,en;q=0.3","66ebc8c5e5b772065830754d","686d226cabeef709c732f8e1","686e3136b4e3453715f3a912","66ebc8c5e5b772065830754d","2025-07-09T09:51:51.584Z","","","","","","","","","","","","","","","","","","","","","","","","","","","","","","","","","","","","","","","","","","","",""
"32780","","","","survey-template","18","1902890","0.0-7.0-7.0","208","1","2025-07-09 09:20:40","7701e855f2ef39aa3fd6c71abdc6918a","87.123.247.159","Mozilla/5.0 (Windows NT 10.0; Win64; x64; rv:140.0) Gecko/20100101 Firefox/140.0","","Firefox","140.0","Windows","10.0","https://app.prolific.com/","de,en-US;q=0.7,en;q=0.3","66ebc8c5e5b772065830754d","686d226cabeef709c732f8e1","686e3136b4e3453715f3a912","66ebc8c5e5b772065830754d","2025-07-09T09:52:24.370Z","","","","","","drsp","{""Q01"":""3"",""Q02"":""2"",""Q03"":""3"",""Q04"":""3"",""Q05"":""2"",""Q06"":""3"",""Q07"":""3"",""Q08"":""3"",""Q09"":""3"",""Q10"":""2"",""Q11"":""3"",""Q12"":""3"",""Q13"":""3"",""Q14"":""3"",""Q15"":""3"",""Q16"":""4"",""Q17"":""3"",""Q18"":""3"",""Q19"":""3"",""Q20"":""3"",""Q21"":""3""}","[0,1,2,3,4,5,6,7,8,9,10,11,12,13,14,15,16,17,18,19,20]","[""Q01"",""Q03"",""Q02"",""Q04"",""Q05"",""Q07"",""Q06"",""Q08"",""Q09"",""Q10"",""Q11"",""Q12"",""Q13"",""Q15"",""Q14"",""Q16"",""Q17"",""Q19"",""Q18"",""Q21"",""Q20""]","[2434,4311,5135,6546,7146,8532,9254,10565,13903,14337,18244,18672,20779,22431,22790,24433,25415,27913,28557,30710,32203]","[]","[0,1940,2434,3102,4040,4311,4873,5135,6546,7146,7730,8285,8532,8930,9254,10565,11121,12440,13212,13564,13903,14337,14855,15336,15666,16061,16986,17338,17728,18244,18672,19999,20526,20779,21298,22431,22790,24433,25415,26826,27492,27913,28557,29848,30148,30710,31213,32002,32203,32779]","0.8095238095238095","0.4","0","","","","","","","","","","","","","","","","","","","","","","","","","","","","",""
"58879","","","","survey-template","19","1961771","0.0-7.0-8.0","208","1","2025-07-09 09:20:40","7701e855f2ef39aa3fd6c71abdc6918a","87.123.247.159","Mozilla/5.0 (Windows NT 10.0; Win64; x64; rv:140.0) Gecko/20100101 Firefox/140.0","","Firefox","140.0","Windows","10.0","https://app.prolific.com/","de,en-US;q=0.7,en;q=0.3","66ebc8c5e5b772065830754d","686d226cabeef709c732f8e1","686e3136b4e3453715f3a912","66ebc8c5e5b772065830754d","2025-07-09T09:53:23.251Z","","","","","","stress","{""Q01"":""2"",""Q02"":""2"",""Q03"":""3""}","[0,1,2]","[""Q01"",""Q02"",""Q03""]","[54528,55181,57947]","[]","[53868,54153,54528,55181,55601,56981,57559,57947,58879]","0.6666666666666666","0.5","0","","","","","","","","","","","","","","","","","","","","","","","","","","","","",""
"39050","","","","instructions","20","2000822","0.0-8.0-0.0","208","1","2025-07-09 09:20:40","7701e855f2ef39aa3fd6c71abdc6918a","87.123.247.159","Mozilla/5.0 (Windows NT 10.0; Win64; x64; rv:140.0) Gecko/20100101 Firefox/140.0","","Firefox","140.0","Windows","10.0","https://app.prolific.com/","de,en-US;q=0.7,en;q=0.3","66ebc8c5e5b772065830754d","686d226cabeef709c732f8e1","686e3136b4e3453715f3a912","66ebc8c5e5b772065830754d","","[{""page_index"":0,""viewing_time"":10813},{""page_index"":1,""viewing_time"":8408},{""page_index"":2,""viewing_time"":10072},{""page_index"":3,""viewing_time"":9757}]","","","","","","","","","","","","","","","","","","","","","","","","","","","","","","","","","","","","","","","","","","",""
"","","","","ctl-task-cpt","21","2044392","0.0-8.0-1.0","208","1","2025-07-09 09:20:40","7701e855f2ef39aa3fd6c71abdc6918a","87.123.247.159","Mozilla/5.0 (Windows NT 10.0; Win64; x64; rv:140.0) Gecko/20100101 Firefox/140.0","","Firefox","140.0","Windows","10.0","https://app.prolific.com/","de,en-US;q=0.7,en;q=0.3","66ebc8c5e5b772065830754d","686d226cabeef709c732f8e1","686e3136b4e3453715f3a912","66ebc8c5e5b772065830754d","","","","","","","","","","","","","","","","","win-only","2","g1:SE,g2:NW","1","0","1","2002003","1785","5786","40561","2","4","4","6","1","2","1","1","0","0.007575757575757576","4001","4000","2660","[""down"",""right""]","{""num_key_presses"":7,""num_perfect"":6,""num_errors"":1,""num_randdir"":0,""num_randdir_good_moves"":0,""num_whilered"":0,""num_whileblue"":0,""num_blue"":4,""num_good_moves"":5}","[425.57142857142856,420.62142399379184,0,425.57142857142856,420.62142399379184,114,425.57142857142856,420.62142399379184,224,430.07142857142856,408.62142399379184,334,424.07142857142856,426.62142399379184,442,385.07142857142856,414.62142399379184,551,370.07142857142856,402.62142399379184,660,370.07142857142856,402.62142399379184,770,362.57142857142856,384.62142399379184,878,349.07142857142856,375.62142399379184,989,341.57142857142856,369.62142399379184,1096,341.57142857142856,369.62142399379184,1205,341.57142857142856,369.62142399379184,1313,341.57142857142856,369.62142399379184,1423,341.57142857142856,369.62142399379184,1532,341.57142857142856,369.62142399379184,1642,341.57142857142856,369.62142399379184,1751,341.57142857142856,369.62142399379184,1860,341.57142857142856,369.62142399379184,1970,341.57142857142856,369.62142399379184,2080,341.57142857142856,369.62142399379184,2189,173.57142857142856,234.62142399379184,2298,172.07142857142856,224.12142399379184,2406,466.07142857142856,531.6214239937918,2514,499.07142857142856,555.6214239937918,2622,502.07142857142856,513.6214239937918,2732,488.57142857142856,483.62142399379184,2842,488.57142857142856,483.62142399379184,2951,532.0714285714286,485.12142399379184,3062,538.0714285714286,489.62142399379184,3172,373.07142857142856,380.12142399379184,3281,364.07142857142856,365.12142399379184,3390,364.07142857142856,365.12142399379184,3501,362.57142857142856,365.12142399379184,3611,362.57142857142856,365.12142399379184,3721,362.57142857142856,365.12142399379184,3829,362.57142857142856,365.12142399379184,3937]","[2136,2136,2248.1,2030,-2142.1,""error"",""-"",""-"",""no_move"",6584,4447,2767.9,3153,663.1,""smooth"",""up"",""up"",""bad_move"",10248,3664,2306.7,6584,1357.3,""smooth"",""right"",""right"",""good_move"",13798,3550,2794.9,10248,755.1,""smooth"",""down"",""down"",""good_move"",24430,10632,2727.2,21175,527.8,""smooth"",""down"",""down"",""good_move"",30867,6437,2713,27743,411,""smooth"",""down"",""down"",""good_move"",34492,3625,2716.4,30867,908.6,""smooth"",""right"",""right"",""good_move""]","",""
"8234","","","","instructions","22","2052626","0.0-8.0-2.0","208","1","2025-07-09 09:20:40","7701e855f2ef39aa3fd6c71abdc6918a","87.123.247.159","Mozilla/5.0 (Windows NT 10.0; Win64; x64; rv:140.0) Gecko/20100101 Firefox/140.0","","Firefox","140.0","Windows","10.0","https://app.prolific.com/","de,en-US;q=0.7,en;q=0.3","66ebc8c5e5b772065830754d","686d226cabeef709c732f8e1","686e3136b4e3453715f3a912","66ebc8c5e5b772065830754d","","[{""page_index"":0,""viewing_time"":8234}]","","","","","","","","","","","","","","","","","","","","","","","","","","","","","","","","","","","","","","","","","","",""
"","","","","ctl-task-cpt","23","2132566","0.0-8.0-3.0","208","1","2025-07-09 09:20:40","7701e855f2ef39aa3fd6c71abdc6918a","87.123.247.159","Mozilla/5.0 (Windows NT 10.0; Win64; x64; rv:140.0) Gecko/20100101 Firefox/140.0","","Firefox","140.0","Windows","10.0","https://app.prolific.com/","de,en-US;q=0.7,en;q=0.3","66ebc8c5e5b772065830754d","686d226cabeef709c732f8e1","686e3136b4e3453715f3a912","66ebc8c5e5b772065830754d","","","","","","","","","","","","","","","","","win-only","2","g1:SE,g2:NW","0.35","0","3","2053806","2015","6019","76924","2","4","8","6","2","8","8","8","0","0.06060606060606061","3888","4000","1535","[""left"",""up""]","{""num_key_presses"":20,""num_perfect"":8,""num_errors"":0,""num_randdir"":12,""num_randdir_good_moves"":5,""num_whilered"":0,""num_whileblue"":0,""num_blue"":4,""num_good_moves"":13}","[415.07142857142856,405.62142399379184,0,415.07142857142856,405.62142399379184,111,451.07142857142856,441.62142399379184,221,451.07142857142856,441.62142399379184,331,451.07142857142856,441.62142399379184,443,451.07142857142856,441.62142399379184,550,451.07142857142856,441.62142399379184,661,451.07142857142856,441.62142399379184,771,451.07142857142856,441.62142399379184,881,451.07142857142856,441.62142399379184,989,451.07142857142856,441.62142399379184,1098,451.07142857142856,438.62142399379184,1206,451.07142857142856,420.62142399379184,1316,457.07142857142856,429.62142399379184,1426,470.57142857142856,449.12142399379184,1535,394.07142857142856,399.62142399379184,1643,379.07142857142856,380.12142399379184,1751,379.07142857142856,372.62142399379184,1860,239.57142857142856,180.62142399379184,1966,172.07142857142856,21.62142399379185,2076,185.57142857142856,15.62142399379185,2185,203.57142857142856,60.62142399379185,2296,208.07142857142856,66.62142399379185,2404,215.57142857142856,66.62142399379185,2512,215.57142857142856,66.62142399379185,2620,215.57142857142856,66.62142399379185,2729,244.07142857142856,77.12142399379185,2837,244.07142857142856,77.12142399379185,2946,244.07142857142856,77.12142399379185,3054,244.07142857142856,77.12142399379185,3163,244.07142857142856,77.12142399379185,3273,244.07142857142856,77.12142399379185,3382,244.07142857142856,77.12142399379185,3491,244.07142857142856,77.12142399379185,3601,215.57142857142856,83.12142399379185,3710,130.07142857142856,74.12142399379185,3819,113.57142857142857,80.12142399379185,3927]","[4048,4048,1417.6,2014,616.4,""oops"",""up"",""right"",""bad_move"",7519,3471,2707.4,4048,763.6,""oops"",""up"",""right"",""bad_move"",10219,2700,2289,7519,411,""oops"",""up"",""up"",""good_move"",13256,3037,2500.5,10219,536.5,""smooth"",""left"",""left"",""good_move"",16273,3017,2436.1,13256,580.9,""oops"",""up"",""left"",""good_move"",19262,2989,2186.9,16273,802.1,""oops"",""up"",""up"",""good_move"",22293,3030,2151.7,19263,878.3,""oops"",""up"",""down"",""bad_move"",25313,3020,2636.9,22293,383.1,""smooth"",""up"",""up"",""good_move"",28354,3041,2380.4,25313,660.6,""smooth"",""left"",""left"",""good_move"",31416,3062,2718.6,28354,343.4,""smooth"",""up"",""up"",""good_move"",34421,3005,2291.3,31416,713.7,""oops"",""left"",""right"",""bad_move"",37171,2750,2418.5,34421,331.5,""oops"",""left"",""down"",""bad_move"",39674,2502,2105.4,37172,396.6,""smooth"",""left"",""left"",""good_move"",45861,6187,2148.4,43326,386.6,""smooth"",""left"",""left"",""good_move"",49524,3663,3289.8,45861,373.2,""oops"",""up"",""down"",""bad_move"",52029,2505,2185.9,49524,319.1,""oops"",""up"",""down"",""bad_move"",54652,2623,2297.3,52029,325.7,""oops"",""up"",""up"",""good_move"",57638,2986,2597.9,54652,388.1,""smooth"",""up"",""up"",""good_move"",60821,3183,2813.5,57638,369.5,""smooth"",""up"",""up"",""good_move"",70635,9814,2858,67381,396,""oops"",""left"",""left"",""good_move""]","",""
"19448","","","","instructions","24","2152016","0.0-8.0-4.0","208","1","2025-07-09 09:20:40","7701e855f2ef39aa3fd6c71abdc6918a","87.123.247.159","Mozilla/5.0 (Windows NT 10.0; Win64; x64; rv:140.0) Gecko/20100101 Firefox/140.0","","Firefox","140.0","Windows","10.0","https://app.prolific.com/","de,en-US;q=0.7,en;q=0.3","66ebc8c5e5b772065830754d","686d226cabeef709c732f8e1","686e3136b4e3453715f3a912","66ebc8c5e5b772065830754d","","[{""page_index"":0,""viewing_time"":7187},{""page_index"":1,""viewing_time"":12261}]","","","","","","","","","","","","","","","","","","","","","","","","","","","","","","","","","","","","","","","","","","",""
"8534","","","{""green_ball"":[""Ball sometimes shakes and moves in a random direction""]}","survey-multi-select","25","2160553","0.0-8.0-5.0-0.0","208","1","2025-07-09 09:20:40","7701e855f2ef39aa3fd6c71abdc6918a","87.123.247.159","Mozilla/5.0 (Windows NT 10.0; Win64; x64; rv:140.0) Gecko/20100101 Firefox/140.0","","Firefox","140.0","Windows","10.0","https://app.prolific.com/","de,en-US;q=0.7,en;q=0.3","66ebc8c5e5b772065830754d","686d226cabeef709c732f8e1","686e3136b4e3453715f3a912","66ebc8c5e5b772065830754d","","","[0]","","","","quiz","","","","","","","","","","","","","","","","","","","","","","","","","","","","","","","","","","","","","true",""
"2031","","<p align='center'><b>CORRECT!</b> Indeed, the green ball may sometimes shake and move in a random direction.</p>","0","html-button-response","26","2162584","0.0-8.0-5.0-1.0","208","1","2025-07-09 09:20:40","7701e855f2ef39aa3fd6c71abdc6918a","87.123.247.159","Mozilla/5.0 (Windows NT 10.0; Win64; x64; rv:140.0) Gecko/20100101 Firefox/140.0","","Firefox","140.0","Windows","10.0","https://app.prolific.com/","de,en-US;q=0.7,en;q=0.3","66ebc8c5e5b772065830754d","686d226cabeef709c732f8e1","686e3136b4e3453715f3a912","66ebc8c5e5b772065830754d","","","","","","","","","","","","","","","","","","","","","","","","","","","","","","","","","","","","","","","","","","","","",""
"5319","","","{""yellow_ball"":[""Ball doesn‘t move and I get -1 penalty point""]}","survey-multi-select","27","2167904","0.0-8.0-6.0-0.0","208","1","2025-07-09 09:20:40","7701e855f2ef39aa3fd6c71abdc6918a","87.123.247.159","Mozilla/5.0 (Windows NT 10.0; Win64; x64; rv:140.0) Gecko/20100101 Firefox/140.0","","Firefox","140.0","Windows","10.0","https://app.prolific.com/","de,en-US;q=0.7,en;q=0.3","66ebc8c5e5b772065830754d","686d226cabeef709c732f8e1","686e3136b4e3453715f3a912","66ebc8c5e5b772065830754d","","","[0]","","","","quiz","","","","","","","","","","","","","","","","","","","","","","","","","","","","","","","","","","","","","true",""
"934","","<p align='center'><b>CORRECT!</b> Indeed, the yellow ball never moves and you receive a penalty.</p>","0","html-button-response","28","2168840","0.0-8.0-6.0-1.0","208","1","2025-07-09 09:20:40","7701e855f2ef39aa3fd6c71abdc6918a","87.123.247.159","Mozilla/5.0 (Windows NT 10.0; Win64; x64; rv:140.0) Gecko/20100101 Firefox/140.0","","Firefox","140.0","Windows","10.0","https://app.prolific.com/","de,en-US;q=0.7,en;q=0.3","66ebc8c5e5b772065830754d","686d226cabeef709c732f8e1","686e3136b4e3453715f3a912","66ebc8c5e5b772065830754d","","","","","","","","","","","","","","","","","","","","","","","","","","","","","","","","","","","","","","","","","","","","",""
"13176","","","{""blue_ball"":[""Ball always shakes and moves in a random direction""]}","survey-multi-select","29","2182017","0.0-8.0-7.0-0.0","208","1","2025-07-09 09:20:40","7701e855f2ef39aa3fd6c71abdc6918a","87.123.247.159","Mozilla/5.0 (Windows NT 10.0; Win64; x64; rv:140.0) Gecko/20100101 Firefox/140.0","","Firefox","140.0","Windows","10.0","https://app.prolific.com/","de,en-US;q=0.7,en;q=0.3","66ebc8c5e5b772065830754d","686d226cabeef709c732f8e1","686e3136b4e3453715f3a912","66ebc8c5e5b772065830754d","","","[0]","","","","quiz","","","","","","","","","","","","","","","","","","","","","","","","","","","","","","","","","","","","","true",""
"1956","","<p align='center'><b>CORRECT!</b> Indeed, the blue ball always shakes and moves in a random direction. Also there is a penalty of -1 point.</p>","0","html-button-response","30","2183975","0.0-8.0-7.0-1.0","208","1","2025-07-09 09:20:40","7701e855f2ef39aa3fd6c71abdc6918a","87.123.247.159","Mozilla/5.0 (Windows NT 10.0; Win64; x64; rv:140.0) Gecko/20100101 Firefox/140.0","","Firefox","140.0","Windows","10.0","https://app.prolific.com/","de,en-US;q=0.7,en;q=0.3","66ebc8c5e5b772065830754d","686d226cabeef709c732f8e1","686e3136b4e3453715f3a912","66ebc8c5e5b772065830754d","","","","","","","","","","","","","","","","","","","","","","","","","","","","","","","","","","","","","","","","","","","","",""
"4407","","","{""bonus"":[""When I reach 50% of points""]}","survey-multi-select","31","2188384","0.0-8.0-8.0-0.0","208","1","2025-07-09 09:20:40","7701e855f2ef39aa3fd6c71abdc6918a","87.123.247.159","Mozilla/5.0 (Windows NT 10.0; Win64; x64; rv:140.0) Gecko/20100101 Firefox/140.0","","Firefox","140.0","Windows","10.0","https://app.prolific.com/","de,en-US;q=0.7,en;q=0.3","66ebc8c5e5b772065830754d","686d226cabeef709c732f8e1","686e3136b4e3453715f3a912","66ebc8c5e5b772065830754d","","","[0]","","","","quiz","","","","","","","","","","","","","","","","","","","","","","","","","","","","","","","","","","","","","true",""
"2903","","<p align='center'><b>CORRECT!</b> Indeed, you receive 2 pounds extra when you reach 50% of points.</p>","0","html-button-response","32","2191289","0.0-8.0-8.0-1.0","208","1","2025-07-09 09:20:40","7701e855f2ef39aa3fd6c71abdc6918a","87.123.247.159","Mozilla/5.0 (Windows NT 10.0; Win64; x64; rv:140.0) Gecko/20100101 Firefox/140.0","","Firefox","140.0","Windows","10.0","https://app.prolific.com/","de,en-US;q=0.7,en;q=0.3","66ebc8c5e5b772065830754d","686d226cabeef709c732f8e1","686e3136b4e3453715f3a912","66ebc8c5e5b772065830754d","","","","","","","","","","","","","","","","","","","","","","","","","","","","","","","","","","","","","","","","","","","","",""
"1311","","","","instructions","33","2192600","0.0-8.0-9.0","208","1","2025-07-09 09:20:40","7701e855f2ef39aa3fd6c71abdc6918a","87.123.247.159","Mozilla/5.0 (Windows NT 10.0; Win64; x64; rv:140.0) Gecko/20100101 Firefox/140.0","","Firefox","140.0","Windows","10.0","https://app.prolific.com/","de,en-US;q=0.7,en;q=0.3","66ebc8c5e5b772065830754d","686d226cabeef709c732f8e1","686e3136b4e3453715f3a912","66ebc8c5e5b772065830754d","","[{""page_index"":0,""viewing_time"":1310}]","","","","","","","","","","","","","","","","","","","","","","","","","","","","","","","","","","","","","","","","","","",""
"6210","","<p>Before you start with this game please answer the following three questions yourself. </p>
  <p>Through this game, we measure several aspects of your cognitive performance, such as reaction times, multi-tasking capabilities </p>
  <p>and the ability to assess the situation you are in.</p>
  <p></p>
  <p><b>How good do you usually are in such tasks?</b></p>","64","html-slider-response","34","2198811","0.0-9.0-0.0","208","1","2025-07-09 09:20:40","7701e855f2ef39aa3fd6c71abdc6918a","87.123.247.159","Mozilla/5.0 (Windows NT 10.0; Win64; x64; rv:140.0) Gecko/20100101 Firefox/140.0","","Firefox","140.0","Windows","10.0","https://app.prolific.com/","de,en-US;q=0.7,en;q=0.3","66ebc8c5e5b772065830754d","686d226cabeef709c732f8e1","686e3136b4e3453715f3a912","66ebc8c5e5b772065830754d","2025-07-09T09:57:20.291Z","","","","","","PreSkillQ","","","","","","","","","","","","","","","","","","","","","","","","","","","","","","","","","","","","","","50"
"3179","","<div style=""width:500px;"">
  <p>How well do you think you will perform in this task compared to other participants?</p>
  </div>","55","html-slider-response","35","2201991","0.0-9.0-1.0","208","1","2025-07-09 09:20:40","7701e855f2ef39aa3fd6c71abdc6918a","87.123.247.159","Mozilla/5.0 (Windows NT 10.0; Win64; x64; rv:140.0) Gecko/20100101 Firefox/140.0","","Firefox","140.0","Windows","10.0","https://app.prolific.com/","de,en-US;q=0.7,en;q=0.3","66ebc8c5e5b772065830754d","686d226cabeef709c732f8e1","686e3136b4e3453715f3a912","66ebc8c5e5b772065830754d","2025-07-09T09:57:23.471Z","","","","","","PrePerfQ","","","","","","","","","","","","","","","","","","","","","","","","","","","","","","","","","","","","","","50"
"2541","","<div style=""width:500px;"">
  <p>What best describes how you currently feel?</p>
  </div>","59","html-slider-response","36","2204533","0.0-9.0-2.0","208","1","2025-07-09 09:20:40","7701e855f2ef39aa3fd6c71abdc6918a","87.123.247.159","Mozilla/5.0 (Windows NT 10.0; Win64; x64; rv:140.0) Gecko/20100101 Firefox/140.0","","Firefox","140.0","Windows","10.0","https://app.prolific.com/","de,en-US;q=0.7,en;q=0.3","66ebc8c5e5b772065830754d","686d226cabeef709c732f8e1","686e3136b4e3453715f3a912","66ebc8c5e5b772065830754d","2025-07-09T09:57:26.013Z","","","","","","PreMotivationQ","","","","","","","","","","","","","","","","","","","","","","","","","","","","","","","","","","","","","","50"
"","","","","ctl-task-cpt","37","2237984","0.0-10.0-0.0","208","1","2025-07-09 09:20:40","7701e855f2ef39aa3fd6c71abdc6918a","87.123.247.159","Mozilla/5.0 (Windows NT 10.0; Win64; x64; rv:140.0) Gecko/20100101 Firefox/140.0","","Firefox","140.0","Windows","10.0","https://app.prolific.com/","de,en-US;q=0.7,en;q=0.3","66ebc8c5e5b772065830754d","686d226cabeef709c732f8e1","686e3136b4e3453715f3a912","66ebc8c5e5b772065830754d","2025-07-09T09:57:59.464Z","","","","","","","","","","","","","","","","win-only","0","g1:NW,g2:SE","1","1","0","2205713","1445","6456","30441","1","4","4","6","2","4","4","4","0","0.030303030303030304","1589","3000","2190","[""down"",""right""]","{""num_key_presses"":6,""num_perfect"":6,""num_errors"":0,""num_randdir"":0,""num_randdir_good_moves"":0,""num_whilered"":0,""num_whileblue"":0,""num_blue"":2,""num_good_moves"":6}","[406.07142857142856,413.12142399379184,0,406.07142857142856,414.62142399379184,104,401.57142857142856,411.62142399379184,213,388.07142857142856,401.12142399379184,322,388.07142857142856,401.12142399379184,431,365.57142857142856,384.62142399379184,542,355.07142857142856,383.12142399379184,651,355.07142857142856,383.12142399379184,762,355.07142857142856,383.12142399379184,873,355.07142857142856,383.12142399379184,981,355.07142857142856,383.12142399379184,1090,464.57142857142856,509.12142399379184,1200,805.0714285714286,756.6214239937918,1309,814.0714285714286,759.6214239937918,1419,793.0714285714286,767.1214239937918,1529,779.5714285714286,770.1214239937918,1641,778.0714285714286,743.1214239937918,1753,778.0714285714286,743.1214239937918,1858,778.0714285714286,743.1214239937918,1968,778.0714285714286,743.1214239937918,2077,766.0714285714286,743.1214239937918,2186,766.0714285714286,743.1214239937918,2295,766.0714285714286,743.1214239937918,2405,766.0714285714286,743.1214239937918,2513,766.0714285714286,743.1214239937918,2622,766.0714285714286,743.1214239937918,2730,766.0714285714286,743.1214239937918,2842,766.0714285714286,743.1214239937918,2952,766.0714285714286,743.1214239937918,3060,766.0714285714286,743.1214239937918,3170,766.0714285714286,743.1214239937918,3278,766.0714285714286,743.1214239937918,3388,766.0714285714286,743.1214239937918,3498,766.0714285714286,743.1214239937918,3606,766.0714285714286,743.1214239937918,3717,766.0714285714286,743.1214239937918,3827,766.0714285714286,743.1214239937918,3936,766.0714285714286,743.1214239937918,4046,766.0714285714286,743.1214239937918,4155,766.0714285714286,743.1214239937918,4264,766.0714285714286,743.1214239937918,4373,766.0714285714286,743.1214239937918,4482,766.0714285714286,743.1214239937918,4590,766.0714285714286,743.1214239937918,4699,766.0714285714286,743.1214239937918,4808,766.0714285714286,743.1214239937918,4918]","[4646,4646,2213.4,2029,403.6,""smooth"",""down"",""down"",""good_move"",11933,7287,2635.3,8859,438.7,""smooth"",""right"",""right"",""good_move"",15066,3133,2602.3,11933,530.7,""smooth"",""down"",""down"",""good_move"",18406,3340,2870.3,15066,469.7,""smooth"",""right"",""right"",""good_move"",21034,2628,2228,18406,400,""smooth"",""down"",""down"",""good_move"",23695,2661,2280.3,21034,380.7,""smooth"",""right"",""right"",""good_move""]","",""
"3719","","<div style=""width:500px;"">
  <p>What determined the result of this run?</p>
  </div>","100","html-slider-response","38","2241704","0.0-10.0-1.0","208","1","2025-07-09 09:20:40","7701e855f2ef39aa3fd6c71abdc6918a","87.123.247.159","Mozilla/5.0 (Windows NT 10.0; Win64; x64; rv:140.0) Gecko/20100101 Firefox/140.0","","Firefox","140.0","Windows","10.0","https://app.prolific.com/","de,en-US;q=0.7,en;q=0.3","66ebc8c5e5b772065830754d","686d226cabeef709c732f8e1","686e3136b4e3453715f3a912","66ebc8c5e5b772065830754d","2025-07-09T09:58:03.184Z","","","","","","AttribQ","","","","","","","","","","","","","","","","","","","","","","","","","","","","","","","","","","","","","","50"
"2466","","<div style=""width:500px;"">
  <p>How much control did you have over the ball?</p>
  </div>","100","html-slider-response","39","2244172","0.0-10.0-2.0","208","1","2025-07-09 09:20:40","7701e855f2ef39aa3fd6c71abdc6918a","87.123.247.159","Mozilla/5.0 (Windows NT 10.0; Win64; x64; rv:140.0) Gecko/20100101 Firefox/140.0","","Firefox","140.0","Windows","10.0","https://app.prolific.com/","de,en-US;q=0.7,en;q=0.3","66ebc8c5e5b772065830754d","686d226cabeef709c732f8e1","686e3136b4e3453715f3a912","66ebc8c5e5b772065830754d","2025-07-09T09:58:05.652Z","","","","","","ControlQ","","","","","","","","","","","","","","","","","","","","","","","","","","","","","","","","","","","","","","50"
"2990","","<div style=""width:500px;"">
  <p>How would you describe your current emotional state?</p>
  </div>","16","html-slider-response","40","2247162","0.0-10.0-3.0","208","1","2025-07-09 09:20:40","7701e855f2ef39aa3fd6c71abdc6918a","87.123.247.159","Mozilla/5.0 (Windows NT 10.0; Win64; x64; rv:140.0) Gecko/20100101 Firefox/140.0","","Firefox","140.0","Windows","10.0","https://app.prolific.com/","de,en-US;q=0.7,en;q=0.3","66ebc8c5e5b772065830754d","686d226cabeef709c732f8e1","686e3136b4e3453715f3a912","66ebc8c5e5b772065830754d","2025-07-09T09:58:08.642Z","","","","","","StressQ","","","","","","","","","","","","","","","","","","","","","","","","","","","","","","","","","","","","","","50"
"2145","","<div style=""width:500px;"">
  <p>What best describes how you currently feel?</p>
  </div>","75","html-slider-response","41","2249309","0.0-10.0-4.0","208","1","2025-07-09 09:20:40","7701e855f2ef39aa3fd6c71abdc6918a","87.123.247.159","Mozilla/5.0 (Windows NT 10.0; Win64; x64; rv:140.0) Gecko/20100101 Firefox/140.0","","Firefox","140.0","Windows","10.0","https://app.prolific.com/","de,en-US;q=0.7,en;q=0.3","66ebc8c5e5b772065830754d","686d226cabeef709c732f8e1","686e3136b4e3453715f3a912","66ebc8c5e5b772065830754d","2025-07-09T09:58:10.789Z","","","","","","MotivationQ","","","","","","","","","","","","","","","","","","","","","","","","","","","","","","","","","","","","","","50"
"","","","","ctl-task-cpt","42","2278317","0.0-10.0-0.1","208","1","2025-07-09 09:20:40","7701e855f2ef39aa3fd6c71abdc6918a","87.123.247.159","Mozilla/5.0 (Windows NT 10.0; Win64; x64; rv:140.0) Gecko/20100101 Firefox/140.0","","Firefox","140.0","Windows","10.0","https://app.prolific.com/","de,en-US;q=0.7,en;q=0.3","66ebc8c5e5b772065830754d","686d226cabeef709c732f8e1","686e3136b4e3453715f3a912","66ebc8c5e5b772065830754d","2025-07-09T09:58:39.797Z","","","","","","","","","","","","","","","","win-only","3","g1:SW,g2:NE","0.9","2","0","2250488","1512","6520","26003","1","4","8","6","2","8","8","12","4","0.09090909090909091","4396","3000","2350","[""up"",""right""]","{""num_key_presses"":6,""num_perfect"":5,""num_errors"":0,""num_randdir"":1,""num_randdir_good_moves"":1,""num_whilered"":0,""num_whileblue"":0,""num_blue"":1,""num_good_moves"":6}","[412.07142857142856,411.62142399379184,0,412.07142857142856,411.62142399379184,106,392.57142857142856,405.62142399379184,214,154.07142857142856,273.62142399379184,323,154.07142857142856,273.62142399379184,434,154.07142857142856,273.62142399379184,544,154.07142857142856,273.62142399379184,654,154.07142857142856,273.62142399379184,764,154.07142857142856,273.62142399379184,874,154.07142857142856,273.62142399379184,987,154.07142857142856,273.62142399379184,1096,154.07142857142856,273.62142399379184,1206,154.07142857142856,273.62142399379184,1314,154.07142857142856,273.62142399379184,1426,154.07142857142856,273.62142399379184,1535,154.07142857142856,273.62142399379184,1644,154.07142857142856,273.62142399379184,1754,154.07142857142856,273.62142399379184,1864,154.07142857142856,273.62142399379184,1973,154.07142857142856,273.62142399379184,2082,154.07142857142856,273.62142399379184,2191,154.07142857142856,273.62142399379184,2299,154.07142857142856,273.62142399379184,2411,154.07142857142856,273.62142399379184,2520,154.07142857142856,273.62142399379184,2629,154.07142857142856,273.62142399379184,2739,154.07142857142856,273.62142399379184,2849,154.07142857142856,273.62142399379184,2959,154.07142857142856,273.62142399379184,3071,154.07142857142856,273.62142399379184,3180,154.07142857142856,273.62142399379184,3291,154.07142857142856,273.62142399379184,3399,154.07142857142856,273.62142399379184,3509,998.5714285714286,8.12142399379185,3617,1037.5714285714287,-15.87857600620815,3726,1088.5714285714287,-62.37857600620815,3834,925.0714285714286,-17.37857600620815,3942,874.0714285714286,33.62142399379185,4052,830.5714285714286,78.62142399379185,4162,776.5714285714286,101.12142399379185,4271,770.5714285714286,98.12142399379185,4380,769.0714285714286,98.12142399379185,4490,769.0714285714286,98.12142399379185,4601,763.0714285714286,111.62142399379185,4710,575.5714285714286,117.62142399379185,4819,562.0714285714286,113.12142399379185,4928]","[1373,1373,1000,0,373,""oops"",""up"",""up"",""good_move"",4685,3312,2921.1,1373,390.9,""smooth"",""right"",""right"",""good_move"",7168,2483,2112.3,4685,370.7,""smooth"",""up"",""up"",""good_move"",10149,2981,2044,7168,937,""smooth"",""right"",""right"",""good_move"",13352,3203,2861.2,10149,341.8,""smooth"",""up"",""up"",""good_move"",19196,5843,1865.6,16997,333.4,""smooth"",""right"",""right"",""good_move""]","",""
"2199","","<div style=""width:500px;"">
  <p>What determined the result of this run?</p>
  </div>","100","html-slider-response","43","2280516","0.0-10.0-1.1","208","1","2025-07-09 09:20:40","7701e855f2ef39aa3fd6c71abdc6918a","87.123.247.159","Mozilla/5.0 (Windows NT 10.0; Win64; x64; rv:140.0) Gecko/20100101 Firefox/140.0","","Firefox","140.0","Windows","10.0","https://app.prolific.com/","de,en-US;q=0.7,en;q=0.3","66ebc8c5e5b772065830754d","686d226cabeef709c732f8e1","686e3136b4e3453715f3a912","66ebc8c5e5b772065830754d","2025-07-09T09:58:41.997Z","","","","","","AttribQ","","","","","","","","","","","","","","","","","","","","","","","","","","","","","","","","","","","","","","50"
"1873","","<div style=""width:500px;"">
  <p>How much control did you have over the ball?</p>
  </div>","100","html-slider-response","44","2282392","0.0-10.0-2.1","208","1","2025-07-09 09:20:40","7701e855f2ef39aa3fd6c71abdc6918a","87.123.247.159","Mozilla/5.0 (Windows NT 10.0; Win64; x64; rv:140.0) Gecko/20100101 Firefox/140.0","","Firefox","140.0","Windows","10.0","https://app.prolific.com/","de,en-US;q=0.7,en;q=0.3","66ebc8c5e5b772065830754d","686d226cabeef709c732f8e1","686e3136b4e3453715f3a912","66ebc8c5e5b772065830754d","2025-07-09T09:58:43.872Z","","","","","","ControlQ","","","","","","","","","","","","","","","","","","","","","","","","","","","","","","","","","","","","","","50"
"2648","","<div style=""width:500px;"">
  <p>How would you describe your current emotional state?</p>
  </div>","44","html-slider-response","45","2285039","0.0-10.0-3.1","208","1","2025-07-09 09:20:40","7701e855f2ef39aa3fd6c71abdc6918a","87.123.247.159","Mozilla/5.0 (Windows NT 10.0; Win64; x64; rv:140.0) Gecko/20100101 Firefox/140.0","","Firefox","140.0","Windows","10.0","https://app.prolific.com/","de,en-US;q=0.7,en;q=0.3","66ebc8c5e5b772065830754d","686d226cabeef709c732f8e1","686e3136b4e3453715f3a912","66ebc8c5e5b772065830754d","2025-07-09T09:58:46.519Z","","","","","","StressQ","","","","","","","","","","","","","","","","","","","","","","","","","","","","","","","","","","","","","","50"
"1685","","<div style=""width:500px;"">
  <p>What best describes how you currently feel?</p>
  </div>","51","html-slider-response","46","2286726","0.0-10.0-4.1","208","1","2025-07-09 09:20:40","7701e855f2ef39aa3fd6c71abdc6918a","87.123.247.159","Mozilla/5.0 (Windows NT 10.0; Win64; x64; rv:140.0) Gecko/20100101 Firefox/140.0","","Firefox","140.0","Windows","10.0","https://app.prolific.com/","de,en-US;q=0.7,en;q=0.3","66ebc8c5e5b772065830754d","686d226cabeef709c732f8e1","686e3136b4e3453715f3a912","66ebc8c5e5b772065830754d","2025-07-09T09:58:48.206Z","","","","","","MotivationQ","","","","","","","","","","","","","","","","","","","","","","","","","","","","","","","","","","","","","","50"
"","","","","ctl-task-cpt","47","2320051","0.0-10.0-0.2","208","1","2025-07-09 09:20:40","7701e855f2ef39aa3fd6c71abdc6918a","87.123.247.159","Mozilla/5.0 (Windows NT 10.0; Win64; x64; rv:140.0) Gecko/20100101 Firefox/140.0","","Firefox","140.0","Windows","10.0","https://app.prolific.com/","de,en-US;q=0.7,en;q=0.3","66ebc8c5e5b772065830754d","686d226cabeef709c732f8e1","686e3136b4e3453715f3a912","66ebc8c5e5b772065830754d","2025-07-09T09:59:21.531Z","","","","","","","","","","","","","","","","win-only","1","g1:NE,g2:SW","0.8","3","0","2287906","1024","6034","30308","1","4","8","6","2","8","8","20","12","0.15151515151515152","939","3000","2125","[""down"",""left""]","{""num_key_presses"":8,""num_perfect"":6,""num_errors"":0,""num_randdir"":2,""num_randdir_good_moves"":1,""num_whilered"":0,""num_whileblue"":0,""num_blue"":1,""num_good_moves"":7}","[412.07142857142856,422.12142399379184,0,412.07142857142856,422.12142399379184,103,412.07142857142856,422.12142399379184,210,407.57142857142856,399.62142399379184,322,323.57142857142856,522.6214239937918,430,-19.92857142857143,803.1214239937918,539,-31.92857142857143,828.6214239937918,647,-28.92857142857143,836.1214239937918,756,46.07142857142857,789.6214239937918,864,59.57142857142857,771.6214239937918,975,59.57142857142857,770.1214239937918,1083,-39.42857142857143,744.6214239937918,1192,-39.42857142857143,744.6214239937918,1301,-25.92857142857143,735.6214239937918,1411,-25.92857142857143,735.6214239937918,1521,-25.92857142857143,735.6214239937918,1629,-25.92857142857143,735.6214239937918,1739,-25.92857142857143,735.6214239937918,1848,-25.92857142857143,735.6214239937918,1957,-25.92857142857143,735.6214239937918,2066,-25.92857142857143,735.6214239937918,2178,-25.92857142857143,735.6214239937918,2288,-25.92857142857143,735.6214239937918,2397,-25.92857142857143,735.6214239937918,2507,-25.92857142857143,735.6214239937918,2617,-25.92857142857143,735.6214239937918,2726,-25.92857142857143,735.6214239937918,2836,-25.92857142857143,735.6214239937918,2946,-25.92857142857143,735.6214239937918,3056,-25.92857142857143,735.6214239937918,3167,-25.92857142857143,735.6214239937918,3275,-25.92857142857143,735.6214239937918,3383,-25.92857142857143,735.6214239937918,3492,-25.92857142857143,735.6214239937918,3600,-25.92857142857143,735.6214239937918,3710,-25.92857142857143,735.6214239937918,3820,-25.92857142857143,735.6214239937918,3930,-25.92857142857143,735.6214239937918,4038,-25.92857142857143,735.6214239937918,4150,-25.92857142857143,735.6214239937918,4259,-25.92857142857143,735.6214239937918,4370,-25.92857142857143,735.6214239937918,4479,-25.92857142857143,735.6214239937918,4588,-25.92857142857143,735.6214239937918,4697,-25.92857142857143,735.6214239937918,4806,-25.92857142857143,735.6214239937918,4916]","[4720,4720,2356.2,2004,359.8,""smooth"",""left"",""left"",""good_move"",8182,3462,3073.1,4720,388.9,""oops"",""down"",""up"",""bad_move"",11189,3007,2278.6,8182,728.4,""oops"",""down"",""down"",""good_move"",13738,2549,2176.6,11189,372.4,""smooth"",""down"",""down"",""good_move"",16154,2416,2064.9,13738,351.1,""smooth"",""left"",""left"",""good_move"",19144,2990,2478.4,16154,511.6,""smooth"",""down"",""down"",""good_move"",21904,2759,2396.3,19145,362.7,""smooth"",""down"",""down"",""good_move"",23979,2075,1757.1,21904,317.9,""smooth"",""left"",""left"",""good_move""]","",""
"1099","","<div style=""width:500px;"">
  <p>What determined the result of this run?</p>
  </div>","81","html-slider-response","48","2321152","0.0-10.0-1.2","208","1","2025-07-09 09:20:40","7701e855f2ef39aa3fd6c71abdc6918a","87.123.247.159","Mozilla/5.0 (Windows NT 10.0; Win64; x64; rv:140.0) Gecko/20100101 Firefox/140.0","","Firefox","140.0","Windows","10.0","https://app.prolific.com/","de,en-US;q=0.7,en;q=0.3","66ebc8c5e5b772065830754d","686d226cabeef709c732f8e1","686e3136b4e3453715f3a912","66ebc8c5e5b772065830754d","2025-07-09T09:59:22.632Z","","","","","","AttribQ","","","","","","","","","","","","","","","","","","","","","","","","","","","","","","","","","","","","","","50"
"1312","","<div style=""width:500px;"">
  <p>How much control did you have over the ball?</p>
  </div>","85","html-slider-response","49","2322464","0.0-10.0-2.2","208","1","2025-07-09 09:20:40","7701e855f2ef39aa3fd6c71abdc6918a","87.123.247.159","Mozilla/5.0 (Windows NT 10.0; Win64; x64; rv:140.0) Gecko/20100101 Firefox/140.0","","Firefox","140.0","Windows","10.0","https://app.prolific.com/","de,en-US;q=0.7,en;q=0.3","66ebc8c5e5b772065830754d","686d226cabeef709c732f8e1","686e3136b4e3453715f3a912","66ebc8c5e5b772065830754d","2025-07-09T09:59:23.944Z","","","","","","ControlQ","","","","","","","","","","","","","","","","","","","","","","","","","","","","","","","","","","","","","","50"
"1829","","<div style=""width:500px;"">
  <p>How would you describe your current emotional state?</p>
  </div>","78","html-slider-response","50","2324295","0.0-10.0-3.2","208","1","2025-07-09 09:20:40","7701e855f2ef39aa3fd6c71abdc6918a","87.123.247.159","Mozilla/5.0 (Windows NT 10.0; Win64; x64; rv:140.0) Gecko/20100101 Firefox/140.0","","Firefox","140.0","Windows","10.0","https://app.prolific.com/","de,en-US;q=0.7,en;q=0.3","66ebc8c5e5b772065830754d","686d226cabeef709c732f8e1","686e3136b4e3453715f3a912","66ebc8c5e5b772065830754d","2025-07-09T09:59:25.775Z","","","","","","StressQ","","","","","","","","","","","","","","","","","","","","","","","","","","","","","","","","","","","","","","50"
"2172","","<div style=""width:500px;"">
  <p>What best describes how you currently feel?</p>
  </div>","65","html-slider-response","51","2326469","0.0-10.0-4.2","208","1","2025-07-09 09:20:40","7701e855f2ef39aa3fd6c71abdc6918a","87.123.247.159","Mozilla/5.0 (Windows NT 10.0; Win64; x64; rv:140.0) Gecko/20100101 Firefox/140.0","","Firefox","140.0","Windows","10.0","https://app.prolific.com/","de,en-US;q=0.7,en;q=0.3","66ebc8c5e5b772065830754d","686d226cabeef709c732f8e1","686e3136b4e3453715f3a912","66ebc8c5e5b772065830754d","2025-07-09T09:59:27.949Z","","","","","","MotivationQ","","","","","","","","","","","","","","","","","","","","","","","","","","","","","","","","","","","","","","50"
"","","","","ctl-task-cpt","52","2359162","0.0-10.0-0.3","208","1","2025-07-09 09:20:40","7701e855f2ef39aa3fd6c71abdc6918a","87.123.247.159","Mozilla/5.0 (Windows NT 10.0; Win64; x64; rv:140.0) Gecko/20100101 Firefox/140.0","","Firefox","140.0","Windows","10.0","https://app.prolific.com/","de,en-US;q=0.7,en;q=0.3","66ebc8c5e5b772065830754d","686d226cabeef709c732f8e1","686e3136b4e3453715f3a912","66ebc8c5e5b772065830754d","2025-07-09T10:00:00.642Z","","","","","","","","","","","","","","","","win-only","3","g1:SW,g2:NE","0.7","4","0","2327647","1709","6722","29680","1","4","4","6","2","4","4","24","20","0.18181818181818182","1178","3000","2325","[""up"",""right""]","{""num_key_presses"":6,""num_perfect"":6,""num_errors"":0,""num_randdir"":0,""num_randdir_good_moves"":0,""num_whilered"":0,""num_whileblue"":0,""num_blue"":2,""num_good_moves"":6}","[421.07142857142856,411.62142399379184,0,418.07142857142856,413.12142399379184,109,415.07142857142856,399.62142399379184,223,415.07142857142856,399.62142399379184,329,451.07142857142856,462.62142399379184,439,443.57142857142856,477.62142399379184,549,703.0714285714286,210.62142399379184,658,727.0714285714286,174.62142399379184,768,748.0714285714286,150.62142399379184,876,754.0714285714286,110.12142399379185,986,752.5714285714286,89.12142399379185,1094,751.0714285714286,83.12142399379185,1203,751.0714285714286,83.12142399379185,1314,577.0714285714286,182.12142399379184,1423,377.57142857142856,375.62142399379184,1532,352.07142857142856,431.12142399379184,1640,349.07142857142856,447.62142399379184,1750,347.57142857142856,491.12142399379184,1858,377.57142857142856,462.62142399379184,1968,490.07142857142856,360.62142399379184,2076,502.07142857142856,345.62142399379184,2189,502.07142857142856,345.62142399379184,2295,502.07142857142856,345.62142399379184,2403,506.57142857142856,344.12142399379184,2514,586.0714285714286,263.12142399379184,2622,608.5714285714286,233.12142399379184,2730,623.5714285714286,222.62142399379184,2839,628.0714285714286,219.62142399379184,2949,713.5714285714286,162.62142399379184,3058,757.0714285714286,117.62142399379185,3167,757.0714285714286,108.62142399379185,3278,757.0714285714286,108.62142399379185,3388,757.0714285714286,108.62142399379185,3497,757.0714285714286,108.62142399379185,3607,757.0714285714286,108.62142399379185,3716,757.0714285714286,108.62142399379185,3825,638.5714285714286,198.62142399379184,3933,568.0714285714286,273.62142399379184,4042,191.57142857142856,542.1214239937918,4150,163.07142857142856,554.1214239937918,4261,163.07142857142856,554.1214239937918,4370,163.07142857142856,554.1214239937918,4480,163.07142857142856,554.1214239937918,4591,163.07142857142856,554.1214239937918,4700,163.07142857142856,554.1214239937918,4809,163.07142857142856,554.1214239937918,4919]","[1389,1389,1000,0,389,""smooth"",""up"",""up"",""good_move"",4404,3015,1849.5,1389,1165.5,""smooth"",""right"",""right"",""good_move"",6878,2474,2157.3,4404,317.7,""smooth"",""up"",""up"",""good_move"",9853,2974,2624,6879,350,""smooth"",""right"",""right"",""good_move"",19141,9288,2234.3,16469,437.7,""smooth"",""up"",""up"",""good_move"",22680,3539,3159.4,19141,379.6,""smooth"",""right"",""right"",""good_move""]","",""
"2114","","<div style=""width:500px;"">
  <p>What determined the result of this run?</p>
  </div>","83","html-slider-response","53","2361278","0.0-10.0-1.3","208","1","2025-07-09 09:20:40","7701e855f2ef39aa3fd6c71abdc6918a","87.123.247.159","Mozilla/5.0 (Windows NT 10.0; Win64; x64; rv:140.0) Gecko/20100101 Firefox/140.0","","Firefox","140.0","Windows","10.0","https://app.prolific.com/","de,en-US;q=0.7,en;q=0.3","66ebc8c5e5b772065830754d","686d226cabeef709c732f8e1","686e3136b4e3453715f3a912","66ebc8c5e5b772065830754d","2025-07-09T10:00:02.758Z","","","","","","AttribQ","","","","","","","","","","","","","","","","","","","","","","","","","","","","","","","","","","","","","","50"
"1573","","<div style=""width:500px;"">
  <p>How much control did you have over the ball?</p>
  </div>","74","html-slider-response","54","2362852","0.0-10.0-2.3","208","1","2025-07-09 09:20:40","7701e855f2ef39aa3fd6c71abdc6918a","87.123.247.159","Mozilla/5.0 (Windows NT 10.0; Win64; x64; rv:140.0) Gecko/20100101 Firefox/140.0","","Firefox","140.0","Windows","10.0","https://app.prolific.com/","de,en-US;q=0.7,en;q=0.3","66ebc8c5e5b772065830754d","686d226cabeef709c732f8e1","686e3136b4e3453715f3a912","66ebc8c5e5b772065830754d","2025-07-09T10:00:04.332Z","","","","","","ControlQ","","","","","","","","","","","","","","","","","","","","","","","","","","","","","","","","","","","","","","50"
"1814","","<div style=""width:500px;"">
  <p>How would you describe your current emotional state?</p>
  </div>","71","html-slider-response","55","2364667","0.0-10.0-3.3","208","1","2025-07-09 09:20:40","7701e855f2ef39aa3fd6c71abdc6918a","87.123.247.159","Mozilla/5.0 (Windows NT 10.0; Win64; x64; rv:140.0) Gecko/20100101 Firefox/140.0","","Firefox","140.0","Windows","10.0","https://app.prolific.com/","de,en-US;q=0.7,en;q=0.3","66ebc8c5e5b772065830754d","686d226cabeef709c732f8e1","686e3136b4e3453715f3a912","66ebc8c5e5b772065830754d","2025-07-09T10:00:06.147Z","","","","","","StressQ","","","","","","","","","","","","","","","","","","","","","","","","","","","","","","","","","","","","","","50"
"1281","","<div style=""width:500px;"">
  <p>What best describes how you currently feel?</p>
  </div>","64","html-slider-response","56","2365949","0.0-10.0-4.3","208","1","2025-07-09 09:20:40","7701e855f2ef39aa3fd6c71abdc6918a","87.123.247.159","Mozilla/5.0 (Windows NT 10.0; Win64; x64; rv:140.0) Gecko/20100101 Firefox/140.0","","Firefox","140.0","Windows","10.0","https://app.prolific.com/","de,en-US;q=0.7,en;q=0.3","66ebc8c5e5b772065830754d","686d226cabeef709c732f8e1","686e3136b4e3453715f3a912","66ebc8c5e5b772065830754d","2025-07-09T10:00:07.429Z","","","","","","MotivationQ","","","","","","","","","","","","","","","","","","","","","","","","","","","","","","","","","","","","","","50"
"","","","","ctl-task-cpt","57","2416169","0.0-10.0-0.4","208","1","2025-07-09 09:20:40","7701e855f2ef39aa3fd6c71abdc6918a","87.123.247.159","Mozilla/5.0 (Windows NT 10.0; Win64; x64; rv:140.0) Gecko/20100101 Firefox/140.0","","Firefox","140.0","Windows","10.0","https://app.prolific.com/","de,en-US;q=0.7,en;q=0.3","66ebc8c5e5b772065830754d","686d226cabeef709c732f8e1","686e3136b4e3453715f3a912","66ebc8c5e5b772065830754d","2025-07-09T10:00:57.649Z","","","","","","","","","","","","","","","","win-only","2","g1:SE,g2:NW","0.6","5","0","2367129","1717","6732","47217","1","4","8","6","2","8","8","32","24","0.24242424242424243","801","3000","2040","[""left"",""up""]","{""num_key_presses"":8,""num_perfect"":6,""num_errors"":0,""num_randdir"":2,""num_randdir_good_moves"":1,""num_whilered"":0,""num_whileblue"":0,""num_blue"":5,""num_good_moves"":7}","[409.07142857142856,410.12142399379184,0,409.07142857142856,410.12142399379184,102,407.57142857142856,389.12142399379184,213,407.57142857142856,375.62142399379184,322,386.57142857142856,377.12142399379184,432,143.57142857142856,143.12142399379184,541,80.57142857142857,111.62142399379185,650,64.07142857142857,104.12142399379185,760,64.07142857142857,99.62142399379185,868,29.57142857142857,102.62142399379185,975,-543.4285714285714,60.62142399379185,1083,-543.4285714285714,51.62142399379185,1193,-543.4285714285714,54.62142399379185,1304,-543.4285714285714,54.62142399379185,1414,-543.4285714285714,54.62142399379185,1523,-543.4285714285714,54.62142399379185,1634,-543.4285714285714,54.62142399379185,1744,-543.4285714285714,54.62142399379185,1853,-543.4285714285714,54.62142399379185,1964,-543.4285714285714,54.62142399379185,2073,-543.4285714285714,54.62142399379185,2181,-543.4285714285714,54.62142399379185,2290,-543.4285714285714,54.62142399379185,2399,-543.4285714285714,54.62142399379185,2510,-543.4285714285714,54.62142399379185,2617,-543.4285714285714,54.62142399379185,2726,-543.4285714285714,54.62142399379185,2837,-543.4285714285714,54.62142399379185,2947,-543.4285714285714,54.62142399379185,3056,-543.4285714285714,54.62142399379185,3167,-543.4285714285714,54.62142399379185,3276,-543.4285714285714,54.62142399379185,3385,-543.4285714285714,54.62142399379185,3493,-543.4285714285714,54.62142399379185,3604,-543.4285714285714,54.62142399379185,3713,-543.4285714285714,54.62142399379185,3824,-543.4285714285714,54.62142399379185,3933,-543.4285714285714,54.62142399379185,4043,-543.4285714285714,54.62142399379185,4153,-543.4285714285714,54.62142399379185,4261,-543.4285714285714,54.62142399379185,4370,-543.4285714285714,54.62142399379185,4480,-543.4285714285714,54.62142399379185,4590,-543.4285714285714,54.62142399379185,4701,-543.4285714285714,54.62142399379185,4810,-543.4285714285714,54.62142399379185,4921]","[1382,1382,1000,0,382,""smooth"",""up"",""up"",""good_move"",4402,3020,2031.9,1382,988.1,""smooth"",""up"",""up"",""good_move"",11047,6645,2616,8048,383,""smooth"",""left"",""left"",""good_move"",14104,3057,1748.8,11047,1308.2,""smooth"",""left"",""left"",""good_move"",23945,9841,2292.5,21267,385.5,""oops"",""up"",""up"",""good_move"",30011,6066,2021.5,27605,384.5,""oops"",""left"",""down"",""bad_move"",32951,2939,2522.3,30012,416.7,""smooth"",""left"",""left"",""good_move"",40220,7269,2550.4,37257,412.6,""smooth"",""up"",""up"",""good_move""]","",""
"2237","","<div style=""width:500px;"">
  <p>What determined the result of this run?</p>
  </div>","69","html-slider-response","58","2418406","0.0-10.0-1.4","208","1","2025-07-09 09:20:40","7701e855f2ef39aa3fd6c71abdc6918a","87.123.247.159","Mozilla/5.0 (Windows NT 10.0; Win64; x64; rv:140.0) Gecko/20100101 Firefox/140.0","","Firefox","140.0","Windows","10.0","https://app.prolific.com/","de,en-US;q=0.7,en;q=0.3","66ebc8c5e5b772065830754d","686d226cabeef709c732f8e1","686e3136b4e3453715f3a912","66ebc8c5e5b772065830754d","2025-07-09T10:00:59.886Z","","","","","","AttribQ","","","","","","","","","","","","","","","","","","","","","","","","","","","","","","","","","","","","","","50"
"1566","","<div style=""width:500px;"">
  <p>How much control did you have over the ball?</p>
  </div>","68","html-slider-response","59","2419973","0.0-10.0-2.4","208","1","2025-07-09 09:20:40","7701e855f2ef39aa3fd6c71abdc6918a","87.123.247.159","Mozilla/5.0 (Windows NT 10.0; Win64; x64; rv:140.0) Gecko/20100101 Firefox/140.0","","Firefox","140.0","Windows","10.0","https://app.prolific.com/","de,en-US;q=0.7,en;q=0.3","66ebc8c5e5b772065830754d","686d226cabeef709c732f8e1","686e3136b4e3453715f3a912","66ebc8c5e5b772065830754d","2025-07-09T10:01:01.453Z","","","","","","ControlQ","","","","","","","","","","","","","","","","","","","","","","","","","","","","","","","","","","","","","","50"
"1468","","<div style=""width:500px;"">
  <p>How would you describe your current emotional state?</p>
  </div>","70","html-slider-response","60","2421441","0.0-10.0-3.4","208","1","2025-07-09 09:20:40","7701e855f2ef39aa3fd6c71abdc6918a","87.123.247.159","Mozilla/5.0 (Windows NT 10.0; Win64; x64; rv:140.0) Gecko/20100101 Firefox/140.0","","Firefox","140.0","Windows","10.0","https://app.prolific.com/","de,en-US;q=0.7,en;q=0.3","66ebc8c5e5b772065830754d","686d226cabeef709c732f8e1","686e3136b4e3453715f3a912","66ebc8c5e5b772065830754d","2025-07-09T10:01:02.921Z","","","","","","StressQ","","","","","","","","","","","","","","","","","","","","","","","","","","","","","","","","","","","","","","50"
"1575","","<div style=""width:500px;"">
  <p>What best describes how you currently feel?</p>
  </div>","62","html-slider-response","61","2423018","0.0-10.0-4.4","208","1","2025-07-09 09:20:40","7701e855f2ef39aa3fd6c71abdc6918a","87.123.247.159","Mozilla/5.0 (Windows NT 10.0; Win64; x64; rv:140.0) Gecko/20100101 Firefox/140.0","","Firefox","140.0","Windows","10.0","https://app.prolific.com/","de,en-US;q=0.7,en;q=0.3","66ebc8c5e5b772065830754d","686d226cabeef709c732f8e1","686e3136b4e3453715f3a912","66ebc8c5e5b772065830754d","2025-07-09T10:01:04.498Z","","","","","","MotivationQ","","","","","","","","","","","","","","","","","","","","","","","","","","","","","","","","","","","","","","50"
"","","","","ctl-task-cpt","62","2509423","0.0-10.0-0.5","208","1","2025-07-09 09:20:40","7701e855f2ef39aa3fd6c71abdc6918a","87.123.247.159","Mozilla/5.0 (Windows NT 10.0; Win64; x64; rv:140.0) Gecko/20100101 Firefox/140.0","","Firefox","140.0","Windows","10.0","https://app.prolific.com/","de,en-US;q=0.7,en;q=0.3","66ebc8c5e5b772065830754d","686d226cabeef709c732f8e1","686e3136b4e3453715f3a912","66ebc8c5e5b772065830754d","2025-07-09T10:02:30.903Z","","","","","","","","","","","","","","","","win-only","1","g1:NE,g2:SW","0.5","6","0","2424197","1806","6812","83390","1","4","4","6","2","4","2","34","32","0.25757575757575757","1274","3000","360","[""down"",""left""]","{""num_key_presses"":24,""num_perfect"":12,""num_errors"":2,""num_randdir"":10,""num_randdir_good_moves"":2,""num_whilered"":0,""num_whileblue"":0,""num_blue"":3,""num_good_moves"":14}","[409.07142857142856,411.62142399379184,0,409.07142857142856,411.62142399379184,101,445.07142857142856,411.62142399379184,211,542.5714285714286,435.62142399379184,319,553.0714285714286,434.12142399379184,429,535.0714285714286,414.62142399379184,539,503.57142857142856,395.12142399379184,646,500.57142857142856,387.62142399379184,755,493.07142857142856,378.62142399379184,864,145.07142857142856,632.1214239937918,973,20.57142857142857,786.6214239937918,1083,64.07142857142857,783.6214239937918,1192,68.57142857142857,782.1214239937918,1302,68.57142857142857,782.1214239937918,1409,-294.42857142857144,666.6214239937918,1517,-543.4285714285714,479.12142399379184,1627,-543.4285714285714,477.62142399379184,1737,-543.4285714285714,477.62142399379184,1845,-543.4285714285714,477.62142399379184,1956,-543.4285714285714,477.62142399379184,2065,-543.4285714285714,477.62142399379184,2181,-543.4285714285714,477.62142399379184,2286,-543.4285714285714,477.62142399379184,2397,-543.4285714285714,477.62142399379184,2506,-543.4285714285714,477.62142399379184,2615,-543.4285714285714,477.62142399379184,2726,-543.4285714285714,477.62142399379184,2834,-543.4285714285714,477.62142399379184,2943,-543.4285714285714,477.62142399379184,3052,-543.4285714285714,477.62142399379184,3163,-543.4285714285714,477.62142399379184,3273,-543.4285714285714,477.62142399379184,3382,-543.4285714285714,477.62142399379184,3492,-543.4285714285714,477.62142399379184,3602,-543.4285714285714,477.62142399379184,3711,-543.4285714285714,477.62142399379184,3820,-543.4285714285714,477.62142399379184,3930,-543.4285714285714,477.62142399379184,4038,-543.4285714285714,477.62142399379184,4146,-543.4285714285714,477.62142399379184,4254,-543.4285714285714,477.62142399379184,4364,-543.4285714285714,477.62142399379184,4473,-543.4285714285714,477.62142399379184,4582,-543.4285714285714,477.62142399379184,4692,-543.4285714285714,477.62142399379184,4803,-543.4285714285714,477.62142399379184,4913]","[1433,1433,1000,0,433,""smooth"",""down"",""down"",""good_move"",5279,3846,3440.4,1433,405.6,""smooth"",""left"",""left"",""good_move"",8289,3010,1712.4,5279,1297.6,""oops"",""down"",""up"",""bad_move"",11314,3025,2013.1,8289,1011.9,""smooth"",""down"",""down"",""good_move"",13168,1854,1470.4,11314,383.6,""smooth"",""down"",""down"",""good_move"",16089,2921,2514.7,13168,406.3,""smooth"",""left"",""left"",""good_move"",16887,798,2618.5,16089,-1820.5,""error"",""-"",""-"",""no_move"",21215,4327,2943.9,17893,378.1,""oops"",""down"",""right"",""bad_move"",24070,2855,2467.8,21215,387.2,""oops"",""left"",""up"",""bad_move"",27100,3030,2475.2,24070,554.8,""oops"",""left"",""right"",""bad_move"",28749,1649,1217.3,27100,431.7,""oops"",""left"",""right"",""bad_move"",35294,6545,2122.4,32785,386.6,""oops"",""left"",""up"",""bad_move"",38681,3387,2978.6,35294,408.4,""oops"",""left"",""up"",""bad_move"",41729,3048,2472.9,38681,575.1,""smooth"",""left"",""left"",""good_move"",48247,6518,2348,45365,534,""oops"",""up"",""left"",""good_move"",48457,210,1543.6,48247,-1333.6,""error"",""-"",""-"",""no_move"",52383,3926,2547.4,49468,367.6,""smooth"",""down"",""down"",""good_move"",54840,2457,2088,52383,369,""oops"",""down"",""up"",""bad_move"",62103,7263,3044,58669,390,""smooth"",""down"",""down"",""good_move"",65264,3161,2754.4,62103,406.6,""smooth"",""down"",""down"",""good_move"",67648,2383,2020.7,65265,363.3,""oops"",""down"",""left"",""good_move"",70639,2991,2089.2,67649,901.8,""smooth"",""down"",""down"",""good_move"",73317,2677,2321.5,70640,355.5,""smooth"",""left"",""left"",""good_move"",76292,2975,2604,73317,371,""smooth"",""down"",""down"",""good_move""]","",""
"2679","","<div style=""width:500px;"">
  <p>What determined the result of this run?</p>
  </div>","28","html-slider-response","63","2512105","0.0-10.0-1.5","208","1","2025-07-09 09:20:40","7701e855f2ef39aa3fd6c71abdc6918a","87.123.247.159","Mozilla/5.0 (Windows NT 10.0; Win64; x64; rv:140.0) Gecko/20100101 Firefox/140.0","","Firefox","140.0","Windows","10.0","https://app.prolific.com/","de,en-US;q=0.7,en;q=0.3","66ebc8c5e5b772065830754d","686d226cabeef709c732f8e1","686e3136b4e3453715f3a912","66ebc8c5e5b772065830754d","2025-07-09T10:02:33.585Z","","","","","","AttribQ","","","","","","","","","","","","","","","","","","","","","","","","","","","","","","","","","","","","","","50"
"2083","","<div style=""width:500px;"">
  <p>How much control did you have over the ball?</p>
  </div>","44","html-slider-response","64","2514189","0.0-10.0-2.5","208","1","2025-07-09 09:20:40","7701e855f2ef39aa3fd6c71abdc6918a","87.123.247.159","Mozilla/5.0 (Windows NT 10.0; Win64; x64; rv:140.0) Gecko/20100101 Firefox/140.0","","Firefox","140.0","Windows","10.0","https://app.prolific.com/","de,en-US;q=0.7,en;q=0.3","66ebc8c5e5b772065830754d","686d226cabeef709c732f8e1","686e3136b4e3453715f3a912","66ebc8c5e5b772065830754d","2025-07-09T10:02:35.669Z","","","","","","ControlQ","","","","","","","","","","","","","","","","","","","","","","","","","","","","","","","","","","","","","","50"
"1904","","<div style=""width:500px;"">
  <p>How would you describe your current emotional state?</p>
  </div>","96","html-slider-response","65","2516095","0.0-10.0-3.5","208","1","2025-07-09 09:20:40","7701e855f2ef39aa3fd6c71abdc6918a","87.123.247.159","Mozilla/5.0 (Windows NT 10.0; Win64; x64; rv:140.0) Gecko/20100101 Firefox/140.0","","Firefox","140.0","Windows","10.0","https://app.prolific.com/","de,en-US;q=0.7,en;q=0.3","66ebc8c5e5b772065830754d","686d226cabeef709c732f8e1","686e3136b4e3453715f3a912","66ebc8c5e5b772065830754d","2025-07-09T10:02:37.575Z","","","","","","StressQ","","","","","","","","","","","","","","","","","","","","","","","","","","","","","","","","","","","","","","50"
"2023","","<div style=""width:500px;"">
  <p>What best describes how you currently feel?</p>
  </div>","63","html-slider-response","66","2518119","0.0-10.0-4.5","208","1","2025-07-09 09:20:40","7701e855f2ef39aa3fd6c71abdc6918a","87.123.247.159","Mozilla/5.0 (Windows NT 10.0; Win64; x64; rv:140.0) Gecko/20100101 Firefox/140.0","","Firefox","140.0","Windows","10.0","https://app.prolific.com/","de,en-US;q=0.7,en;q=0.3","66ebc8c5e5b772065830754d","686d226cabeef709c732f8e1","686e3136b4e3453715f3a912","66ebc8c5e5b772065830754d","2025-07-09T10:02:39.599Z","","","","","","MotivationQ","","","","","","","","","","","","","","","","","","","","","","","","","","","","","","","","","","","","","","50"
"","","","","ctl-task-cpt","67","2571837","0.0-10.0-0.6","208","1","2025-07-09 09:20:40","7701e855f2ef39aa3fd6c71abdc6918a","87.123.247.159","Mozilla/5.0 (Windows NT 10.0; Win64; x64; rv:140.0) Gecko/20100101 Firefox/140.0","","Firefox","140.0","Windows","10.0","https://app.prolific.com/","de,en-US;q=0.7,en;q=0.3","66ebc8c5e5b772065830754d","686d226cabeef709c732f8e1","686e3136b4e3453715f3a912","66ebc8c5e5b772065830754d","2025-07-09T10:03:33.317Z","","","","","","","","","","","","","","","","win-only","1","g1:NE,g2:SW","0.4","7","0","2519298","1025","6039","50706","1","4","4","6","2","4","4","38","34","0.2878787878787879","878","3000","1740","[""down"",""left""]","{""num_key_presses"":10,""num_perfect"":4,""num_errors"":0,""num_randdir"":6,""num_randdir_good_moves"":4,""num_whilered"":0,""num_whileblue"":0,""num_blue"":5,""num_good_moves"":8}","[416.57142857142856,411.62142399379184,1,416.57142857142856,411.62142399379184,103,436.07142857142856,413.12142399379184,213,508.07142857142856,426.62142399379184,322,304.07142857142856,519.6214239937918,432,107.57142857142857,669.6214239937918,541,70.07142857142857,720.6214239937918,651,73.07142857142857,740.1214239937918,760,76.07142857142857,743.1214239937918,867,76.07142857142857,743.1214239937918,977,4.071428571428569,695.1214239937918,1087,4.071428571428569,695.1214239937918,1197,4.071428571428569,695.1214239937918,1306,4.071428571428569,695.1214239937918,1415,4.071428571428569,695.1214239937918,1523,4.071428571428569,695.1214239937918,1632,4.071428571428569,695.1214239937918,1742,4.071428571428569,695.1214239937918,1851,-0.4285714285714306,702.6214239937918,1960,-0.4285714285714306,702.6214239937918,2068,-0.4285714285714306,702.6214239937918,2180,-0.4285714285714306,702.6214239937918,2288,-0.4285714285714306,702.6214239937918,2399,-0.4285714285714306,702.6214239937918,2509,-0.4285714285714306,702.6214239937918,2617,-0.4285714285714306,702.6214239937918,2727,-0.4285714285714306,702.6214239937918,2837,-0.4285714285714306,702.6214239937918,2948,-0.4285714285714306,702.6214239937918,3057,-0.4285714285714306,702.6214239937918,3166,-0.4285714285714306,702.6214239937918,3275,-0.4285714285714306,702.6214239937918,3384,-0.4285714285714306,702.6214239937918,3494,-0.4285714285714306,702.6214239937918,3604,-0.4285714285714306,702.6214239937918,3716,-0.4285714285714306,702.6214239937918,3824,-0.4285714285714306,702.6214239937918,3933,-0.4285714285714306,702.6214239937918,4043,-0.4285714285714306,702.6214239937918,4151,-0.4285714285714306,702.6214239937918,4261,-0.4285714285714306,702.6214239937918,4368,-0.4285714285714306,702.6214239937918,4479,-0.4285714285714306,702.6214239937918,4590,-0.4285714285714306,702.6214239937918,4701,-0.4285714285714306,702.6214239937918,4811,-0.4285714285714306,702.6214239937918,4921]","[1397,1397,1000,0,397,""oops"",""left"",""up"",""bad_move"",4592,3195,2807.1,1397,387.9,""oops"",""down"",""left"",""good_move"",11267,6675,2652.6,8250,364.4,""oops"",""down"",""down"",""good_move"",18137,6870,2996,14767,374,""oops"",""down"",""right"",""bad_move"",21008,2871,2299.3,18137,571.7,""smooth"",""down"",""down"",""good_move"",23546,2538,2088.6,21008,449.4,""smooth"",""left"",""left"",""good_move"",29577,6031,1969.2,27213,394.8,""smooth"",""left"",""left"",""good_move"",35594,6017,1994.7,33230,369.3,""smooth"",""down"",""down"",""good_move"",41714,6120,2100.1,39238,375.9,""oops"",""down"",""down"",""good_move"",44392,2677,2245.7,41715,431.3,""oops"",""left"",""left"",""good_move""]","",""
"2950","","<div style=""width:500px;"">
  <p>What determined the result of this run?</p>
  </div>","70","html-slider-response","68","2574788","0.0-10.0-1.6","208","1","2025-07-09 09:20:40","7701e855f2ef39aa3fd6c71abdc6918a","87.123.247.159","Mozilla/5.0 (Windows NT 10.0; Win64; x64; rv:140.0) Gecko/20100101 Firefox/140.0","","Firefox","140.0","Windows","10.0","https://app.prolific.com/","de,en-US;q=0.7,en;q=0.3","66ebc8c5e5b772065830754d","686d226cabeef709c732f8e1","686e3136b4e3453715f3a912","66ebc8c5e5b772065830754d","2025-07-09T10:03:36.268Z","","","","","","AttribQ","","","","","","","","","","","","","","","","","","","","","","","","","","","","","","","","","","","","","","50"
"1328","","<div style=""width:500px;"">
  <p>How much control did you have over the ball?</p>
  </div>","73","html-slider-response","69","2576118","0.0-10.0-2.6","208","1","2025-07-09 09:20:40","7701e855f2ef39aa3fd6c71abdc6918a","87.123.247.159","Mozilla/5.0 (Windows NT 10.0; Win64; x64; rv:140.0) Gecko/20100101 Firefox/140.0","","Firefox","140.0","Windows","10.0","https://app.prolific.com/","de,en-US;q=0.7,en;q=0.3","66ebc8c5e5b772065830754d","686d226cabeef709c732f8e1","686e3136b4e3453715f3a912","66ebc8c5e5b772065830754d","2025-07-09T10:03:37.599Z","","","","","","ControlQ","","","","","","","","","","","","","","","","","","","","","","","","","","","","","","","","","","","","","","50"
"1460","","<div style=""width:500px;"">
  <p>How would you describe your current emotional state?</p>
  </div>","63","html-slider-response","70","2577580","0.0-10.0-3.6","208","1","2025-07-09 09:20:40","7701e855f2ef39aa3fd6c71abdc6918a","87.123.247.159","Mozilla/5.0 (Windows NT 10.0; Win64; x64; rv:140.0) Gecko/20100101 Firefox/140.0","","Firefox","140.0","Windows","10.0","https://app.prolific.com/","de,en-US;q=0.7,en;q=0.3","66ebc8c5e5b772065830754d","686d226cabeef709c732f8e1","686e3136b4e3453715f3a912","66ebc8c5e5b772065830754d","2025-07-09T10:03:39.060Z","","","","","","StressQ","","","","","","","","","","","","","","","","","","","","","","","","","","","","","","","","","","","","","","50"
"1506","","<div style=""width:500px;"">
  <p>What best describes how you currently feel?</p>
  </div>","63","html-slider-response","71","2579087","0.0-10.0-4.6","208","1","2025-07-09 09:20:40","7701e855f2ef39aa3fd6c71abdc6918a","87.123.247.159","Mozilla/5.0 (Windows NT 10.0; Win64; x64; rv:140.0) Gecko/20100101 Firefox/140.0","","Firefox","140.0","Windows","10.0","https://app.prolific.com/","de,en-US;q=0.7,en;q=0.3","66ebc8c5e5b772065830754d","686d226cabeef709c732f8e1","686e3136b4e3453715f3a912","66ebc8c5e5b772065830754d","2025-07-09T10:03:40.567Z","","","","","","MotivationQ","","","","","","","","","","","","","","","","","","","","","","","","","","","","","","","","","","","","","","50"
"","","","","ctl-task-cpt","72","2684252","0.0-10.0-0.7","208","1","2025-07-09 09:20:40","7701e855f2ef39aa3fd6c71abdc6918a","87.123.247.159","Mozilla/5.0 (Windows NT 10.0; Win64; x64; rv:140.0) Gecko/20100101 Firefox/140.0","","Firefox","140.0","Windows","10.0","https://app.prolific.com/","de,en-US;q=0.7,en;q=0.3","66ebc8c5e5b772065830754d","686d226cabeef709c732f8e1","686e3136b4e3453715f3a912","66ebc8c5e5b772065830754d","2025-07-09T10:05:25.732Z","","","","","","","","","","","","","","","","win-only","2","g1:SE,g2:NW","0.3","8","0","2580266","1400","6409","102160","1","4","8","6","2","8","8","46","38","0.3484848484848485","992","3000","150","[""left"",""up""]","{""num_key_presses"":24,""num_perfect"":9,""num_errors"":0,""num_randdir"":15,""num_randdir_good_moves"":6,""num_whilered"":0,""num_whileblue"":0,""num_blue"":7,""num_good_moves"":15}","[409.07142857142856,416.12142399379184,0,409.07142857142856,416.12142399379184,102,400.07142857142856,432.62142399379184,210,392.57142857142856,543.6214239937918,320,415.07142857142856,495.62142399379184,428,200.57142857142856,255.62142399379184,539,139.07142857142856,194.12142399379184,648,118.07142857142857,153.62142399379184,757,101.57142857142857,120.62142399379185,865,89.57142857142857,96.62142399379185,974,89.57142857142857,96.62142399379185,1085,80.57142857142857,165.62142399379184,1193,73.07142857142857,276.62142399379184,1302,73.07142857142857,276.62142399379184,1412,73.07142857142857,276.62142399379184,1522,73.07142857142857,276.62142399379184,1633,73.07142857142857,276.62142399379184,1742,73.07142857142857,276.62142399379184,1853,73.07142857142857,276.62142399379184,1962,73.07142857142857,276.62142399379184,2072,73.07142857142857,276.62142399379184,2182,73.07142857142857,276.62142399379184,2290,73.07142857142857,276.62142399379184,2399,73.07142857142857,276.62142399379184,2508,73.07142857142857,276.62142399379184,2619,73.07142857142857,276.62142399379184,2728,73.07142857142857,276.62142399379184,2837,73.07142857142857,276.62142399379184,2946,73.07142857142857,276.62142399379184,3053,73.07142857142857,276.62142399379184,3162,73.07142857142857,276.62142399379184,3272,73.07142857142857,276.62142399379184,3381,73.07142857142857,276.62142399379184,3491,73.07142857142857,276.62142399379184,3601,73.07142857142857,276.62142399379184,3709,73.07142857142857,276.62142399379184,3818,73.07142857142857,276.62142399379184,3928,73.07142857142857,276.62142399379184,4038,73.07142857142857,276.62142399379184,4147,73.07142857142857,276.62142399379184,4254,73.07142857142857,276.62142399379184,4366,73.07142857142857,276.62142399379184,4475,73.07142857142857,276.62142399379184,4585,73.07142857142857,276.62142399379184,4696,73.07142857142857,276.62142399379184,4805,73.07142857142857,276.62142399379184,4916]","[12740,12740,2277.6,9969,493.4,""oops"",""up"",""right"",""bad_move"",15779,3038,2563,12741,475,""smooth"",""up"",""up"",""good_move"",18806,3027,2282.7,15779,744.3,""oops"",""left"",""right"",""bad_move"",21715,2909,2527.3,18806,381.7,""smooth"",""up"",""up"",""good_move"",25501,3786,3348.8,21715,437.2,""smooth"",""left"",""left"",""good_move"",28557,3056,2084.5,25501,971.5,""oops"",""left"",""up"",""good_move"",31603,3046,2547.8,28557,498.2,""oops"",""left"",""right"",""bad_move"",34079,2476,2128.5,31603,347.5,""oops"",""left"",""left"",""good_move"",37075,2995,2076.4,34080,918.6,""oops"",""left"",""down"",""bad_move"",39327,2252,1841.4,37075,410.6,""oops"",""left"",""down"",""bad_move"",41945,2618,2269.6,39327,348.4,""oops"",""left"",""left"",""good_move"",48515,6570,2498.8,45619,397.2,""smooth"",""up"",""up"",""good_move"",51841,3326,2965.7,48515,360.3,""oops"",""left"",""up"",""good_move"",58526,6685,2607.1,55496,422.9,""oops"",""left"",""down"",""bad_move"",61773,3247,2844.4,58526,402.6,""oops"",""left"",""right"",""bad_move"",69302,7529,3038.5,65890,373.5,""smooth"",""left"",""left"",""good_move"",72357,3055,2292.8,69302,762.2,""smooth"",""left"",""left"",""good_move"",75358,3000,2578.1,72358,421.9,""oops"",""left"",""up"",""good_move"",78344,2986,2447,75358,539,""oops"",""left"",""right"",""bad_move"",80328,1984,1608.7,78344,375.3,""oops"",""left"",""down"",""bad_move"",83104,2776,2418.3,80328,357.7,""smooth"",""left"",""left"",""good_move"",89475,6371,2328.7,86763,383.3,""oops"",""left"",""up"",""good_move"",92466,2991,2397.4,89475,593.6,""smooth"",""left"",""left"",""good_move"",95466,3000,2134.7,92466,865.3,""smooth"",""left"",""left"",""good_move""]","",""
"3055","","<div style=""width:500px;"">
  <p>What determined the result of this run?</p>
  </div>","14","html-slider-response","73","2687307","0.0-10.0-1.7","208","1","2025-07-09 09:20:40","7701e855f2ef39aa3fd6c71abdc6918a","87.123.247.159","Mozilla/5.0 (Windows NT 10.0; Win64; x64; rv:140.0) Gecko/20100101 Firefox/140.0","","Firefox","140.0","Windows","10.0","https://app.prolific.com/","de,en-US;q=0.7,en;q=0.3","66ebc8c5e5b772065830754d","686d226cabeef709c732f8e1","686e3136b4e3453715f3a912","66ebc8c5e5b772065830754d","2025-07-09T10:05:28.787Z","","","","","","AttribQ","","","","","","","","","","","","","","","","","","","","","","","","","","","","","","","","","","","","","","50"
"1865","","<div style=""width:500px;"">
  <p>How much control did you have over the ball?</p>
  </div>","19","html-slider-response","74","2689174","0.0-10.0-2.7","208","1","2025-07-09 09:20:40","7701e855f2ef39aa3fd6c71abdc6918a","87.123.247.159","Mozilla/5.0 (Windows NT 10.0; Win64; x64; rv:140.0) Gecko/20100101 Firefox/140.0","","Firefox","140.0","Windows","10.0","https://app.prolific.com/","de,en-US;q=0.7,en;q=0.3","66ebc8c5e5b772065830754d","686d226cabeef709c732f8e1","686e3136b4e3453715f3a912","66ebc8c5e5b772065830754d","2025-07-09T10:05:30.654Z","","","","","","ControlQ","","","","","","","","","","","","","","","","","","","","","","","","","","","","","","","","","","","","","","50"
"2419","","<div style=""width:500px;"">
  <p>How would you describe your current emotional state?</p>
  </div>","72","html-slider-response","75","2691596","0.0-10.0-3.7","208","1","2025-07-09 09:20:40","7701e855f2ef39aa3fd6c71abdc6918a","87.123.247.159","Mozilla/5.0 (Windows NT 10.0; Win64; x64; rv:140.0) Gecko/20100101 Firefox/140.0","","Firefox","140.0","Windows","10.0","https://app.prolific.com/","de,en-US;q=0.7,en;q=0.3","66ebc8c5e5b772065830754d","686d226cabeef709c732f8e1","686e3136b4e3453715f3a912","66ebc8c5e5b772065830754d","2025-07-09T10:05:33.076Z","","","","","","StressQ","","","","","","","","","","","","","","","","","","","","","","","","","","","","","","","","","","","","","","50"
"1417","","<div style=""width:500px;"">
  <p>What best describes how you currently feel?</p>
  </div>","66","html-slider-response","76","2693015","0.0-10.0-4.7","208","1","2025-07-09 09:20:40","7701e855f2ef39aa3fd6c71abdc6918a","87.123.247.159","Mozilla/5.0 (Windows NT 10.0; Win64; x64; rv:140.0) Gecko/20100101 Firefox/140.0","","Firefox","140.0","Windows","10.0","https://app.prolific.com/","de,en-US;q=0.7,en;q=0.3","66ebc8c5e5b772065830754d","686d226cabeef709c732f8e1","686e3136b4e3453715f3a912","66ebc8c5e5b772065830754d","2025-07-09T10:05:34.495Z","","","","","","MotivationQ","","","","","","","","","","","","","","","","","","","","","","","","","","","","","","","","","","","","","","50"
"","","","","ctl-task-cpt","77","2792511","0.0-10.0-0.8","208","1","2025-07-09 09:20:40","7701e855f2ef39aa3fd6c71abdc6918a","87.123.247.159","Mozilla/5.0 (Windows NT 10.0; Win64; x64; rv:140.0) Gecko/20100101 Firefox/140.0","","Firefox","140.0","Windows","10.0","https://app.prolific.com/","de,en-US;q=0.7,en;q=0.3","66ebc8c5e5b772065830754d","686d226cabeef709c732f8e1","686e3136b4e3453715f3a912","66ebc8c5e5b772065830754d","2025-07-09T10:07:13.991Z","","","","","","","","","","","","","","","","win-only","3","g1:SW,g2:NE","0.2","9","0","2694195","2659","7669","96489","1","4","8","6","2","-8","-8","38","46","0.2878787878787879","1237","3000","-960","[""up"",""right""]","{""num_key_presses"":23,""num_perfect"":5,""num_errors"":0,""num_randdir"":18,""num_randdir_good_moves"":8,""num_whilered"":0,""num_whileblue"":0,""num_blue"":5,""num_good_moves"":13}","[415.07142857142856,414.62142399379184,0,415.07142857142856,414.62142399379184,110,418.07142857142856,411.62142399379184,218,418.07142857142856,411.62142399379184,329,418.07142857142856,411.62142399379184,439,604.0714285714286,354.62142399379184,547,703.0714285714286,272.12142399379184,655,703.0714285714286,272.12142399379184,765,767.5714285714286,210.62142399379184,874,803.5714285714286,132.62142399379184,983,800.5714285714286,111.62142399379185,1092,781.0714285714286,78.62142399379185,1200,776.5714285714286,72.62142399379185,1311,580.0714285714286,132.62142399379184,1419,-262.92857142857144,191.12142399379184,1528,-274.92857142857144,188.12142399379184,1638,-274.92857142857144,188.12142399379184,1749,-274.92857142857144,188.12142399379184,1857,-274.92857142857144,188.12142399379184,1967,-274.92857142857144,188.12142399379184,2077,-274.92857142857144,188.12142399379184,2188,-274.92857142857144,188.12142399379184,2296,-274.92857142857144,188.12142399379184,2407,-274.92857142857144,188.12142399379184,2517,-274.92857142857144,188.12142399379184,2627,-274.92857142857144,188.12142399379184,2737,-274.92857142857144,188.12142399379184,2845,-274.92857142857144,188.12142399379184,2956,-274.92857142857144,188.12142399379184,3064,-274.92857142857144,188.12142399379184,3173,-274.92857142857144,188.12142399379184,3284,-274.92857142857144,188.12142399379184,3394,-274.92857142857144,188.12142399379184,3504,-274.92857142857144,188.12142399379184,3615,-274.92857142857144,188.12142399379184,3724,-274.92857142857144,188.12142399379184,3835,-274.92857142857144,188.12142399379184,3945,-274.92857142857144,188.12142399379184,4055,-274.92857142857144,188.12142399379184,4163,-274.92857142857144,188.12142399379184,4273,-274.92857142857144,188.12142399379184,4384,-274.92857142857144,188.12142399379184,4494,-274.92857142857144,188.12142399379184,4603,-274.92857142857144,188.12142399379184,4713,-274.92857142857144,188.12142399379184,4823,-274.92857142857144,188.12142399379184,4931]","[1507,1507,1000,0,507,""oops"",""up"",""right"",""good_move"",8101,6594,2934,4756,411,""oops"",""up"",""right"",""good_move"",10237,2136,1308.1,8101,827.9,""smooth"",""up"",""up"",""good_move"",13298,3061,2534.9,10237,526.1,""smooth"",""up"",""up"",""good_move"",16323,3025,2301,13298,724,""oops"",""up"",""down"",""bad_move"",18676,2353,1954.1,16323,398.9,""oops"",""up"",""left"",""bad_move"",21701,3025,2445.9,18676,579.1,""oops"",""up"",""up"",""good_move"",25145,3444,3106.6,21701,337.4,""oops"",""right"",""left"",""bad_move"",28205,3060,2598.4,25145,461.6,""oops"",""right"",""down"",""bad_move"",30532,2327,1909,28205,418,""oops"",""up"",""up"",""good_move"",33773,3241,2883.5,30532,357.5,""smooth"",""right"",""right"",""good_move"",37368,3595,3175,33773,420,""smooth"",""right"",""right"",""good_move"",40363,2995,2676.4,37368,318.6,""oops"",""right"",""up"",""good_move"",43354,2991,1966.5,40363,1024.5,""oops"",""right"",""down"",""bad_move"",46746,3392,3008.7,43354,383.3,""oops"",""right"",""down"",""bad_move"",53627,6882,2030.5,51156,441.5,""oops"",""up"",""down"",""bad_move"",56611,2983,2582.9,53628,401.1,""oops"",""up"",""up"",""good_move"",67199,10587,1972.5,64794,432.5,""oops"",""up"",""right"",""good_move"",73795,6595,2267.9,70970,557.1,""oops"",""up"",""up"",""good_move"",76826,3031,2484.2,73795,546.8,""oops"",""up"",""down"",""bad_move"",79717,2890,2538.6,76827,351.4,""oops"",""up"",""left"",""bad_move"",83018,3301,2918.1,79717,382.9,""smooth"",""up"",""up"",""good_move"",86030,3012,2620.5,83018,391.5,""oops"",""up"",""left"",""bad_move""]","",""
"4183","","<div style=""width:500px;"">
  <p>What determined the result of this run?</p>
  </div>","0","html-slider-response","78","2796696","0.0-10.0-1.8","208","1","2025-07-09 09:20:40","7701e855f2ef39aa3fd6c71abdc6918a","87.123.247.159","Mozilla/5.0 (Windows NT 10.0; Win64; x64; rv:140.0) Gecko/20100101 Firefox/140.0","","Firefox","140.0","Windows","10.0","https://app.prolific.com/","de,en-US;q=0.7,en;q=0.3","66ebc8c5e5b772065830754d","686d226cabeef709c732f8e1","686e3136b4e3453715f3a912","66ebc8c5e5b772065830754d","2025-07-09T10:07:18.176Z","","","","","","AttribQ","","","","","","","","","","","","","","","","","","","","","","","","","","","","","","","","","","","","","","50"
"2010","","<div style=""width:500px;"">
  <p>How much control did you have over the ball?</p>
  </div>","0","html-slider-response","79","2798708","0.0-10.0-2.8","208","1","2025-07-09 09:20:40","7701e855f2ef39aa3fd6c71abdc6918a","87.123.247.159","Mozilla/5.0 (Windows NT 10.0; Win64; x64; rv:140.0) Gecko/20100101 Firefox/140.0","","Firefox","140.0","Windows","10.0","https://app.prolific.com/","de,en-US;q=0.7,en;q=0.3","66ebc8c5e5b772065830754d","686d226cabeef709c732f8e1","686e3136b4e3453715f3a912","66ebc8c5e5b772065830754d","2025-07-09T10:07:20.188Z","","","","","","ControlQ","","","","","","","","","","","","","","","","","","","","","","","","","","","","","","","","","","","","","","50"
"2317","","<div style=""width:500px;"">
  <p>How would you describe your current emotional state?</p>
  </div>","81","html-slider-response","80","2801025","0.0-10.0-3.8","208","1","2025-07-09 09:20:40","7701e855f2ef39aa3fd6c71abdc6918a","87.123.247.159","Mozilla/5.0 (Windows NT 10.0; Win64; x64; rv:140.0) Gecko/20100101 Firefox/140.0","","Firefox","140.0","Windows","10.0","https://app.prolific.com/","de,en-US;q=0.7,en;q=0.3","66ebc8c5e5b772065830754d","686d226cabeef709c732f8e1","686e3136b4e3453715f3a912","66ebc8c5e5b772065830754d","2025-07-09T10:07:22.505Z","","","","","","StressQ","","","","","","","","","","","","","","","","","","","","","","","","","","","","","","","","","","","","","","50"
"2126","","<div style=""width:500px;"">
  <p>What best describes how you currently feel?</p>
  </div>","62","html-slider-response","81","2803153","0.0-10.0-4.8","208","1","2025-07-09 09:20:40","7701e855f2ef39aa3fd6c71abdc6918a","87.123.247.159","Mozilla/5.0 (Windows NT 10.0; Win64; x64; rv:140.0) Gecko/20100101 Firefox/140.0","","Firefox","140.0","Windows","10.0","https://app.prolific.com/","de,en-US;q=0.7,en;q=0.3","66ebc8c5e5b772065830754d","686d226cabeef709c732f8e1","686e3136b4e3453715f3a912","66ebc8c5e5b772065830754d","2025-07-09T10:07:24.633Z","","","","","","MotivationQ","","","","","","","","","","","","","","","","","","","","","","","","","","","","","","","","","","","","","","50"
"","","","","ctl-task-cpt","82","2873349","0.0-10.0-0.9","208","1","2025-07-09 09:20:40","7701e855f2ef39aa3fd6c71abdc6918a","87.123.247.159","Mozilla/5.0 (Windows NT 10.0; Win64; x64; rv:140.0) Gecko/20100101 Firefox/140.0","","Firefox","140.0","Windows","10.0","https://app.prolific.com/","de,en-US;q=0.7,en;q=0.3","66ebc8c5e5b772065830754d","686d226cabeef709c732f8e1","686e3136b4e3453715f3a912","66ebc8c5e5b772065830754d","2025-07-09T10:08:34.829Z","","","","","","","","","","","","","","","","win-only","3","g1:SW,g2:NE","0.4","10","0","2804334","1587","6601","67180","1","4","4","6","2","4","4","42","38","0.3181818181818182","923","3000","1400","[""up"",""right""]","{""num_key_presses"":14,""num_perfect"":8,""num_errors"":0,""num_randdir"":6,""num_randdir_good_moves"":2,""num_whilered"":0,""num_whileblue"":0,""num_blue"":5,""num_good_moves"":10}","[412.07142857142856,413.12142399379184,0,412.07142857142856,413.12142399379184,105,400.07142857142856,426.62142399379184,214,355.07142857142856,480.62142399379184,323,521.5714285714286,359.12142399379184,431,517.0714285714286,341.12142399379184,542,730.0714285714286,101.12142399379185,650,748.0714285714286,72.62142399379185,760,748.0714285714286,72.62142399379185,870,748.0714285714286,72.62142399379185,979,739.0714285714286,86.12142399379185,1088,-105.42857142857143,234.62142399379184,1196,-543.4285714285714,252.62142399379184,1304,-543.4285714285714,252.62142399379184,1413,-543.4285714285714,252.62142399379184,1522,-543.4285714285714,252.62142399379184,1632,-543.4285714285714,252.62142399379184,1742,-543.4285714285714,252.62142399379184,1849,-543.4285714285714,252.62142399379184,1959,-543.4285714285714,252.62142399379184,2069,-543.4285714285714,252.62142399379184,2178,-543.4285714285714,252.62142399379184,2287,-543.4285714285714,252.62142399379184,2397,-543.4285714285714,252.62142399379184,2506,-543.4285714285714,252.62142399379184,2616,-543.4285714285714,252.62142399379184,2726,-543.4285714285714,252.62142399379184,2835,-543.4285714285714,252.62142399379184,2947,-543.4285714285714,252.62142399379184,3056,-543.4285714285714,252.62142399379184,3166,-543.4285714285714,252.62142399379184,3276,-543.4285714285714,252.62142399379184,3386,-543.4285714285714,252.62142399379184,3495,-543.4285714285714,252.62142399379184,3605,-543.4285714285714,252.62142399379184,3714,-543.4285714285714,252.62142399379184,3823,-543.4285714285714,252.62142399379184,3934,-543.4285714285714,252.62142399379184,4044,-543.4285714285714,252.62142399379184,4152,-543.4285714285714,252.62142399379184,4262,-543.4285714285714,252.62142399379184,4372,-543.4285714285714,252.62142399379184,4481,-543.4285714285714,252.62142399379184,4593,-543.4285714285714,252.62142399379184,4702,-543.4285714285714,252.62142399379184,4811,-543.4285714285714,252.62142399379184,4921]","[5083,5083,2745.9,2006,331.1,""smooth"",""up"",""up"",""good_move"",8119,3036,2484,5083,552,""smooth"",""right"",""right"",""good_move"",11491,3372,2994.9,8119,377.1,""smooth"",""up"",""up"",""good_move"",18668,7177,2831.8,15445,391.2,""smooth"",""right"",""right"",""good_move"",21470,2802,2384.7,18668,417.3,""oops"",""up"",""down"",""bad_move"",24719,3249,2890.3,21470,358.7,""oops"",""up"",""left"",""bad_move"",28001,3281,2932.2,24720,348.8,""oops"",""up"",""up"",""good_move"",38350,10349,2419.2,35496,434.8,""oops"",""right"",""up"",""good_move"",41522,3171,2794.8,38351,376.2,""oops"",""right"",""down"",""bad_move"",44291,2769,2410.8,41522,358.2,""oops"",""right"",""down"",""bad_move"",46629,2338,1984,44291,354,""smooth"",""right"",""right"",""good_move"",54293,7664,3148,50766,379,""smooth"",""up"",""up"",""good_move"",57328,3035,2023.5,54293,1011.5,""smooth"",""up"",""up"",""good_move"",60294,2966,2343.5,57328,622.5,""smooth"",""right"",""right"",""good_move""]","",""
"2180","","<div style=""width:500px;"">
  <p>What determined the result of this run?</p>
  </div>","64","html-slider-response","83","2875537","0.0-10.0-1.9","208","1","2025-07-09 09:20:40","7701e855f2ef39aa3fd6c71abdc6918a","87.123.247.159","Mozilla/5.0 (Windows NT 10.0; Win64; x64; rv:140.0) Gecko/20100101 Firefox/140.0","","Firefox","140.0","Windows","10.0","https://app.prolific.com/","de,en-US;q=0.7,en;q=0.3","66ebc8c5e5b772065830754d","686d226cabeef709c732f8e1","686e3136b4e3453715f3a912","66ebc8c5e5b772065830754d","2025-07-09T10:08:37.017Z","","","","","","AttribQ","","","","","","","","","","","","","","","","","","","","","","","","","","","","","","","","","","","","","","50"
"1716","","<div style=""width:500px;"">
  <p>How much control did you have over the ball?</p>
  </div>","58","html-slider-response","84","2877255","0.0-10.0-2.9","208","1","2025-07-09 09:20:40","7701e855f2ef39aa3fd6c71abdc6918a","87.123.247.159","Mozilla/5.0 (Windows NT 10.0; Win64; x64; rv:140.0) Gecko/20100101 Firefox/140.0","","Firefox","140.0","Windows","10.0","https://app.prolific.com/","de,en-US;q=0.7,en;q=0.3","66ebc8c5e5b772065830754d","686d226cabeef709c732f8e1","686e3136b4e3453715f3a912","66ebc8c5e5b772065830754d","2025-07-09T10:08:38.735Z","","","","","","ControlQ","","","","","","","","","","","","","","","","","","","","","","","","","","","","","","","","","","","","","","50"
"1424","","<div style=""width:500px;"">
  <p>How would you describe your current emotional state?</p>
  </div>","56","html-slider-response","85","2878681","0.0-10.0-3.9","208","1","2025-07-09 09:20:40","7701e855f2ef39aa3fd6c71abdc6918a","87.123.247.159","Mozilla/5.0 (Windows NT 10.0; Win64; x64; rv:140.0) Gecko/20100101 Firefox/140.0","","Firefox","140.0","Windows","10.0","https://app.prolific.com/","de,en-US;q=0.7,en;q=0.3","66ebc8c5e5b772065830754d","686d226cabeef709c732f8e1","686e3136b4e3453715f3a912","66ebc8c5e5b772065830754d","2025-07-09T10:08:40.161Z","","","","","","StressQ","","","","","","","","","","","","","","","","","","","","","","","","","","","","","","","","","","","","","","50"
"1520","","<div style=""width:500px;"">
  <p>What best describes how you currently feel?</p>
  </div>","57","html-slider-response","86","2880202","0.0-10.0-4.9","208","1","2025-07-09 09:20:40","7701e855f2ef39aa3fd6c71abdc6918a","87.123.247.159","Mozilla/5.0 (Windows NT 10.0; Win64; x64; rv:140.0) Gecko/20100101 Firefox/140.0","","Firefox","140.0","Windows","10.0","https://app.prolific.com/","de,en-US;q=0.7,en;q=0.3","66ebc8c5e5b772065830754d","686d226cabeef709c732f8e1","686e3136b4e3453715f3a912","66ebc8c5e5b772065830754d","2025-07-09T10:08:41.682Z","","","","","","MotivationQ","","","","","","","","","","","","","","","","","","","","","","","","","","","","","","","","","","","","","","50"
