"rt","response_timestamp","stimulus","response","trial_type","trial_index","time_elapsed","internal_node_id","run_id","condition","recorded_at","source_code_version","ip","user_agent","device","browser","browser_version","platform","platform_version","referer","accept_language","PROLIFIC_PID","STUDY_ID","SESSION_ID","prolific_id","realtime","view_history","question_order","consent","success","question_id","eventType","responses","item_order","radio_event_ids","radio_event_times","key_event_times","mouse_event_times","straightlining","zigzagging","honeypot","which_type","canvas_config","goals_layout","control_level","trial_number","tutorial_trial_number","trial_start_time","phase1_start_time","phase2_start_time","phase3_start_time","goal_1_value","goal_1_distance","goal_2_value","goal_2_distance","goal_selected","outcome","outcome_total","participant_final_score","participant_initial_score","participant_final_score_prop","goal_choice_rt","allocated_time","allocated_time_remaining","goal_direction","counts","mouse_movements","key_presses","correct","slider_start","sub_question"
"44122","1752052107193","<p style='font-size:40px;line-height:1.25'><strong>Welcome to the experiment!</strong></p><p style='font-size:1.1em;line-height:1.25'>Thank you for your interest in our experiment! Before you begin, it is important that we obtain your informed consent to participate in the study.</p><p style='font-size:1.1em;line-height:1.25'>On the next screen will be an <strong>information sheet</strong> for you to read. To participate in the study we need you to read this information sheet and the following consent form carefully. If you agree with all the statements, please click the <strong>I agree</strong> button.</p><p style='font-size:1.1em;line-height:1.25'>Press <strong>Next</strong> to read the information sheet.</p>","0","custom-html-button-response","0","44127","0.0-0.0","88","1","2025-07-09 09:07:41","7701e855f2ef39aa3fd6c71abdc6918a","169.0.103.39","Mozilla/5.0 (Windows NT 10.0; Win64; x64) AppleWebKit/537.36 (KHTML, like Gecko) Chrome/138.0.0.0 Safari/537.36","WebKit","Chrome","138.0.0.0","Windows","10.0","https://app.prolific.com/","en-GB,en-US;q=0.9,en;q=0.8","67cea841046ca74e2069ae47","686d226cabeef709c732f8e1","686e312673c58bc046fff2f4","67cea841046ca74e2069ae47","2025-07-09T09:08:27.196Z","","","","","","","","","","","","","","","","","","","","","","","","","","","","","","","","","","","","","","","","","","","","",""
"99247","","","","instructions","1","143376","0.0-1.0","88","1","2025-07-09 09:07:41","7701e855f2ef39aa3fd6c71abdc6918a","169.0.103.39","Mozilla/5.0 (Windows NT 10.0; Win64; x64) AppleWebKit/537.36 (KHTML, like Gecko) Chrome/138.0.0.0 Safari/537.36","WebKit","Chrome","138.0.0.0","Windows","10.0","https://app.prolific.com/","en-GB,en-US;q=0.9,en;q=0.8","67cea841046ca74e2069ae47","686d226cabeef709c732f8e1","686e312673c58bc046fff2f4","67cea841046ca74e2069ae47","","[{""page_index"":0,""viewing_time"":28034},{""page_index"":1,""viewing_time"":71212}]","","","","","","","","","","","","","","","","","","","","","","","","","","","","","","","","","","","","","","","","","","","",""
"5332","","","{""Q0"":"""",""Q1"":"""",""Q2"":"""",""Q3"":"""",""Q4"":"""",""Q5"":"""",""Q6"":""I agree""}","survey-multi-choice","2","148713","0.0-2.0","88","1","2025-07-09 09:07:41","7701e855f2ef39aa3fd6c71abdc6918a","169.0.103.39","Mozilla/5.0 (Windows NT 10.0; Win64; x64) AppleWebKit/537.36 (KHTML, like Gecko) Chrome/138.0.0.0 Safari/537.36","WebKit","Chrome","138.0.0.0","Windows","10.0","https://app.prolific.com/","en-GB,en-US;q=0.9,en;q=0.8","67cea841046ca74e2069ae47","686d226cabeef709c732f8e1","686e312673c58bc046fff2f4","67cea841046ca74e2069ae47","","","[0,1,2,3,4,5,6]","true","","","","","","","","","","","","","","","","","","","","","","","","","","","","","","","","","","","","","","","","","",""
"27921","","","","fullscreen","3","177646","0.0-4.0","88","1","2025-07-09 09:07:41","7701e855f2ef39aa3fd6c71abdc6918a","169.0.103.39","Mozilla/5.0 (Windows NT 10.0; Win64; x64) AppleWebKit/537.36 (KHTML, like Gecko) Chrome/138.0.0.0 Safari/537.36","WebKit","Chrome","138.0.0.0","Windows","10.0","https://app.prolific.com/","en-GB,en-US;q=0.9,en;q=0.8","67cea841046ca74e2069ae47","686d226cabeef709c732f8e1","686e312673c58bc046fff2f4","67cea841046ca74e2069ae47","","","","","true","","","","","","","","","","","","","","","","","","","","","","","","","","","","","","","","","","","","","","","","",""
"7293","1752052248009"," <p style='font-size:1.1em;line-height:1.25'>Thank you for completing the consent form and closing all other tabs.</p><p style='font-size:1.1em;line-height:1.25'>We will now invite you to fill in some demographic information and questionnaires, before starting the game.<br>This will take about 5 minutes.<br></p><p style='font-size:1.1em;line-height:1.25'>Press the <strong>Next</strong> button to continue.</p>","0","custom-html-button-response","4","184942","0.0-5.0","88","1","2025-07-09 09:07:41","7701e855f2ef39aa3fd6c71abdc6918a","169.0.103.39","Mozilla/5.0 (Windows NT 10.0; Win64; x64) AppleWebKit/537.36 (KHTML, like Gecko) Chrome/138.0.0.0 Safari/537.36","WebKit","Chrome","138.0.0.0","Windows","10.0","https://app.prolific.com/","en-GB,en-US;q=0.9,en;q=0.8","67cea841046ca74e2069ae47","686d226cabeef709c732f8e1","686e312673c58bc046fff2f4","67cea841046ca74e2069ae47","2025-07-09T09:10:48.010Z","","","","","","","","","","","","","","","","","","","","","","","","","","","","","","","","","","","","","","","","","","","","",""
"5787","","","{""age"":""25""}","survey-text","5","190734","0.0-6.0-0.0","88","1","2025-07-09 09:07:41","7701e855f2ef39aa3fd6c71abdc6918a","169.0.103.39","Mozilla/5.0 (Windows NT 10.0; Win64; x64) AppleWebKit/537.36 (KHTML, like Gecko) Chrome/138.0.0.0 Safari/537.36","WebKit","Chrome","138.0.0.0","Windows","10.0","https://app.prolific.com/","en-GB,en-US;q=0.9,en;q=0.8","67cea841046ca74e2069ae47","686d226cabeef709c732f8e1","686e312673c58bc046fff2f4","67cea841046ca74e2069ae47","","","","","","0","demographics","","","","","","","","","","","","","","","","","","","","","","","","","","","","","","","","","","","","","","",""
"2886","","","{""gender_identity"":""female/woman""}","survey-multi-choice","6","193621","0.0-6.0-1.0","88","1","2025-07-09 09:07:41","7701e855f2ef39aa3fd6c71abdc6918a","169.0.103.39","Mozilla/5.0 (Windows NT 10.0; Win64; x64) AppleWebKit/537.36 (KHTML, like Gecko) Chrome/138.0.0.0 Safari/537.36","WebKit","Chrome","138.0.0.0","Windows","10.0","https://app.prolific.com/","en-GB,en-US;q=0.9,en;q=0.8","67cea841046ca74e2069ae47","686d226cabeef709c732f8e1","686e312673c58bc046fff2f4","67cea841046ca74e2069ae47","","","[0]","","","1","demographics","","","","","","","","","","","","","","","","","","","","","","","","","","","","","","","","","","","","","","",""
"4268","","","{""assigned_sex"":""female""}","survey-multi-choice","7","197892","0.0-6.0-2.0","88","1","2025-07-09 09:07:41","7701e855f2ef39aa3fd6c71abdc6918a","169.0.103.39","Mozilla/5.0 (Windows NT 10.0; Win64; x64) AppleWebKit/537.36 (KHTML, like Gecko) Chrome/138.0.0.0 Safari/537.36","WebKit","Chrome","138.0.0.0","Windows","10.0","https://app.prolific.com/","en-GB,en-US;q=0.9,en;q=0.8","67cea841046ca74e2069ae47","686d226cabeef709c732f8e1","686e312673c58bc046fff2f4","67cea841046ca74e2069ae47","","","[0]","","","2","demographics","","","","","","","","","","","","","","","","","","","","","","","","","","","","","","","","","","","","","","",""
"3679","","","{""menstrual_cycle"":""Yes""}","survey-multi-choice","8","201573","0.0-6.0-3.0","88","1","2025-07-09 09:07:41","7701e855f2ef39aa3fd6c71abdc6918a","169.0.103.39","Mozilla/5.0 (Windows NT 10.0; Win64; x64) AppleWebKit/537.36 (KHTML, like Gecko) Chrome/138.0.0.0 Safari/537.36","WebKit","Chrome","138.0.0.0","Windows","10.0","https://app.prolific.com/","en-GB,en-US;q=0.9,en;q=0.8","67cea841046ca74e2069ae47","686d226cabeef709c732f8e1","686e312673c58bc046fff2f4","67cea841046ca74e2069ae47","","","[0]","","","4","demographics","","","","","","","","","","","","","","","","","","","","","","","","","","","","","","","","","","","","","","",""
"17404","","","{""education"":""Bachelor's Degree (e.g., BA)""}","survey-multi-choice","9","218980","0.0-6.0-4.0","88","1","2025-07-09 09:07:41","7701e855f2ef39aa3fd6c71abdc6918a","169.0.103.39","Mozilla/5.0 (Windows NT 10.0; Win64; x64) AppleWebKit/537.36 (KHTML, like Gecko) Chrome/138.0.0.0 Safari/537.36","WebKit","Chrome","138.0.0.0","Windows","10.0","https://app.prolific.com/","en-GB,en-US;q=0.9,en;q=0.8","67cea841046ca74e2069ae47","686d226cabeef709c732f8e1","686e312673c58bc046fff2f4","67cea841046ca74e2069ae47","","","[0]","","","5","demographics","","","","","","","","","","","","","","","","","","","","","","","","","","","","","","","","","","","","","","",""
"14029","","","{""education"":""Doctoral Degree (e.g., PhD)""}","survey-multi-choice","10","233011","0.0-6.0-5.0","88","1","2025-07-09 09:07:41","7701e855f2ef39aa3fd6c71abdc6918a","169.0.103.39","Mozilla/5.0 (Windows NT 10.0; Win64; x64) AppleWebKit/537.36 (KHTML, like Gecko) Chrome/138.0.0.0 Safari/537.36","WebKit","Chrome","138.0.0.0","Windows","10.0","https://app.prolific.com/","en-GB,en-US;q=0.9,en;q=0.8","67cea841046ca74e2069ae47","686d226cabeef709c732f8e1","686e312673c58bc046fff2f4","67cea841046ca74e2069ae47","2025-07-09T09:11:36.079Z","","[0]","","","6","demographics","","","","","","","","","","","","","","","","","","","","","","","","","","","","","","","","","","","","","","",""
"22835","","","{""mental_health_condition"":""no"",""mental_health_treatment"":""no"",""psychiatric_medication"":""no""}","survey-text","11","255849","0.0-7.0-0.0","88","1","2025-07-09 09:07:41","7701e855f2ef39aa3fd6c71abdc6918a","169.0.103.39","Mozilla/5.0 (Windows NT 10.0; Win64; x64) AppleWebKit/537.36 (KHTML, like Gecko) Chrome/138.0.0.0 Safari/537.36","WebKit","Chrome","138.0.0.0","Windows","10.0","https://app.prolific.com/","en-GB,en-US;q=0.9,en;q=0.8","67cea841046ca74e2069ae47","686d226cabeef709c732f8e1","686e312673c58bc046fff2f4","67cea841046ca74e2069ae47","2025-07-09T09:11:58.918Z","","","","","1","mental_health","","","","","","","","","","","","","","","","","","","","","","","","","","","","","","","","","","","","","","",""
"10250","","","{""depression_history"":[""No""]}","survey-multi-select","12","266104","0.0-7.0-1.0","88","1","2025-07-09 09:07:41","7701e855f2ef39aa3fd6c71abdc6918a","169.0.103.39","Mozilla/5.0 (Windows NT 10.0; Win64; x64) AppleWebKit/537.36 (KHTML, like Gecko) Chrome/138.0.0.0 Safari/537.36","WebKit","Chrome","138.0.0.0","Windows","10.0","https://app.prolific.com/","en-GB,en-US;q=0.9,en;q=0.8","67cea841046ca74e2069ae47","686d226cabeef709c732f8e1","686e312673c58bc046fff2f4","67cea841046ca74e2069ae47","","","[0]","","","","mental_health","","","","","","","","","","","","","","","","","","","","","","","","","","","","","","","","","","","","","","",""
"70911.19999999925","","","","survey-template","13","337023","0.0-7.0-3.0","88","1","2025-07-09 09:07:41","7701e855f2ef39aa3fd6c71abdc6918a","169.0.103.39","Mozilla/5.0 (Windows NT 10.0; Win64; x64) AppleWebKit/537.36 (KHTML, like Gecko) Chrome/138.0.0.0 Safari/537.36","WebKit","Chrome","138.0.0.0","Windows","10.0","https://app.prolific.com/","en-GB,en-US;q=0.9,en;q=0.8","67cea841046ca74e2069ae47","686d226cabeef709c732f8e1","686e312673c58bc046fff2f4","67cea841046ca74e2069ae47","2025-07-09T09:13:20.091Z","","","","","","ius","{""Q01"":""0"",""Q02"":""2"",""Q03"":""1"",""Q04"":""4"",""Q05"":""4"",""Q06"":""0"",""Q07"":""2"",""Q08"":""0"",""Q09"":""4"",""Q10"":""3"",""Q11"":""2"",""Q12"":""4"",""Q13"":""4""}","[0,1,2,3,4,5,6,7,8,9,10,11,12]","[""Q01"",""Q02"",""Q03"",""Q04"",""Q05"",""Q06"",""Q07"",""Q08"",""Q09"",""Q10"",""Q11"",""Q12"",""Q13""]","[9945.299999998882,15832.89999999851,22431.299999998882,26375.5,32526.699999999255,36542.09999999963,41206,48462.79999999888,52036.89999999851,55285.59999999963,62196.59999999963,66308.29999999888,69484]","[]","[9945.299999998882,15832.89999999851,22431.299999998882,26375.5,31367.799999998882,32526.699999999255,36542.09999999963,41206,48462.79999999888,52036.89999999851,55285.59999999963,59476.89999999851,62196.59999999963,66308.29999999888,69484,70908.19999999925]","0.38461538461538464","0.4166666666666667","0","","","","","","","","","","","","","","","","","","","","","","","","","","","","","",""
"5178","1752052405270","<p style='font-size:1.1em;line-height:1.25'>In the following, we will ask you a few questions relating to your experiences over the past month.<br></p><p style='font-size:1.1em;line-height:1.25'>Press the <strong>Next</strong> button to continue.</p>","0","custom-html-button-response","14","342203","0.0-7.0-4.0","88","1","2025-07-09 09:07:41","7701e855f2ef39aa3fd6c71abdc6918a","169.0.103.39","Mozilla/5.0 (Windows NT 10.0; Win64; x64) AppleWebKit/537.36 (KHTML, like Gecko) Chrome/138.0.0.0 Safari/537.36","WebKit","Chrome","138.0.0.0","Windows","10.0","https://app.prolific.com/","en-GB,en-US;q=0.9,en;q=0.8","67cea841046ca74e2069ae47","686d226cabeef709c732f8e1","686e312673c58bc046fff2f4","67cea841046ca74e2069ae47","2025-07-09T09:13:25.271Z","","","","","","","","","","","","","","","","","","","","","","","","","","","","","","","","","","","","","","","","","","","","",""
"80602.09999999963","","","","survey-template","15","422808","0.0-7.0-5.0","88","1","2025-07-09 09:07:41","7701e855f2ef39aa3fd6c71abdc6918a","169.0.103.39","Mozilla/5.0 (Windows NT 10.0; Win64; x64) AppleWebKit/537.36 (KHTML, like Gecko) Chrome/138.0.0.0 Safari/537.36","WebKit","Chrome","138.0.0.0","Windows","10.0","https://app.prolific.com/","en-GB,en-US;q=0.9,en;q=0.8","67cea841046ca74e2069ae47","686d226cabeef709c732f8e1","686e312673c58bc046fff2f4","67cea841046ca74e2069ae47","2025-07-09T09:14:45.877Z","","","","","","pss","{""Q01"":""3"",""Q02"":""0"",""Q03"":""2"",""Q04"":""0"",""Q05"":""0"",""Q06"":""0"",""Q07"":""0"",""Q08"":""1"",""Q09"":""3"",""Q10"":""1""}","[0,1,2,3,4,5,6,7,8,9]","[""Q01"",""Q02"",""Q04"",""Q03"",""Q05"",""Q06"",""Q07"",""Q08"",""Q09"",""Q10""]","[16461.299999998882,22971.299999998882,35850.09999999963,37138.199999999255,43418,55769.09999999963,59569,65496.29999999888,72776.19999999925,79495.89999999851]","[]","[0,16461.299999998882,22971.299999998882,30084.5,35850.09999999963,37138.199999999255,42561.89999999851,43418,50305.59999999963,54652,55769.09999999963,59569,65496.29999999888,72776.19999999925,79495.89999999851,80599.69999999925]","0.3","0.3333333333333333","0","","","","","","","","","","","","","","","","","","","","","","","","","","","","","",""
"4691","1752052490568","<p style='font-size:1.1em;line-height:1.25'>Thank you for your answers! Now we will ask you a few more questions relating to your feelings in the last 24 hours.<br></p><p style='font-size:1.1em;line-height:1.25'>Press the <strong>Next</strong> button to continue.</p>","0","custom-html-button-response","16","427501","0.0-7.0-6.0","88","1","2025-07-09 09:07:41","7701e855f2ef39aa3fd6c71abdc6918a","169.0.103.39","Mozilla/5.0 (Windows NT 10.0; Win64; x64) AppleWebKit/537.36 (KHTML, like Gecko) Chrome/138.0.0.0 Safari/537.36","WebKit","Chrome","138.0.0.0","Windows","10.0","https://app.prolific.com/","en-GB,en-US;q=0.9,en;q=0.8","67cea841046ca74e2069ae47","686d226cabeef709c732f8e1","686e312673c58bc046fff2f4","67cea841046ca74e2069ae47","2025-07-09T09:14:50.569Z","","","","","","","","","","","","","","","","","","","","","","","","","","","","","","","","","","","","","","","","","","","","",""
"63254","","","","survey-template","17","490761","0.0-7.0-7.0","88","1","2025-07-09 09:07:41","7701e855f2ef39aa3fd6c71abdc6918a","169.0.103.39","Mozilla/5.0 (Windows NT 10.0; Win64; x64) AppleWebKit/537.36 (KHTML, like Gecko) Chrome/138.0.0.0 Safari/537.36","WebKit","Chrome","138.0.0.0","Windows","10.0","https://app.prolific.com/","en-GB,en-US;q=0.9,en;q=0.8","67cea841046ca74e2069ae47","686d226cabeef709c732f8e1","686e312673c58bc046fff2f4","67cea841046ca74e2069ae47","2025-07-09T09:15:53.829Z","","","","","","drsp","{""Q01"":""0"",""Q02"":""0"",""Q03"":""0"",""Q04"":""0"",""Q05"":""0"",""Q06"":""0"",""Q07"":""0"",""Q08"":""0"",""Q09"":""0"",""Q10"":""0"",""Q11"":""0"",""Q12"":""1"",""Q13"":""1"",""Q14"":""0"",""Q15"":""0"",""Q16"":""1"",""Q17"":""0"",""Q18"":""0"",""Q19"":""0"",""Q20"":""0"",""Q21"":""0""}","[0,1,2,3,4,5,6,7,8,9,10,11,12,13,14,15,16,17,18,19,20]","[""Q01"",""Q02"",""Q03"",""Q04"",""Q05"",""Q06"",""Q07"",""Q08"",""Q09"",""Q10"",""Q11"",""Q12"",""Q13"",""Q14"",""Q15"",""Q16"",""Q16"",""Q17"",""Q18"",""Q19"",""Q20"",""Q21""]","[2804.0999999996275,4764,5925.4000000003725,7779.5,9317.199999999255,13651.299999998882,15979.299999998882,16955.299999998882,20075.699999999255,21938.699999999255,23107.599999999627,29074.799999998882,31098.299999998882,35506.79999999888,38474.90000000037,41089.699999999255,45953.29999999888,48377,51514.199999999255,56544.5,59632.29999999888,61985]","[]","[0,2804.0999999996275,4764,5925.4000000003725,7779.5,9317.199999999255,13651.299999998882,14595,15979.299999998882,16955.299999998882,20075.699999999255,21938.699999999255,23107.599999999627,29074.799999998882,31098.299999998882,35506.79999999888,38474.90000000037,41089.699999999255,45953.29999999888,48377,51514.199999999255,56544.5,59632.29999999888,61985,63248.5]","0.8571428571428571","0.2","0","","","","","","","","","","","","","","","","","","","","","","","","","","","","","",""
"15278.200000001118","","","","survey-template","18","506041","0.0-7.0-8.0","88","1","2025-07-09 09:07:41","7701e855f2ef39aa3fd6c71abdc6918a","169.0.103.39","Mozilla/5.0 (Windows NT 10.0; Win64; x64) AppleWebKit/537.36 (KHTML, like Gecko) Chrome/138.0.0.0 Safari/537.36","WebKit","Chrome","138.0.0.0","Windows","10.0","https://app.prolific.com/","en-GB,en-US;q=0.9,en;q=0.8","67cea841046ca74e2069ae47","686d226cabeef709c732f8e1","686e312673c58bc046fff2f4","67cea841046ca74e2069ae47","2025-07-09T09:16:09.109Z","","","","","","stress","{""Q01"":""0"",""Q02"":""0"",""Q03"":""0""}","[0,1,2]","[""Q01"",""Q02"",""Q03""]","[2726.7000000011176,9653.200000001118,14228.800000000745]","[]","[2726.7000000011176,9653.200000001118,14228.800000000745,15276.800000000745]","0.6666666666666666","1","0","","","","","","","","","","","","","","","","","","","","","","","","","","","","","",""
"60996","","","","instructions","19","567039","0.0-8.0-0.0","88","1","2025-07-09 09:07:41","7701e855f2ef39aa3fd6c71abdc6918a","169.0.103.39","Mozilla/5.0 (Windows NT 10.0; Win64; x64) AppleWebKit/537.36 (KHTML, like Gecko) Chrome/138.0.0.0 Safari/537.36","WebKit","Chrome","138.0.0.0","Windows","10.0","https://app.prolific.com/","en-GB,en-US;q=0.9,en;q=0.8","67cea841046ca74e2069ae47","686d226cabeef709c732f8e1","686e312673c58bc046fff2f4","67cea841046ca74e2069ae47","","[{""page_index"":0,""viewing_time"":5676},{""page_index"":1,""viewing_time"":12335},{""page_index"":0,""viewing_time"":1536},{""page_index"":1,""viewing_time"":4041},{""page_index"":2,""viewing_time"":3095},{""page_index"":3,""viewing_time"":34312}]","","","","","","","","","","","","","","","","","","","","","","","","","","","","","","","","","","","","","","","","","","","",""
"","","","","ctl-task-cpt","20","593602","0.0-8.0-1.0","88","1","2025-07-09 09:07:41","7701e855f2ef39aa3fd6c71abdc6918a","169.0.103.39","Mozilla/5.0 (Windows NT 10.0; Win64; x64) AppleWebKit/537.36 (KHTML, like Gecko) Chrome/138.0.0.0 Safari/537.36","WebKit","Chrome","138.0.0.0","Windows","10.0","https://app.prolific.com/","en-GB,en-US;q=0.9,en;q=0.8","67cea841046ca74e2069ae47","686d226cabeef709c732f8e1","686e312673c58bc046fff2f4","67cea841046ca74e2069ae47","","","","","","","","","","","","","","","","","win-only","0","g1:NW,g2:SE","1","0","1","571193.6","14416.2","18422.3","23554.5","2","4","4","6","1","-2","-2","0","0","0","3661.3","4000","-2910","[""left"",""up""]","{""num_key_presses"":0,""num_perfect"":0,""num_errors"":0,""num_randdir"":0,""num_randdir_good_moves"":0,""num_whilered"":0,""num_whileblue"":0,""num_blue"":0,""num_good_moves"":0}","[300.07142857142856,292.47767857142856,4.1,300.07142857142856,292.47767857142856,100,300.07142857142856,292.47767857142856,203.3,300.07142857142856,292.47767857142856,304.3,300.07142857142856,292.47767857142856,405.4,300.07142857142856,292.47767857142856,512.8,300.07142857142856,292.47767857142856,615,300.07142857142856,292.47767857142856,715.3,300.07142857142856,292.47767857142856,820.4,275.07142857142856,266.47767857142856,926.3,234.07142857142856,220.47767857142856,1026.9,231.07142857142856,220.47767857142856,1127.1,245.07142857142856,233.47767857142856,1229.6,254.07142857142856,236.47767857142856,1330,280.07142857142856,276.47767857142856,1434.2,290.07142857142856,337.47767857142856,1534.7,294.07142857142856,403.47767857142856,1634.9,286.07142857142856,424.47767857142856,1736.1,266.07142857142856,438.47767857142856,1842,254.07142857142856,463.47767857142856,1942.2,254.07142857142856,469.47767857142856,2046.5,262.07142857142856,470.47767857142856,2149.8,265.07142857142856,468.47767857142856,2250.6,276.07142857142856,467.47767857142856,2357.4,316.07142857142856,463.47767857142856,2459.5,324.07142857142856,460.47767857142856,2561.3,305.07142857142856,437.47767857142856,2664.5,222.07142857142856,273.47767857142856,2765.7,218.07142857142856,249.47767857142856,2870.5,261.07142857142856,214.47767857142856,2971.1,246.07142857142856,205.47767857142856,3071.3,174.07142857142856,133.47767857142856,3171.6,152.07142857142856,109.47767857142857,3272.8,130.07142857142856,91.47767857142857,3376,54.07142857142857,53.47767857142857,3477,54.07142857142857,53.47767857142857,3582.8,54.07142857142857,53.47767857142857,3690.7,57.07142857142857,55.47767857142857,3790.7,66.07142857142857,67.47767857142857,3892.3,172.07142857142856,154.47767857142856,3996]","[]","","",""
"25982","","","","instructions","21","619584","0.0-8.0-2.0","88","1","2025-07-09 09:07:41","7701e855f2ef39aa3fd6c71abdc6918a","169.0.103.39","Mozilla/5.0 (Windows NT 10.0; Win64; x64) AppleWebKit/537.36 (KHTML, like Gecko) Chrome/138.0.0.0 Safari/537.36","WebKit","Chrome","138.0.0.0","Windows","10.0","https://app.prolific.com/","en-GB,en-US;q=0.9,en;q=0.8","67cea841046ca74e2069ae47","686d226cabeef709c732f8e1","686e312673c58bc046fff2f4","67cea841046ca74e2069ae47","","[{""page_index"":0,""viewing_time"":25981}]","","","","","","","","","","","","","","","","","","","","","","","","","","","","","","","","","","","","","","","","","","","",""
"","","","","ctl-task-cpt","22","633368","0.0-8.0-3.0","88","1","2025-07-09 09:07:41","7701e855f2ef39aa3fd6c71abdc6918a","169.0.103.39","Mozilla/5.0 (Windows NT 10.0; Win64; x64) AppleWebKit/537.36 (KHTML, like Gecko) Chrome/138.0.0.0 Safari/537.36","WebKit","Chrome","138.0.0.0","Windows","10.0","https://app.prolific.com/","en-GB,en-US;q=0.9,en;q=0.8","67cea841046ca74e2069ae47","686d226cabeef709c732f8e1","686e312673c58bc046fff2f4","67cea841046ca74e2069ae47","","","","","","","","","","","","","","","","","win-only","0","g1:NW,g2:SE","0.35","0","3","623736.7","1396.2","5401.4","10756.2","2","4","8","6","2","-8","-8","0","0","0","1337.6","4000","-2850","[""down"",""right""]","{""num_key_presses"":0,""num_perfect"":0,""num_errors"":0,""num_randdir"":0,""num_randdir_good_moves"":0,""num_whilered"":0,""num_whileblue"":0,""num_blue"":0,""num_good_moves"":0}","[295.07142857142856,295.47767857142856,0.4,295.07142857142856,295.47767857142856,100.8,295.07142857142856,297.47767857142856,207.3,295.07142857142856,297.47767857142856,314.8,295.07142857142856,297.47767857142856,416.2,379.07142857142856,421.47767857142856,520.4,384.07142857142856,427.47767857142856,626.2,392.07142857142856,474.47767857142856,729.3,407.07142857142856,526.4776785714286,830.2,454.07142857142856,568.4776785714286,939.3,499.07142857142856,573.4776785714286,1045.3,532.0714285714286,573.4776785714286,1145.4,532.0714285714286,573.4776785714286,1245.5,533.0714285714286,573.4776785714286,1350,533.0714285714286,573.4776785714286,1453.9,532.0714285714286,573.4776785714286,1554.7,477.07142857142856,573.4776785714286,1656.4,432.07142857142856,554.4776785714286,1761.7,345.07142857142856,515.4776785714286,1866.2,300.07142857142856,497.47767857142856,1976.5,292.07142857142856,495.47767857142856,2080.9,295.07142857142856,495.47767857142856,2185.6,300.07142857142856,493.47767857142856,2290.1,303.07142857142856,489.47767857142856,2390.6,313.07142857142856,477.47767857142856,2490.7,315.07142857142856,475.47767857142856,2594.6,382.07142857142856,481.47767857142856,2694.8,387.07142857142856,486.47767857142856,2796.4,450.07142857142856,520.4776785714286,2896.7,470.07142857142856,531.4776785714286,3005.1,486.07142857142856,531.4776785714286,3106.6,555.0714285714286,540.4776785714286,3206.6,555.0714285714286,540.4776785714286,3309.5,555.0714285714286,540.4776785714286,3410.8,555.0714285714286,540.4776785714286,3510.9,474.07142857142856,517.4776785714286,3622.2,408.07142857142856,491.47767857142856,3726.6,406.07142857142856,491.47767857142856,3834.7,383.07142857142856,491.47767857142856,3936.4]","[]","","",""
"73978","","","","instructions","23","707347","0.0-8.0-4.0","88","1","2025-07-09 09:07:41","7701e855f2ef39aa3fd6c71abdc6918a","169.0.103.39","Mozilla/5.0 (Windows NT 10.0; Win64; x64) AppleWebKit/537.36 (KHTML, like Gecko) Chrome/138.0.0.0 Safari/537.36","WebKit","Chrome","138.0.0.0","Windows","10.0","https://app.prolific.com/","en-GB,en-US;q=0.9,en;q=0.8","67cea841046ca74e2069ae47","686d226cabeef709c732f8e1","686e312673c58bc046fff2f4","67cea841046ca74e2069ae47","","[{""page_index"":0,""viewing_time"":12621},{""page_index"":1,""viewing_time"":61356}]","","","","","","","","","","","","","","","","","","","","","","","","","","","","","","","","","","","","","","","","","","","",""
"46700","","","{""green_ball"":[""Ball always shakes and moves in a random direction""]}","survey-multi-select","24","754058","0.0-8.0-5.0-0.0","88","1","2025-07-09 09:07:41","7701e855f2ef39aa3fd6c71abdc6918a","169.0.103.39","Mozilla/5.0 (Windows NT 10.0; Win64; x64) AppleWebKit/537.36 (KHTML, like Gecko) Chrome/138.0.0.0 Safari/537.36","WebKit","Chrome","138.0.0.0","Windows","10.0","https://app.prolific.com/","en-GB,en-US;q=0.9,en;q=0.8","67cea841046ca74e2069ae47","686d226cabeef709c732f8e1","686e312673c58bc046fff2f4","67cea841046ca74e2069ae47","","","[0]","","","","quiz","","","","","","","","","","","","","","","","","","","","","","","","","","","","","","","","","","","","","false","",""
"8650","","<p align='center'><b>INCORRECT.</b> Usually the green ball moves in the indicated direction, but sometimes it shakes and moves randomly. </p>","0","html-button-response","25","762713","0.0-8.0-5.0-1.0","88","1","2025-07-09 09:07:41","7701e855f2ef39aa3fd6c71abdc6918a","169.0.103.39","Mozilla/5.0 (Windows NT 10.0; Win64; x64) AppleWebKit/537.36 (KHTML, like Gecko) Chrome/138.0.0.0 Safari/537.36","WebKit","Chrome","138.0.0.0","Windows","10.0","https://app.prolific.com/","en-GB,en-US;q=0.9,en;q=0.8","67cea841046ca74e2069ae47","686d226cabeef709c732f8e1","686e312673c58bc046fff2f4","67cea841046ca74e2069ae47","","","","","","","","","","","","","","","","","","","","","","","","","","","","","","","","","","","","","","","","","","","","","",""
"14370","","","{""green_ball"":[""Ball sometimes shakes and moves in a random direction""]}","survey-multi-select","26","777089","0.0-8.0-5.1-0.1","88","1","2025-07-09 09:07:41","7701e855f2ef39aa3fd6c71abdc6918a","169.0.103.39","Mozilla/5.0 (Windows NT 10.0; Win64; x64) AppleWebKit/537.36 (KHTML, like Gecko) Chrome/138.0.0.0 Safari/537.36","WebKit","Chrome","138.0.0.0","Windows","10.0","https://app.prolific.com/","en-GB,en-US;q=0.9,en;q=0.8","67cea841046ca74e2069ae47","686d226cabeef709c732f8e1","686e312673c58bc046fff2f4","67cea841046ca74e2069ae47","","","[0]","","","","quiz","","","","","","","","","","","","","","","","","","","","","","","","","","","","","","","","","","","","","true","",""
"5052","","<p align='center'><b>CORRECT!</b> Indeed, the green ball may sometimes shake and move in a random direction.</p>","0","html-button-response","27","782144","0.0-8.0-5.1-1.1","88","1","2025-07-09 09:07:41","7701e855f2ef39aa3fd6c71abdc6918a","169.0.103.39","Mozilla/5.0 (Windows NT 10.0; Win64; x64) AppleWebKit/537.36 (KHTML, like Gecko) Chrome/138.0.0.0 Safari/537.36","WebKit","Chrome","138.0.0.0","Windows","10.0","https://app.prolific.com/","en-GB,en-US;q=0.9,en;q=0.8","67cea841046ca74e2069ae47","686d226cabeef709c732f8e1","686e312673c58bc046fff2f4","67cea841046ca74e2069ae47","","","","","","","","","","","","","","","","","","","","","","","","","","","","","","","","","","","","","","","","","","","","","",""
"8131","","","{""yellow_ball"":[""Ball doesn‘t move and I get -1 penalty point""]}","survey-multi-select","28","790278","0.0-8.0-6.0-0.0","88","1","2025-07-09 09:07:41","7701e855f2ef39aa3fd6c71abdc6918a","169.0.103.39","Mozilla/5.0 (Windows NT 10.0; Win64; x64) AppleWebKit/537.36 (KHTML, like Gecko) Chrome/138.0.0.0 Safari/537.36","WebKit","Chrome","138.0.0.0","Windows","10.0","https://app.prolific.com/","en-GB,en-US;q=0.9,en;q=0.8","67cea841046ca74e2069ae47","686d226cabeef709c732f8e1","686e312673c58bc046fff2f4","67cea841046ca74e2069ae47","","","[0]","","","","quiz","","","","","","","","","","","","","","","","","","","","","","","","","","","","","","","","","","","","","true","",""
"1286","","<p align='center'><b>CORRECT!</b> Indeed, the yellow ball never moves and you receive a penalty.</p>","0","html-button-response","29","791567","0.0-8.0-6.0-1.0","88","1","2025-07-09 09:07:41","7701e855f2ef39aa3fd6c71abdc6918a","169.0.103.39","Mozilla/5.0 (Windows NT 10.0; Win64; x64) AppleWebKit/537.36 (KHTML, like Gecko) Chrome/138.0.0.0 Safari/537.36","WebKit","Chrome","138.0.0.0","Windows","10.0","https://app.prolific.com/","en-GB,en-US;q=0.9,en;q=0.8","67cea841046ca74e2069ae47","686d226cabeef709c732f8e1","686e312673c58bc046fff2f4","67cea841046ca74e2069ae47","","","","","","","","","","","","","","","","","","","","","","","","","","","","","","","","","","","","","","","","","","","","","",""
"10148","","","{""blue_ball"":[""Ball doesn‘t move and I get -1 penalty point""]}","survey-multi-select","30","801720","0.0-8.0-7.0-0.0","88","1","2025-07-09 09:07:41","7701e855f2ef39aa3fd6c71abdc6918a","169.0.103.39","Mozilla/5.0 (Windows NT 10.0; Win64; x64) AppleWebKit/537.36 (KHTML, like Gecko) Chrome/138.0.0.0 Safari/537.36","WebKit","Chrome","138.0.0.0","Windows","10.0","https://app.prolific.com/","en-GB,en-US;q=0.9,en;q=0.8","67cea841046ca74e2069ae47","686d226cabeef709c732f8e1","686e312673c58bc046fff2f4","67cea841046ca74e2069ae47","","","[0]","","","","quiz","","","","","","","","","","","","","","","","","","","","","","","","","","","","","","","","","","","","","false","",""
"3202","","<p align='center'><b>INCORRECT.</b> The blue ball always shakes and moves randomly.</p>","0","html-button-response","31","804926","0.0-8.0-7.0-1.0","88","1","2025-07-09 09:07:41","7701e855f2ef39aa3fd6c71abdc6918a","169.0.103.39","Mozilla/5.0 (Windows NT 10.0; Win64; x64) AppleWebKit/537.36 (KHTML, like Gecko) Chrome/138.0.0.0 Safari/537.36","WebKit","Chrome","138.0.0.0","Windows","10.0","https://app.prolific.com/","en-GB,en-US;q=0.9,en;q=0.8","67cea841046ca74e2069ae47","686d226cabeef709c732f8e1","686e312673c58bc046fff2f4","67cea841046ca74e2069ae47","","","","","","","","","","","","","","","","","","","","","","","","","","","","","","","","","","","","","","","","","","","","","",""
"8860","","","{""blue_ball"":[""Ball sometimes shakes and moves in a random direction""]}","survey-multi-select","32","813790","0.0-8.0-7.1-0.1","88","1","2025-07-09 09:07:41","7701e855f2ef39aa3fd6c71abdc6918a","169.0.103.39","Mozilla/5.0 (Windows NT 10.0; Win64; x64) AppleWebKit/537.36 (KHTML, like Gecko) Chrome/138.0.0.0 Safari/537.36","WebKit","Chrome","138.0.0.0","Windows","10.0","https://app.prolific.com/","en-GB,en-US;q=0.9,en;q=0.8","67cea841046ca74e2069ae47","686d226cabeef709c732f8e1","686e312673c58bc046fff2f4","67cea841046ca74e2069ae47","","","[0]","","","","quiz","","","","","","","","","","","","","","","","","","","","","","","","","","","","","","","","","","","","","false","",""
"1500","","<p align='center'><b>INCORRECT.</b> The blue ball always shakes and moves randomly.</p>","0","html-button-response","33","815293","0.0-8.0-7.1-1.1","88","1","2025-07-09 09:07:41","7701e855f2ef39aa3fd6c71abdc6918a","169.0.103.39","Mozilla/5.0 (Windows NT 10.0; Win64; x64) AppleWebKit/537.36 (KHTML, like Gecko) Chrome/138.0.0.0 Safari/537.36","WebKit","Chrome","138.0.0.0","Windows","10.0","https://app.prolific.com/","en-GB,en-US;q=0.9,en;q=0.8","67cea841046ca74e2069ae47","686d226cabeef709c732f8e1","686e312673c58bc046fff2f4","67cea841046ca74e2069ae47","","","","","","","","","","","","","","","","","","","","","","","","","","","","","","","","","","","","","","","","","","","","","",""
"4844","","","{""blue_ball"":[""Ball always shakes and moves in a random direction""]}","survey-multi-select","34","820140","0.0-8.0-7.2-0.2","88","1","2025-07-09 09:07:41","7701e855f2ef39aa3fd6c71abdc6918a","169.0.103.39","Mozilla/5.0 (Windows NT 10.0; Win64; x64) AppleWebKit/537.36 (KHTML, like Gecko) Chrome/138.0.0.0 Safari/537.36","WebKit","Chrome","138.0.0.0","Windows","10.0","https://app.prolific.com/","en-GB,en-US;q=0.9,en;q=0.8","67cea841046ca74e2069ae47","686d226cabeef709c732f8e1","686e312673c58bc046fff2f4","67cea841046ca74e2069ae47","","","[0]","","","","quiz","","","","","","","","","","","","","","","","","","","","","","","","","","","","","","","","","","","","","true","",""
"9526","","<p align='center'><b>CORRECT!</b> Indeed, the blue ball always shakes and moves in a random direction. Also there is a penalty of -1 point.</p>","0","html-button-response","35","829667","0.0-8.0-7.2-1.2","88","1","2025-07-09 09:07:41","7701e855f2ef39aa3fd6c71abdc6918a","169.0.103.39","Mozilla/5.0 (Windows NT 10.0; Win64; x64) AppleWebKit/537.36 (KHTML, like Gecko) Chrome/138.0.0.0 Safari/537.36","WebKit","Chrome","138.0.0.0","Windows","10.0","https://app.prolific.com/","en-GB,en-US;q=0.9,en;q=0.8","67cea841046ca74e2069ae47","686d226cabeef709c732f8e1","686e312673c58bc046fff2f4","67cea841046ca74e2069ae47","","","","","","","","","","","","","","","","","","","","","","","","","","","","","","","","","","","","","","","","","","","","","",""
"6181","","","{""bonus"":[""When I reach 50% of points""]}","survey-multi-select","36","835852","0.0-8.0-8.0-0.0","88","1","2025-07-09 09:07:41","7701e855f2ef39aa3fd6c71abdc6918a","169.0.103.39","Mozilla/5.0 (Windows NT 10.0; Win64; x64) AppleWebKit/537.36 (KHTML, like Gecko) Chrome/138.0.0.0 Safari/537.36","WebKit","Chrome","138.0.0.0","Windows","10.0","https://app.prolific.com/","en-GB,en-US;q=0.9,en;q=0.8","67cea841046ca74e2069ae47","686d226cabeef709c732f8e1","686e312673c58bc046fff2f4","67cea841046ca74e2069ae47","","","[0]","","","","quiz","","","","","","","","","","","","","","","","","","","","","","","","","","","","","","","","","","","","","true","",""
"1421","","<p align='center'><b>CORRECT!</b> Indeed, you receive 2 pounds extra when you reach 50% of points.</p>","0","html-button-response","37","837275","0.0-8.0-8.0-1.0","88","1","2025-07-09 09:07:41","7701e855f2ef39aa3fd6c71abdc6918a","169.0.103.39","Mozilla/5.0 (Windows NT 10.0; Win64; x64) AppleWebKit/537.36 (KHTML, like Gecko) Chrome/138.0.0.0 Safari/537.36","WebKit","Chrome","138.0.0.0","Windows","10.0","https://app.prolific.com/","en-GB,en-US;q=0.9,en;q=0.8","67cea841046ca74e2069ae47","686d226cabeef709c732f8e1","686e312673c58bc046fff2f4","67cea841046ca74e2069ae47","","","","","","","","","","","","","","","","","","","","","","","","","","","","","","","","","","","","","","","","","","","","","",""
"2031","","","","instructions","38","839308","0.0-8.0-9.0","88","1","2025-07-09 09:07:41","7701e855f2ef39aa3fd6c71abdc6918a","169.0.103.39","Mozilla/5.0 (Windows NT 10.0; Win64; x64) AppleWebKit/537.36 (KHTML, like Gecko) Chrome/138.0.0.0 Safari/537.36","WebKit","Chrome","138.0.0.0","Windows","10.0","https://app.prolific.com/","en-GB,en-US;q=0.9,en;q=0.8","67cea841046ca74e2069ae47","686d226cabeef709c732f8e1","686e312673c58bc046fff2f4","67cea841046ca74e2069ae47","","[{""page_index"":0,""viewing_time"":2030}]","","","","","","","","","","","","","","","","","","","","","","","","","","","","","","","","","","","","","","","","","","","",""
"14701","","<p>Before you start with this game please answer the following three questions yourself. </p>
  <p>Through this game, we measure several aspects of your cognitive performance, such as reaction times, multi-tasking capabilities </p>
  <p>and the ability to assess the situation you are in.</p>
  <p></p>
  <p><b>How good do you usually are in such tasks?</b></p>","100","html-slider-response","39","854015","0.0-9.0-0.0","88","1","2025-07-09 09:07:41","7701e855f2ef39aa3fd6c71abdc6918a","169.0.103.39","Mozilla/5.0 (Windows NT 10.0; Win64; x64) AppleWebKit/537.36 (KHTML, like Gecko) Chrome/138.0.0.0 Safari/537.36","WebKit","Chrome","138.0.0.0","Windows","10.0","https://app.prolific.com/","en-GB,en-US;q=0.9,en;q=0.8","67cea841046ca74e2069ae47","686d226cabeef709c732f8e1","686e312673c58bc046fff2f4","67cea841046ca74e2069ae47","2025-07-09T09:21:57.084Z","","","","","","PreSkillQ","","","","","","","","","","","","","","","","","","","","","","","","","","","","","","","","","","","","","","50",""
"4606","","<div style=""width:500px;"">
  <p>How well do you think you will perform in this task compared to other participants?</p>
  </div>","100","html-slider-response","40","858625","0.0-9.0-1.0","88","1","2025-07-09 09:07:41","7701e855f2ef39aa3fd6c71abdc6918a","169.0.103.39","Mozilla/5.0 (Windows NT 10.0; Win64; x64) AppleWebKit/537.36 (KHTML, like Gecko) Chrome/138.0.0.0 Safari/537.36","WebKit","Chrome","138.0.0.0","Windows","10.0","https://app.prolific.com/","en-GB,en-US;q=0.9,en;q=0.8","67cea841046ca74e2069ae47","686d226cabeef709c732f8e1","686e312673c58bc046fff2f4","67cea841046ca74e2069ae47","2025-07-09T09:22:01.693Z","","","","","","PrePerfQ","","","","","","","","","","","","","","","","","","","","","","","","","","","","","","","","","","","","","","50",""
"4838","","<div style=""width:500px;"">
  <p>What best describes how you currently feel?</p>
  </div>","100","html-slider-response","41","863465","0.0-9.0-2.0","88","1","2025-07-09 09:07:41","7701e855f2ef39aa3fd6c71abdc6918a","169.0.103.39","Mozilla/5.0 (Windows NT 10.0; Win64; x64) AppleWebKit/537.36 (KHTML, like Gecko) Chrome/138.0.0.0 Safari/537.36","WebKit","Chrome","138.0.0.0","Windows","10.0","https://app.prolific.com/","en-GB,en-US;q=0.9,en;q=0.8","67cea841046ca74e2069ae47","686d226cabeef709c732f8e1","686e312673c58bc046fff2f4","67cea841046ca74e2069ae47","2025-07-09T09:22:06.533Z","","","","","","PreMotivationQ","","","","","","","","","","","","","","","","","","","","","","","","","","","","","","","","","","","","","","50",""
"","","","","ctl-task-cpt","42","883698","0.0-10.0-0.0","88","1","2025-07-09 09:07:41","7701e855f2ef39aa3fd6c71abdc6918a","169.0.103.39","Mozilla/5.0 (Windows NT 10.0; Win64; x64) AppleWebKit/537.36 (KHTML, like Gecko) Chrome/138.0.0.0 Safari/537.36","WebKit","Chrome","138.0.0.0","Windows","10.0","https://app.prolific.com/","en-GB,en-US;q=0.9,en;q=0.8","67cea841046ca74e2069ae47","686d226cabeef709c732f8e1","686e312673c58bc046fff2f4","67cea841046ca74e2069ae47","2025-07-09T09:22:26.766Z","","","","","","","","","","","","","","","","win-only","0","g1:NW,g2:SE","1","1","0","867618","3916.3","8923.2","17206.5","1","4","4","6","1","-1","-1","0","0","0","5006.9","3000","-2565","[""left"",""up""]","{""num_key_presses"":0,""num_perfect"":0,""num_errors"":0,""num_randdir"":0,""num_randdir_good_moves"":0,""num_whilered"":0,""num_whileblue"":0,""num_blue"":1,""num_good_moves"":0}","[298.07142857142856,287.47767857142856,1,298.07142857142856,287.47767857142856,100.9,298.07142857142856,287.47767857142856,204.8,298.07142857142856,287.47767857142856,305.3,298.07142857142856,287.47767857142856,405.3,293.07142857142856,287.47767857142856,515.6,293.07142857142856,296.47767857142856,620,293.07142857142856,298.47767857142856,720.2,293.07142857142856,299.47767857142856,821.3,291.07142857142856,307.47767857142856,929.5,318.07142857142856,372.47767857142856,1030.6,443.07142857142856,491.47767857142856,1134.7,462.07142857142856,515.4776785714286,1235.9,473.07142857142856,536.4776785714286,1343.9,487.07142857142856,536.4776785714286,1447.2,493.07142857142856,536.4776785714286,1550.9,532.0714285714286,544.4776785714286,1663.1,541.0714285714286,547.4776785714286,1765.8,541.0714285714286,547.4776785714286,1873,541.0714285714286,547.4776785714286,1975.6,541.0714285714286,547.4776785714286,2083.1,541.0714285714286,547.4776785714286,2185,541.0714285714286,547.4776785714286,2291.1,541.0714285714286,547.4776785714286,2394,541.0714285714286,547.4776785714286,2495,541.0714285714286,547.4776785714286,2595.2,541.0714285714286,547.4776785714286,2695.3,541.0714285714286,547.4776785714286,2796.9,541.0714285714286,547.4776785714286,2900.1,541.0714285714286,547.4776785714286,3007.9,541.0714285714286,547.4776785714286,3109.3,541.0714285714286,547.4776785714286,3210,541.0714285714286,547.4776785714286,3310,541.0714285714286,547.4776785714286,3410.2,541.0714285714286,547.4776785714286,3511,541.0714285714286,547.4776785714286,3611.2,541.0714285714286,547.4776785714286,3715,541.0714285714286,547.4776785714286,3815,541.0714285714286,547.4776785714286,3915.5,541.0714285714286,547.4776785714286,4015.7,541.0714285714286,547.4776785714286,4121,541.0714285714286,547.4776785714286,4222.2,541.0714285714286,547.4776785714286,4325.1,541.0714285714286,547.4776785714286,4425.2,541.0714285714286,547.4776785714286,4525.3,541.0714285714286,547.4776785714286,4631.1,541.0714285714286,547.4776785714286,4736.2,541.0714285714286,547.4776785714286,4838.2,541.0714285714286,547.4776785714286,4940.6]","[]","","",""
"16675","","<div style=""width:500px;"">
  <p>What determined the result of this run?</p>
  </div>","20","html-slider-response","43","900376","0.0-10.0-1.0","88","1","2025-07-09 09:07:41","7701e855f2ef39aa3fd6c71abdc6918a","169.0.103.39","Mozilla/5.0 (Windows NT 10.0; Win64; x64) AppleWebKit/537.36 (KHTML, like Gecko) Chrome/138.0.0.0 Safari/537.36","WebKit","Chrome","138.0.0.0","Windows","10.0","https://app.prolific.com/","en-GB,en-US;q=0.9,en;q=0.8","67cea841046ca74e2069ae47","686d226cabeef709c732f8e1","686e312673c58bc046fff2f4","67cea841046ca74e2069ae47","2025-07-09T09:22:43.444Z","","","","","","AttribQ","","","","","","","","","","","","","","","","","","","","","","","","","","","","","","","","","","","","","","50",""
"5993","","<div style=""width:500px;"">
  <p>How much control did you have over the ball?</p>
  </div>","7","html-slider-response","44","906374","0.0-10.0-2.0","88","1","2025-07-09 09:07:41","7701e855f2ef39aa3fd6c71abdc6918a","169.0.103.39","Mozilla/5.0 (Windows NT 10.0; Win64; x64) AppleWebKit/537.36 (KHTML, like Gecko) Chrome/138.0.0.0 Safari/537.36","WebKit","Chrome","138.0.0.0","Windows","10.0","https://app.prolific.com/","en-GB,en-US;q=0.9,en;q=0.8","67cea841046ca74e2069ae47","686d226cabeef709c732f8e1","686e312673c58bc046fff2f4","67cea841046ca74e2069ae47","2025-07-09T09:22:49.442Z","","","","","","ControlQ","","","","","","","","","","","","","","","","","","","","","","","","","","","","","","","","","","","","","","50",""
"6310","","<div style=""width:500px;"">
  <p>How would you describe your current emotional state?</p>
  </div>","75","html-slider-response","45","912686","0.0-10.0-3.0","88","1","2025-07-09 09:07:41","7701e855f2ef39aa3fd6c71abdc6918a","169.0.103.39","Mozilla/5.0 (Windows NT 10.0; Win64; x64) AppleWebKit/537.36 (KHTML, like Gecko) Chrome/138.0.0.0 Safari/537.36","WebKit","Chrome","138.0.0.0","Windows","10.0","https://app.prolific.com/","en-GB,en-US;q=0.9,en;q=0.8","67cea841046ca74e2069ae47","686d226cabeef709c732f8e1","686e312673c58bc046fff2f4","67cea841046ca74e2069ae47","2025-07-09T09:22:55.755Z","","","","","","StressQ","","","","","","","","","","","","","","","","","","","","","","","","","","","","","","","","","","","","","","50",""
"5277","","<div style=""width:500px;"">
  <p>What best describes how you currently feel?</p>
  </div>","100","html-slider-response","46","917965","0.0-10.0-4.0","88","1","2025-07-09 09:07:41","7701e855f2ef39aa3fd6c71abdc6918a","169.0.103.39","Mozilla/5.0 (Windows NT 10.0; Win64; x64) AppleWebKit/537.36 (KHTML, like Gecko) Chrome/138.0.0.0 Safari/537.36","WebKit","Chrome","138.0.0.0","Windows","10.0","https://app.prolific.com/","en-GB,en-US;q=0.9,en;q=0.8","67cea841046ca74e2069ae47","686d226cabeef709c732f8e1","686e312673c58bc046fff2f4","67cea841046ca74e2069ae47","2025-07-09T09:23:01.034Z","","","","","","MotivationQ","","","","","","","","","","","","","","","","","","","","","","","","","","","","","","","","","","","","","","50",""
"","","","","ctl-task-cpt","47","936181","0.0-10.0-0.1","88","1","2025-07-09 09:07:41","7701e855f2ef39aa3fd6c71abdc6918a","169.0.103.39","Mozilla/5.0 (Windows NT 10.0; Win64; x64) AppleWebKit/537.36 (KHTML, like Gecko) Chrome/138.0.0.0 Safari/537.36","WebKit","Chrome","138.0.0.0","Windows","10.0","https://app.prolific.com/","en-GB,en-US;q=0.9,en;q=0.8","67cea841046ca74e2069ae47","686d226cabeef709c732f8e1","686e312673c58bc046fff2f4","67cea841046ca74e2069ae47","2025-07-09T09:23:19.249Z","","","","","","","","","","","","","","","","win-only","3","g1:SW,g2:NE","0.9","2","0","922119.7","5066.9","10069.1","15185.9","1","4","8","6","2","-8","-8","0","0","0","5002.1","3000","-2200","[""up"",""right""]","{""num_key_presses"":0,""num_perfect"":0,""num_errors"":0,""num_randdir"":0,""num_randdir_good_moves"":0,""num_whilered"":0,""num_whileblue"":0,""num_blue"":0,""num_good_moves"":0}","[295.07142857142856,290.47767857142856,0.5,295.07142857142856,290.47767857142856,105.9,295.07142857142856,290.47767857142856,216.9,295.07142857142856,289.47767857142856,317.2,296.07142857142856,289.47767857142856,417.3,311.07142857142856,294.47767857142856,519.6,363.07142857142856,312.47767857142856,632.2,427.07142857142856,337.47767857142856,733.8,421.07142857142856,337.47767857142856,844.2,372.07142857142856,332.47767857142856,947.5,340.07142857142856,332.47767857142856,1050,328.07142857142856,333.47767857142856,1154.5,313.07142857142856,334.47767857142856,1274.5,294.07142857142856,317.47767857142856,1374.7,243.07142857142856,263.47767857142856,1480.2,251.07142857142856,189.47767857142856,1585.3,317.07142857142856,150.47767857142856,1699.9,408.07142857142856,123.47767857142857,1810.9,470.07142857142856,95.47767857142857,1917.4,493.07142857142856,78.47767857142857,2019.9,493.07142857142856,78.47767857142857,2131.8,493.07142857142856,78.47767857142857,2241.1,493.07142857142856,78.47767857142857,2344.4,493.07142857142856,78.47767857142857,2446.2,493.07142857142856,78.47767857142857,2552,493.07142857142856,78.47767857142857,2655.7,493.07142857142856,78.47767857142857,2759.4,493.07142857142856,77.47767857142857,2859.8,493.07142857142856,77.47767857142857,2965,493.07142857142856,77.47767857142857,3065.4,493.07142857142856,77.47767857142857,3171,493.07142857142856,77.47767857142857,3271.6,493.07142857142856,78.47767857142857,3375.1,508.07142857142856,72.47767857142857,3475.1,528.0714285714286,64.47767857142857,3577.4,528.0714285714286,64.47767857142857,3679.8,528.0714285714286,64.47767857142857,3781.3,528.0714285714286,64.47767857142857,3890,528.0714285714286,64.47767857142857,3990,528.0714285714286,64.47767857142857,4097.2,528.0714285714286,64.47767857142857,4199.3,528.0714285714286,64.47767857142857,4301.5,528.0714285714286,64.47767857142857,4406,528.0714285714286,64.47767857142857,4514.1,528.0714285714286,64.47767857142857,4623.2,528.0714285714286,64.47767857142857,4726.1,528.0714285714286,64.47767857142857,4831.2,528.0714285714286,64.47767857142857,4940.2]","[]","","",""
"5989","","<div style=""width:500px;"">
  <p>What determined the result of this run?</p>
  </div>","100","html-slider-response","48","942172","0.0-10.0-1.1","88","1","2025-07-09 09:07:41","7701e855f2ef39aa3fd6c71abdc6918a","169.0.103.39","Mozilla/5.0 (Windows NT 10.0; Win64; x64) AppleWebKit/537.36 (KHTML, like Gecko) Chrome/138.0.0.0 Safari/537.36","WebKit","Chrome","138.0.0.0","Windows","10.0","https://app.prolific.com/","en-GB,en-US;q=0.9,en;q=0.8","67cea841046ca74e2069ae47","686d226cabeef709c732f8e1","686e312673c58bc046fff2f4","67cea841046ca74e2069ae47","2025-07-09T09:23:25.240Z","","","","","","AttribQ","","","","","","","","","","","","","","","","","","","","","","","","","","","","","","","","","","","","","","50",""
"3917","","<div style=""width:500px;"">
  <p>How much control did you have over the ball?</p>
  </div>","100","html-slider-response","49","946091","0.0-10.0-2.1","88","1","2025-07-09 09:07:41","7701e855f2ef39aa3fd6c71abdc6918a","169.0.103.39","Mozilla/5.0 (Windows NT 10.0; Win64; x64) AppleWebKit/537.36 (KHTML, like Gecko) Chrome/138.0.0.0 Safari/537.36","WebKit","Chrome","138.0.0.0","Windows","10.0","https://app.prolific.com/","en-GB,en-US;q=0.9,en;q=0.8","67cea841046ca74e2069ae47","686d226cabeef709c732f8e1","686e312673c58bc046fff2f4","67cea841046ca74e2069ae47","2025-07-09T09:23:29.160Z","","","","","","ControlQ","","","","","","","","","","","","","","","","","","","","","","","","","","","","","","","","","","","","","","50",""
"3766","","<div style=""width:500px;"">
  <p>How would you describe your current emotional state?</p>
  </div>","0","html-slider-response","50","949860","0.0-10.0-3.1","88","1","2025-07-09 09:07:41","7701e855f2ef39aa3fd6c71abdc6918a","169.0.103.39","Mozilla/5.0 (Windows NT 10.0; Win64; x64) AppleWebKit/537.36 (KHTML, like Gecko) Chrome/138.0.0.0 Safari/537.36","WebKit","Chrome","138.0.0.0","Windows","10.0","https://app.prolific.com/","en-GB,en-US;q=0.9,en;q=0.8","67cea841046ca74e2069ae47","686d226cabeef709c732f8e1","686e312673c58bc046fff2f4","67cea841046ca74e2069ae47","2025-07-09T09:23:32.928Z","","","","","","StressQ","","","","","","","","","","","","","","","","","","","","","","","","","","","","","","","","","","","","","","50",""
"4324","","<div style=""width:500px;"">
  <p>What best describes how you currently feel?</p>
  </div>","100","html-slider-response","51","954187","0.0-10.0-4.1","88","1","2025-07-09 09:07:41","7701e855f2ef39aa3fd6c71abdc6918a","169.0.103.39","Mozilla/5.0 (Windows NT 10.0; Win64; x64) AppleWebKit/537.36 (KHTML, like Gecko) Chrome/138.0.0.0 Safari/537.36","WebKit","Chrome","138.0.0.0","Windows","10.0","https://app.prolific.com/","en-GB,en-US;q=0.9,en;q=0.8","67cea841046ca74e2069ae47","686d226cabeef709c732f8e1","686e312673c58bc046fff2f4","67cea841046ca74e2069ae47","2025-07-09T09:23:37.255Z","","","","","","MotivationQ","","","","","","","","","","","","","","","","","","","","","","","","","","","","","","","","","","","","","","50",""
"","","","","ctl-task-cpt","52","970749","0.0-10.0-0.2","88","1","2025-07-09 09:07:41","7701e855f2ef39aa3fd6c71abdc6918a","169.0.103.39","Mozilla/5.0 (Windows NT 10.0; Win64; x64) AppleWebKit/537.36 (KHTML, like Gecko) Chrome/138.0.0.0 Safari/537.36","WebKit","Chrome","138.0.0.0","Windows","10.0","https://app.prolific.com/","en-GB,en-US;q=0.9,en;q=0.8","67cea841046ca74e2069ae47","686d226cabeef709c732f8e1","686e312673c58bc046fff2f4","67cea841046ca74e2069ae47","2025-07-09T09:23:53.817Z","","","","","","","","","","","","","","","","win-only","0","g1:NW,g2:SE","0.8","3","0","958339.3","2980.5","7990.6","13538.2","1","4","4","6","2","-4","-4","0","0","0","5010.1","3000","-1960","[""down"",""right""]","{""num_key_presses"":0,""num_perfect"":0,""num_errors"":0,""num_randdir"":0,""num_randdir_good_moves"":0,""num_whilered"":0,""num_whileblue"":0,""num_blue"":0,""num_good_moves"":0}","[296.07142857142856,296.47767857142856,1.2,296.07142857142856,296.47767857142856,101.7,296.07142857142856,300.47767857142856,209.7,314.07142857142856,310.47767857142856,312.8,349.07142857142856,346.47767857142856,413.6,368.07142857142856,373.47767857142856,515.1,393.07142857142856,427.47767857142856,617.3,428.07142857142856,489.47767857142856,730.6,440.07142857142856,504.47767857142856,831.9,432.07142857142856,522.4776785714286,951.4,370.07142857142856,512.4776785714286,1053.9,261.07142857142856,478.47767857142856,1173.1,232.07142857142856,471.47767857142856,1275.8,387.07142857142856,515.4776785714286,1378.6,412.07142857142856,522.4776785714286,1480.4,459.07142857142856,537.4776785714286,1580.7,497.07142857142856,557.4776785714286,1704.1,512.0714285714286,564.4776785714286,1818.7,516.0714285714286,564.4776785714286,1928.1,518.0714285714286,563.4776785714286,2032.9,518.0714285714286,563.4776785714286,2146.6,518.0714285714286,563.4776785714286,2247.2,518.0714285714286,563.4776785714286,2349.3,518.0714285714286,563.4776785714286,2453.5,518.0714285714286,563.4776785714286,2553.7,518.0714285714286,563.4776785714286,2657.1,518.0714285714286,563.4776785714286,2757.3,518.0714285714286,563.4776785714286,2858,518.0714285714286,563.4776785714286,2961.2,518.0714285714286,562.4776785714286,3077.3,518.0714285714286,562.4776785714286,3180.1,518.0714285714286,562.4776785714286,3283.7,518.0714285714286,562.4776785714286,3395,518.0714285714286,562.4776785714286,3496.8,518.0714285714286,562.4776785714286,3614.6,518.0714285714286,562.4776785714286,3716.4,518.0714285714286,562.4776785714286,3819.1,518.0714285714286,562.4776785714286,3930.5,518.0714285714286,562.4776785714286,4033.2,518.0714285714286,562.4776785714286,4142.2,518.0714285714286,562.4776785714286,4248.7,518.0714285714286,562.4776785714286,4355.3,518.0714285714286,562.4776785714286,4455.6,518.0714285714286,562.4776785714286,4558.1,518.0714285714286,562.4776785714286,4658.9,518.0714285714286,562.4776785714286,4761.9,518.0714285714286,562.4776785714286,4863.6,518.0714285714286,562.4776785714286,4972]","[]","","",""
"2827","","<div style=""width:500px;"">
  <p>What determined the result of this run?</p>
  </div>","100","html-slider-response","53","973580","0.0-10.0-1.2","88","1","2025-07-09 09:07:41","7701e855f2ef39aa3fd6c71abdc6918a","169.0.103.39","Mozilla/5.0 (Windows NT 10.0; Win64; x64) AppleWebKit/537.36 (KHTML, like Gecko) Chrome/138.0.0.0 Safari/537.36","WebKit","Chrome","138.0.0.0","Windows","10.0","https://app.prolific.com/","en-GB,en-US;q=0.9,en;q=0.8","67cea841046ca74e2069ae47","686d226cabeef709c732f8e1","686e312673c58bc046fff2f4","67cea841046ca74e2069ae47","2025-07-09T09:23:56.648Z","","","","","","AttribQ","","","","","","","","","","","","","","","","","","","","","","","","","","","","","","","","","","","","","","50",""
"2589","","<div style=""width:500px;"">
  <p>How much control did you have over the ball?</p>
  </div>","100","html-slider-response","54","976172","0.0-10.0-2.2","88","1","2025-07-09 09:07:41","7701e855f2ef39aa3fd6c71abdc6918a","169.0.103.39","Mozilla/5.0 (Windows NT 10.0; Win64; x64) AppleWebKit/537.36 (KHTML, like Gecko) Chrome/138.0.0.0 Safari/537.36","WebKit","Chrome","138.0.0.0","Windows","10.0","https://app.prolific.com/","en-GB,en-US;q=0.9,en;q=0.8","67cea841046ca74e2069ae47","686d226cabeef709c732f8e1","686e312673c58bc046fff2f4","67cea841046ca74e2069ae47","2025-07-09T09:23:59.240Z","","","","","","ControlQ","","","","","","","","","","","","","","","","","","","","","","","","","","","","","","","","","","","","","","50",""
"2500","","<div style=""width:500px;"">
  <p>How would you describe your current emotional state?</p>
  </div>","0","html-slider-response","55","978674","0.0-10.0-3.2","88","1","2025-07-09 09:07:41","7701e855f2ef39aa3fd6c71abdc6918a","169.0.103.39","Mozilla/5.0 (Windows NT 10.0; Win64; x64) AppleWebKit/537.36 (KHTML, like Gecko) Chrome/138.0.0.0 Safari/537.36","WebKit","Chrome","138.0.0.0","Windows","10.0","https://app.prolific.com/","en-GB,en-US;q=0.9,en;q=0.8","67cea841046ca74e2069ae47","686d226cabeef709c732f8e1","686e312673c58bc046fff2f4","67cea841046ca74e2069ae47","2025-07-09T09:24:01.742Z","","","","","","StressQ","","","","","","","","","","","","","","","","","","","","","","","","","","","","","","","","","","","","","","50",""
"3901","","<div style=""width:500px;"">
  <p>What best describes how you currently feel?</p>
  </div>","100","html-slider-response","56","982577","0.0-10.0-4.2","88","1","2025-07-09 09:07:41","7701e855f2ef39aa3fd6c71abdc6918a","169.0.103.39","Mozilla/5.0 (Windows NT 10.0; Win64; x64) AppleWebKit/537.36 (KHTML, like Gecko) Chrome/138.0.0.0 Safari/537.36","WebKit","Chrome","138.0.0.0","Windows","10.0","https://app.prolific.com/","en-GB,en-US;q=0.9,en;q=0.8","67cea841046ca74e2069ae47","686d226cabeef709c732f8e1","686e312673c58bc046fff2f4","67cea841046ca74e2069ae47","2025-07-09T09:24:05.645Z","","","","","","MotivationQ","","","","","","","","","","","","","","","","","","","","","","","","","","","","","","","","","","","","","","50",""
"","","","","ctl-task-cpt","57","998999","0.0-10.0-0.3","88","1","2025-07-09 09:07:41","7701e855f2ef39aa3fd6c71abdc6918a","169.0.103.39","Mozilla/5.0 (Windows NT 10.0; Win64; x64) AppleWebKit/537.36 (KHTML, like Gecko) Chrome/138.0.0.0 Safari/537.36","WebKit","Chrome","138.0.0.0","Windows","10.0","https://app.prolific.com/","en-GB,en-US;q=0.9,en;q=0.8","67cea841046ca74e2069ae47","686d226cabeef709c732f8e1","686e312673c58bc046fff2f4","67cea841046ca74e2069ae47","2025-07-09T09:24:22.068Z","","","","","","","","","","","","","","","","win-only","3","g1:SW,g2:NE","0.7","4","0","986729.8","1747.4","6751.2","13399.7","1","4","8","6","2","-8","-8","0","0","0","5003.7","3000","-1720","[""up"",""right""]","{""num_key_presses"":0,""num_perfect"":0,""num_errors"":0,""num_randdir"":0,""num_randdir_good_moves"":0,""num_whilered"":0,""num_whileblue"":0,""num_blue"":0,""num_good_moves"":0}","[296.07142857142856,291.47767857142856,0.3,296.07142857142856,291.47767857142856,114.1,296.07142857142856,291.47767857142856,214.5,308.07142857142856,291.47767857142856,329.6,331.07142857142856,259.47767857142856,432.7,327.07142857142856,248.47767857142856,537,361.07142857142856,243.47767857142856,637.7,427.07142857142856,208.47767857142856,738.3,494.07142857142856,166.47767857142856,841.5,674.0714285714286,7.477678571428569,941.5,678.0714285714286,-27.52232142857143,1041.9,608.0714285714286,-19.52232142857143,1166.8,568.0714285714286,-8.52232142857143,1282.3,551.0714285714286,15.47767857142857,1388.7,548.0714285714286,21.47767857142857,1492.5,547.0714285714286,22.47767857142857,1611.4,546.0714285714286,24.47767857142857,1730.9,546.0714285714286,31.47767857142857,1831.2,546.0714285714286,36.47767857142857,1934.9,546.0714285714286,36.47767857142857,2043,546.0714285714286,36.47767857142857,2158.9,546.0714285714286,36.47767857142857,2265.3,546.0714285714286,36.47767857142857,2367.8,546.0714285714286,36.47767857142857,2472.8,546.0714285714286,36.47767857142857,2606.9,546.0714285714286,36.47767857142857,2710.8,546.0714285714286,36.47767857142857,2814.7,546.0714285714286,37.47767857142857,2923.6,546.0714285714286,37.47767857142857,3040.5,546.0714285714286,37.47767857142857,3158.7,546.0714285714286,37.47767857142857,3263.6,546.0714285714286,37.47767857142857,3363.8,546.0714285714286,37.47767857142857,3482.8,546.0714285714286,37.47767857142857,3587.2,546.0714285714286,37.47767857142857,3687.6,546.0714285714286,37.47767857142857,3793.2,546.0714285714286,37.47767857142857,3905.8,546.0714285714286,37.47767857142857,4007.2,546.0714285714286,37.47767857142857,4121.3,546.0714285714286,37.47767857142857,4223,546.0714285714286,37.47767857142857,4325.5,546.0714285714286,37.47767857142857,4430.9,546.0714285714286,37.47767857142857,4537.4,546.0714285714286,37.47767857142857,4641.4,546.0714285714286,37.47767857142857,4741.5,546.0714285714286,37.47767857142857,4845.5,546.0714285714286,37.47767857142857,4953.1]","[]","","",""
"5941","","<div style=""width:500px;"">
  <p>What determined the result of this run?</p>
  </div>","100","html-slider-response","58","1004945","0.0-10.0-1.3","88","1","2025-07-09 09:07:41","7701e855f2ef39aa3fd6c71abdc6918a","169.0.103.39","Mozilla/5.0 (Windows NT 10.0; Win64; x64) AppleWebKit/537.36 (KHTML, like Gecko) Chrome/138.0.0.0 Safari/537.36","WebKit","Chrome","138.0.0.0","Windows","10.0","https://app.prolific.com/","en-GB,en-US;q=0.9,en;q=0.8","67cea841046ca74e2069ae47","686d226cabeef709c732f8e1","686e312673c58bc046fff2f4","67cea841046ca74e2069ae47","2025-07-09T09:24:28.013Z","","","","","","AttribQ","","","","","","","","","","","","","","","","","","","","","","","","","","","","","","","","","","","","","","50",""
"3131","","<div style=""width:500px;"">
  <p>How much control did you have over the ball?</p>
  </div>","100","html-slider-response","59","1008080","0.0-10.0-2.3","88","1","2025-07-09 09:07:41","7701e855f2ef39aa3fd6c71abdc6918a","169.0.103.39","Mozilla/5.0 (Windows NT 10.0; Win64; x64) AppleWebKit/537.36 (KHTML, like Gecko) Chrome/138.0.0.0 Safari/537.36","WebKit","Chrome","138.0.0.0","Windows","10.0","https://app.prolific.com/","en-GB,en-US;q=0.9,en;q=0.8","67cea841046ca74e2069ae47","686d226cabeef709c732f8e1","686e312673c58bc046fff2f4","67cea841046ca74e2069ae47","2025-07-09T09:24:31.148Z","","","","","","ControlQ","","","","","","","","","","","","","","","","","","","","","","","","","","","","","","","","","","","","","","50",""
"4925","","<div style=""width:500px;"">
  <p>How would you describe your current emotional state?</p>
  </div>","0","html-slider-response","60","1013008","0.0-10.0-3.3","88","1","2025-07-09 09:07:41","7701e855f2ef39aa3fd6c71abdc6918a","169.0.103.39","Mozilla/5.0 (Windows NT 10.0; Win64; x64) AppleWebKit/537.36 (KHTML, like Gecko) Chrome/138.0.0.0 Safari/537.36","WebKit","Chrome","138.0.0.0","Windows","10.0","https://app.prolific.com/","en-GB,en-US;q=0.9,en;q=0.8","67cea841046ca74e2069ae47","686d226cabeef709c732f8e1","686e312673c58bc046fff2f4","67cea841046ca74e2069ae47","2025-07-09T09:24:36.077Z","","","","","","StressQ","","","","","","","","","","","","","","","","","","","","","","","","","","","","","","","","","","","","","","50",""
"2537","","<div style=""width:500px;"">
  <p>What best describes how you currently feel?</p>
  </div>","100","html-slider-response","61","1015551","0.0-10.0-4.3","88","1","2025-07-09 09:07:41","7701e855f2ef39aa3fd6c71abdc6918a","169.0.103.39","Mozilla/5.0 (Windows NT 10.0; Win64; x64) AppleWebKit/537.36 (KHTML, like Gecko) Chrome/138.0.0.0 Safari/537.36","WebKit","Chrome","138.0.0.0","Windows","10.0","https://app.prolific.com/","en-GB,en-US;q=0.9,en;q=0.8","67cea841046ca74e2069ae47","686d226cabeef709c732f8e1","686e312673c58bc046fff2f4","67cea841046ca74e2069ae47","2025-07-09T09:24:38.619Z","","","","","","MotivationQ","","","","","","","","","","","","","","","","","","","","","","","","","","","","","","","","","","","","","","50",""
"","","","","ctl-task-cpt","62","1042046","0.0-10.0-0.4","88","1","2025-07-09 09:07:41","7701e855f2ef39aa3fd6c71abdc6918a","169.0.103.39","Mozilla/5.0 (Windows NT 10.0; Win64; x64) AppleWebKit/537.36 (KHTML, like Gecko) Chrome/138.0.0.0 Safari/537.36","WebKit","Chrome","138.0.0.0","Windows","10.0","https://app.prolific.com/","en-GB,en-US;q=0.9,en;q=0.8","67cea841046ca74e2069ae47","686d226cabeef709c732f8e1","686e312673c58bc046fff2f4","67cea841046ca74e2069ae47","2025-07-09T09:25:05.114Z","","","","","","","","","","","","","","","","win-only","2","g1:SE,g2:NW","0.6","5","0","1019705.7","10863.4","15864.5","23471.6","1","4","8","6","2","-8","-8","0","0","0","5001.1","3000","-1250","[""left"",""up""]","{""num_key_presses"":0,""num_perfect"":0,""num_errors"":0,""num_randdir"":0,""num_randdir_good_moves"":0,""num_whilered"":0,""num_whileblue"":0,""num_blue"":0,""num_good_moves"":0}","[290.07142857142856,291.47767857142856,1.4,290.07142857142856,291.47767857142856,105.4,290.07142857142856,291.47767857142856,211.8,290.07142857142856,291.47767857142856,318.5,299.07142857142856,295.47767857142856,434.7,334.07142857142856,310.47767857142856,542.6,354.07142857142856,312.47767857142856,650.9,403.07142857142856,343.47767857142856,751.1,431.07142857142856,371.47767857142856,851.7,369.07142857142856,299.47767857142856,953.3,-50.92857142857143,-83.52232142857143,1068.5,-50.92857142857143,-83.52232142857143,1170.9,-50.92857142857143,-83.52232142857143,1272.9,-114.92857142857143,-27.52232142857143,1385.6,-80.92857142857143,-9.52232142857143,1487.3,-60.92857142857143,-7.522321428571431,1594.4,-5.928571428571431,16.47767857142857,1707.6,6.071428571428569,27.47767857142857,1812.5,13.07142857142857,34.47767857142857,1929.5,50.07142857142857,52.47767857142857,2030.8,70.07142857142857,57.47767857142857,2135.8,73.07142857142857,59.47767857142857,2251.5,73.07142857142857,59.47767857142857,2352.2,73.07142857142857,59.47767857142857,2454.8,73.07142857142857,59.47767857142857,2559.3,73.07142857142857,59.47767857142857,2664.3,73.07142857142857,59.47767857142857,2765.9,73.07142857142857,59.47767857142857,2866.8,73.07142857142857,59.47767857142857,2971.7,73.07142857142857,59.47767857142857,3080.3,73.07142857142857,59.47767857142857,3180.5,73.07142857142857,59.47767857142857,3283.6,73.07142857142857,59.47767857142857,3395.2,73.07142857142857,59.47767857142857,3502.2,73.07142857142857,59.47767857142857,3609.9,73.07142857142857,59.47767857142857,3717.9,73.07142857142857,59.47767857142857,3824.8,73.07142857142857,59.47767857142857,3929.3,69.07142857142857,59.47767857142857,4042.1,69.07142857142857,59.47767857142857,4146.7,69.07142857142857,59.47767857142857,4247.8,69.07142857142857,59.47767857142857,4349.1,69.07142857142857,59.47767857142857,4458.8,69.07142857142857,59.47767857142857,4566.3,69.07142857142857,59.47767857142857,4675.6,69.07142857142857,59.47767857142857,4777.4,69.07142857142857,59.47767857142857,4882.3,69.07142857142857,59.47767857142857,4991]","[]","","",""
"5285","","<div style=""width:500px;"">
  <p>What determined the result of this run?</p>
  </div>","100","html-slider-response","63","1047334","0.0-10.0-1.4","88","1","2025-07-09 09:07:41","7701e855f2ef39aa3fd6c71abdc6918a","169.0.103.39","Mozilla/5.0 (Windows NT 10.0; Win64; x64) AppleWebKit/537.36 (KHTML, like Gecko) Chrome/138.0.0.0 Safari/537.36","WebKit","Chrome","138.0.0.0","Windows","10.0","https://app.prolific.com/","en-GB,en-US;q=0.9,en;q=0.8","67cea841046ca74e2069ae47","686d226cabeef709c732f8e1","686e312673c58bc046fff2f4","67cea841046ca74e2069ae47","2025-07-09T09:25:10.402Z","","","","","","AttribQ","","","","","","","","","","","","","","","","","","","","","","","","","","","","","","","","","","","","","","50",""
"2871","","<div style=""width:500px;"">
  <p>How much control did you have over the ball?</p>
  </div>","100","html-slider-response","64","1050208","0.0-10.0-2.4","88","1","2025-07-09 09:07:41","7701e855f2ef39aa3fd6c71abdc6918a","169.0.103.39","Mozilla/5.0 (Windows NT 10.0; Win64; x64) AppleWebKit/537.36 (KHTML, like Gecko) Chrome/138.0.0.0 Safari/537.36","WebKit","Chrome","138.0.0.0","Windows","10.0","https://app.prolific.com/","en-GB,en-US;q=0.9,en;q=0.8","67cea841046ca74e2069ae47","686d226cabeef709c732f8e1","686e312673c58bc046fff2f4","67cea841046ca74e2069ae47","2025-07-09T09:25:13.276Z","","","","","","ControlQ","","","","","","","","","","","","","","","","","","","","","","","","","","","","","","","","","","","","","","50",""
"2874","","<div style=""width:500px;"">
  <p>How would you describe your current emotional state?</p>
  </div>","0","html-slider-response","65","1053085","0.0-10.0-3.4","88","1","2025-07-09 09:07:41","7701e855f2ef39aa3fd6c71abdc6918a","169.0.103.39","Mozilla/5.0 (Windows NT 10.0; Win64; x64) AppleWebKit/537.36 (KHTML, like Gecko) Chrome/138.0.0.0 Safari/537.36","WebKit","Chrome","138.0.0.0","Windows","10.0","https://app.prolific.com/","en-GB,en-US;q=0.9,en;q=0.8","67cea841046ca74e2069ae47","686d226cabeef709c732f8e1","686e312673c58bc046fff2f4","67cea841046ca74e2069ae47","2025-07-09T09:25:16.154Z","","","","","","StressQ","","","","","","","","","","","","","","","","","","","","","","","","","","","","","","","","","","","","","","50",""
"2920","","<div style=""width:500px;"">
  <p>What best describes how you currently feel?</p>
  </div>","100","html-slider-response","66","1056008","0.0-10.0-4.4","88","1","2025-07-09 09:07:41","7701e855f2ef39aa3fd6c71abdc6918a","169.0.103.39","Mozilla/5.0 (Windows NT 10.0; Win64; x64) AppleWebKit/537.36 (KHTML, like Gecko) Chrome/138.0.0.0 Safari/537.36","WebKit","Chrome","138.0.0.0","Windows","10.0","https://app.prolific.com/","en-GB,en-US;q=0.9,en;q=0.8","67cea841046ca74e2069ae47","686d226cabeef709c732f8e1","686e312673c58bc046fff2f4","67cea841046ca74e2069ae47","2025-07-09T09:25:19.076Z","","","","","","MotivationQ","","","","","","","","","","","","","","","","","","","","","","","","","","","","","","","","","","","","","","50",""
"","","","","ctl-task-cpt","67","1074851","0.0-10.0-0.5","88","1","2025-07-09 09:07:41","7701e855f2ef39aa3fd6c71abdc6918a","169.0.103.39","Mozilla/5.0 (Windows NT 10.0; Win64; x64) AppleWebKit/537.36 (KHTML, like Gecko) Chrome/138.0.0.0 Safari/537.36","WebKit","Chrome","138.0.0.0","Windows","10.0","https://app.prolific.com/","en-GB,en-US;q=0.9,en;q=0.8","67cea841046ca74e2069ae47","686d226cabeef709c732f8e1","686e312673c58bc046fff2f4","67cea841046ca74e2069ae47","2025-07-09T09:25:37.919Z","","","","","","","","","","","","","","","","win-only","0","g1:NW,g2:SE","0.5","6","0","1060162.2","3225.2","8231.4","15824.8","1","4","4","6","1","-1","-1","0","0","0","5006.2","3000","-1240","[""left"",""up""]","{""num_key_presses"":0,""num_perfect"":0,""num_errors"":0,""num_randdir"":0,""num_randdir_good_moves"":0,""num_whilered"":0,""num_whileblue"":0,""num_blue"":0,""num_good_moves"":0}","[295.07142857142856,299.47767857142856,0.9,295.07142857142856,299.47767857142856,103.7,299.07142857142856,299.47767857142856,205.9,312.07142857142856,308.47767857142856,312,318.07142857142856,331.47767857142856,420.6,350.07142857142856,385.47767857142856,548.9,449.07142857142856,498.47767857142856,679.3,529.0714285714286,539.4776785714286,798.9,533.0714285714286,539.4776785714286,915.9,533.0714285714286,539.4776785714286,1018,534.0714285714286,539.4776785714286,1121.4,534.0714285714286,539.4776785714286,1223,534.0714285714286,539.4776785714286,1334.5,534.0714285714286,539.4776785714286,1455.5,534.0714285714286,539.4776785714286,1560.4,534.0714285714286,539.4776785714286,1661.8,534.0714285714286,539.4776785714286,1787.2,534.0714285714286,539.4776785714286,1895.1,534.0714285714286,539.4776785714286,1996.9,534.0714285714286,539.4776785714286,2101.8,534.0714285714286,539.4776785714286,2218.7,534.0714285714286,539.4776785714286,2321.8,534.0714285714286,539.4776785714286,2427,534.0714285714286,539.4776785714286,2528.5,534.0714285714286,539.4776785714286,2631.9,534.0714285714286,539.4776785714286,2736.3,534.0714285714286,539.4776785714286,2837.1,534.0714285714286,539.4776785714286,2943.1,534.0714285714286,539.4776785714286,3073.7,535.0714285714286,539.4776785714286,3177.3,536.0714285714286,539.4776785714286,3286.1,536.0714285714286,539.4776785714286,3393.2,536.0714285714286,539.4776785714286,3497.5,536.0714285714286,539.4776785714286,3603.1,536.0714285714286,539.4776785714286,3743.5,536.0714285714286,539.4776785714286,3846.6,536.0714285714286,539.4776785714286,3952.1,536.0714285714286,539.4776785714286,4059.5,536.0714285714286,539.4776785714286,4177.1,536.0714285714286,539.4776785714286,4280.3,536.0714285714286,539.4776785714286,4382.3,536.0714285714286,539.4776785714286,4490.9,536.0714285714286,539.4776785714286,4592.1,536.0714285714286,539.4776785714286,4702.2,536.0714285714286,539.4776785714286,4804.4,536.0714285714286,539.4776785714286,4907.1]","[]","","",""
"2782","","<div style=""width:500px;"">
  <p>What determined the result of this run?</p>
  </div>","100","html-slider-response","68","1077637","0.0-10.0-1.5","88","1","2025-07-09 09:07:41","7701e855f2ef39aa3fd6c71abdc6918a","169.0.103.39","Mozilla/5.0 (Windows NT 10.0; Win64; x64) AppleWebKit/537.36 (KHTML, like Gecko) Chrome/138.0.0.0 Safari/537.36","WebKit","Chrome","138.0.0.0","Windows","10.0","https://app.prolific.com/","en-GB,en-US;q=0.9,en;q=0.8","67cea841046ca74e2069ae47","686d226cabeef709c732f8e1","686e312673c58bc046fff2f4","67cea841046ca74e2069ae47","2025-07-09T09:25:40.706Z","","","","","","AttribQ","","","","","","","","","","","","","","","","","","","","","","","","","","","","","","","","","","","","","","50",""
"2539","","<div style=""width:500px;"">
  <p>How much control did you have over the ball?</p>
  </div>","100","html-slider-response","69","1080180","0.0-10.0-2.5","88","1","2025-07-09 09:07:41","7701e855f2ef39aa3fd6c71abdc6918a","169.0.103.39","Mozilla/5.0 (Windows NT 10.0; Win64; x64) AppleWebKit/537.36 (KHTML, like Gecko) Chrome/138.0.0.0 Safari/537.36","WebKit","Chrome","138.0.0.0","Windows","10.0","https://app.prolific.com/","en-GB,en-US;q=0.9,en;q=0.8","67cea841046ca74e2069ae47","686d226cabeef709c732f8e1","686e312673c58bc046fff2f4","67cea841046ca74e2069ae47","2025-07-09T09:25:43.248Z","","","","","","ControlQ","","","","","","","","","","","","","","","","","","","","","","","","","","","","","","","","","","","","","","50",""
"11108","","<div style=""width:500px;"">
  <p>How would you describe your current emotional state?</p>
  </div>","50","html-slider-response","70","1091292","0.0-10.0-3.5","88","1","2025-07-09 09:07:41","7701e855f2ef39aa3fd6c71abdc6918a","169.0.103.39","Mozilla/5.0 (Windows NT 10.0; Win64; x64) AppleWebKit/537.36 (KHTML, like Gecko) Chrome/138.0.0.0 Safari/537.36","WebKit","Chrome","138.0.0.0","Windows","10.0","https://app.prolific.com/","en-GB,en-US;q=0.9,en;q=0.8","67cea841046ca74e2069ae47","686d226cabeef709c732f8e1","686e312673c58bc046fff2f4","67cea841046ca74e2069ae47","2025-07-09T09:25:54.360Z","","","","","","StressQ","","","","","","","","","","","","","","","","","","","","","","","","","","","","","","","","","","","","","","50",""
"4124","","<div style=""width:500px;"">
  <p>What best describes how you currently feel?</p>
  </div>","100","html-slider-response","71","1095420","0.0-10.0-4.5","88","1","2025-07-09 09:07:41","7701e855f2ef39aa3fd6c71abdc6918a","169.0.103.39","Mozilla/5.0 (Windows NT 10.0; Win64; x64) AppleWebKit/537.36 (KHTML, like Gecko) Chrome/138.0.0.0 Safari/537.36","WebKit","Chrome","138.0.0.0","Windows","10.0","https://app.prolific.com/","en-GB,en-US;q=0.9,en;q=0.8","67cea841046ca74e2069ae47","686d226cabeef709c732f8e1","686e312673c58bc046fff2f4","67cea841046ca74e2069ae47","2025-07-09T09:25:58.488Z","","","","","","MotivationQ","","","","","","","","","","","","","","","","","","","","","","","","","","","","","","","","","","","","","","50",""
"","","","","ctl-task-cpt","72","1115695","0.0-10.0-0.6","88","1","2025-07-09 09:07:41","7701e855f2ef39aa3fd6c71abdc6918a","169.0.103.39","Mozilla/5.0 (Windows NT 10.0; Win64; x64) AppleWebKit/537.36 (KHTML, like Gecko) Chrome/138.0.0.0 Safari/537.36","WebKit","Chrome","138.0.0.0","Windows","10.0","https://app.prolific.com/","en-GB,en-US;q=0.9,en;q=0.8","67cea841046ca74e2069ae47","686d226cabeef709c732f8e1","686e312673c58bc046fff2f4","67cea841046ca74e2069ae47","2025-07-09T09:26:18.763Z","","","","","","","","","","","","","","","","win-only","1","g1:NE,g2:SW","0.4","7","0","1099576.5","1362.7","6377.7","17259.1","1","4","8","6","1","-1","-1","0","0","0","5015","3000","-1480","[""up"",""right""]","{""num_key_presses"":0,""num_perfect"":0,""num_errors"":0,""num_randdir"":0,""num_randdir_good_moves"":0,""num_whilered"":0,""num_whileblue"":0,""num_blue"":1,""num_good_moves"":0}","[296.07142857142856,299.47767857142856,0.9,296.07142857142856,299.47767857142856,102.9,299.07142857142856,300.47767857142856,226,306.07142857142856,307.47767857142856,327.6,306.07142857142856,309.47767857142856,435.1,331.07142857142856,356.47767857142856,550.6,336.07142857142856,359.47767857142856,673.9,336.07142857142856,347.47767857142856,814.1,308.07142857142856,341.47767857142856,950,188.07142857142856,467.47767857142856,1084.3,143.07142857142856,511.47767857142856,1208.3,112.07142857142857,512.4776785714286,1337.2,62.07142857142857,517.4776785714286,1461.8,59.07142857142857,524.4776785714286,1591,56.07142857142857,527.4776785714286,1719.4,56.07142857142857,527.4776785714286,1835.9,56.07142857142857,527.4776785714286,1960.4,56.07142857142857,527.4776785714286,2082.9,56.07142857142857,527.4776785714286,2210.7,56.07142857142857,527.4776785714286,2345.7,56.07142857142857,527.4776785714286,2471.8,56.07142857142857,527.4776785714286,2600.3,56.07142857142857,527.4776785714286,2712.5,56.07142857142857,527.4776785714286,2856.6,56.07142857142857,527.4776785714286,2959.1,56.07142857142857,527.4776785714286,3109.4,56.07142857142857,527.4776785714286,3212.2,56.07142857142857,527.4776785714286,3345.2,56.07142857142857,527.4776785714286,3488.5,56.07142857142857,527.4776785714286,3634.2,56.07142857142857,527.4776785714286,3801.8,56.07142857142857,527.4776785714286,3919.5,56.07142857142857,527.4776785714286,4025.4,56.07142857142857,527.4776785714286,4136.4,56.07142857142857,527.4776785714286,4253.7,56.07142857142857,527.4776785714286,4366.6,56.07142857142857,527.4776785714286,4469.4,56.07142857142857,527.4776785714286,4592.1,56.07142857142857,527.4776785714286,4705,56.07142857142857,527.4776785714286,4814.7,56.07142857142857,527.4776785714286,4917.7]","[]","","",""
"3672","","<div style=""width:500px;"">
  <p>What determined the result of this run?</p>
  </div>","100","html-slider-response","73","1119369","0.0-10.0-1.6","88","1","2025-07-09 09:07:41","7701e855f2ef39aa3fd6c71abdc6918a","169.0.103.39","Mozilla/5.0 (Windows NT 10.0; Win64; x64) AppleWebKit/537.36 (KHTML, like Gecko) Chrome/138.0.0.0 Safari/537.36","WebKit","Chrome","138.0.0.0","Windows","10.0","https://app.prolific.com/","en-GB,en-US;q=0.9,en;q=0.8","67cea841046ca74e2069ae47","686d226cabeef709c732f8e1","686e312673c58bc046fff2f4","67cea841046ca74e2069ae47","2025-07-09T09:26:22.438Z","","","","","","AttribQ","","","","","","","","","","","","","","","","","","","","","","","","","","","","","","","","","","","","","","50",""
"2815","","<div style=""width:500px;"">
  <p>How much control did you have over the ball?</p>
  </div>","100","html-slider-response","74","1122187","0.0-10.0-2.6","88","1","2025-07-09 09:07:41","7701e855f2ef39aa3fd6c71abdc6918a","169.0.103.39","Mozilla/5.0 (Windows NT 10.0; Win64; x64) AppleWebKit/537.36 (KHTML, like Gecko) Chrome/138.0.0.0 Safari/537.36","WebKit","Chrome","138.0.0.0","Windows","10.0","https://app.prolific.com/","en-GB,en-US;q=0.9,en;q=0.8","67cea841046ca74e2069ae47","686d226cabeef709c732f8e1","686e312673c58bc046fff2f4","67cea841046ca74e2069ae47","2025-07-09T09:26:25.255Z","","","","","","ControlQ","","","","","","","","","","","","","","","","","","","","","","","","","","","","","","","","","","","","","","50",""
"2684","","<div style=""width:500px;"">
  <p>How would you describe your current emotional state?</p>
  </div>","0","html-slider-response","75","1124873","0.0-10.0-3.6","88","1","2025-07-09 09:07:41","7701e855f2ef39aa3fd6c71abdc6918a","169.0.103.39","Mozilla/5.0 (Windows NT 10.0; Win64; x64) AppleWebKit/537.36 (KHTML, like Gecko) Chrome/138.0.0.0 Safari/537.36","WebKit","Chrome","138.0.0.0","Windows","10.0","https://app.prolific.com/","en-GB,en-US;q=0.9,en;q=0.8","67cea841046ca74e2069ae47","686d226cabeef709c732f8e1","686e312673c58bc046fff2f4","67cea841046ca74e2069ae47","2025-07-09T09:26:27.941Z","","","","","","StressQ","","","","","","","","","","","","","","","","","","","","","","","","","","","","","","","","","","","","","","50",""
"2934","","<div style=""width:500px;"">
  <p>What best describes how you currently feel?</p>
  </div>","100","html-slider-response","76","1127809","0.0-10.0-4.6","88","1","2025-07-09 09:07:41","7701e855f2ef39aa3fd6c71abdc6918a","169.0.103.39","Mozilla/5.0 (Windows NT 10.0; Win64; x64) AppleWebKit/537.36 (KHTML, like Gecko) Chrome/138.0.0.0 Safari/537.36","WebKit","Chrome","138.0.0.0","Windows","10.0","https://app.prolific.com/","en-GB,en-US;q=0.9,en;q=0.8","67cea841046ca74e2069ae47","686d226cabeef709c732f8e1","686e312673c58bc046fff2f4","67cea841046ca74e2069ae47","2025-07-09T09:26:30.877Z","","","","","","MotivationQ","","","","","","","","","","","","","","","","","","","","","","","","","","","","","","","","","","","","","","50",""
"","","","","ctl-task-cpt","77","1159627","0.0-10.0-0.7","88","1","2025-07-09 09:07:41","7701e855f2ef39aa3fd6c71abdc6918a","169.0.103.39","Mozilla/5.0 (Windows NT 10.0; Win64; x64) AppleWebKit/537.36 (KHTML, like Gecko) Chrome/138.0.0.0 Safari/537.36","WebKit","Chrome","138.0.0.0","Windows","10.0","https://app.prolific.com/","en-GB,en-US;q=0.9,en;q=0.8","67cea841046ca74e2069ae47","686d226cabeef709c732f8e1","686e312673c58bc046fff2f4","67cea841046ca74e2069ae47","2025-07-09T09:27:02.696Z","","","","","","","","","","","","","","","","win-only","3","g1:SW,g2:NE","0.3","8","0","1131961.7","14764.8","19766.3","28800.1","1","4","4","6","2","-4","-4","0","0","0","3501.9","3000","-985","[""up"",""right""]","{""num_key_presses"":0,""num_perfect"":0,""num_errors"":0,""num_randdir"":0,""num_randdir_good_moves"":0,""num_whilered"":0,""num_whileblue"":0,""num_blue"":0,""num_good_moves"":0}","[292.07142857142856,293.47767857142856,1.2,293.07142857142856,292.47767857142856,107.3,294.07142857142856,295.47767857142856,207.6,298.07142857142856,309.47767857142856,313.3,293.07142857142856,315.47767857142856,450.2,289.07142857142856,316.47767857142856,555.9,284.07142857142856,320.47767857142856,657.3,270.07142857142856,344.47767857142856,785.6,270.07142857142856,344.47767857142856,887.4,268.07142857142856,350.47767857142856,988.5,300.07142857142856,337.47767857142856,1092.1,431.07142857142856,209.47767857142856,1192.7,499.07142857142856,71.47767857142857,1302.7,521.0714285714286,54.47767857142857,1407.4,530.0714285714286,50.47767857142857,1520.7,530.0714285714286,50.47767857142857,1634.4,530.0714285714286,50.47767857142857,1739.5,530.0714285714286,50.47767857142857,1839.7,530.0714285714286,50.47767857142857,1945.1,530.0714285714286,50.47767857142857,2069.6,530.0714285714286,50.47767857142857,2187.1,530.0714285714286,50.47767857142857,2292.4,530.0714285714286,50.47767857142857,2398.7,530.0714285714286,50.47767857142857,2505.9,530.0714285714286,50.47767857142857,2605.9,530.0714285714286,50.47767857142857,2719.5,530.0714285714286,50.47767857142857,2824.2,530.0714285714286,50.47767857142857,2936,530.0714285714286,50.47767857142857,3040.3,530.0714285714286,50.47767857142857,3144.5,530.0714285714286,50.47767857142857,3262,530.0714285714286,50.47767857142857,3396.2,530.0714285714286,50.47767857142857,3498.4,530.0714285714286,50.47767857142857,3602.5,530.0714285714286,50.47767857142857,3714.7,530.0714285714286,50.47767857142857,3821.1,530.0714285714286,50.47767857142857,3925.6,530.0714285714286,50.47767857142857,4027.7,530.0714285714286,50.47767857142857,4133.2,530.0714285714286,50.47767857142857,4233.8,530.0714285714286,50.47767857142857,4335.6,530.0714285714286,50.47767857142857,4442.6,530.0714285714286,50.47767857142857,4561.4,530.0714285714286,50.47767857142857,4661.8,530.0714285714286,50.47767857142857,4762.3,530.0714285714286,50.47767857142857,4862.8,530.0714285714286,50.47767857142857,4966.2]","[]","","",""
"3136","","<div style=""width:500px;"">
  <p>What determined the result of this run?</p>
  </div>","100","html-slider-response","78","1162768","0.0-10.0-1.7","88","1","2025-07-09 09:07:41","7701e855f2ef39aa3fd6c71abdc6918a","169.0.103.39","Mozilla/5.0 (Windows NT 10.0; Win64; x64) AppleWebKit/537.36 (KHTML, like Gecko) Chrome/138.0.0.0 Safari/537.36","WebKit","Chrome","138.0.0.0","Windows","10.0","https://app.prolific.com/","en-GB,en-US;q=0.9,en;q=0.8","67cea841046ca74e2069ae47","686d226cabeef709c732f8e1","686e312673c58bc046fff2f4","67cea841046ca74e2069ae47","2025-07-09T09:27:05.836Z","","","","","","AttribQ","","","","","","","","","","","","","","","","","","","","","","","","","","","","","","","","","","","","","","50",""
"3044","","<div style=""width:500px;"">
  <p>How much control did you have over the ball?</p>
  </div>","100","html-slider-response","79","1165815","0.0-10.0-2.7","88","1","2025-07-09 09:07:41","7701e855f2ef39aa3fd6c71abdc6918a","169.0.103.39","Mozilla/5.0 (Windows NT 10.0; Win64; x64) AppleWebKit/537.36 (KHTML, like Gecko) Chrome/138.0.0.0 Safari/537.36","WebKit","Chrome","138.0.0.0","Windows","10.0","https://app.prolific.com/","en-GB,en-US;q=0.9,en;q=0.8","67cea841046ca74e2069ae47","686d226cabeef709c732f8e1","686e312673c58bc046fff2f4","67cea841046ca74e2069ae47","2025-07-09T09:27:08.883Z","","","","","","ControlQ","","","","","","","","","","","","","","","","","","","","","","","","","","","","","","","","","","","","","","50",""
"3245","","<div style=""width:500px;"">
  <p>How would you describe your current emotional state?</p>
  </div>","0","html-slider-response","80","1169062","0.0-10.0-3.7","88","1","2025-07-09 09:07:41","7701e855f2ef39aa3fd6c71abdc6918a","169.0.103.39","Mozilla/5.0 (Windows NT 10.0; Win64; x64) AppleWebKit/537.36 (KHTML, like Gecko) Chrome/138.0.0.0 Safari/537.36","WebKit","Chrome","138.0.0.0","Windows","10.0","https://app.prolific.com/","en-GB,en-US;q=0.9,en;q=0.8","67cea841046ca74e2069ae47","686d226cabeef709c732f8e1","686e312673c58bc046fff2f4","67cea841046ca74e2069ae47","2025-07-09T09:27:12.130Z","","","","","","StressQ","","","","","","","","","","","","","","","","","","","","","","","","","","","","","","","","","","","","","","50",""
"2437","","<div style=""width:500px;"">
  <p>What best describes how you currently feel?</p>
  </div>","100","html-slider-response","81","1171501","0.0-10.0-4.7","88","1","2025-07-09 09:07:41","7701e855f2ef39aa3fd6c71abdc6918a","169.0.103.39","Mozilla/5.0 (Windows NT 10.0; Win64; x64) AppleWebKit/537.36 (KHTML, like Gecko) Chrome/138.0.0.0 Safari/537.36","WebKit","Chrome","138.0.0.0","Windows","10.0","https://app.prolific.com/","en-GB,en-US;q=0.9,en;q=0.8","67cea841046ca74e2069ae47","686d226cabeef709c732f8e1","686e312673c58bc046fff2f4","67cea841046ca74e2069ae47","2025-07-09T09:27:14.571Z","","","","","","MotivationQ","","","","","","","","","","","","","","","","","","","","","","","","","","","","","","","","","","","","","","50",""
"","","","","ctl-task-cpt","82","1226075","0.0-10.0-0.8","88","1","2025-07-09 09:07:41","7701e855f2ef39aa3fd6c71abdc6918a","169.0.103.39","Mozilla/5.0 (Windows NT 10.0; Win64; x64) AppleWebKit/537.36 (KHTML, like Gecko) Chrome/138.0.0.0 Safari/537.36","WebKit","Chrome","138.0.0.0","Windows","10.0","https://app.prolific.com/","en-GB,en-US;q=0.9,en;q=0.8","67cea841046ca74e2069ae47","686d226cabeef709c732f8e1","686e312673c58bc046fff2f4","67cea841046ca74e2069ae47","2025-07-09T09:28:09.143Z","","","","","","","","","","","","","","","","win-only","0","g1:NW,g2:SE","0.2","9","0","1175657.8","11607.4","16614.1","51540.2","1","4","8","6","2","-8","-12","0","0","0","2274.6","3000","-745","[""down"",""right""]","{""num_key_presses"":8,""num_perfect"":0,""num_errors"":4,""num_randdir"":4,""num_randdir_good_moves"":2,""num_whilered"":0,""num_whileblue"":0,""num_blue"":1,""num_good_moves"":2}","[299.07142857142856,290.47767857142856,0.9,299.07142857142856,290.47767857142856,101.2,299.07142857142856,290.47767857142856,204.4,299.07142857142856,290.47767857142856,311.3,333.07142857142856,331.47767857142856,434.6,401.07142857142856,421.47767857142856,537.2,510.07142857142856,541.4776785714286,642.5,527.0714285714286,552.4776785714286,749.8,531.0714285714286,556.4776785714286,859.5,533.0714285714286,555.4776785714286,961.8,533.0714285714286,555.4776785714286,1070.2,533.0714285714286,555.4776785714286,1182.7,533.0714285714286,555.4776785714286,1283.5,533.0714285714286,555.4776785714286,1387.1,533.0714285714286,555.4776785714286,1497.8,533.0714285714286,555.4776785714286,1613.8,533.0714285714286,555.4776785714286,1725.6,533.0714285714286,555.4776785714286,1829.7,533.0714285714286,555.4776785714286,1935.7,533.0714285714286,555.4776785714286,2051.8,533.0714285714286,555.4776785714286,2163,533.0714285714286,555.4776785714286,2265.8,533.0714285714286,555.4776785714286,2379.9,533.0714285714286,555.4776785714286,2482.5,533.0714285714286,555.4776785714286,2598.7,533.0714285714286,555.4776785714286,2699.6,518.0714285714286,555.4776785714286,2809.4,458.07142857142856,552.4776785714286,2914.4,335.07142857142856,528.4776785714286,3030,295.07142857142856,527.4776785714286,3136.6,264.07142857142856,527.4776785714286,3256.4,245.07142857142856,527.4776785714286,3359.5,245.07142857142856,527.4776785714286,3473.5,245.07142857142856,527.4776785714286,3579.9,245.07142857142856,527.4776785714286,3693.4,245.07142857142856,527.4776785714286,3801.8,245.07142857142856,527.4776785714286,3912.5,245.07142857142856,527.4776785714286,4014.2,245.07142857142856,527.4776785714286,4117.8,245.07142857142856,527.4776785714286,4238.7,246.07142857142856,527.4776785714286,4354.6,339.07142857142856,513.4776785714286,4474.5,360.07142857142856,505.47767857142856,4575.4,502.07142857142856,525.4776785714286,4689.9,571.0714285714286,553.4776785714286,4795.1,574.0714285714286,553.4776785714286,4913.4]","[6007.3,6007.3,1000,0,5007.3,""oops"",""right"",""up"",""bad_move"",7085.6,1077,2709.1,6008.8,-1632.3,""error"",""-"",""-"",""no_move"",11031.7,3945.1,2290.8,8099.8,641.1,""oops"",""right"",""down"",""good_move"",11333,300.3,2802.8,11032.7,-2502.5,""error"",""-"",""-"",""no_move"",15713.8,4380.3,2005.4,12346.5,1361.9,""oops"",""right"",""left"",""bad_move"",16677.4,962.8,2147,15714.6,-1184.2,""error"",""-"",""-"",""no_move"",19418.6,2740.1,2410.7,17685.4,-677.5,""error"",""-"",""-"",""no_move"",23719.7,4299.6,2298.6,20428.3,992.9,""oops"",""left"",""down"",""good_move""]","","",""
"4060","","<div style=""width:500px;"">
  <p>What determined the result of this run?</p>
  </div>","100","html-slider-response","83","1230138","0.0-10.0-1.8","88","1","2025-07-09 09:07:41","7701e855f2ef39aa3fd6c71abdc6918a","169.0.103.39","Mozilla/5.0 (Windows NT 10.0; Win64; x64) AppleWebKit/537.36 (KHTML, like Gecko) Chrome/138.0.0.0 Safari/537.36","WebKit","Chrome","138.0.0.0","Windows","10.0","https://app.prolific.com/","en-GB,en-US;q=0.9,en;q=0.8","67cea841046ca74e2069ae47","686d226cabeef709c732f8e1","686e312673c58bc046fff2f4","67cea841046ca74e2069ae47","2025-07-09T09:28:13.207Z","","","","","","AttribQ","","","","","","","","","","","","","","","","","","","","","","","","","","","","","","","","","","","","","","50",""
"7325","","<div style=""width:500px;"">
  <p>How much control did you have over the ball?</p>
  </div>","0","html-slider-response","84","1237466","0.0-10.0-2.8","88","1","2025-07-09 09:07:41","7701e855f2ef39aa3fd6c71abdc6918a","169.0.103.39","Mozilla/5.0 (Windows NT 10.0; Win64; x64) AppleWebKit/537.36 (KHTML, like Gecko) Chrome/138.0.0.0 Safari/537.36","WebKit","Chrome","138.0.0.0","Windows","10.0","https://app.prolific.com/","en-GB,en-US;q=0.9,en;q=0.8","67cea841046ca74e2069ae47","686d226cabeef709c732f8e1","686e312673c58bc046fff2f4","67cea841046ca74e2069ae47","2025-07-09T09:28:20.535Z","","","","","","ControlQ","","","","","","","","","","","","","","","","","","","","","","","","","","","","","","","","","","","","","","50",""
"3510","","<div style=""width:500px;"">
  <p>How would you describe your current emotional state?</p>
  </div>","79","html-slider-response","85","1240979","0.0-10.0-3.8","88","1","2025-07-09 09:07:41","7701e855f2ef39aa3fd6c71abdc6918a","169.0.103.39","Mozilla/5.0 (Windows NT 10.0; Win64; x64) AppleWebKit/537.36 (KHTML, like Gecko) Chrome/138.0.0.0 Safari/537.36","WebKit","Chrome","138.0.0.0","Windows","10.0","https://app.prolific.com/","en-GB,en-US;q=0.9,en;q=0.8","67cea841046ca74e2069ae47","686d226cabeef709c732f8e1","686e312673c58bc046fff2f4","67cea841046ca74e2069ae47","2025-07-09T09:28:24.047Z","","","","","","StressQ","","","","","","","","","","","","","","","","","","","","","","","","","","","","","","","","","","","","","","50",""
"3571","","<div style=""width:500px;"">
  <p>What best describes how you currently feel?</p>
  </div>","75","html-slider-response","86","1244554","0.0-10.0-4.8","88","1","2025-07-09 09:07:41","7701e855f2ef39aa3fd6c71abdc6918a","169.0.103.39","Mozilla/5.0 (Windows NT 10.0; Win64; x64) AppleWebKit/537.36 (KHTML, like Gecko) Chrome/138.0.0.0 Safari/537.36","WebKit","Chrome","138.0.0.0","Windows","10.0","https://app.prolific.com/","en-GB,en-US;q=0.9,en;q=0.8","67cea841046ca74e2069ae47","686d226cabeef709c732f8e1","686e312673c58bc046fff2f4","67cea841046ca74e2069ae47","2025-07-09T09:28:27.623Z","","","","","","MotivationQ","","","","","","","","","","","","","","","","","","","","","","","","","","","","","","","","","","","","","","50",""
"","","","","ctl-task-cpt","87","1312501","0.0-10.0-0.9","88","1","2025-07-09 09:07:41","7701e855f2ef39aa3fd6c71abdc6918a","169.0.103.39","Mozilla/5.0 (Windows NT 10.0; Win64; x64) AppleWebKit/537.36 (KHTML, like Gecko) Chrome/138.0.0.0 Safari/537.36","WebKit","Chrome","138.0.0.0","Windows","10.0","https://app.prolific.com/","en-GB,en-US;q=0.9,en;q=0.8","67cea841046ca74e2069ae47","686d226cabeef709c732f8e1","686e312673c58bc046fff2f4","67cea841046ca74e2069ae47","2025-07-09T09:29:35.569Z","","","","","","","","","","","","","","","","win-only","0","g1:NW,g2:SE","0.4","10","0","1248708.3","2730.3","7743.2","64918.9","1","4","4","6","2","-4","-4","0","0","0","1958.4","3000","-710","[""down"",""right""]","{""num_key_presses"":12,""num_perfect"":6,""num_errors"":0,""num_randdir"":6,""num_randdir_good_moves"":2,""num_whilered"":0,""num_whileblue"":0,""num_blue"":2,""num_good_moves"":6}","[293.07142857142856,290.47767857142856,0.5,293.07142857142856,290.47767857142856,124.3,293.07142857142856,290.47767857142856,242.8,296.07142857142856,294.47767857142856,375.7,296.07142857142856,300.47767857142856,498.1,293.07142857142856,322.47767857142856,611.3,290.07142857142856,375.47767857142856,727.2,312.07142857142856,446.47767857142856,837,483.07142857142856,545.4776785714286,946.8,573.0714285714286,597.4776785714286,1060.8,595.0714285714286,609.4776785714286,1166.9,597.0714285714286,602.4776785714286,1274.6,588.0714285714286,588.4776785714286,1385.2,585.0714285714286,584.4776785714286,1493,571.0714285714286,576.4776785714286,1608,563.0714285714286,570.4776785714286,1721.1,558.0714285714286,563.4776785714286,1826.1,558.0714285714286,563.4776785714286,1935.6,558.0714285714286,563.4776785714286,2057,558.0714285714286,563.4776785714286,2178.9,555.0714285714286,561.4776785714286,2286.6,485.07142857142856,543.4776785714286,2418.7,437.07142857142856,528.4776785714286,2529.8,431.07142857142856,523.4776785714286,2640.2,431.07142857142856,523.4776785714286,2749.8,431.07142857142856,523.4776785714286,2854.7,431.07142857142856,523.4776785714286,2961.5,431.07142857142856,523.4776785714286,3067,431.07142857142856,523.4776785714286,3196.2,431.07142857142856,523.4776785714286,3321.3,431.07142857142856,523.4776785714286,3450.2,431.07142857142856,523.4776785714286,3561.8,431.07142857142856,523.4776785714286,3669.4,431.07142857142856,523.4776785714286,3776.4,431.07142857142856,523.4776785714286,3886.8,431.07142857142856,523.4776785714286,3991,431.07142857142856,523.4776785714286,4099.5,431.07142857142856,523.4776785714286,4225.8,431.07142857142856,523.4776785714286,4346.6,431.07142857142856,523.4776785714286,4473.5,431.07142857142856,523.4776785714286,4591.3,431.07142857142856,523.4776785714286,4730.4,431.07142857142856,523.4776785714286,4853.5,431.07142857142856,523.4776785714286,4974.1]","[1979.5,1979.5,1000,0,979.5,""oops"",""right"",""right"",""good_move"",5493,3512.7,2886.8,1980.4,625.8,""oops"",""right"",""up"",""bad_move"",11243.9,5750.1,1906.6,5493.8,3843.5,""oops"",""right"",""up"",""bad_move"",14764.4,3520.1,1889.5,11244.3,1630.6,""smooth"",""left"",""left"",""bad_move"",22470.3,7701.7,3025.8,18277.6,1166.9,""oops"",""left"",""left"",""bad_move"",26813.3,4341.8,1618.2,22471.5,2723.6,""oops"",""left"",""left"",""bad_move"",31271.2,4456.9,2329.9,26814.3,2127,""oops"",""right"",""right"",""good_move"",36213.2,4941,2789.2,31272.2,2151.8,""smooth"",""right"",""right"",""good_move"",39524.7,3310.3,2413.8,36214.4,896.5,""smooth"",""right"",""right"",""good_move"",42643.6,3118.5,2089.8,39525.2,1028.6,""smooth"",""right"",""right"",""good_move"",46105.8,3460.4,2781.3,42645.5,679,""smooth"",""right"",""right"",""good_move"",53358.6,7251.5,2959.5,49835.6,563.5,""smooth"",""left"",""left"",""bad_move""]","","",""
"4838","","<div style=""width:500px;"">
  <p>What determined the result of this run?</p>
  </div>","100","html-slider-response","88","1317342","0.0-10.0-1.9","88","1","2025-07-09 09:07:41","7701e855f2ef39aa3fd6c71abdc6918a","169.0.103.39","Mozilla/5.0 (Windows NT 10.0; Win64; x64) AppleWebKit/537.36 (KHTML, like Gecko) Chrome/138.0.0.0 Safari/537.36","WebKit","Chrome","138.0.0.0","Windows","10.0","https://app.prolific.com/","en-GB,en-US;q=0.9,en;q=0.8","67cea841046ca74e2069ae47","686d226cabeef709c732f8e1","686e312673c58bc046fff2f4","67cea841046ca74e2069ae47","2025-07-09T09:29:40.410Z","","","","","","AttribQ","","","","","","","","","","","","","","","","","","","","","","","","","","","","","","","","","","","","","","50",""
"5995","","<div style=""width:500px;"">
  <p>How much control did you have over the ball?</p>
  </div>","100","html-slider-response","89","1323340","0.0-10.0-2.9","88","1","2025-07-09 09:07:41","7701e855f2ef39aa3fd6c71abdc6918a","169.0.103.39","Mozilla/5.0 (Windows NT 10.0; Win64; x64) AppleWebKit/537.36 (KHTML, like Gecko) Chrome/138.0.0.0 Safari/537.36","WebKit","Chrome","138.0.0.0","Windows","10.0","https://app.prolific.com/","en-GB,en-US;q=0.9,en;q=0.8","67cea841046ca74e2069ae47","686d226cabeef709c732f8e1","686e312673c58bc046fff2f4","67cea841046ca74e2069ae47","2025-07-09T09:29:46.408Z","","","","","","ControlQ","","","","","","","","","","","","","","","","","","","","","","","","","","","","","","","","","","","","","","50",""
"2731","","<div style=""width:500px;"">
  <p>How would you describe your current emotional state?</p>
  </div>","0","html-slider-response","90","1326074","0.0-10.0-3.9","88","1","2025-07-09 09:07:41","7701e855f2ef39aa3fd6c71abdc6918a","169.0.103.39","Mozilla/5.0 (Windows NT 10.0; Win64; x64) AppleWebKit/537.36 (KHTML, like Gecko) Chrome/138.0.0.0 Safari/537.36","WebKit","Chrome","138.0.0.0","Windows","10.0","https://app.prolific.com/","en-GB,en-US;q=0.9,en;q=0.8","67cea841046ca74e2069ae47","686d226cabeef709c732f8e1","686e312673c58bc046fff2f4","67cea841046ca74e2069ae47","2025-07-09T09:29:49.142Z","","","","","","StressQ","","","","","","","","","","","","","","","","","","","","","","","","","","","","","","","","","","","","","","50",""
"3111","","<div style=""width:500px;"">
  <p>What best describes how you currently feel?</p>
  </div>","100","html-slider-response","91","1329188","0.0-10.0-4.9","88","1","2025-07-09 09:07:41","7701e855f2ef39aa3fd6c71abdc6918a","169.0.103.39","Mozilla/5.0 (Windows NT 10.0; Win64; x64) AppleWebKit/537.36 (KHTML, like Gecko) Chrome/138.0.0.0 Safari/537.36","WebKit","Chrome","138.0.0.0","Windows","10.0","https://app.prolific.com/","en-GB,en-US;q=0.9,en;q=0.8","67cea841046ca74e2069ae47","686d226cabeef709c732f8e1","686e312673c58bc046fff2f4","67cea841046ca74e2069ae47","2025-07-09T09:29:52.256Z","","","","","","MotivationQ","","","","","","","","","","","","","","","","","","","","","","","","","","","","","","","","","","","","","","50",""
