"rt","response_timestamp","stimulus","response","trial_type","trial_index","time_elapsed","internal_node_id","run_id","condition","recorded_at","source_code_version","ip","user_agent","device","browser","browser_version","platform","platform_version","referer","accept_language","PROLIFIC_PID","STUDY_ID","SESSION_ID","prolific_id","realtime","view_history","question_order","consent","success","question_id","eventType","responses","item_order","radio_event_ids","radio_event_times","key_event_times","mouse_event_times","straightlining","zigzagging","honeypot","which_type","canvas_config","goals_layout","control_level","trial_number","tutorial_trial_number","trial_start_time","phase1_start_time","phase2_start_time","phase3_start_time","goal_1_value","goal_1_distance","goal_2_value","goal_2_distance","goal_selected","outcome","outcome_total","participant_final_score","participant_initial_score","participant_final_score_prop","goal_choice_rt","allocated_time","allocated_time_remaining","goal_direction","counts","mouse_movements","key_presses","correct","slider_start","sub_question"
"6221","1752051887374","<p style='font-size:40px;line-height:1.25'><strong>Welcome to the experiment!</strong></p><p style='font-size:1.1em;line-height:1.25'>Thank you for your interest in our experiment! Before you begin, it is important that we obtain your informed consent to participate in the study.</p><p style='font-size:1.1em;line-height:1.25'>On the next screen will be an <strong>information sheet</strong> for you to read. To participate in the study we need you to read this information sheet and the following consent form carefully. If you agree with all the statements, please click the <strong>I agree</strong> button.</p><p style='font-size:1.1em;line-height:1.25'>Press <strong>Next</strong> to read the information sheet.</p>","0","custom-html-button-response","0","6227","0.0-0.0","7","1","2025-07-09 09:04:38","7701e855f2ef39aa3fd6c71abdc6918a","146.90.88.118","Mozilla/5.0 (Windows NT 10.0; Win64; x64) AppleWebKit/537.36 (KHTML, like Gecko) Chrome/138.0.0.0 Safari/537.36","WebKit","Chrome","138.0.0.0","Windows","10.0","https://app.prolific.com/","en-GB,en-US;q=0.9,en;q=0.8","66c746f450506abe4d80b5e1","686d226cabeef709c732f8e1","686e308d886cb7a29c51ac97","66c746f450506abe4d80b5e1","2025-07-09T09:04:47.376Z","","","","","","","","","","","","","","","","","","","","","","","","","","","","","","","","","","","","","","","","","","","","",""
"10509","","","","instructions","1","16738","0.0-1.0","7","1","2025-07-09 09:04:38","7701e855f2ef39aa3fd6c71abdc6918a","146.90.88.118","Mozilla/5.0 (Windows NT 10.0; Win64; x64) AppleWebKit/537.36 (KHTML, like Gecko) Chrome/138.0.0.0 Safari/537.36","WebKit","Chrome","138.0.0.0","Windows","10.0","https://app.prolific.com/","en-GB,en-US;q=0.9,en;q=0.8","66c746f450506abe4d80b5e1","686d226cabeef709c732f8e1","686e308d886cb7a29c51ac97","66c746f450506abe4d80b5e1","","[{""page_index"":0,""viewing_time"":7044},{""page_index"":1,""viewing_time"":3464}]","","","","","","","","","","","","","","","","","","","","","","","","","","","","","","","","","","","","","","","","","","","",""
"7357","","","{""Q0"":"""",""Q1"":"""",""Q2"":"""",""Q3"":"""",""Q4"":"""",""Q5"":"""",""Q6"":""I agree""}","survey-multi-choice","2","24100","0.0-2.0","7","1","2025-07-09 09:04:38","7701e855f2ef39aa3fd6c71abdc6918a","146.90.88.118","Mozilla/5.0 (Windows NT 10.0; Win64; x64) AppleWebKit/537.36 (KHTML, like Gecko) Chrome/138.0.0.0 Safari/537.36","WebKit","Chrome","138.0.0.0","Windows","10.0","https://app.prolific.com/","en-GB,en-US;q=0.9,en;q=0.8","66c746f450506abe4d80b5e1","686d226cabeef709c732f8e1","686e308d886cb7a29c51ac97","66c746f450506abe4d80b5e1","","","[0,1,2,3,4,5,6]","true","","","","","","","","","","","","","","","","","","","","","","","","","","","","","","","","","","","","","","","","","",""
"6124","","","","fullscreen","3","31231","0.0-4.0","7","1","2025-07-09 09:04:38","7701e855f2ef39aa3fd6c71abdc6918a","146.90.88.118","Mozilla/5.0 (Windows NT 10.0; Win64; x64) AppleWebKit/537.36 (KHTML, like Gecko) Chrome/138.0.0.0 Safari/537.36","WebKit","Chrome","138.0.0.0","Windows","10.0","https://app.prolific.com/","en-GB,en-US;q=0.9,en;q=0.8","66c746f450506abe4d80b5e1","686d226cabeef709c732f8e1","686e308d886cb7a29c51ac97","66c746f450506abe4d80b5e1","","","","","true","","","","","","","","","","","","","","","","","","","","","","","","","","","","","","","","","","","","","","","","",""
"4735","1752051917117"," <p style='font-size:1.1em;line-height:1.25'>Thank you for completing the consent form and closing all other tabs.</p><p style='font-size:1.1em;line-height:1.25'>We will now invite you to fill in some demographic information and questionnaires, before starting the game.<br>This will take about 5 minutes.<br></p><p style='font-size:1.1em;line-height:1.25'>Press the <strong>Next</strong> button to continue.</p>","0","custom-html-button-response","4","35970","0.0-5.0","7","1","2025-07-09 09:04:38","7701e855f2ef39aa3fd6c71abdc6918a","146.90.88.118","Mozilla/5.0 (Windows NT 10.0; Win64; x64) AppleWebKit/537.36 (KHTML, like Gecko) Chrome/138.0.0.0 Safari/537.36","WebKit","Chrome","138.0.0.0","Windows","10.0","https://app.prolific.com/","en-GB,en-US;q=0.9,en;q=0.8","66c746f450506abe4d80b5e1","686d226cabeef709c732f8e1","686e308d886cb7a29c51ac97","66c746f450506abe4d80b5e1","2025-07-09T09:05:17.118Z","","","","","","","","","","","","","","","","","","","","","","","","","","","","","","","","","","","","","","","","","","","","",""
"3004","","","{""age"":""39""}","survey-text","5","38979","0.0-6.0-0.0","7","1","2025-07-09 09:04:38","7701e855f2ef39aa3fd6c71abdc6918a","146.90.88.118","Mozilla/5.0 (Windows NT 10.0; Win64; x64) AppleWebKit/537.36 (KHTML, like Gecko) Chrome/138.0.0.0 Safari/537.36","WebKit","Chrome","138.0.0.0","Windows","10.0","https://app.prolific.com/","en-GB,en-US;q=0.9,en;q=0.8","66c746f450506abe4d80b5e1","686d226cabeef709c732f8e1","686e308d886cb7a29c51ac97","66c746f450506abe4d80b5e1","","","","","","0","demographics","","","","","","","","","","","","","","","","","","","","","","","","","","","","","","","","","","","","","","",""
"3086","","","{""gender_identity"":""female/woman""}","survey-multi-choice","6","42067","0.0-6.0-1.0","7","1","2025-07-09 09:04:38","7701e855f2ef39aa3fd6c71abdc6918a","146.90.88.118","Mozilla/5.0 (Windows NT 10.0; Win64; x64) AppleWebKit/537.36 (KHTML, like Gecko) Chrome/138.0.0.0 Safari/537.36","WebKit","Chrome","138.0.0.0","Windows","10.0","https://app.prolific.com/","en-GB,en-US;q=0.9,en;q=0.8","66c746f450506abe4d80b5e1","686d226cabeef709c732f8e1","686e308d886cb7a29c51ac97","66c746f450506abe4d80b5e1","","","[0]","","","1","demographics","","","","","","","","","","","","","","","","","","","","","","","","","","","","","","","","","","","","","","",""
"2725","","","{""assigned_sex"":""female""}","survey-multi-choice","7","44794","0.0-6.0-2.0","7","1","2025-07-09 09:04:38","7701e855f2ef39aa3fd6c71abdc6918a","146.90.88.118","Mozilla/5.0 (Windows NT 10.0; Win64; x64) AppleWebKit/537.36 (KHTML, like Gecko) Chrome/138.0.0.0 Safari/537.36","WebKit","Chrome","138.0.0.0","Windows","10.0","https://app.prolific.com/","en-GB,en-US;q=0.9,en;q=0.8","66c746f450506abe4d80b5e1","686d226cabeef709c732f8e1","686e308d886cb7a29c51ac97","66c746f450506abe4d80b5e1","","","[0]","","","2","demographics","","","","","","","","","","","","","","","","","","","","","","","","","","","","","","","","","","","","","","",""
"4055","","","{""menstrual_cycle"":""No""}","survey-multi-choice","8","48851","0.0-6.0-3.0","7","1","2025-07-09 09:04:38","7701e855f2ef39aa3fd6c71abdc6918a","146.90.88.118","Mozilla/5.0 (Windows NT 10.0; Win64; x64) AppleWebKit/537.36 (KHTML, like Gecko) Chrome/138.0.0.0 Safari/537.36","WebKit","Chrome","138.0.0.0","Windows","10.0","https://app.prolific.com/","en-GB,en-US;q=0.9,en;q=0.8","66c746f450506abe4d80b5e1","686d226cabeef709c732f8e1","686e308d886cb7a29c51ac97","66c746f450506abe4d80b5e1","","","[0]","","","4","demographics","","","","","","","","","","","","","","","","","","","","","","","","","","","","","","","","","","","","","","",""
"8286","","","{""education"":""Master's Degree (e.g., MSc)""}","survey-multi-choice","9","57139","0.0-6.0-4.0","7","1","2025-07-09 09:04:38","7701e855f2ef39aa3fd6c71abdc6918a","146.90.88.118","Mozilla/5.0 (Windows NT 10.0; Win64; x64) AppleWebKit/537.36 (KHTML, like Gecko) Chrome/138.0.0.0 Safari/537.36","WebKit","Chrome","138.0.0.0","Windows","10.0","https://app.prolific.com/","en-GB,en-US;q=0.9,en;q=0.8","66c746f450506abe4d80b5e1","686d226cabeef709c732f8e1","686e308d886cb7a29c51ac97","66c746f450506abe4d80b5e1","","","[0]","","","5","demographics","","","","","","","","","","","","","","","","","","","","","","","","","","","","","","","","","","","","","","",""
"5870","","","{""education"":""Bachelor's Degree (e.g., BA)""}","survey-multi-choice","10","63011","0.0-6.0-5.0","7","1","2025-07-09 09:04:38","7701e855f2ef39aa3fd6c71abdc6918a","146.90.88.118","Mozilla/5.0 (Windows NT 10.0; Win64; x64) AppleWebKit/537.36 (KHTML, like Gecko) Chrome/138.0.0.0 Safari/537.36","WebKit","Chrome","138.0.0.0","Windows","10.0","https://app.prolific.com/","en-GB,en-US;q=0.9,en;q=0.8","66c746f450506abe4d80b5e1","686d226cabeef709c732f8e1","686e308d886cb7a29c51ac97","66c746f450506abe4d80b5e1","2025-07-09T09:05:44.159Z","","[0]","","","6","demographics","","","","","","","","","","","","","","","","","","","","","","","","","","","","","","","","","","","","","","",""
"10907","","","{""mental_health_condition"":""No"",""mental_health_treatment"":""No"",""psychiatric_medication"":""No""}","survey-text","11","73931","0.0-7.0-0.0","7","1","2025-07-09 09:04:38","7701e855f2ef39aa3fd6c71abdc6918a","146.90.88.118","Mozilla/5.0 (Windows NT 10.0; Win64; x64) AppleWebKit/537.36 (KHTML, like Gecko) Chrome/138.0.0.0 Safari/537.36","WebKit","Chrome","138.0.0.0","Windows","10.0","https://app.prolific.com/","en-GB,en-US;q=0.9,en;q=0.8","66c746f450506abe4d80b5e1","686d226cabeef709c732f8e1","686e308d886cb7a29c51ac97","66c746f450506abe4d80b5e1","2025-07-09T09:05:55.079Z","","","","","1","mental_health","","","","","","","","","","","","","","","","","","","","","","","","","","","","","","","","","","","","","","",""
"6931","","","{""depression_history"":[""Yes""]}","survey-multi-select","12","80867","0.0-7.0-1.0","7","1","2025-07-09 09:04:38","7701e855f2ef39aa3fd6c71abdc6918a","146.90.88.118","Mozilla/5.0 (Windows NT 10.0; Win64; x64) AppleWebKit/537.36 (KHTML, like Gecko) Chrome/138.0.0.0 Safari/537.36","WebKit","Chrome","138.0.0.0","Windows","10.0","https://app.prolific.com/","en-GB,en-US;q=0.9,en;q=0.8","66c746f450506abe4d80b5e1","686d226cabeef709c732f8e1","686e308d886cb7a29c51ac97","66c746f450506abe4d80b5e1","","","[0]","","","","mental_health","","","","","","","","","","","","","","","","","","","","","","","","","","","","","","","","","","","","","","",""
"14390","","","{""depression_episodes"":""3-5"",""depression_recent"":""Within the past year""}","survey-multi-choice","13","95259","0.0-7.0-2.0-0.0","7","1","2025-07-09 09:04:38","7701e855f2ef39aa3fd6c71abdc6918a","146.90.88.118","Mozilla/5.0 (Windows NT 10.0; Win64; x64) AppleWebKit/537.36 (KHTML, like Gecko) Chrome/138.0.0.0 Safari/537.36","WebKit","Chrome","138.0.0.0","Windows","10.0","https://app.prolific.com/","en-GB,en-US;q=0.9,en;q=0.8","66c746f450506abe4d80b5e1","686d226cabeef709c732f8e1","686e308d886cb7a29c51ac97","66c746f450506abe4d80b5e1","2025-07-09T09:06:16.407Z","","[0,1]","","","3","mental_health","","","","","","","","","","","","","","","","","","","","","","","","","","","","","","","","","","","","","","",""
"40709.39999985695","","","","survey-template","14","135974","0.0-7.0-3.0","7","1","2025-07-09 09:04:38","7701e855f2ef39aa3fd6c71abdc6918a","146.90.88.118","Mozilla/5.0 (Windows NT 10.0; Win64; x64) AppleWebKit/537.36 (KHTML, like Gecko) Chrome/138.0.0.0 Safari/537.36","WebKit","Chrome","138.0.0.0","Windows","10.0","https://app.prolific.com/","en-GB,en-US;q=0.9,en;q=0.8","66c746f450506abe4d80b5e1","686d226cabeef709c732f8e1","686e308d886cb7a29c51ac97","66c746f450506abe4d80b5e1","2025-07-09T09:06:57.122Z","","","","","","ius","{""Q01"":""2"",""Q02"":""2"",""Q03"":""2"",""Q04"":""3"",""Q05"":""2"",""Q06"":""1"",""Q07"":""2"",""Q08"":""0"",""Q09"":""3"",""Q10"":""3"",""Q11"":""3"",""Q12"":""3"",""Q13"":""2""}","[0,1,2,3,4,5,6,7,8,9,10,11,12]","[""Q01"",""Q02"",""Q03"",""Q04"",""Q05"",""Q06"",""Q07"",""Q08"",""Q09"",""Q10"",""Q11"",""Q12"",""Q13""]","[6266.699999809265,8842.5,10066.599999904633,12754.199999809265,15650.199999809265,19162.39999985695,24562.599999904633,27890,30674.299999952316,33050.299999952316,35226.39999985695,37602.5,39666.299999952316]","[6266.699999809265,8842.5,10066.599999904633,12754.199999809265,15650.199999809265,19162.39999985695,23730.5,24562.599999904633,27890,30674.299999952316,33050.299999952316,35226.39999985695,37602.5,39666.299999952316,40706.39999985695]","[]","0.46153846153846156","0.4166666666666667","0","","","","","","","","","","","","","","","","","","","","","","","","","","","","","",""
"2793","1752052019917","<p style='font-size:1.1em;line-height:1.25'>In the following, we will ask you a few questions relating to your experiences over the past month.<br></p><p style='font-size:1.1em;line-height:1.25'>Press the <strong>Next</strong> button to continue.</p>","0","custom-html-button-response","15","138769","0.0-7.0-4.0","7","1","2025-07-09 09:04:38","7701e855f2ef39aa3fd6c71abdc6918a","146.90.88.118","Mozilla/5.0 (Windows NT 10.0; Win64; x64) AppleWebKit/537.36 (KHTML, like Gecko) Chrome/138.0.0.0 Safari/537.36","WebKit","Chrome","138.0.0.0","Windows","10.0","https://app.prolific.com/","en-GB,en-US;q=0.9,en;q=0.8","66c746f450506abe4d80b5e1","686d226cabeef709c732f8e1","686e308d886cb7a29c51ac97","66c746f450506abe4d80b5e1","2025-07-09T09:06:59.918Z","","","","","","","","","","","","","","","","","","","","","","","","","","","","","","","","","","","","","","","","","","","","",""
"44191.60000014305","","","","survey-template","16","182965","0.0-7.0-5.0","7","1","2025-07-09 09:04:38","7701e855f2ef39aa3fd6c71abdc6918a","146.90.88.118","Mozilla/5.0 (Windows NT 10.0; Win64; x64) AppleWebKit/537.36 (KHTML, like Gecko) Chrome/138.0.0.0 Safari/537.36","WebKit","Chrome","138.0.0.0","Windows","10.0","https://app.prolific.com/","en-GB,en-US;q=0.9,en;q=0.8","66c746f450506abe4d80b5e1","686d226cabeef709c732f8e1","686e308d886cb7a29c51ac97","66c746f450506abe4d80b5e1","2025-07-09T09:07:44.114Z","","","","","","pss","{""Q01"":""2"",""Q02"":""3"",""Q03"":""4"",""Q04"":""0"",""Q05"":""2"",""Q06"":""2"",""Q07"":""2"",""Q08"":""2"",""Q09"":""3"",""Q10"":""3""}","[0,1,2,3,4,5,6,7,8,9]","[""Q01"",""Q02"",""Q03"",""Q04"",""Q05"",""Q06"",""Q08"",""Q09"",""Q10"",""Q07""]","[7541.299999952316,10269.5,12629.5,15957.400000095367,21757.299999952316,24525.200000047684,29517.400000095367,34669.299999952316,38661,43100.799999952316]","[0.10000014305114746,7541.299999952316,10269.5,12629.5,15957.400000095367,21757.299999952316,24525.200000047684,27493.299999952316,29517.400000095367,34173.40000009537,34669.299999952316,37421.40000009537,37917.10000014305,38661,39373.299999952316,43100.799999952316,44189.40000009537]","[]","0.5","0.3333333333333333","0","","","","","","","","","","","","","","","","","","","","","","","","","","","","","",""
"2666","1752052066780","<p style='font-size:1.1em;line-height:1.25'>Thank you for your answers! Now we will ask you a few more questions relating to your feelings in the last 24 hours.<br></p><p style='font-size:1.1em;line-height:1.25'>Press the <strong>Next</strong> button to continue.</p>","0","custom-html-button-response","17","185633","0.0-7.0-6.0","7","1","2025-07-09 09:04:38","7701e855f2ef39aa3fd6c71abdc6918a","146.90.88.118","Mozilla/5.0 (Windows NT 10.0; Win64; x64) AppleWebKit/537.36 (KHTML, like Gecko) Chrome/138.0.0.0 Safari/537.36","WebKit","Chrome","138.0.0.0","Windows","10.0","https://app.prolific.com/","en-GB,en-US;q=0.9,en;q=0.8","66c746f450506abe4d80b5e1","686d226cabeef709c732f8e1","686e308d886cb7a29c51ac97","66c746f450506abe4d80b5e1","2025-07-09T09:07:46.781Z","","","","","","","","","","","","","","","","","","","","","","","","","","","","","","","","","","","","","","","","","","","","",""
"54408.799999952316","","","","survey-template","18","240049","0.0-7.0-7.0","7","1","2025-07-09 09:04:38","7701e855f2ef39aa3fd6c71abdc6918a","146.90.88.118","Mozilla/5.0 (Windows NT 10.0; Win64; x64) AppleWebKit/537.36 (KHTML, like Gecko) Chrome/138.0.0.0 Safari/537.36","WebKit","Chrome","138.0.0.0","Windows","10.0","https://app.prolific.com/","en-GB,en-US;q=0.9,en;q=0.8","66c746f450506abe4d80b5e1","686d226cabeef709c732f8e1","686e308d886cb7a29c51ac97","66c746f450506abe4d80b5e1","2025-07-09T09:08:41.197Z","","","","","","drsp","{""Q01"":""3"",""Q02"":""3"",""Q03"":""3"",""Q04"":""4"",""Q05"":""3"",""Q06"":""3"",""Q07"":""3"",""Q08"":""1"",""Q09"":""1"",""Q10"":""2"",""Q11"":""4"",""Q12"":""1"",""Q13"":""1"",""Q14"":""1"",""Q15"":""4"",""Q16"":""4"",""Q17"":""4"",""Q18"":""0"",""Q19"":""1"",""Q20"":""1"",""Q21"":""1""}","[0,1,2,3,4,5,6,7,8,9,10,11,12,13,14,15,16,17,18,19,20]","[""Q01"",""Q02"",""Q03"",""Q04"",""Q05"",""Q06"",""Q07"",""Q08"",""Q09"",""Q10"",""Q11"",""Q12"",""Q13"",""Q14"",""Q15"",""Q16"",""Q17"",""Q18"",""Q19"",""Q21"",""Q20""]","[6109.200000047684,6756.200000047684,10620.200000047684,12220.099999904633,14012.400000095367,15995.799999952316,16748.200000047684,18700.200000047684,21404,22700,24252,27148,30379.900000095367,34100.09999990463,38283.90000009537,38867.90000009537,40163.90000009537,45028.200000047684,48715.90000009537,52396.09999990463,53411.700000047684]","[0,5236.299999952316,6109.200000047684,6756.200000047684,10620.200000047684,12220.099999904633,14012.400000095367,15995.799999952316,16748.200000047684,18700.200000047684,21404,22700,24252,27148,30379.900000095367,34100.09999990463,37052.200000047684,38283.90000009537,38867.90000009537,40163.90000009537,45028.200000047684,48715.90000009537,50845.09999990463,52396.09999990463,52844.5,53411.700000047684,54404.09999990463]","[]","0.38095238095238093","0.2","0","","","","","","","","","","","","","","","","","","","","","","","","","","","","","",""
"12718.400000095367","","","","survey-template","19","252771","0.0-7.0-8.0","7","1","2025-07-09 09:04:38","7701e855f2ef39aa3fd6c71abdc6918a","146.90.88.118","Mozilla/5.0 (Windows NT 10.0; Win64; x64) AppleWebKit/537.36 (KHTML, like Gecko) Chrome/138.0.0.0 Safari/537.36","WebKit","Chrome","138.0.0.0","Windows","10.0","https://app.prolific.com/","en-GB,en-US;q=0.9,en;q=0.8","66c746f450506abe4d80b5e1","686d226cabeef709c732f8e1","686e308d886cb7a29c51ac97","66c746f450506abe4d80b5e1","2025-07-09T09:08:53.919Z","","","","","","stress","{""Q01"":""4"",""Q02"":""1"",""Q03"":""2""}","[0,1,2]","[""Q01"",""Q02"",""Q03""]","[6085.200000047684,7373.100000143051,12022]","[6085.200000047684,7373.100000143051,11653.200000047684,12022,12717.400000095367]","[]","0.6666666666666666","0","0","","","","","","","","","","","","","","","","","","","","","","","","","","","","","",""
"60892","","","","instructions","20","313665","0.0-8.0-0.0","7","1","2025-07-09 09:04:38","7701e855f2ef39aa3fd6c71abdc6918a","146.90.88.118","Mozilla/5.0 (Windows NT 10.0; Win64; x64) AppleWebKit/537.36 (KHTML, like Gecko) Chrome/138.0.0.0 Safari/537.36","WebKit","Chrome","138.0.0.0","Windows","10.0","https://app.prolific.com/","en-GB,en-US;q=0.9,en;q=0.8","66c746f450506abe4d80b5e1","686d226cabeef709c732f8e1","686e308d886cb7a29c51ac97","66c746f450506abe4d80b5e1","","[{""page_index"":0,""viewing_time"":14572},{""page_index"":1,""viewing_time"":22200},{""page_index"":2,""viewing_time"":10984},{""page_index"":3,""viewing_time"":13136}]","","","","","","","","","","","","","","","","","","","","","","","","","","","","","","","","","","","","","","","","","","","",""
"","","","","ctl-task-cpt","21","343182","0.0-8.0-1.0","7","1","2025-07-09 09:04:38","7701e855f2ef39aa3fd6c71abdc6918a","146.90.88.118","Mozilla/5.0 (Windows NT 10.0; Win64; x64) AppleWebKit/537.36 (KHTML, like Gecko) Chrome/138.0.0.0 Safari/537.36","WebKit","Chrome","138.0.0.0","Windows","10.0","https://app.prolific.com/","en-GB,en-US;q=0.9,en;q=0.8","66c746f450506abe4d80b5e1","686d226cabeef709c732f8e1","686e308d886cb7a29c51ac97","66c746f450506abe4d80b5e1","","","","","","","","","","","","","","","","","win-only","2","g1:SE,g2:NW","1","0","1","315244","2043.9","6049.4","26510.3","2","4","4","6","1","2","1","1","0","0.007575757575757576","2542.7","4000","1970","[""down"",""right""]","{""num_key_presses"":6,""num_perfect"":4,""num_errors"":1,""num_randdir"":0,""num_randdir_good_moves"":0,""num_whilered"":1,""num_whileblue"":0,""num_blue"":2,""num_good_moves"":4}","[420.57142857142856,413.47767857142856,0.7,420.57142857142856,413.47767857142856,109.7,420.57142857142856,416.47767857142856,212.1,421.57142857142856,418.47767857142856,313,421.57142857142856,418.47767857142856,417.7,421.57142857142856,418.47767857142856,524.3,421.57142857142856,418.47767857142856,628.1,421.57142857142856,418.47767857142856,738.8,421.57142857142856,418.47767857142856,840.2,421.57142857142856,418.47767857142856,941.4,421.57142857142856,418.47767857142856,1043,421.57142857142856,418.47767857142856,1143.1,421.57142857142856,418.47767857142856,1247.6,425.57142857142856,434.47767857142856,1353.6,446.57142857142856,473.47767857142856,1461.8,496.57142857142856,525.4776785714286,1562.3,524.5714285714286,563.4776785714286,1663,584.5714285714286,630.4776785714286,1768,609.5714285714286,661.4776785714286,1874,657.5714285714286,717.4776785714286,1974.1,738.5714285714286,773.4776785714286,2075.5,738.5714285714286,773.4776785714286,2180,734.5714285714286,766.4776785714286,2289.7,745.5714285714286,772.4776785714286,2389.8,748.5714285714286,772.4776785714286,2493.9,748.5714285714286,772.4776785714286,2601.1,748.5714285714286,772.4776785714286,2703.6,751.5714285714286,767.4776785714286,2809.6,752.5714285714286,763.4776785714286,2913.4,752.5714285714286,763.4776785714286,3020.9,752.5714285714286,763.4776785714286,3130.2,752.5714285714286,763.4776785714286,3241.4,752.5714285714286,763.4776785714286,3343.2,752.5714285714286,763.4776785714286,3454.3,752.5714285714286,763.4776785714286,3558.3,752.5714285714286,763.4776785714286,3659.1,752.5714285714286,763.4776785714286,3763.7,752.5714285714286,763.4776785714286,3868.4,752.5714285714286,763.4776785714286,3973.8]","[1874.4,1874.3,1000,0.1,874.3,""smooth"",""down"",""down"",""good_move"",2168.5,293.7,2185.8,1874.9,-1892.2,""error"",""-"",""-"",""no_move"",2584.4,415,2185.8,1874.9,-1476.2,""while_red"",""-"",""-"",""no_move"",6806.5,4637.1,2912.9,3173.1,720.5,""smooth"",""down"",""down"",""good_move"",14087.4,7280.5,2532.1,11092.3,463,""smooth"",""right"",""right"",""good_move"",20320.4,6232.3,2165.8,17680.2,474.4,""smooth"",""right"",""right"",""good_move""]","","",""
"7688","","","","instructions","22","350873","0.0-8.0-2.0","7","1","2025-07-09 09:04:38","7701e855f2ef39aa3fd6c71abdc6918a","146.90.88.118","Mozilla/5.0 (Windows NT 10.0; Win64; x64) AppleWebKit/537.36 (KHTML, like Gecko) Chrome/138.0.0.0 Safari/537.36","WebKit","Chrome","138.0.0.0","Windows","10.0","https://app.prolific.com/","en-GB,en-US;q=0.9,en;q=0.8","66c746f450506abe4d80b5e1","686d226cabeef709c732f8e1","686e308d886cb7a29c51ac97","66c746f450506abe4d80b5e1","","[{""page_index"":0,""viewing_time"":7688}]","","","","","","","","","","","","","","","","","","","","","","","","","","","","","","","","","","","","","","","","","","","",""
"","","","","ctl-task-cpt","23","369080","0.0-8.0-3.0","7","1","2025-07-09 09:04:38","7701e855f2ef39aa3fd6c71abdc6918a","146.90.88.118","Mozilla/5.0 (Windows NT 10.0; Win64; x64) AppleWebKit/537.36 (KHTML, like Gecko) Chrome/138.0.0.0 Safari/537.36","WebKit","Chrome","138.0.0.0","Windows","10.0","https://app.prolific.com/","en-GB,en-US;q=0.9,en;q=0.8","66c746f450506abe4d80b5e1","686d226cabeef709c732f8e1","686e308d886cb7a29c51ac97","66c746f450506abe4d80b5e1","","","","","","","","","","","","","","","","","win-only","2","g1:SE,g2:NW","0.35","0","3","352450.2","1457.7","5467.2","15200.7","2","4","8","6","1","2","2","2","0","0.015151515151515152","1457.5","4000","2550","[""down"",""right""]","{""num_key_presses"":4,""num_perfect"":3,""num_errors"":0,""num_randdir"":1,""num_randdir_good_moves"":1,""num_whilered"":0,""num_whileblue"":0,""num_blue"":0,""num_good_moves"":4}","[408.57142857142856,415.47767857142856,0.6,408.57142857142856,415.47767857142856,105.2,410.57142857142856,425.47767857142856,206.1,433.57142857142856,450.47767857142856,307.9,434.57142857142856,452.47767857142856,410.7,434.57142857142856,452.47767857142856,510.9,434.57142857142856,452.47767857142856,613.5,434.57142857142856,452.47767857142856,731.7,438.57142857142856,457.47767857142856,833.5,487.57142857142856,517.4776785714286,934.4,588.5714285714286,638.4776785714286,1046.3,638.5714285714286,684.4776785714286,1151.9,689.5714285714286,717.4776785714286,1253.8,737.5714285714286,732.4776785714286,1355.2,737.5714285714286,732.4776785714286,1460.4,737.5714285714286,732.4776785714286,1564.6,739.5714285714286,724.4776785714286,1665.4,745.5714285714286,723.4776785714286,1778.2,745.5714285714286,723.4776785714286,1889.8,745.5714285714286,723.4776785714286,1993.3,745.5714285714286,723.4776785714286,2093.6,745.5714285714286,723.4776785714286,2196.3,745.5714285714286,723.4776785714286,2302.4,745.5714285714286,723.4776785714286,2411.3,745.5714285714286,723.4776785714286,2536.6,745.5714285714286,723.4776785714286,2648.6,745.5714285714286,723.4776785714286,2769.7,745.5714285714286,723.4776785714286,2873.2,745.5714285714286,723.4776785714286,2975,745.5714285714286,723.4776785714286,3075.2,745.5714285714286,723.4776785714286,3180.6,745.5714285714286,723.4776785714286,3287.1,745.5714285714286,723.4776785714286,3389.1,745.5714285714286,723.4776785714286,3498.9,745.5714285714286,723.4776785714286,3599.5,745.5714285714286,723.4776785714286,3712.7,745.5714285714286,723.4776785714286,3815.7,745.5714285714286,723.4776785714286,3926.4]","[1561.2,1561.2,1000,0,561.2,""oops"",""down"",""down"",""good_move"",4162.8,2600.5,1882,1562.6,718.4,""smooth"",""right"",""right"",""good_move"",6917.3,2752.8,2112.7,4164.7,640,""smooth"",""right"",""right"",""good_move"",9634,2716.2,2235.6,6917.8,480.6,""smooth"",""down"",""down"",""good_move""]","","",""
"30488","","","","instructions","24","399569","0.0-8.0-4.0","7","1","2025-07-09 09:04:38","7701e855f2ef39aa3fd6c71abdc6918a","146.90.88.118","Mozilla/5.0 (Windows NT 10.0; Win64; x64) AppleWebKit/537.36 (KHTML, like Gecko) Chrome/138.0.0.0 Safari/537.36","WebKit","Chrome","138.0.0.0","Windows","10.0","https://app.prolific.com/","en-GB,en-US;q=0.9,en;q=0.8","66c746f450506abe4d80b5e1","686d226cabeef709c732f8e1","686e308d886cb7a29c51ac97","66c746f450506abe4d80b5e1","","[{""page_index"":0,""viewing_time"":13232},{""page_index"":1,""viewing_time"":17256}]","","","","","","","","","","","","","","","","","","","","","","","","","","","","","","","","","","","","","","","","","","","",""
"13708","","","{""green_ball"":[""Ball always moves in the direction I press"",""Ball sometimes shakes and moves in a random direction""]}","survey-multi-select","25","413281","0.0-8.0-5.0-0.0","7","1","2025-07-09 09:04:38","7701e855f2ef39aa3fd6c71abdc6918a","146.90.88.118","Mozilla/5.0 (Windows NT 10.0; Win64; x64) AppleWebKit/537.36 (KHTML, like Gecko) Chrome/138.0.0.0 Safari/537.36","WebKit","Chrome","138.0.0.0","Windows","10.0","https://app.prolific.com/","en-GB,en-US;q=0.9,en;q=0.8","66c746f450506abe4d80b5e1","686d226cabeef709c732f8e1","686e308d886cb7a29c51ac97","66c746f450506abe4d80b5e1","","","[0]","","","","quiz","","","","","","","","","","","","","","","","","","","","","","","","","","","","","","","","","","","","","false","",""
"2965","","<p align='center'><b>INCORRECT.</b> Usually the green ball moves in the indicated direction, but sometimes it shakes and moves randomly. </p>","0","html-button-response","26","416249","0.0-8.0-5.0-1.0","7","1","2025-07-09 09:04:38","7701e855f2ef39aa3fd6c71abdc6918a","146.90.88.118","Mozilla/5.0 (Windows NT 10.0; Win64; x64) AppleWebKit/537.36 (KHTML, like Gecko) Chrome/138.0.0.0 Safari/537.36","WebKit","Chrome","138.0.0.0","Windows","10.0","https://app.prolific.com/","en-GB,en-US;q=0.9,en;q=0.8","66c746f450506abe4d80b5e1","686d226cabeef709c732f8e1","686e308d886cb7a29c51ac97","66c746f450506abe4d80b5e1","","","","","","","","","","","","","","","","","","","","","","","","","","","","","","","","","","","","","","","","","","","","","",""
"5462","","","{""green_ball"":[""Ball always moves in the direction I press""]}","survey-multi-select","27","421714","0.0-8.0-5.1-0.1","7","1","2025-07-09 09:04:38","7701e855f2ef39aa3fd6c71abdc6918a","146.90.88.118","Mozilla/5.0 (Windows NT 10.0; Win64; x64) AppleWebKit/537.36 (KHTML, like Gecko) Chrome/138.0.0.0 Safari/537.36","WebKit","Chrome","138.0.0.0","Windows","10.0","https://app.prolific.com/","en-GB,en-US;q=0.9,en;q=0.8","66c746f450506abe4d80b5e1","686d226cabeef709c732f8e1","686e308d886cb7a29c51ac97","66c746f450506abe4d80b5e1","","","[0]","","","","quiz","","","","","","","","","","","","","","","","","","","","","","","","","","","","","","","","","","","","","false","",""
"3277","","<p align='center'><b>INCORRECT.</b> Usually the green ball moves in the indicated direction, but sometimes it shakes and moves randomly. </p>","0","html-button-response","28","424993","0.0-8.0-5.1-1.1","7","1","2025-07-09 09:04:38","7701e855f2ef39aa3fd6c71abdc6918a","146.90.88.118","Mozilla/5.0 (Windows NT 10.0; Win64; x64) AppleWebKit/537.36 (KHTML, like Gecko) Chrome/138.0.0.0 Safari/537.36","WebKit","Chrome","138.0.0.0","Windows","10.0","https://app.prolific.com/","en-GB,en-US;q=0.9,en;q=0.8","66c746f450506abe4d80b5e1","686d226cabeef709c732f8e1","686e308d886cb7a29c51ac97","66c746f450506abe4d80b5e1","","","","","","","","","","","","","","","","","","","","","","","","","","","","","","","","","","","","","","","","","","","","","",""
"2542","","","{""green_ball"":[""Ball sometimes shakes and moves in a random direction""]}","survey-multi-select","29","427537","0.0-8.0-5.2-0.2","7","1","2025-07-09 09:04:38","7701e855f2ef39aa3fd6c71abdc6918a","146.90.88.118","Mozilla/5.0 (Windows NT 10.0; Win64; x64) AppleWebKit/537.36 (KHTML, like Gecko) Chrome/138.0.0.0 Safari/537.36","WebKit","Chrome","138.0.0.0","Windows","10.0","https://app.prolific.com/","en-GB,en-US;q=0.9,en;q=0.8","66c746f450506abe4d80b5e1","686d226cabeef709c732f8e1","686e308d886cb7a29c51ac97","66c746f450506abe4d80b5e1","","","[0]","","","","quiz","","","","","","","","","","","","","","","","","","","","","","","","","","","","","","","","","","","","","true","",""
"1526","","<p align='center'><b>CORRECT!</b> Indeed, the green ball may sometimes shake and move in a random direction.</p>","0","html-button-response","30","429064","0.0-8.0-5.2-1.2","7","1","2025-07-09 09:04:38","7701e855f2ef39aa3fd6c71abdc6918a","146.90.88.118","Mozilla/5.0 (Windows NT 10.0; Win64; x64) AppleWebKit/537.36 (KHTML, like Gecko) Chrome/138.0.0.0 Safari/537.36","WebKit","Chrome","138.0.0.0","Windows","10.0","https://app.prolific.com/","en-GB,en-US;q=0.9,en;q=0.8","66c746f450506abe4d80b5e1","686d226cabeef709c732f8e1","686e308d886cb7a29c51ac97","66c746f450506abe4d80b5e1","","","","","","","","","","","","","","","","","","","","","","","","","","","","","","","","","","","","","","","","","","","","","",""
"5302","","","{""yellow_ball"":[""Ball doesn‘t move and I get -1 penalty point""]}","survey-multi-select","31","434369","0.0-8.0-6.0-0.0","7","1","2025-07-09 09:04:38","7701e855f2ef39aa3fd6c71abdc6918a","146.90.88.118","Mozilla/5.0 (Windows NT 10.0; Win64; x64) AppleWebKit/537.36 (KHTML, like Gecko) Chrome/138.0.0.0 Safari/537.36","WebKit","Chrome","138.0.0.0","Windows","10.0","https://app.prolific.com/","en-GB,en-US;q=0.9,en;q=0.8","66c746f450506abe4d80b5e1","686d226cabeef709c732f8e1","686e308d886cb7a29c51ac97","66c746f450506abe4d80b5e1","","","[0]","","","","quiz","","","","","","","","","","","","","","","","","","","","","","","","","","","","","","","","","","","","","true","",""
"1069","","<p align='center'><b>CORRECT!</b> Indeed, the yellow ball never moves and you receive a penalty.</p>","0","html-button-response","32","435440","0.0-8.0-6.0-1.0","7","1","2025-07-09 09:04:38","7701e855f2ef39aa3fd6c71abdc6918a","146.90.88.118","Mozilla/5.0 (Windows NT 10.0; Win64; x64) AppleWebKit/537.36 (KHTML, like Gecko) Chrome/138.0.0.0 Safari/537.36","WebKit","Chrome","138.0.0.0","Windows","10.0","https://app.prolific.com/","en-GB,en-US;q=0.9,en;q=0.8","66c746f450506abe4d80b5e1","686d226cabeef709c732f8e1","686e308d886cb7a29c51ac97","66c746f450506abe4d80b5e1","","","","","","","","","","","","","","","","","","","","","","","","","","","","","","","","","","","","","","","","","","","","","",""
"5447","","","{""blue_ball"":[""Ball doesn‘t move and I get -1 penalty point""]}","survey-multi-select","33","440889","0.0-8.0-7.0-0.0","7","1","2025-07-09 09:04:38","7701e855f2ef39aa3fd6c71abdc6918a","146.90.88.118","Mozilla/5.0 (Windows NT 10.0; Win64; x64) AppleWebKit/537.36 (KHTML, like Gecko) Chrome/138.0.0.0 Safari/537.36","WebKit","Chrome","138.0.0.0","Windows","10.0","https://app.prolific.com/","en-GB,en-US;q=0.9,en;q=0.8","66c746f450506abe4d80b5e1","686d226cabeef709c732f8e1","686e308d886cb7a29c51ac97","66c746f450506abe4d80b5e1","","","[0]","","","","quiz","","","","","","","","","","","","","","","","","","","","","","","","","","","","","","","","","","","","","false","",""
"1591","","<p align='center'><b>INCORRECT.</b> The blue ball always shakes and moves randomly.</p>","0","html-button-response","34","442483","0.0-8.0-7.0-1.0","7","1","2025-07-09 09:04:38","7701e855f2ef39aa3fd6c71abdc6918a","146.90.88.118","Mozilla/5.0 (Windows NT 10.0; Win64; x64) AppleWebKit/537.36 (KHTML, like Gecko) Chrome/138.0.0.0 Safari/537.36","WebKit","Chrome","138.0.0.0","Windows","10.0","https://app.prolific.com/","en-GB,en-US;q=0.9,en;q=0.8","66c746f450506abe4d80b5e1","686d226cabeef709c732f8e1","686e308d886cb7a29c51ac97","66c746f450506abe4d80b5e1","","","","","","","","","","","","","","","","","","","","","","","","","","","","","","","","","","","","","","","","","","","","","",""
"2827","","","{""blue_ball"":[""Ball always shakes and moves in a random direction""]}","survey-multi-select","35","445313","0.0-8.0-7.1-0.1","7","1","2025-07-09 09:04:38","7701e855f2ef39aa3fd6c71abdc6918a","146.90.88.118","Mozilla/5.0 (Windows NT 10.0; Win64; x64) AppleWebKit/537.36 (KHTML, like Gecko) Chrome/138.0.0.0 Safari/537.36","WebKit","Chrome","138.0.0.0","Windows","10.0","https://app.prolific.com/","en-GB,en-US;q=0.9,en;q=0.8","66c746f450506abe4d80b5e1","686d226cabeef709c732f8e1","686e308d886cb7a29c51ac97","66c746f450506abe4d80b5e1","","","[0]","","","","quiz","","","","","","","","","","","","","","","","","","","","","","","","","","","","","","","","","","","","","true","",""
"1430","","<p align='center'><b>CORRECT!</b> Indeed, the blue ball always shakes and moves in a random direction. Also there is a penalty of -1 point.</p>","0","html-button-response","36","446744","0.0-8.0-7.1-1.1","7","1","2025-07-09 09:04:38","7701e855f2ef39aa3fd6c71abdc6918a","146.90.88.118","Mozilla/5.0 (Windows NT 10.0; Win64; x64) AppleWebKit/537.36 (KHTML, like Gecko) Chrome/138.0.0.0 Safari/537.36","WebKit","Chrome","138.0.0.0","Windows","10.0","https://app.prolific.com/","en-GB,en-US;q=0.9,en;q=0.8","66c746f450506abe4d80b5e1","686d226cabeef709c732f8e1","686e308d886cb7a29c51ac97","66c746f450506abe4d80b5e1","","","","","","","","","","","","","","","","","","","","","","","","","","","","","","","","","","","","","","","","","","","","","",""
"9167","","","{""bonus"":[""When I reach all possible points""]}","survey-multi-select","37","455914","0.0-8.0-8.0-0.0","7","1","2025-07-09 09:04:38","7701e855f2ef39aa3fd6c71abdc6918a","146.90.88.118","Mozilla/5.0 (Windows NT 10.0; Win64; x64) AppleWebKit/537.36 (KHTML, like Gecko) Chrome/138.0.0.0 Safari/537.36","WebKit","Chrome","138.0.0.0","Windows","10.0","https://app.prolific.com/","en-GB,en-US;q=0.9,en;q=0.8","66c746f450506abe4d80b5e1","686d226cabeef709c732f8e1","686e308d886cb7a29c51ac97","66c746f450506abe4d80b5e1","","","[0]","","","","quiz","","","","","","","","","","","","","","","","","","","","","","","","","","","","","","","","","","","","","false","",""
"1349","","<p align='center'><b>INCORRECT.</b> You receive 2 pounds extra when you reach 50% of points </p>","0","html-button-response","38","457264","0.0-8.0-8.0-1.0","7","1","2025-07-09 09:04:38","7701e855f2ef39aa3fd6c71abdc6918a","146.90.88.118","Mozilla/5.0 (Windows NT 10.0; Win64; x64) AppleWebKit/537.36 (KHTML, like Gecko) Chrome/138.0.0.0 Safari/537.36","WebKit","Chrome","138.0.0.0","Windows","10.0","https://app.prolific.com/","en-GB,en-US;q=0.9,en;q=0.8","66c746f450506abe4d80b5e1","686d226cabeef709c732f8e1","686e308d886cb7a29c51ac97","66c746f450506abe4d80b5e1","","","","","","","","","","","","","","","","","","","","","","","","","","","","","","","","","","","","","","","","","","","","","",""
"1774","","","{""bonus"":[""When I reach 50% of points""]}","survey-multi-select","39","459041","0.0-8.0-8.1-0.1","7","1","2025-07-09 09:04:38","7701e855f2ef39aa3fd6c71abdc6918a","146.90.88.118","Mozilla/5.0 (Windows NT 10.0; Win64; x64) AppleWebKit/537.36 (KHTML, like Gecko) Chrome/138.0.0.0 Safari/537.36","WebKit","Chrome","138.0.0.0","Windows","10.0","https://app.prolific.com/","en-GB,en-US;q=0.9,en;q=0.8","66c746f450506abe4d80b5e1","686d226cabeef709c732f8e1","686e308d886cb7a29c51ac97","66c746f450506abe4d80b5e1","","","[0]","","","","quiz","","","","","","","","","","","","","","","","","","","","","","","","","","","","","","","","","","","","","true","",""
"1398","","<p align='center'><b>CORRECT!</b> Indeed, you receive 2 pounds extra when you reach 50% of points.</p>","0","html-button-response","40","460440","0.0-8.0-8.1-1.1","7","1","2025-07-09 09:04:38","7701e855f2ef39aa3fd6c71abdc6918a","146.90.88.118","Mozilla/5.0 (Windows NT 10.0; Win64; x64) AppleWebKit/537.36 (KHTML, like Gecko) Chrome/138.0.0.0 Safari/537.36","WebKit","Chrome","138.0.0.0","Windows","10.0","https://app.prolific.com/","en-GB,en-US;q=0.9,en;q=0.8","66c746f450506abe4d80b5e1","686d226cabeef709c732f8e1","686e308d886cb7a29c51ac97","66c746f450506abe4d80b5e1","","","","","","","","","","","","","","","","","","","","","","","","","","","","","","","","","","","","","","","","","","","","","",""
"2032","","","","instructions","41","462473","0.0-8.0-9.0","7","1","2025-07-09 09:04:38","7701e855f2ef39aa3fd6c71abdc6918a","146.90.88.118","Mozilla/5.0 (Windows NT 10.0; Win64; x64) AppleWebKit/537.36 (KHTML, like Gecko) Chrome/138.0.0.0 Safari/537.36","WebKit","Chrome","138.0.0.0","Windows","10.0","https://app.prolific.com/","en-GB,en-US;q=0.9,en;q=0.8","66c746f450506abe4d80b5e1","686d226cabeef709c732f8e1","686e308d886cb7a29c51ac97","66c746f450506abe4d80b5e1","","[{""page_index"":0,""viewing_time"":2031}]","","","","","","","","","","","","","","","","","","","","","","","","","","","","","","","","","","","","","","","","","","","",""
"10412","","<p>Before you start with this game please answer the following three questions yourself. </p>
  <p>Through this game, we measure several aspects of your cognitive performance, such as reaction times, multi-tasking capabilities </p>
  <p>and the ability to assess the situation you are in.</p>
  <p></p>
  <p><b>How good do you usually are in such tasks?</b></p>","76","html-slider-response","42","472888","0.0-9.0-0.0","7","1","2025-07-09 09:04:38","7701e855f2ef39aa3fd6c71abdc6918a","146.90.88.118","Mozilla/5.0 (Windows NT 10.0; Win64; x64) AppleWebKit/537.36 (KHTML, like Gecko) Chrome/138.0.0.0 Safari/537.36","WebKit","Chrome","138.0.0.0","Windows","10.0","https://app.prolific.com/","en-GB,en-US;q=0.9,en;q=0.8","66c746f450506abe4d80b5e1","686d226cabeef709c732f8e1","686e308d886cb7a29c51ac97","66c746f450506abe4d80b5e1","2025-07-09T09:12:34.036Z","","","","","","PreSkillQ","","","","","","","","","","","","","","","","","","","","","","","","","","","","","","","","","","","","","","50",""
"4614","","<div style=""width:500px;"">
  <p>How well do you think you will perform in this task compared to other participants?</p>
  </div>","66","html-slider-response","43","477504","0.0-9.0-1.0","7","1","2025-07-09 09:04:38","7701e855f2ef39aa3fd6c71abdc6918a","146.90.88.118","Mozilla/5.0 (Windows NT 10.0; Win64; x64) AppleWebKit/537.36 (KHTML, like Gecko) Chrome/138.0.0.0 Safari/537.36","WebKit","Chrome","138.0.0.0","Windows","10.0","https://app.prolific.com/","en-GB,en-US;q=0.9,en;q=0.8","66c746f450506abe4d80b5e1","686d226cabeef709c732f8e1","686e308d886cb7a29c51ac97","66c746f450506abe4d80b5e1","2025-07-09T09:12:38.652Z","","","","","","PrePerfQ","","","","","","","","","","","","","","","","","","","","","","","","","","","","","","","","","","","","","","50",""
"5254","","<div style=""width:500px;"">
  <p>What best describes how you currently feel?</p>
  </div>","22","html-slider-response","44","482760","0.0-9.0-2.0","7","1","2025-07-09 09:04:38","7701e855f2ef39aa3fd6c71abdc6918a","146.90.88.118","Mozilla/5.0 (Windows NT 10.0; Win64; x64) AppleWebKit/537.36 (KHTML, like Gecko) Chrome/138.0.0.0 Safari/537.36","WebKit","Chrome","138.0.0.0","Windows","10.0","https://app.prolific.com/","en-GB,en-US;q=0.9,en;q=0.8","66c746f450506abe4d80b5e1","686d226cabeef709c732f8e1","686e308d886cb7a29c51ac97","66c746f450506abe4d80b5e1","2025-07-09T09:12:43.908Z","","","","","","PreMotivationQ","","","","","","","","","","","","","","","","","","","","","","","","","","","","","","","","","","","","","","50",""
"","","","","ctl-task-cpt","45","512580","0.0-10.0-0.0","7","1","2025-07-09 09:04:38","7701e855f2ef39aa3fd6c71abdc6918a","146.90.88.118","Mozilla/5.0 (Windows NT 10.0; Win64; x64) AppleWebKit/537.36 (KHTML, like Gecko) Chrome/138.0.0.0 Safari/537.36","WebKit","Chrome","138.0.0.0","Windows","10.0","https://app.prolific.com/","en-GB,en-US;q=0.9,en;q=0.8","66c746f450506abe4d80b5e1","686d226cabeef709c732f8e1","686e308d886cb7a29c51ac97","66c746f450506abe4d80b5e1","2025-07-09T09:13:13.728Z","","","","","","","","","","","","","","","","win-only","1","g1:NE,g2:SW","1","1","0","484339.2","1641.8","6649","26789.3","1","4","4","6","1","1","1","1","0","0.007575757575757576","1657.4","3000","1360","[""up"",""right""]","{""num_key_presses"":6,""num_perfect"":6,""num_errors"":0,""num_randdir"":0,""num_randdir_good_moves"":0,""num_whilered"":0,""num_whileblue"":0,""num_blue"":1,""num_good_moves"":5}","[416.57142857142856,418.47767857142856,0.2,416.57142857142856,418.47767857142856,100.3,417.57142857142856,425.47767857142856,202,441.57142857142856,474.47767857142856,304.8,462.57142857142856,521.4776785714286,442.3,462.57142857142856,521.4776785714286,544.9,463.57142857142856,521.4776785714286,646.1,517.5714285714286,445.47767857142856,752,627.5714285714286,222.47767857142856,884.4,643.5714285714286,181.47767857142856,991.4,669.5714285714286,143.47767857142856,1095,707.5714285714286,122.47767857142857,1202.7,732.5714285714286,110.47767857142857,1324.9,750.5714285714286,98.47767857142857,1429.2,751.5714285714286,94.47767857142857,1553.6,751.5714285714286,94.47767857142857,1664.3,751.5714285714286,94.47767857142857,1767,751.5714285714286,94.47767857142857,1880,749.5714285714286,98.47767857142857,1982.3,747.5714285714286,103.47767857142857,2085.7,747.5714285714286,103.47767857142857,2186.8,747.5714285714286,103.47767857142857,2305.1,747.5714285714286,103.47767857142857,2419.6,747.5714285714286,103.47767857142857,2538.8,747.5714285714286,103.47767857142857,2641.4,747.5714285714286,103.47767857142857,2746.3,747.5714285714286,103.47767857142857,2858.8,747.5714285714286,103.47767857142857,2959.6,747.5714285714286,103.47767857142857,3078.7,747.5714285714286,103.47767857142857,3199.4,747.5714285714286,103.47767857142857,3300,747.5714285714286,103.47767857142857,3407.2,747.5714285714286,103.47767857142857,3520.5,747.5714285714286,103.47767857142857,3625.7,747.5714285714286,103.47767857142857,3728.2,747.5714285714286,103.47767857142857,3832.5,747.5714285714286,103.47767857142857,3935.3,747.5714285714286,103.47767857142857,4047.5,747.5714285714286,103.47767857142857,4150,747.5714285714286,103.47767857142857,4250.8,747.5714285714286,103.47767857142857,4355.7,747.5714285714286,103.47767857142857,4474.7,747.5714285714286,103.47767857142857,4615.5,747.5714285714286,103.47767857142857,4720.5,747.5714285714286,103.47767857142857,4821,747.5714285714286,103.47767857142857,4924.1]","[1525.5,1525.5,1000,0,525.5,""smooth"",""right"",""right"",""good_move"",5625,4098.8,3552.9,1526.2,545.9,""smooth"",""up"",""up"",""good_move"",8824.6,3199.1,2700.4,5625.6,498.7,""smooth"",""up"",""up"",""good_move"",11281.2,2456.2,1969.6,8825,486.6,""smooth"",""down"",""down"",""bad_move"",16996.8,5714.9,1585.6,14942.9,468.4,""smooth"",""up"",""up"",""good_move"",19952.5,2955.2,2493.7,16997.4,461.5,""smooth"",""right"",""right"",""good_move""]","","",""
"4610","","<div style=""width:500px;"">
  <p>What determined the result of this run?</p>
  </div>","70","html-slider-response","46","517193","0.0-10.0-1.0","7","1","2025-07-09 09:04:38","7701e855f2ef39aa3fd6c71abdc6918a","146.90.88.118","Mozilla/5.0 (Windows NT 10.0; Win64; x64) AppleWebKit/537.36 (KHTML, like Gecko) Chrome/138.0.0.0 Safari/537.36","WebKit","Chrome","138.0.0.0","Windows","10.0","https://app.prolific.com/","en-GB,en-US;q=0.9,en;q=0.8","66c746f450506abe4d80b5e1","686d226cabeef709c732f8e1","686e308d886cb7a29c51ac97","66c746f450506abe4d80b5e1","2025-07-09T09:13:18.341Z","","","","","","AttribQ","","","","","","","","","","","","","","","","","","","","","","","","","","","","","","","","","","","","","","50",""
"4037","","<div style=""width:500px;"">
  <p>How much control did you have over the ball?</p>
  </div>","61","html-slider-response","47","521232","0.0-10.0-2.0","7","1","2025-07-09 09:04:38","7701e855f2ef39aa3fd6c71abdc6918a","146.90.88.118","Mozilla/5.0 (Windows NT 10.0; Win64; x64) AppleWebKit/537.36 (KHTML, like Gecko) Chrome/138.0.0.0 Safari/537.36","WebKit","Chrome","138.0.0.0","Windows","10.0","https://app.prolific.com/","en-GB,en-US;q=0.9,en;q=0.8","66c746f450506abe4d80b5e1","686d226cabeef709c732f8e1","686e308d886cb7a29c51ac97","66c746f450506abe4d80b5e1","2025-07-09T09:13:22.380Z","","","","","","ControlQ","","","","","","","","","","","","","","","","","","","","","","","","","","","","","","","","","","","","","","50",""
"5262","","<div style=""width:500px;"">
  <p>How would you describe your current emotional state?</p>
  </div>","25","html-slider-response","48","526496","0.0-10.0-3.0","7","1","2025-07-09 09:04:38","7701e855f2ef39aa3fd6c71abdc6918a","146.90.88.118","Mozilla/5.0 (Windows NT 10.0; Win64; x64) AppleWebKit/537.36 (KHTML, like Gecko) Chrome/138.0.0.0 Safari/537.36","WebKit","Chrome","138.0.0.0","Windows","10.0","https://app.prolific.com/","en-GB,en-US;q=0.9,en;q=0.8","66c746f450506abe4d80b5e1","686d226cabeef709c732f8e1","686e308d886cb7a29c51ac97","66c746f450506abe4d80b5e1","2025-07-09T09:13:27.644Z","","","","","","StressQ","","","","","","","","","","","","","","","","","","","","","","","","","","","","","","","","","","","","","","50",""
"3684","","<div style=""width:500px;"">
  <p>What best describes how you currently feel?</p>
  </div>","62","html-slider-response","49","530182","0.0-10.0-4.0","7","1","2025-07-09 09:04:38","7701e855f2ef39aa3fd6c71abdc6918a","146.90.88.118","Mozilla/5.0 (Windows NT 10.0; Win64; x64) AppleWebKit/537.36 (KHTML, like Gecko) Chrome/138.0.0.0 Safari/537.36","WebKit","Chrome","138.0.0.0","Windows","10.0","https://app.prolific.com/","en-GB,en-US;q=0.9,en;q=0.8","66c746f450506abe4d80b5e1","686d226cabeef709c732f8e1","686e308d886cb7a29c51ac97","66c746f450506abe4d80b5e1","2025-07-09T09:13:31.331Z","","","","","","MotivationQ","","","","","","","","","","","","","","","","","","","","","","","","","","","","","","","","","","","","","","50",""
"","","","","ctl-task-cpt","50","565649","0.0-10.0-0.1","7","1","2025-07-09 09:04:38","7701e855f2ef39aa3fd6c71abdc6918a","146.90.88.118","Mozilla/5.0 (Windows NT 10.0; Win64; x64) AppleWebKit/537.36 (KHTML, like Gecko) Chrome/138.0.0.0 Safari/537.36","WebKit","Chrome","138.0.0.0","Windows","10.0","https://app.prolific.com/","en-GB,en-US;q=0.9,en;q=0.8","66c746f450506abe4d80b5e1","686d226cabeef709c732f8e1","686e308d886cb7a29c51ac97","66c746f450506abe4d80b5e1","2025-07-09T09:14:06.797Z","","","","","","","","","","","","","","","","win-only","1","g1:NE,g2:SW","0.9","2","0","531765.7","1336.3","6354.9","32432.1","1","4","8","6","2","8","8","9","1","0.06818181818181818","2272.6","3000","285","[""down"",""left""]","{""num_key_presses"":8,""num_perfect"":7,""num_errors"":0,""num_randdir"":1,""num_randdir_good_moves"":0,""num_whilered"":0,""num_whileblue"":0,""num_blue"":1,""num_good_moves"":7}","[415.57142857142856,413.47767857142856,0.3,415.57142857142856,413.47767857142856,117.9,417.57142857142856,422.47767857142856,241.1,420.57142857142856,427.47767857142856,349.8,420.57142857142856,427.47767857142856,461.3,420.57142857142856,427.47767857142856,562.3,420.57142857142856,427.47767857142856,667.6,420.57142857142856,427.47767857142856,773,420.57142857142856,427.47767857142856,876.6,420.57142857142856,427.47767857142856,1006.5,420.57142857142856,427.47767857142856,1119.4,420.57142857142856,427.47767857142856,1220.4,420.57142857142856,427.47767857142856,1346.8,420.57142857142856,427.47767857142856,1448.5,420.57142857142856,427.47767857142856,1552.3,420.57142857142856,427.47767857142856,1657.6,406.57142857142856,429.47767857142856,1761.5,208.57142857142856,555.4776785714286,1862,114.57142857142857,658.4776785714286,1978.6,111.57142857142857,693.4776785714286,2088.9,105.57142857142857,735.4776785714286,2195.1,104.57142857142857,736.4776785714286,2298,104.57142857142857,737.4776785714286,2406.3,108.57142857142857,734.4776785714286,2509.5,108.57142857142857,734.4776785714286,2611.2,108.57142857142857,734.4776785714286,2719,108.57142857142857,734.4776785714286,2837.7,108.57142857142857,734.4776785714286,2957.9,108.57142857142857,734.4776785714286,3073.3,108.57142857142857,734.4776785714286,3175.9,108.57142857142857,734.4776785714286,3286.1,108.57142857142857,734.4776785714286,3390.4,108.57142857142857,734.4776785714286,3491.8,108.57142857142857,734.4776785714286,3592.6,108.57142857142857,734.4776785714286,3698,108.57142857142857,734.4776785714286,3800.5,108.57142857142857,734.4776785714286,3901.1,108.57142857142857,734.4776785714286,4009,108.57142857142857,734.4776785714286,4123.8,108.57142857142857,734.4776785714286,4224.7,108.57142857142857,734.4776785714286,4336.7,108.57142857142857,734.4776785714286,4439.8,108.57142857142857,734.4776785714286,4545.3,108.57142857142857,734.4776785714286,4646.4,108.57142857142857,734.4776785714286,4754.8,108.57142857142857,734.4776785714286,4855.5,108.57142857142857,734.4776785714286,4960.7]","[1581.8,1581.9,1000,0,581.9,""smooth"",""down"",""down"",""good_move"",4429.2,2846.3,2379.7,1582.9,466.6,""smooth"",""down"",""down"",""good_move"",12029.3,7599.3,3327.4,8141.7,560.2,""smooth"",""left"",""left"",""good_move"",15396.6,3366.7,2886,12030,480.6,""oops"",""left"",""up"",""bad_move"",18541.1,3143.2,2439.1,15397.9,704.1,""smooth"",""down"",""down"",""good_move"",20796.2,2254.1,1772.4,18542.1,481.7,""smooth"",""left"",""left"",""good_move"",23844.4,3047.1,2660.1,20797.4,387,""smooth"",""down"",""down"",""good_move"",25965.5,2120.3,1664.6,23845.2,455.7,""smooth"",""left"",""left"",""good_move""]","","",""
"3667","","<div style=""width:500px;"">
  <p>What determined the result of this run?</p>
  </div>","34","html-slider-response","51","569320","0.0-10.0-1.1","7","1","2025-07-09 09:04:38","7701e855f2ef39aa3fd6c71abdc6918a","146.90.88.118","Mozilla/5.0 (Windows NT 10.0; Win64; x64) AppleWebKit/537.36 (KHTML, like Gecko) Chrome/138.0.0.0 Safari/537.36","WebKit","Chrome","138.0.0.0","Windows","10.0","https://app.prolific.com/","en-GB,en-US;q=0.9,en;q=0.8","66c746f450506abe4d80b5e1","686d226cabeef709c732f8e1","686e308d886cb7a29c51ac97","66c746f450506abe4d80b5e1","2025-07-09T09:14:10.468Z","","","","","","AttribQ","","","","","","","","","","","","","","","","","","","","","","","","","","","","","","","","","","","","","","50",""
"3207","","<div style=""width:500px;"">
  <p>How much control did you have over the ball?</p>
  </div>","58","html-slider-response","52","572529","0.0-10.0-2.1","7","1","2025-07-09 09:04:38","7701e855f2ef39aa3fd6c71abdc6918a","146.90.88.118","Mozilla/5.0 (Windows NT 10.0; Win64; x64) AppleWebKit/537.36 (KHTML, like Gecko) Chrome/138.0.0.0 Safari/537.36","WebKit","Chrome","138.0.0.0","Windows","10.0","https://app.prolific.com/","en-GB,en-US;q=0.9,en;q=0.8","66c746f450506abe4d80b5e1","686d226cabeef709c732f8e1","686e308d886cb7a29c51ac97","66c746f450506abe4d80b5e1","2025-07-09T09:14:13.677Z","","","","","","ControlQ","","","","","","","","","","","","","","","","","","","","","","","","","","","","","","","","","","","","","","50",""
"4181","","<div style=""width:500px;"">
  <p>How would you describe your current emotional state?</p>
  </div>","33","html-slider-response","53","576713","0.0-10.0-3.1","7","1","2025-07-09 09:04:38","7701e855f2ef39aa3fd6c71abdc6918a","146.90.88.118","Mozilla/5.0 (Windows NT 10.0; Win64; x64) AppleWebKit/537.36 (KHTML, like Gecko) Chrome/138.0.0.0 Safari/537.36","WebKit","Chrome","138.0.0.0","Windows","10.0","https://app.prolific.com/","en-GB,en-US;q=0.9,en;q=0.8","66c746f450506abe4d80b5e1","686d226cabeef709c732f8e1","686e308d886cb7a29c51ac97","66c746f450506abe4d80b5e1","2025-07-09T09:14:17.861Z","","","","","","StressQ","","","","","","","","","","","","","","","","","","","","","","","","","","","","","","","","","","","","","","50",""
"3188","","<div style=""width:500px;"">
  <p>What best describes how you currently feel?</p>
  </div>","70","html-slider-response","54","579904","0.0-10.0-4.1","7","1","2025-07-09 09:04:38","7701e855f2ef39aa3fd6c71abdc6918a","146.90.88.118","Mozilla/5.0 (Windows NT 10.0; Win64; x64) AppleWebKit/537.36 (KHTML, like Gecko) Chrome/138.0.0.0 Safari/537.36","WebKit","Chrome","138.0.0.0","Windows","10.0","https://app.prolific.com/","en-GB,en-US;q=0.9,en;q=0.8","66c746f450506abe4d80b5e1","686d226cabeef709c732f8e1","686e308d886cb7a29c51ac97","66c746f450506abe4d80b5e1","2025-07-09T09:14:21.052Z","","","","","","MotivationQ","","","","","","","","","","","","","","","","","","","","","","","","","","","","","","","","","","","","","","50",""
"","","","","ctl-task-cpt","55","613003","0.0-10.0-0.2","7","1","2025-07-09 09:04:38","7701e855f2ef39aa3fd6c71abdc6918a","146.90.88.118","Mozilla/5.0 (Windows NT 10.0; Win64; x64) AppleWebKit/537.36 (KHTML, like Gecko) Chrome/138.0.0.0 Safari/537.36","WebKit","Chrome","138.0.0.0","Windows","10.0","https://app.prolific.com/","en-GB,en-US;q=0.9,en;q=0.8","66c746f450506abe4d80b5e1","686d226cabeef709c732f8e1","686e308d886cb7a29c51ac97","66c746f450506abe4d80b5e1","2025-07-09T09:14:54.152Z","","","","","","","","","","","","","","","","win-only","2","g1:SE,g2:NW","0.8","3","0","581483.5","2015.9","7016.7","30076.1","1","4","8","6","2","8","8","17","9","0.12878787878787878","1781.3","3000","1135","[""left"",""up""]","{""num_key_presses"":6,""num_perfect"":5,""num_errors"":0,""num_randdir"":1,""num_randdir_good_moves"":1,""num_whilered"":0,""num_whileblue"":0,""num_blue"":2,""num_good_moves"":6}","[421.57142857142856,415.47767857142856,0.3,421.57142857142856,415.47767857142856,100.5,427.57142857142856,425.47767857142856,208.5,461.57142857142856,477.47767857142856,315.2,463.57142857142856,492.47767857142856,416.9,463.57142857142856,494.47767857142856,520.6,463.57142857142856,494.47767857142856,620.9,463.57142857142856,494.47767857142856,729.6,463.57142857142856,494.47767857142856,830.1,463.57142857142856,494.47767857142856,930.8,351.57142857142856,401.47767857142856,1036.7,229.57142857142856,315.47767857142856,1148.9,148.57142857142856,260.47767857142856,1251.8,104.57142857142857,188.47767857142856,1375,80.57142857142857,108.47767857142857,1487.1,76.57142857142857,95.47767857142857,1597.2,76.57142857142857,95.47767857142857,1700.8,76.57142857142857,95.47767857142857,1802.7,76.57142857142857,95.47767857142857,1916,128.57142857142856,178.47767857142856,2019.9,230.57142857142856,422.47767857142856,2123.9,232.57142857142856,424.47767857142856,2227.1,232.57142857142856,424.47767857142856,2329.2,232.57142857142856,424.47767857142856,2431.5,232.57142857142856,424.47767857142856,2536.4,232.57142857142856,424.47767857142856,2647.1,232.57142857142856,424.47767857142856,2750.2,232.57142857142856,424.47767857142856,2850.2,232.57142857142856,424.47767857142856,2955.9,232.57142857142856,424.47767857142856,3056.5,232.57142857142856,424.47767857142856,3162.5,232.57142857142856,424.47767857142856,3270.2,232.57142857142856,424.47767857142856,3379,232.57142857142856,424.47767857142856,3480.4,232.57142857142856,424.47767857142856,3582.5,232.57142857142856,424.47767857142856,3693.8,232.57142857142856,424.47767857142856,3794.9,232.57142857142856,424.47767857142856,3895.9,232.57142857142856,424.47767857142856,4001.2,232.57142857142856,424.47767857142856,4111.8,232.57142857142856,424.47767857142856,4217.3,232.57142857142856,424.47767857142856,4332.8,232.57142857142856,424.47767857142856,4436.5,232.57142857142856,424.47767857142856,4544.5,232.57142857142856,424.47767857142856,4646.2,232.57142857142856,424.47767857142856,4747.9,232.57142857142856,424.47767857142856,4854.5,232.57142857142856,424.47767857142856,4962.4]","[4243.9,4243.9,1839.8,2014.7,389.4,""smooth"",""up"",""up"",""good_move"",7096.9,2852.2,2340.4,4244.8,511.7,""smooth"",""left"",""left"",""good_move"",14337.8,7240.2,2785.3,11129.9,422.6,""smooth"",""up"",""up"",""good_move"",17124.2,2785.9,2225.5,14338.3,560.4,""oops"",""left"",""up"",""good_move"",19521.5,2396.8,1926.3,17124.7,470.5,""smooth"",""left"",""left"",""good_move"",22929.3,3406.8,3025.8,19522.5,381,""smooth"",""left"",""left"",""good_move""]","","",""
"3705","","<div style=""width:500px;"">
  <p>What determined the result of this run?</p>
  </div>","36","html-slider-response","56","616712","0.0-10.0-1.2","7","1","2025-07-09 09:04:38","7701e855f2ef39aa3fd6c71abdc6918a","146.90.88.118","Mozilla/5.0 (Windows NT 10.0; Win64; x64) AppleWebKit/537.36 (KHTML, like Gecko) Chrome/138.0.0.0 Safari/537.36","WebKit","Chrome","138.0.0.0","Windows","10.0","https://app.prolific.com/","en-GB,en-US;q=0.9,en;q=0.8","66c746f450506abe4d80b5e1","686d226cabeef709c732f8e1","686e308d886cb7a29c51ac97","66c746f450506abe4d80b5e1","2025-07-09T09:14:57.860Z","","","","","","AttribQ","","","","","","","","","","","","","","","","","","","","","","","","","","","","","","","","","","","","","","50",""
"2958","","<div style=""width:500px;"">
  <p>How much control did you have over the ball?</p>
  </div>","63","html-slider-response","57","619673","0.0-10.0-2.2","7","1","2025-07-09 09:04:38","7701e855f2ef39aa3fd6c71abdc6918a","146.90.88.118","Mozilla/5.0 (Windows NT 10.0; Win64; x64) AppleWebKit/537.36 (KHTML, like Gecko) Chrome/138.0.0.0 Safari/537.36","WebKit","Chrome","138.0.0.0","Windows","10.0","https://app.prolific.com/","en-GB,en-US;q=0.9,en;q=0.8","66c746f450506abe4d80b5e1","686d226cabeef709c732f8e1","686e308d886cb7a29c51ac97","66c746f450506abe4d80b5e1","2025-07-09T09:15:00.821Z","","","","","","ControlQ","","","","","","","","","","","","","","","","","","","","","","","","","","","","","","","","","","","","","","50",""
"5068","","<div style=""width:500px;"">
  <p>How would you describe your current emotional state?</p>
  </div>","39","html-slider-response","58","624746","0.0-10.0-3.2","7","1","2025-07-09 09:04:38","7701e855f2ef39aa3fd6c71abdc6918a","146.90.88.118","Mozilla/5.0 (Windows NT 10.0; Win64; x64) AppleWebKit/537.36 (KHTML, like Gecko) Chrome/138.0.0.0 Safari/537.36","WebKit","Chrome","138.0.0.0","Windows","10.0","https://app.prolific.com/","en-GB,en-US;q=0.9,en;q=0.8","66c746f450506abe4d80b5e1","686d226cabeef709c732f8e1","686e308d886cb7a29c51ac97","66c746f450506abe4d80b5e1","2025-07-09T09:15:05.894Z","","","","","","StressQ","","","","","","","","","","","","","","","","","","","","","","","","","","","","","","","","","","","","","","50",""
"2493","","<div style=""width:500px;"">
  <p>What best describes how you currently feel?</p>
  </div>","72","html-slider-response","59","627242","0.0-10.0-4.2","7","1","2025-07-09 09:04:38","7701e855f2ef39aa3fd6c71abdc6918a","146.90.88.118","Mozilla/5.0 (Windows NT 10.0; Win64; x64) AppleWebKit/537.36 (KHTML, like Gecko) Chrome/138.0.0.0 Safari/537.36","WebKit","Chrome","138.0.0.0","Windows","10.0","https://app.prolific.com/","en-GB,en-US;q=0.9,en;q=0.8","66c746f450506abe4d80b5e1","686d226cabeef709c732f8e1","686e308d886cb7a29c51ac97","66c746f450506abe4d80b5e1","2025-07-09T09:15:08.390Z","","","","","","MotivationQ","","","","","","","","","","","","","","","","","","","","","","","","","","","","","","","","","","","","","","50",""
"","","","","ctl-task-cpt","60","659206","0.0-10.0-0.3","7","1","2025-07-09 09:04:38","7701e855f2ef39aa3fd6c71abdc6918a","146.90.88.118","Mozilla/5.0 (Windows NT 10.0; Win64; x64) AppleWebKit/537.36 (KHTML, like Gecko) Chrome/138.0.0.0 Safari/537.36","WebKit","Chrome","138.0.0.0","Windows","10.0","https://app.prolific.com/","en-GB,en-US;q=0.9,en;q=0.8","66c746f450506abe4d80b5e1","686d226cabeef709c732f8e1","686e308d886cb7a29c51ac97","66c746f450506abe4d80b5e1","2025-07-09T09:15:40.354Z","","","","","","","","","","","","","","","","win-only","0","g1:NW,g2:SE","0.7","4","0","628821.7","1100.4","6103","28948.9","1","4","4","6","2","4","4","21","17","0.1590909090909091","1679.7","3000","1265","[""down"",""right""]","{""num_key_presses"":6,""num_perfect"":5,""num_errors"":0,""num_randdir"":1,""num_randdir_good_moves"":1,""num_whilered"":0,""num_whileblue"":0,""num_blue"":2,""num_good_moves"":6}","[413.57142857142856,415.47767857142856,1.2,413.57142857142856,415.47767857142856,102.6,415.57142857142856,420.47767857142856,210.8,436.57142857142856,464.47767857142856,318.2,438.57142857142856,473.47767857142856,424.8,438.57142857142856,473.47767857142856,526.1,438.57142857142856,473.47767857142856,632.3,438.57142857142856,473.47767857142856,738.7,438.57142857142856,473.47767857142856,839.5,438.57142857142856,473.47767857142856,941.3,438.57142857142856,473.47767857142856,1046.9,460.57142857142856,503.47767857142856,1147.3,584.5714285714286,633.4776785714286,1248,675.5714285714286,671.4776785714286,1353.7,685.5714285714286,676.4776785714286,1454.8,735.5714285714286,733.4776785714286,1555.2,739.5714285714286,738.4776785714286,1661,739.5714285714286,738.4776785714286,1762.9,735.5714285714286,739.4776785714286,1881.8,725.5714285714286,740.4776785714286,1982.1,725.5714285714286,740.4776785714286,2082.1,725.5714285714286,740.4776785714286,2187.5,725.5714285714286,740.4776785714286,2297.6,725.5714285714286,740.4776785714286,2398.2,725.5714285714286,740.4776785714286,2504.8,725.5714285714286,740.4776785714286,2607.1,725.5714285714286,740.4776785714286,2712.2,725.5714285714286,740.4776785714286,2813.9,725.5714285714286,740.4776785714286,2931.8,725.5714285714286,740.4776785714286,3033.2,725.5714285714286,740.4776785714286,3133.7,725.5714285714286,740.4776785714286,3234.6,725.5714285714286,740.4776785714286,3339.2,725.5714285714286,740.4776785714286,3440.9,723.5714285714286,740.4776785714286,3542.7,669.5714285714286,753.4776785714286,3649.3,642.5714285714286,756.4776785714286,3752.5,603.5714285714286,766.4776785714286,3855.2,565.5714285714286,777.4776785714286,3955.3,562.5714285714286,777.4776785714286,4059.3,562.5714285714286,777.4776785714286,4159.4,562.5714285714286,777.4776785714286,4260.2,562.5714285714286,777.4776785714286,4363.3,562.5714285714286,777.4776785714286,4471.8,562.5714285714286,777.4776785714286,4574.1,562.5714285714286,777.4776785714286,4681.9,562.5714285714286,777.4776785714286,4783.6,562.5714285714286,777.4776785714286,4888.3,562.5714285714286,777.4776785714286,4990.5]","[1353.3,1353.3,1000,0,353.3,""smooth"",""down"",""down"",""good_move"",7552.9,6198.1,2574.9,4388.2,589.8,""smooth"",""right"",""right"",""good_move"",14400.9,6847,3096.7,10916.8,387.4,""smooth"",""right"",""right"",""good_move"",17431.7,3030.2,2599,14401.5,431.2,""smooth"",""down"",""down"",""good_move"",20072.3,2639.6,2111.4,17432.8,528.2,""oops"",""right"",""down"",""good_move"",22697.6,2624.7,2158.9,20073,465.8,""smooth"",""right"",""right"",""good_move""]","","",""
"3374","","<div style=""width:500px;"">
  <p>What determined the result of this run?</p>
  </div>","40","html-slider-response","61","662585","0.0-10.0-1.3","7","1","2025-07-09 09:04:38","7701e855f2ef39aa3fd6c71abdc6918a","146.90.88.118","Mozilla/5.0 (Windows NT 10.0; Win64; x64) AppleWebKit/537.36 (KHTML, like Gecko) Chrome/138.0.0.0 Safari/537.36","WebKit","Chrome","138.0.0.0","Windows","10.0","https://app.prolific.com/","en-GB,en-US;q=0.9,en;q=0.8","66c746f450506abe4d80b5e1","686d226cabeef709c732f8e1","686e308d886cb7a29c51ac97","66c746f450506abe4d80b5e1","2025-07-09T09:15:43.733Z","","","","","","AttribQ","","","","","","","","","","","","","","","","","","","","","","","","","","","","","","","","","","","","","","50",""
"3206","","<div style=""width:500px;"">
  <p>How much control did you have over the ball?</p>
  </div>","64","html-slider-response","62","665793","0.0-10.0-2.3","7","1","2025-07-09 09:04:38","7701e855f2ef39aa3fd6c71abdc6918a","146.90.88.118","Mozilla/5.0 (Windows NT 10.0; Win64; x64) AppleWebKit/537.36 (KHTML, like Gecko) Chrome/138.0.0.0 Safari/537.36","WebKit","Chrome","138.0.0.0","Windows","10.0","https://app.prolific.com/","en-GB,en-US;q=0.9,en;q=0.8","66c746f450506abe4d80b5e1","686d226cabeef709c732f8e1","686e308d886cb7a29c51ac97","66c746f450506abe4d80b5e1","2025-07-09T09:15:46.941Z","","","","","","ControlQ","","","","","","","","","","","","","","","","","","","","","","","","","","","","","","","","","","","","","","50",""
"3573","","<div style=""width:500px;"">
  <p>How would you describe your current emotional state?</p>
  </div>","40","html-slider-response","63","669369","0.0-10.0-3.3","7","1","2025-07-09 09:04:38","7701e855f2ef39aa3fd6c71abdc6918a","146.90.88.118","Mozilla/5.0 (Windows NT 10.0; Win64; x64) AppleWebKit/537.36 (KHTML, like Gecko) Chrome/138.0.0.0 Safari/537.36","WebKit","Chrome","138.0.0.0","Windows","10.0","https://app.prolific.com/","en-GB,en-US;q=0.9,en;q=0.8","66c746f450506abe4d80b5e1","686d226cabeef709c732f8e1","686e308d886cb7a29c51ac97","66c746f450506abe4d80b5e1","2025-07-09T09:15:50.517Z","","","","","","StressQ","","","","","","","","","","","","","","","","","","","","","","","","","","","","","","","","","","","","","","50",""
"2461","","<div style=""width:500px;"">
  <p>What best describes how you currently feel?</p>
  </div>","73","html-slider-response","64","671833","0.0-10.0-4.3","7","1","2025-07-09 09:04:38","7701e855f2ef39aa3fd6c71abdc6918a","146.90.88.118","Mozilla/5.0 (Windows NT 10.0; Win64; x64) AppleWebKit/537.36 (KHTML, like Gecko) Chrome/138.0.0.0 Safari/537.36","WebKit","Chrome","138.0.0.0","Windows","10.0","https://app.prolific.com/","en-GB,en-US;q=0.9,en;q=0.8","66c746f450506abe4d80b5e1","686d226cabeef709c732f8e1","686e308d886cb7a29c51ac97","66c746f450506abe4d80b5e1","2025-07-09T09:15:52.982Z","","","","","","MotivationQ","","","","","","","","","","","","","","","","","","","","","","","","","","","","","","","","","","","","","","50",""
"","","","","ctl-task-cpt","65","752641","0.0-10.0-0.4","7","1","2025-07-09 09:04:38","7701e855f2ef39aa3fd6c71abdc6918a","146.90.88.118","Mozilla/5.0 (Windows NT 10.0; Win64; x64) AppleWebKit/537.36 (KHTML, like Gecko) Chrome/138.0.0.0 Safari/537.36","WebKit","Chrome","138.0.0.0","Windows","10.0","https://app.prolific.com/","en-GB,en-US;q=0.9,en;q=0.8","66c746f450506abe4d80b5e1","686d226cabeef709c732f8e1","686e308d886cb7a29c51ac97","66c746f450506abe4d80b5e1","2025-07-09T09:17:13.790Z","","","","","","","","","","","","","","","","win-only","2","g1:SE,g2:NW","0.6","5","0","673414.4","1331.1","6334.8","77769.3","1","4","4","6","2","4","4","25","21","0.1893939393939394","1689","3000","1615","[""left"",""up""]","{""num_key_presses"":14,""num_perfect"":7,""num_errors"":0,""num_randdir"":7,""num_randdir_good_moves"":4,""num_whilered"":0,""num_whileblue"":0,""num_blue"":5,""num_good_moves"":10}","[420.57142857142856,410.47767857142856,0.7,420.57142857142856,410.47767857142856,103.3,422.57142857142856,423.47767857142856,208,428.57142857142856,457.47767857142856,315.3,428.57142857142856,461.47767857142856,417.5,428.57142857142856,463.47767857142856,522.3,428.57142857142856,463.47767857142856,627.1,428.57142857142856,463.47767857142856,739.7,428.57142857142856,463.47767857142856,851.7,428.57142857142856,463.47767857142856,952.6,422.57142857142856,455.47767857142856,1061.4,368.57142857142856,401.47767857142856,1169.4,266.57142857142856,318.47767857142856,1272.7,188.57142857142856,236.47767857142856,1377.5,150.57142857142856,183.47767857142856,1478.9,110.57142857142857,109.47767857142857,1580.6,103.57142857142857,92.47767857142857,1696.4,103.57142857142857,92.47767857142857,1799.9,109.57142857142857,111.47767857142857,1912.9,156.57142857142856,308.47767857142856,2021.9,170.57142857142856,372.47767857142856,2123.1,170.57142857142856,372.47767857142856,2225.9,170.57142857142856,372.47767857142856,2331,170.57142857142856,372.47767857142856,2436.6,170.57142857142856,372.47767857142856,2536.6,170.57142857142856,372.47767857142856,2642.5,170.57142857142856,372.47767857142856,2746.8,170.57142857142856,372.47767857142856,2848,170.57142857142856,372.47767857142856,2954,170.57142857142856,372.47767857142856,3056,170.57142857142856,372.47767857142856,3157.2,170.57142857142856,372.47767857142856,3265,170.57142857142856,372.47767857142856,3373.6,170.57142857142856,372.47767857142856,3478.1,170.57142857142856,372.47767857142856,3578.3,170.57142857142856,372.47767857142856,3683.6,170.57142857142856,372.47767857142856,3789.4,170.57142857142856,372.47767857142856,3891.1,170.57142857142856,372.47767857142856,3998.5,170.57142857142856,372.47767857142856,4104.5,170.57142857142856,372.47767857142856,4205.5,170.57142857142856,372.47767857142856,4311.7,170.57142857142856,372.47767857142856,4416.8,170.57142857142856,372.47767857142856,4522.4,170.57142857142856,372.47767857142856,4624.8,170.57142857142856,372.47767857142856,4725,170.57142857142856,372.47767857142856,4825.1,170.57142857142856,372.47767857142856,4932.9]","[1439.9,1439.9,1000,0,439.9,""smooth"",""up"",""up"",""good_move"",9909.7,8469,1811.2,7709.7,388.9,""oops"",""left"",""left"",""good_move"",13040.2,3129.5,2330.4,9910.8,799,""smooth"",""left"",""left"",""good_move"",16938.3,3897.6,2025.7,13040.8,1871.9,""smooth"",""up"",""up"",""good_move"",24570.7,7631.6,2614.3,21506.6,449.8,""smooth"",""left"",""left"",""good_move"",28863.3,4291.8,2446.5,24571.5,1845.3,""oops"",""up"",""down"",""bad_move"",32375.3,3511.5,3065.2,28863.8,446.3,""smooth"",""up"",""up"",""good_move"",40400.6,8024.7,2742.9,37223.5,434.2,""oops"",""up"",""down"",""bad_move"",46839.1,6437.8,2491,43840.8,507.3,""smooth"",""up"",""up"",""good_move"",52633.4,5793.6,2801.1,46839.8,2992.5,""oops"",""up"",""down"",""bad_move"",55377,2743.1,1890.9,52633.9,852.2,""smooth"",""right"",""right"",""bad_move"",58887.8,3510.1,3068.3,55377.8,441.8,""oops"",""up"",""up"",""good_move"",64841.7,5953.4,2626.3,58888.3,3327.1,""oops"",""up"",""up"",""good_move"",70848.9,6006.9,2781.5,64842.1,3225.3,""oops"",""left"",""left"",""good_move""]","","",""
"6705","","<div style=""width:500px;"">
  <p>What determined the result of this run?</p>
  </div>","66","html-slider-response","66","759352","0.0-10.0-1.4","7","1","2025-07-09 09:04:38","7701e855f2ef39aa3fd6c71abdc6918a","146.90.88.118","Mozilla/5.0 (Windows NT 10.0; Win64; x64) AppleWebKit/537.36 (KHTML, like Gecko) Chrome/138.0.0.0 Safari/537.36","WebKit","Chrome","138.0.0.0","Windows","10.0","https://app.prolific.com/","en-GB,en-US;q=0.9,en;q=0.8","66c746f450506abe4d80b5e1","686d226cabeef709c732f8e1","686e308d886cb7a29c51ac97","66c746f450506abe4d80b5e1","2025-07-09T09:17:20.500Z","","","","","","AttribQ","","","","","","","","","","","","","","","","","","","","","","","","","","","","","","","","","","","","","","50",""
"3821","","<div style=""width:500px;"">
  <p>How much control did you have over the ball?</p>
  </div>","61","html-slider-response","67","763176","0.0-10.0-2.4","7","1","2025-07-09 09:04:38","7701e855f2ef39aa3fd6c71abdc6918a","146.90.88.118","Mozilla/5.0 (Windows NT 10.0; Win64; x64) AppleWebKit/537.36 (KHTML, like Gecko) Chrome/138.0.0.0 Safari/537.36","WebKit","Chrome","138.0.0.0","Windows","10.0","https://app.prolific.com/","en-GB,en-US;q=0.9,en;q=0.8","66c746f450506abe4d80b5e1","686d226cabeef709c732f8e1","686e308d886cb7a29c51ac97","66c746f450506abe4d80b5e1","2025-07-09T09:17:24.324Z","","","","","","ControlQ","","","","","","","","","","","","","","","","","","","","","","","","","","","","","","","","","","","","","","50",""
"3197","","<div style=""width:500px;"">
  <p>How would you describe your current emotional state?</p>
  </div>","56","html-slider-response","68","766376","0.0-10.0-3.4","7","1","2025-07-09 09:04:38","7701e855f2ef39aa3fd6c71abdc6918a","146.90.88.118","Mozilla/5.0 (Windows NT 10.0; Win64; x64) AppleWebKit/537.36 (KHTML, like Gecko) Chrome/138.0.0.0 Safari/537.36","WebKit","Chrome","138.0.0.0","Windows","10.0","https://app.prolific.com/","en-GB,en-US;q=0.9,en;q=0.8","66c746f450506abe4d80b5e1","686d226cabeef709c732f8e1","686e308d886cb7a29c51ac97","66c746f450506abe4d80b5e1","2025-07-09T09:17:27.525Z","","","","","","StressQ","","","","","","","","","","","","","","","","","","","","","","","","","","","","","","","","","","","","","","50",""
"6215","","<div style=""width:500px;"">
  <p>What best describes how you currently feel?</p>
  </div>","73","html-slider-response","69","772594","0.0-10.0-4.4","7","1","2025-07-09 09:04:38","7701e855f2ef39aa3fd6c71abdc6918a","146.90.88.118","Mozilla/5.0 (Windows NT 10.0; Win64; x64) AppleWebKit/537.36 (KHTML, like Gecko) Chrome/138.0.0.0 Safari/537.36","WebKit","Chrome","138.0.0.0","Windows","10.0","https://app.prolific.com/","en-GB,en-US;q=0.9,en;q=0.8","66c746f450506abe4d80b5e1","686d226cabeef709c732f8e1","686e308d886cb7a29c51ac97","66c746f450506abe4d80b5e1","2025-07-09T09:17:33.742Z","","","","","","MotivationQ","","","","","","","","","","","","","","","","","","","","","","","","","","","","","","","","","","","","","","50",""
"","","","","ctl-task-cpt","70","889654","0.0-10.0-0.5","7","1","2025-07-09 09:04:38","7701e855f2ef39aa3fd6c71abdc6918a","146.90.88.118","Mozilla/5.0 (Windows NT 10.0; Win64; x64) AppleWebKit/537.36 (KHTML, like Gecko) Chrome/138.0.0.0 Safari/537.36","WebKit","Chrome","138.0.0.0","Windows","10.0","https://app.prolific.com/","en-GB,en-US;q=0.9,en;q=0.8","66c746f450506abe4d80b5e1","686d226cabeef709c732f8e1","686e308d886cb7a29c51ac97","66c746f450506abe4d80b5e1","2025-07-09T09:19:30.802Z","","","","","","","","","","","","","","","","win-only","2","g1:SE,g2:NW","0.5","6","0","774176","1812.3","6830.9","113996.3","1","4","8","6","2","8","7","32","25","0.24242424242424243","1652.8","3000","1800","[""left"",""up""]","{""num_key_presses"":18,""num_perfect"":8,""num_errors"":1,""num_randdir"":9,""num_randdir_good_moves"":5,""num_whilered"":0,""num_whileblue"":1,""num_blue"":3,""num_good_moves"":12}","[412.57142857142856,409.47767857142856,0.5,412.57142857142856,409.47767857142856,119.2,412.57142857142856,411.47767857142856,250.4,412.57142857142856,416.47767857142856,370.2,412.57142857142856,416.47767857142856,475.8,412.57142857142856,416.47767857142856,579.8,412.57142857142856,416.47767857142856,692.3,412.57142857142856,416.47767857142856,800.5,412.57142857142856,416.47767857142856,909,412.57142857142856,416.47767857142856,1009.5,361.57142857142856,389.47767857142856,1125.6,164.57142857142856,247.47767857142856,1236.3,115.57142857142857,176.47767857142856,1355.3,81.57142857142857,100.47767857142857,1479,81.57142857142857,99.47767857142857,1591.3,81.57142857142857,99.47767857142857,1702.3,81.57142857142857,99.47767857142857,1808.6,81.57142857142857,98.47767857142857,1910.5,81.57142857142857,98.47767857142857,2013.4,81.57142857142857,98.47767857142857,2114.5,81.57142857142857,98.47767857142857,2218.2,81.57142857142857,98.47767857142857,2319.9,81.57142857142857,98.47767857142857,2433.4,81.57142857142857,98.47767857142857,2558.9,81.57142857142857,98.47767857142857,2664.7,81.57142857142857,98.47767857142857,2766.4,81.57142857142857,98.47767857142857,2875.2,81.57142857142857,98.47767857142857,2977.5,81.57142857142857,98.47767857142857,3079.9,81.57142857142857,98.47767857142857,3202,81.57142857142857,98.47767857142857,3312,81.57142857142857,98.47767857142857,3427.3,81.57142857142857,98.47767857142857,3547.1,81.57142857142857,98.47767857142857,3664.6,81.57142857142857,98.47767857142857,3783,81.57142857142857,98.47767857142857,3903.4,81.57142857142857,98.47767857142857,4008.7,81.57142857142857,98.47767857142857,4125.5,81.57142857142857,98.47767857142857,4225.6,81.57142857142857,98.47767857142857,4333.3,81.57142857142857,98.47767857142857,4454.3,81.57142857142857,98.47767857142857,4561.4,81.57142857142857,98.47767857142857,4669.9,81.57142857142857,98.47767857142857,4772.5,81.57142857142857,98.47767857142857,4873.6,81.57142857142857,98.47767857142857,4987.2]","[1478.9,1479,1000,0,479,""smooth"",""up"",""up"",""good_move"",6273.8,4794,1943.7,1479.8,2850.3,""smooth"",""left"",""left"",""good_move"",11190.7,4914.2,2349.5,6276.5,2564.7,""oops"",""up"",""right"",""bad_move"",14998.8,3806.9,3348.3,11191.9,458.6,""oops"",""left"",""up"",""good_move"",20867.9,5868.7,5423.5,14999.2,445.2,""while_blue"",""left"",""down"",""bad_move"",23953,3083.8,2423.2,20869.3,660.5,""oops"",""left"",""right"",""bad_move"",31761.4,7807.7,3159.2,28113,489.2,""smooth"",""right"",""right"",""bad_move"",35235.2,3473.3,2498.8,31762,974.5,""smooth"",""up"",""up"",""good_move"",42000.5,6764.2,2716.8,35236.4,4047.3,""smooth"",""left"",""left"",""good_move"",48815.6,6814.5,3025.2,42001.2,3789.2,""oops"",""left"",""right"",""bad_move"",52006.3,3190,2533.9,48816.4,656,""oops"",""left"",""up"",""good_move"",63055,11046.7,2425.1,60200.8,429.1,""smooth"",""left"",""left"",""good_move"",70646.9,7591.1,3370.3,63055.8,4220.8,""oops"",""left"",""left"",""good_move"",78600.5,7953.2,1763.4,70647.3,6189.8,""oops"",""left"",""down"",""bad_move"",81975.9,3374.9,2272.2,78601,1102.7,""smooth"",""left"",""left"",""good_move"",89840.6,7863.9,2573.4,81976.7,5290.5,""oops"",""left"",""up"",""good_move"",97661.4,7819.9,1537.1,89841.5,6282.8,""smooth"",""left"",""left"",""good_move"",106429.2,8767,2492.7,97662.2,6274.3,""oops"",""left"",""left"",""good_move""]","","",""
"4186","","<div style=""width:500px;"">
  <p>What determined the result of this run?</p>
  </div>","40","html-slider-response","71","893849","0.0-10.0-1.5","7","1","2025-07-09 09:04:38","7701e855f2ef39aa3fd6c71abdc6918a","146.90.88.118","Mozilla/5.0 (Windows NT 10.0; Win64; x64) AppleWebKit/537.36 (KHTML, like Gecko) Chrome/138.0.0.0 Safari/537.36","WebKit","Chrome","138.0.0.0","Windows","10.0","https://app.prolific.com/","en-GB,en-US;q=0.9,en;q=0.8","66c746f450506abe4d80b5e1","686d226cabeef709c732f8e1","686e308d886cb7a29c51ac97","66c746f450506abe4d80b5e1","2025-07-09T09:19:34.997Z","","","","","","AttribQ","","","","","","","","","","","","","","","","","","","","","","","","","","","","","","","","","","","","","","50",""
"2713","","<div style=""width:500px;"">
  <p>How much control did you have over the ball?</p>
  </div>","43","html-slider-response","72","896569","0.0-10.0-2.5","7","1","2025-07-09 09:04:38","7701e855f2ef39aa3fd6c71abdc6918a","146.90.88.118","Mozilla/5.0 (Windows NT 10.0; Win64; x64) AppleWebKit/537.36 (KHTML, like Gecko) Chrome/138.0.0.0 Safari/537.36","WebKit","Chrome","138.0.0.0","Windows","10.0","https://app.prolific.com/","en-GB,en-US;q=0.9,en;q=0.8","66c746f450506abe4d80b5e1","686d226cabeef709c732f8e1","686e308d886cb7a29c51ac97","66c746f450506abe4d80b5e1","2025-07-09T09:19:37.717Z","","","","","","ControlQ","","","","","","","","","","","","","","","","","","","","","","","","","","","","","","","","","","","","","","50",""
"3458","","<div style=""width:500px;"">
  <p>How would you describe your current emotional state?</p>
  </div>","56","html-slider-response","73","900035","0.0-10.0-3.5","7","1","2025-07-09 09:04:38","7701e855f2ef39aa3fd6c71abdc6918a","146.90.88.118","Mozilla/5.0 (Windows NT 10.0; Win64; x64) AppleWebKit/537.36 (KHTML, like Gecko) Chrome/138.0.0.0 Safari/537.36","WebKit","Chrome","138.0.0.0","Windows","10.0","https://app.prolific.com/","en-GB,en-US;q=0.9,en;q=0.8","66c746f450506abe4d80b5e1","686d226cabeef709c732f8e1","686e308d886cb7a29c51ac97","66c746f450506abe4d80b5e1","2025-07-09T09:19:41.183Z","","","","","","StressQ","","","","","","","","","","","","","","","","","","","","","","","","","","","","","","","","","","","","","","50",""
"5183","","<div style=""width:500px;"">
  <p>What best describes how you currently feel?</p>
  </div>","70","html-slider-response","74","905226","0.0-10.0-4.5","7","1","2025-07-09 09:04:38","7701e855f2ef39aa3fd6c71abdc6918a","146.90.88.118","Mozilla/5.0 (Windows NT 10.0; Win64; x64) AppleWebKit/537.36 (KHTML, like Gecko) Chrome/138.0.0.0 Safari/537.36","WebKit","Chrome","138.0.0.0","Windows","10.0","https://app.prolific.com/","en-GB,en-US;q=0.9,en;q=0.8","66c746f450506abe4d80b5e1","686d226cabeef709c732f8e1","686e308d886cb7a29c51ac97","66c746f450506abe4d80b5e1","2025-07-09T09:19:46.374Z","","","","","","MotivationQ","","","","","","","","","","","","","","","","","","","","","","","","","","","","","","","","","","","","","","50",""
"","","","","ctl-task-cpt","75","957900","0.0-10.0-0.6","7","1","2025-07-09 09:04:38","7701e855f2ef39aa3fd6c71abdc6918a","146.90.88.118","Mozilla/5.0 (Windows NT 10.0; Win64; x64) AppleWebKit/537.36 (KHTML, like Gecko) Chrome/138.0.0.0 Safari/537.36","WebKit","Chrome","138.0.0.0","Windows","10.0","https://app.prolific.com/","en-GB,en-US;q=0.9,en;q=0.8","66c746f450506abe4d80b5e1","686d226cabeef709c732f8e1","686e308d886cb7a29c51ac97","66c746f450506abe4d80b5e1","2025-07-09T09:20:39.049Z","","","","","","","","","","","","","","","","win-only","0","g1:NW,g2:SE","0.4","7","0","906811.7","2894.7","7941.1","49639.8","1","4","8","6","2","8","8","40","32","0.30303030303030304","1474.7","3000","2080","[""down"",""right""]","{""num_key_presses"":10,""num_perfect"":4,""num_errors"":0,""num_randdir"":6,""num_randdir_good_moves"":4,""num_whilered"":0,""num_whileblue"":0,""num_blue"":0,""num_good_moves"":8}","[417.57142857142856,414.47767857142856,0.3,417.57142857142856,414.47767857142856,122.7,416.57142857142856,414.47767857142856,272.6,416.57142857142856,414.47767857142856,410.3,416.57142857142856,414.47767857142856,554.3,416.57142857142856,414.47767857142856,692.9,416.57142857142856,414.47767857142856,832.5,416.57142857142856,414.47767857142856,978.8,508.57142857142856,566.4776785714286,1124.6,702.5714285714286,785.4776785714286,1269.4,717.5714285714286,774.4776785714286,1417.2,718.5714285714286,774.4776785714286,1569.6,719.5714285714286,773.4776785714286,1707.8,719.5714285714286,773.4776785714286,1837.1,719.5714285714286,773.4776785714286,1979.9,719.5714285714286,773.4776785714286,2116.7,719.5714285714286,773.4776785714286,2258,719.5714285714286,773.4776785714286,2379.7,719.5714285714286,773.4776785714286,2508,719.5714285714286,773.4776785714286,2640.3,719.5714285714286,773.4776785714286,2776.9,719.5714285714286,773.4776785714286,2918.2,719.5714285714286,773.4776785714286,3055,719.5714285714286,773.4776785714286,3192.3,719.5714285714286,773.4776785714286,3349.6,719.5714285714286,773.4776785714286,3482.2,719.5714285714286,773.4776785714286,3622.3,719.5714285714286,773.4776785714286,3763.8,719.5714285714286,773.4776785714286,3899,719.5714285714286,773.4776785714286,4038.6,719.5714285714286,773.4776785714286,4176.2,719.5714285714286,773.4776785714286,4330.5,719.5714285714286,773.4776785714286,4472.3,719.5714285714286,773.4776785714286,4618.8,719.5714285714286,773.4776785714286,4758.2,719.5714285714286,773.4776785714286,4896.5]","[1567,1567,1000,0,567,""smooth"",""down"",""down"",""good_move"",4408.1,2840.5,2168.7,1567.6,671.9,""oops"",""right"",""left"",""bad_move"",16102.4,11693.4,2090.7,4409,9602.8,""smooth"",""right"",""right"",""good_move"",19541.1,3438,2740.7,16103.2,697.3,""oops"",""right"",""down"",""good_move"",22913.4,3371.8,2597.5,19541.6,774.3,""oops"",""right"",""left"",""bad_move"",29742.3,6828.2,2731,22914.2,4097.1,""oops"",""right"",""down"",""good_move"",32387.8,2644.8,2163.9,29743.3,480.6,""smooth"",""right"",""right"",""good_move"",35171.8,2782.8,2267.5,32389.1,515.2,""oops"",""right"",""right"",""good_move"",38200.3,3028.1,2549,35172.3,479.1,""smooth"",""right"",""right"",""good_move"",41196.1,2995.3,2563.4,38200.9,431.9,""oops"",""right"",""right"",""good_move""]","","",""
"4073","","<div style=""width:500px;"">
  <p>What determined the result of this run?</p>
  </div>","57","html-slider-response","76","961976","0.0-10.0-1.6","7","1","2025-07-09 09:04:38","7701e855f2ef39aa3fd6c71abdc6918a","146.90.88.118","Mozilla/5.0 (Windows NT 10.0; Win64; x64) AppleWebKit/537.36 (KHTML, like Gecko) Chrome/138.0.0.0 Safari/537.36","WebKit","Chrome","138.0.0.0","Windows","10.0","https://app.prolific.com/","en-GB,en-US;q=0.9,en;q=0.8","66c746f450506abe4d80b5e1","686d226cabeef709c732f8e1","686e308d886cb7a29c51ac97","66c746f450506abe4d80b5e1","2025-07-09T09:20:43.124Z","","","","","","AttribQ","","","","","","","","","","","","","","","","","","","","","","","","","","","","","","","","","","","","","","50",""
"2567","","<div style=""width:500px;"">
  <p>How much control did you have over the ball?</p>
  </div>","58","html-slider-response","77","964545","0.0-10.0-2.6","7","1","2025-07-09 09:04:38","7701e855f2ef39aa3fd6c71abdc6918a","146.90.88.118","Mozilla/5.0 (Windows NT 10.0; Win64; x64) AppleWebKit/537.36 (KHTML, like Gecko) Chrome/138.0.0.0 Safari/537.36","WebKit","Chrome","138.0.0.0","Windows","10.0","https://app.prolific.com/","en-GB,en-US;q=0.9,en;q=0.8","66c746f450506abe4d80b5e1","686d226cabeef709c732f8e1","686e308d886cb7a29c51ac97","66c746f450506abe4d80b5e1","2025-07-09T09:20:45.694Z","","","","","","ControlQ","","","","","","","","","","","","","","","","","","","","","","","","","","","","","","","","","","","","","","50",""
"2306","","<div style=""width:500px;"">
  <p>How would you describe your current emotional state?</p>
  </div>","41","html-slider-response","78","966856","0.0-10.0-3.6","7","1","2025-07-09 09:04:38","7701e855f2ef39aa3fd6c71abdc6918a","146.90.88.118","Mozilla/5.0 (Windows NT 10.0; Win64; x64) AppleWebKit/537.36 (KHTML, like Gecko) Chrome/138.0.0.0 Safari/537.36","WebKit","Chrome","138.0.0.0","Windows","10.0","https://app.prolific.com/","en-GB,en-US;q=0.9,en;q=0.8","66c746f450506abe4d80b5e1","686d226cabeef709c732f8e1","686e308d886cb7a29c51ac97","66c746f450506abe4d80b5e1","2025-07-09T09:20:48.004Z","","","","","","StressQ","","","","","","","","","","","","","","","","","","","","","","","","","","","","","","","","","","","","","","50",""
"2180","","<div style=""width:500px;"">
  <p>What best describes how you currently feel?</p>
  </div>","72","html-slider-response","79","969039","0.0-10.0-4.6","7","1","2025-07-09 09:04:38","7701e855f2ef39aa3fd6c71abdc6918a","146.90.88.118","Mozilla/5.0 (Windows NT 10.0; Win64; x64) AppleWebKit/537.36 (KHTML, like Gecko) Chrome/138.0.0.0 Safari/537.36","WebKit","Chrome","138.0.0.0","Windows","10.0","https://app.prolific.com/","en-GB,en-US;q=0.9,en;q=0.8","66c746f450506abe4d80b5e1","686d226cabeef709c732f8e1","686e308d886cb7a29c51ac97","66c746f450506abe4d80b5e1","2025-07-09T09:20:50.187Z","","","","","","MotivationQ","","","","","","","","","","","","","","","","","","","","","","","","","","","","","","","","","","","","","","50",""
"","","","","ctl-task-cpt","80","1060796","0.0-10.0-0.7","7","1","2025-07-09 09:04:38","7701e855f2ef39aa3fd6c71abdc6918a","146.90.88.118","Mozilla/5.0 (Windows NT 10.0; Win64; x64) AppleWebKit/537.36 (KHTML, like Gecko) Chrome/138.0.0.0 Safari/537.36","WebKit","Chrome","138.0.0.0","Windows","10.0","https://app.prolific.com/","en-GB,en-US;q=0.9,en;q=0.8","66c746f450506abe4d80b5e1","686d226cabeef709c732f8e1","686e308d886cb7a29c51ac97","66c746f450506abe4d80b5e1","2025-07-09T09:22:21.944Z","","","","","","","","","","","","","","","","win-only","2","g1:SE,g2:NW","0.3","8","0","970619.1","1156.7","6168.1","88695.5","1","4","4","6","2","4","3","43","40","0.32575757575757575","1778.6","3000","1570","[""left"",""up""]","{""num_key_presses"":16,""num_perfect"":6,""num_errors"":1,""num_randdir"":9,""num_randdir_good_moves"":5,""num_whilered"":0,""num_whileblue"":1,""num_blue"":3,""num_good_moves"":11}","[414.57142857142856,420.47767857142856,1.2,414.57142857142856,420.47767857142856,116.2,414.57142857142856,420.47767857142856,245.4,414.57142857142856,421.47767857142856,363.4,414.57142857142856,421.47767857142856,470.1,414.57142857142856,421.47767857142856,579.1,414.57142857142856,421.47767857142856,685.4,414.57142857142856,421.47767857142856,789.8,414.57142857142856,421.47767857142856,900.3,414.57142857142856,421.47767857142856,1009.7,414.57142857142856,421.47767857142856,1109.9,410.57142857142856,416.47767857142856,1233.1,290.57142857142856,239.47767857142856,1342.5,200.57142857142856,145.47767857142856,1455.8,131.57142857142856,94.47767857142857,1570,90.57142857142857,89.47767857142857,1689.5,89.57142857142857,89.47767857142857,1815.9,89.57142857142857,89.47767857142857,1929.6,89.57142857142857,89.47767857142857,2032.1,89.57142857142857,89.47767857142857,2147.7,89.57142857142857,89.47767857142857,2255,89.57142857142857,89.47767857142857,2363.7,89.57142857142857,89.47767857142857,2481.5,89.57142857142857,89.47767857142857,2591.6,89.57142857142857,89.47767857142857,2698.6,89.57142857142857,89.47767857142857,2803.2,89.57142857142857,89.47767857142857,2908.6,89.57142857142857,89.47767857142857,3011.1,89.57142857142857,89.47767857142857,3116.2,89.57142857142857,89.47767857142857,3227.4,89.57142857142857,89.47767857142857,3336.9,89.57142857142857,89.47767857142857,3445.3,89.57142857142857,89.47767857142857,3555.5,89.57142857142857,89.47767857142857,3664.4,89.57142857142857,89.47767857142857,3765.3,89.57142857142857,89.47767857142857,3878.5,89.57142857142857,89.47767857142857,3994.6,89.57142857142857,89.47767857142857,4116.3,89.57142857142857,89.47767857142857,4231.5,89.57142857142857,89.47767857142857,4335.9,89.57142857142857,89.47767857142857,4440,89.57142857142857,89.47767857142857,4547.2,89.57142857142857,89.47767857142857,4649.9,89.57142857142857,89.47767857142857,4761.8,89.57142857142857,89.47767857142857,4870.2,89.57142857142857,89.47767857142857,4985.1]","[1385.6,1385.7,1000,0,385.7,""smooth"",""up"",""up"",""good_move"",5013.7,3627.2,2635.6,1386.5,991.6,""oops"",""left"",""up"",""good_move"",8873.8,3859.1,2105.3,5014.7,1753.8,""oops"",""left"",""right"",""bad_move"",12048.9,3170.7,2777.8,8878.2,392.9,""oops"",""left"",""left"",""good_move"",14994.4,2944,2561.1,12050.5,382.8,""oops"",""left"",""left"",""good_move"",18616.1,3621.2,3244.2,14995,376.9,""while_blue"",""left"",""right"",""bad_move"",22228.3,3610.8,3035.8,18617.5,575,""oops"",""left"",""right"",""bad_move"",30401.4,8172.8,3417.2,26426.2,558,""smooth"",""left"",""left"",""good_move"",35930.6,5528.8,2541.2,30401.9,2987.5,""oops"",""left"",""left"",""good_move"",41595.2,5664.3,2204.6,35930.9,3459.7,""oops"",""left"",""down"",""bad_move"",44811.2,3215.1,2658.9,41596.1,556.2,""smooth"",""left"",""left"",""good_move"",54594.2,9782.5,2716.2,51324.9,553.2,""smooth"",""up"",""up"",""good_move"",62442.3,7847.3,2628.5,54595,5218.8,""oops"",""up"",""right"",""bad_move"",65435.6,2992.8,2361.8,62442.9,630.9,""smooth"",""up"",""up"",""good_move"",73531,8094.8,3034.6,65436.2,5060.2,""oops"",""left"",""left"",""good_move"",81836,8304.6,2824.5,73531.4,5480.1,""smooth"",""left"",""left"",""good_move""]","","",""
"4630","","<div style=""width:500px;"">
  <p>What determined the result of this run?</p>
  </div>","59","html-slider-response","81","1065432","0.0-10.0-1.7","7","1","2025-07-09 09:04:38","7701e855f2ef39aa3fd6c71abdc6918a","146.90.88.118","Mozilla/5.0 (Windows NT 10.0; Win64; x64) AppleWebKit/537.36 (KHTML, like Gecko) Chrome/138.0.0.0 Safari/537.36","WebKit","Chrome","138.0.0.0","Windows","10.0","https://app.prolific.com/","en-GB,en-US;q=0.9,en;q=0.8","66c746f450506abe4d80b5e1","686d226cabeef709c732f8e1","686e308d886cb7a29c51ac97","66c746f450506abe4d80b5e1","2025-07-09T09:22:26.580Z","","","","","","AttribQ","","","","","","","","","","","","","","","","","","","","","","","","","","","","","","","","","","","","","","50",""
"2946","","<div style=""width:500px;"">
  <p>How much control did you have over the ball?</p>
  </div>","43","html-slider-response","82","1068383","0.0-10.0-2.7","7","1","2025-07-09 09:04:38","7701e855f2ef39aa3fd6c71abdc6918a","146.90.88.118","Mozilla/5.0 (Windows NT 10.0; Win64; x64) AppleWebKit/537.36 (KHTML, like Gecko) Chrome/138.0.0.0 Safari/537.36","WebKit","Chrome","138.0.0.0","Windows","10.0","https://app.prolific.com/","en-GB,en-US;q=0.9,en;q=0.8","66c746f450506abe4d80b5e1","686d226cabeef709c732f8e1","686e308d886cb7a29c51ac97","66c746f450506abe4d80b5e1","2025-07-09T09:22:29.532Z","","","","","","ControlQ","","","","","","","","","","","","","","","","","","","","","","","","","","","","","","","","","","","","","","50",""
"2534","","<div style=""width:500px;"">
  <p>How would you describe your current emotional state?</p>
  </div>","56","html-slider-response","83","1070926","0.0-10.0-3.7","7","1","2025-07-09 09:04:38","7701e855f2ef39aa3fd6c71abdc6918a","146.90.88.118","Mozilla/5.0 (Windows NT 10.0; Win64; x64) AppleWebKit/537.36 (KHTML, like Gecko) Chrome/138.0.0.0 Safari/537.36","WebKit","Chrome","138.0.0.0","Windows","10.0","https://app.prolific.com/","en-GB,en-US;q=0.9,en;q=0.8","66c746f450506abe4d80b5e1","686d226cabeef709c732f8e1","686e308d886cb7a29c51ac97","66c746f450506abe4d80b5e1","2025-07-09T09:22:32.075Z","","","","","","StressQ","","","","","","","","","","","","","","","","","","","","","","","","","","","","","","","","","","","","","","50",""
"2580","","<div style=""width:500px;"">
  <p>What best describes how you currently feel?</p>
  </div>","75","html-slider-response","84","1073512","0.0-10.0-4.7","7","1","2025-07-09 09:04:38","7701e855f2ef39aa3fd6c71abdc6918a","146.90.88.118","Mozilla/5.0 (Windows NT 10.0; Win64; x64) AppleWebKit/537.36 (KHTML, like Gecko) Chrome/138.0.0.0 Safari/537.36","WebKit","Chrome","138.0.0.0","Windows","10.0","https://app.prolific.com/","en-GB,en-US;q=0.9,en;q=0.8","66c746f450506abe4d80b5e1","686d226cabeef709c732f8e1","686e308d886cb7a29c51ac97","66c746f450506abe4d80b5e1","2025-07-09T09:22:34.660Z","","","","","","MotivationQ","","","","","","","","","","","","","","","","","","","","","","","","","","","","","","","","","","","","","","50",""
"","","","","ctl-task-cpt","85","1200421","0.0-10.0-0.8","7","1","2025-07-09 09:04:38","7701e855f2ef39aa3fd6c71abdc6918a","146.90.88.118","Mozilla/5.0 (Windows NT 10.0; Win64; x64) AppleWebKit/537.36 (KHTML, like Gecko) Chrome/138.0.0.0 Safari/537.36","WebKit","Chrome","138.0.0.0","Windows","10.0","https://app.prolific.com/","en-GB,en-US;q=0.9,en;q=0.8","66c746f450506abe4d80b5e1","686d226cabeef709c732f8e1","686e308d886cb7a29c51ac97","66c746f450506abe4d80b5e1","2025-07-09T09:24:41.569Z","","","","","","","","","","","","","","","","win-only","3","g1:SW,g2:NE","0.2","9","0","1075095.4","2001.5","7016.4","123803.7","1","4","8","6","2","8","8","51","43","0.38636363636363635","1888.8","3000","2370","[""up"",""right""]","{""num_key_presses"":13,""num_perfect"":3,""num_errors"":0,""num_randdir"":10,""num_randdir_good_moves"":6,""num_whilered"":0,""num_whileblue"":0,""num_blue"":5,""num_good_moves"":9}","[418.57142857142856,415.47767857142856,0.5,418.57142857142856,415.47767857142856,150.3,418.57142857142856,417.47767857142856,274.8,418.57142857142856,417.47767857142856,398,418.57142857142856,417.47767857142856,532.2,418.57142857142856,417.47767857142856,653.3,418.57142857142856,417.47767857142856,768.4,418.57142857142856,417.47767857142856,877.6,418.57142857142856,417.47767857142856,985.5,418.57142857142856,417.47767857142856,1093.1,418.57142857142856,417.47767857142856,1203.8,430.57142857142856,399.47767857142856,1317.9,492.57142857142856,282.47767857142856,1422.4,605.5714285714286,166.47767857142856,1535.1,670.5714285714286,117.47767857142857,1661,707.5714285714286,93.47767857142857,1793.5,714.5714285714286,88.47767857142857,1911.4,714.5714285714286,88.47767857142857,2024.7,714.5714285714286,88.47767857142857,2129.3,710.5714285714286,97.47767857142857,2237,710.5714285714286,97.47767857142857,2356.2,710.5714285714286,97.47767857142857,2459.6,710.5714285714286,97.47767857142857,2575.4,710.5714285714286,97.47767857142857,2681.6,710.5714285714286,97.47767857142857,2786.6,710.5714285714286,97.47767857142857,2900.3,710.5714285714286,97.47767857142857,3009.8,710.5714285714286,97.47767857142857,3115.6,710.5714285714286,97.47767857142857,3226.2,710.5714285714286,97.47767857142857,3332.3,710.5714285714286,97.47767857142857,3443.1,710.5714285714286,97.47767857142857,3553.7,710.5714285714286,97.47767857142857,3663.2,710.5714285714286,97.47767857142857,3770.9,710.5714285714286,97.47767857142857,3885.4,710.5714285714286,97.47767857142857,3986.5,710.5714285714286,97.47767857142857,4095.3,710.5714285714286,97.47767857142857,4215.4,710.5714285714286,97.47767857142857,4331.6,710.5714285714286,97.47767857142857,4463.3,710.5714285714286,97.47767857142857,4576,710.5714285714286,97.47767857142857,4690.4,710.5714285714286,97.47767857142857,4800.7,710.5714285714286,97.47767857142857,4906.7]","[1551.1,1551.1,1000,0,551.1,""oops"",""up"",""down"",""bad_move"",8491.7,6939.4,2677.9,5111.4,702.4,""smooth"",""up"",""up"",""good_move"",18670.7,10178.5,2159,8492.2,8019.5,""oops"",""right"",""right"",""good_move"",25008.4,6337.4,2540.2,21939.3,528.9,""oops"",""up"",""down"",""bad_move"",27686.7,2678.1,1902.2,25008.7,775.9,""oops"",""right"",""right"",""good_move"",30731.4,3043.8,2464.7,27687.6,579.1,""smooth"",""up"",""up"",""good_move"",45257.2,14523.7,1546,30733.5,12977.7,""oops"",""up"",""right"",""good_move"",60670.2,15412.7,3188.4,56892.3,589.5,""oops"",""up"",""up"",""good_move"",75010,14339.2,2576.2,60670.8,11763,""oops"",""up"",""down"",""bad_move"",78590.8,3580.4,2855.2,75010.4,725.2,""oops"",""up"",""down"",""bad_move"",81483.2,2892,2332.1,78591.2,560,""smooth"",""up"",""up"",""good_move"",96244.6,14760.6,2210.7,81484,12549.9,""oops"",""up"",""up"",""good_move"",111260.1,15014.8,2351.8,96245.3,12663,""oops"",""up"",""up"",""good_move""]","","",""
"2985","","<div style=""width:500px;"">
  <p>What determined the result of this run?</p>
  </div>","62","html-slider-response","86","1203421","0.0-10.0-1.8","7","1","2025-07-09 09:04:38","7701e855f2ef39aa3fd6c71abdc6918a","146.90.88.118","Mozilla/5.0 (Windows NT 10.0; Win64; x64) AppleWebKit/537.36 (KHTML, like Gecko) Chrome/138.0.0.0 Safari/537.36","WebKit","Chrome","138.0.0.0","Windows","10.0","https://app.prolific.com/","en-GB,en-US;q=0.9,en;q=0.8","66c746f450506abe4d80b5e1","686d226cabeef709c732f8e1","686e308d886cb7a29c51ac97","66c746f450506abe4d80b5e1","2025-07-09T09:24:44.570Z","","","","","","AttribQ","","","","","","","","","","","","","","","","","","","","","","","","","","","","","","","","","","","","","","50",""
"3135","","<div style=""width:500px;"">
  <p>How much control did you have over the ball?</p>
