"rt","response_timestamp","stimulus","response","trial_type","trial_index","time_elapsed","internal_node_id","run_id","condition","recorded_at","source_code_version","ip","user_agent","device","browser","browser_version","platform","platform_version","referer","accept_language","PROLIFIC_PID","STUDY_ID","SESSION_ID","prolific_id","realtime","view_history","question_order","consent","success","question_id","eventType","responses","item_order","radio_event_ids","radio_event_times","key_event_times","mouse_event_times","straightlining","zigzagging","honeypot","which_type","canvas_config","goals_layout","control_level","trial_number","tutorial_trial_number","trial_start_time","phase1_start_time","phase2_start_time","phase3_start_time","goal_1_value","goal_1_distance","goal_2_value","goal_2_distance","goal_selected","outcome","outcome_total","participant_final_score","participant_initial_score","participant_final_score_prop","goal_choice_rt","allocated_time","allocated_time_remaining","goal_direction","counts","mouse_movements","key_presses","correct","slider_start"
"78821","1752051998374","<p style='font-size:40px;line-height:1.25'><strong>Welcome to the experiment!</strong></p><p style='font-size:1.1em;line-height:1.25'>Thank you for your interest in our experiment! Before you begin, it is important that we obtain your informed consent to participate in the study.</p><p style='font-size:1.1em;line-height:1.25'>On the next screen will be an <strong>information sheet</strong> for you to read. To participate in the study we need you to read this information sheet and the following consent form carefully. If you agree with all the statements, please click the <strong>I agree</strong> button.</p><p style='font-size:1.1em;line-height:1.25'>Press <strong>Next</strong> to read the information sheet.</p>","0","custom-html-button-response","0","78824","0.0-0.0","79","1","2025-07-09 09:07:31","7701e855f2ef39aa3fd6c71abdc6918a","92.59.218.179","Mozilla/5.0 (Windows NT 10.0; Win64; x64) AppleWebKit/537.36 (KHTML, like Gecko) Chrome/138.0.0.0 Safari/537.36","WebKit","Chrome","138.0.0.0","Windows","10.0","https://app.prolific.com/","es-ES,es;q=0.9","5c3ce83e9883d400014200a5","686d226cabeef709c732f8e1","686e3129e6ef4534953c73c2","5c3ce83e9883d400014200a5","2025-07-09T09:06:38.375Z","","","","","","","","","","","","","","","","","","","","","","","","","","","","","","","","","","","","","","","","","","","",""
"43771","","","","instructions","1","122596","0.0-1.0","79","1","2025-07-09 09:07:31","7701e855f2ef39aa3fd6c71abdc6918a","92.59.218.179","Mozilla/5.0 (Windows NT 10.0; Win64; x64) AppleWebKit/537.36 (KHTML, like Gecko) Chrome/138.0.0.0 Safari/537.36","WebKit","Chrome","138.0.0.0","Windows","10.0","https://app.prolific.com/","es-ES,es;q=0.9","5c3ce83e9883d400014200a5","686d226cabeef709c732f8e1","686e3129e6ef4534953c73c2","5c3ce83e9883d400014200a5","","[{""page_index"":0,""viewing_time"":34834},{""page_index"":1,""viewing_time"":8936}]","","","","","","","","","","","","","","","","","","","","","","","","","","","","","","","","","","","","","","","","","","",""
"21063","","","{""Q0"":"""",""Q1"":"""",""Q2"":"""",""Q3"":"""",""Q4"":"""",""Q5"":"""",""Q6"":""I agree""}","survey-multi-choice","2","143661","0.0-2.0","79","1","2025-07-09 09:07:31","7701e855f2ef39aa3fd6c71abdc6918a","92.59.218.179","Mozilla/5.0 (Windows NT 10.0; Win64; x64) AppleWebKit/537.36 (KHTML, like Gecko) Chrome/138.0.0.0 Safari/537.36","WebKit","Chrome","138.0.0.0","Windows","10.0","https://app.prolific.com/","es-ES,es;q=0.9","5c3ce83e9883d400014200a5","686d226cabeef709c732f8e1","686e3129e6ef4534953c73c2","5c3ce83e9883d400014200a5","","","[0,1,2,3,4,5,6]","true","","","","","","","","","","","","","","","","","","","","","","","","","","","","","","","","","","","","","","","","",""
"20194","","","","fullscreen","3","164871","0.0-4.0","79","1","2025-07-09 09:07:31","7701e855f2ef39aa3fd6c71abdc6918a","92.59.218.179","Mozilla/5.0 (Windows NT 10.0; Win64; x64) AppleWebKit/537.36 (KHTML, like Gecko) Chrome/138.0.0.0 Safari/537.36","WebKit","Chrome","138.0.0.0","Windows","10.0","https://app.prolific.com/","es-ES,es;q=0.9","5c3ce83e9883d400014200a5","686d226cabeef709c732f8e1","686e3129e6ef4534953c73c2","5c3ce83e9883d400014200a5","","","","","true","","","","","","","","","","","","","","","","","","","","","","","","","","","","","","","","","","","","","","","",""
"5831","1752052090254"," <p style='font-size:1.1em;line-height:1.25'>Thank you for completing the consent form and closing all other tabs.</p><p style='font-size:1.1em;line-height:1.25'>We will now invite you to fill in some demographic information and questionnaires, before starting the game.<br>This will take about 5 minutes.<br></p><p style='font-size:1.1em;line-height:1.25'>Press the <strong>Next</strong> button to continue.</p>","0","custom-html-button-response","4","170704","0.0-5.0","79","1","2025-07-09 09:07:31","7701e855f2ef39aa3fd6c71abdc6918a","92.59.218.179","Mozilla/5.0 (Windows NT 10.0; Win64; x64) AppleWebKit/537.36 (KHTML, like Gecko) Chrome/138.0.0.0 Safari/537.36","WebKit","Chrome","138.0.0.0","Windows","10.0","https://app.prolific.com/","es-ES,es;q=0.9","5c3ce83e9883d400014200a5","686d226cabeef709c732f8e1","686e3129e6ef4534953c73c2","5c3ce83e9883d400014200a5","2025-07-09T09:08:10.255Z","","","","","","","","","","","","","","","","","","","","","","","","","","","","","","","","","","","","","","","","","","","",""
"3098","","","{""age"":""34""}","survey-text","5","173804","0.0-6.0-0.0","79","1","2025-07-09 09:07:31","7701e855f2ef39aa3fd6c71abdc6918a","92.59.218.179","Mozilla/5.0 (Windows NT 10.0; Win64; x64) AppleWebKit/537.36 (KHTML, like Gecko) Chrome/138.0.0.0 Safari/537.36","WebKit","Chrome","138.0.0.0","Windows","10.0","https://app.prolific.com/","es-ES,es;q=0.9","5c3ce83e9883d400014200a5","686d226cabeef709c732f8e1","686e3129e6ef4534953c73c2","5c3ce83e9883d400014200a5","","","","","","0","demographics","","","","","","","","","","","","","","","","","","","","","","","","","","","","","","","","","","","","","",""
"4639","","","{""gender_identity"":""female/woman""}","survey-multi-choice","6","178444","0.0-6.0-1.0","79","1","2025-07-09 09:07:31","7701e855f2ef39aa3fd6c71abdc6918a","92.59.218.179","Mozilla/5.0 (Windows NT 10.0; Win64; x64) AppleWebKit/537.36 (KHTML, like Gecko) Chrome/138.0.0.0 Safari/537.36","WebKit","Chrome","138.0.0.0","Windows","10.0","https://app.prolific.com/","es-ES,es;q=0.9","5c3ce83e9883d400014200a5","686d226cabeef709c732f8e1","686e3129e6ef4534953c73c2","5c3ce83e9883d400014200a5","","","[0]","","","1","demographics","","","","","","","","","","","","","","","","","","","","","","","","","","","","","","","","","","","","","",""
"3115","","","{""assigned_sex"":""female""}","survey-multi-choice","7","181560","0.0-6.0-2.0","79","1","2025-07-09 09:07:31","7701e855f2ef39aa3fd6c71abdc6918a","92.59.218.179","Mozilla/5.0 (Windows NT 10.0; Win64; x64) AppleWebKit/537.36 (KHTML, like Gecko) Chrome/138.0.0.0 Safari/537.36","WebKit","Chrome","138.0.0.0","Windows","10.0","https://app.prolific.com/","es-ES,es;q=0.9","5c3ce83e9883d400014200a5","686d226cabeef709c732f8e1","686e3129e6ef4534953c73c2","5c3ce83e9883d400014200a5","","","[0]","","","2","demographics","","","","","","","","","","","","","","","","","","","","","","","","","","","","","","","","","","","","","",""
"3139","","","{""menstrual_cycle"":""Yes""}","survey-multi-choice","8","184700","0.0-6.0-3.0","79","1","2025-07-09 09:07:31","7701e855f2ef39aa3fd6c71abdc6918a","92.59.218.179","Mozilla/5.0 (Windows NT 10.0; Win64; x64) AppleWebKit/537.36 (KHTML, like Gecko) Chrome/138.0.0.0 Safari/537.36","WebKit","Chrome","138.0.0.0","Windows","10.0","https://app.prolific.com/","es-ES,es;q=0.9","5c3ce83e9883d400014200a5","686d226cabeef709c732f8e1","686e3129e6ef4534953c73c2","5c3ce83e9883d400014200a5","","","[0]","","","4","demographics","","","","","","","","","","","","","","","","","","","","","","","","","","","","","","","","","","","","","",""
"8541","","","{""education"":""A-level/National Diploma/Highers""}","survey-multi-choice","9","193241","0.0-6.0-4.0","79","1","2025-07-09 09:07:31","7701e855f2ef39aa3fd6c71abdc6918a","92.59.218.179","Mozilla/5.0 (Windows NT 10.0; Win64; x64) AppleWebKit/537.36 (KHTML, like Gecko) Chrome/138.0.0.0 Safari/537.36","WebKit","Chrome","138.0.0.0","Windows","10.0","https://app.prolific.com/","es-ES,es;q=0.9","5c3ce83e9883d400014200a5","686d226cabeef709c732f8e1","686e3129e6ef4534953c73c2","5c3ce83e9883d400014200a5","","","[0]","","","5","demographics","","","","","","","","","","","","","","","","","","","","","","","","","","","","","","","","","","","","","",""
"24567","","","{""education"":""Bachelor's Degree (e.g., BA)""}","survey-multi-choice","10","217810","0.0-6.0-5.0","79","1","2025-07-09 09:07:31","7701e855f2ef39aa3fd6c71abdc6918a","92.59.218.179","Mozilla/5.0 (Windows NT 10.0; Win64; x64) AppleWebKit/537.36 (KHTML, like Gecko) Chrome/138.0.0.0 Safari/537.36","WebKit","Chrome","138.0.0.0","Windows","10.0","https://app.prolific.com/","es-ES,es;q=0.9","5c3ce83e9883d400014200a5","686d226cabeef709c732f8e1","686e3129e6ef4534953c73c2","5c3ce83e9883d400014200a5","2025-07-09T09:08:57.361Z","","[0]","","","6","demographics","","","","","","","","","","","","","","","","","","","","","","","","","","","","","","","","","","","","","",""
"35677","","","{""mental_health_condition"":""depression"",""mental_health_treatment"":""medication"",""psychiatric_medication"":""lexapro 10mg a day""}","survey-text","11","253489","0.0-7.0-0.0","79","1","2025-07-09 09:07:31","7701e855f2ef39aa3fd6c71abdc6918a","92.59.218.179","Mozilla/5.0 (Windows NT 10.0; Win64; x64) AppleWebKit/537.36 (KHTML, like Gecko) Chrome/138.0.0.0 Safari/537.36","WebKit","Chrome","138.0.0.0","Windows","10.0","https://app.prolific.com/","es-ES,es;q=0.9","5c3ce83e9883d400014200a5","686d226cabeef709c732f8e1","686e3129e6ef4534953c73c2","5c3ce83e9883d400014200a5","2025-07-09T09:09:33.040Z","","","","","1","mental_health","","","","","","","","","","","","","","","","","","","","","","","","","","","","","","","","","","","","","",""
"7786","","","{""depression_history"":[""Yes""]}","survey-multi-select","12","261277","0.0-7.0-1.0","79","1","2025-07-09 09:07:31","7701e855f2ef39aa3fd6c71abdc6918a","92.59.218.179","Mozilla/5.0 (Windows NT 10.0; Win64; x64) AppleWebKit/537.36 (KHTML, like Gecko) Chrome/138.0.0.0 Safari/537.36","WebKit","Chrome","138.0.0.0","Windows","10.0","https://app.prolific.com/","es-ES,es;q=0.9","5c3ce83e9883d400014200a5","686d226cabeef709c732f8e1","686e3129e6ef4534953c73c2","5c3ce83e9883d400014200a5","","","[0]","","","","mental_health","","","","","","","","","","","","","","","","","","","","","","","","","","","","","","","","","","","","","",""
"12591","","","{""depression_episodes"":""more than 5"",""depression_recent"":""Within the past year""}","survey-multi-choice","13","273869","0.0-7.0-2.0-0.0","79","1","2025-07-09 09:07:31","7701e855f2ef39aa3fd6c71abdc6918a","92.59.218.179","Mozilla/5.0 (Windows NT 10.0; Win64; x64) AppleWebKit/537.36 (KHTML, like Gecko) Chrome/138.0.0.0 Safari/537.36","WebKit","Chrome","138.0.0.0","Windows","10.0","https://app.prolific.com/","es-ES,es;q=0.9","5c3ce83e9883d400014200a5","686d226cabeef709c732f8e1","686e3129e6ef4534953c73c2","5c3ce83e9883d400014200a5","2025-07-09T09:09:53.420Z","","[0,1]","","","3","mental_health","","","","","","","","","","","","","","","","","","","","","","","","","","","","","","","","","","","","","",""
"81764.59999990463","","","","survey-template","14","355637","0.0-7.0-3.0","79","1","2025-07-09 09:07:31","7701e855f2ef39aa3fd6c71abdc6918a","92.59.218.179","Mozilla/5.0 (Windows NT 10.0; Win64; x64) AppleWebKit/537.36 (KHTML, like Gecko) Chrome/138.0.0.0 Safari/537.36","WebKit","Chrome","138.0.0.0","Windows","10.0","https://app.prolific.com/","es-ES,es;q=0.9","5c3ce83e9883d400014200a5","686d226cabeef709c732f8e1","686e3129e6ef4534953c73c2","5c3ce83e9883d400014200a5","2025-07-09T09:11:15.188Z","","","","","","ius","{""Q01"":""3"",""Q02"":""4"",""Q03"":""3"",""Q04"":""2"",""Q05"":""3"",""Q06"":""3"",""Q07"":""3"",""Q08"":""0"",""Q09"":""3"",""Q10"":""1"",""Q11"":""1"",""Q12"":""4"",""Q13"":""2""}","[0,1,2,3,4,5,6,7,8,9,10,11,12]","[""Q01"",""Q02"",""Q02"",""Q03"",""Q04"",""Q05"",""Q06"",""Q07"",""Q08"",""Q09"",""Q09"",""Q10"",""Q11"",""Q11"",""Q12"",""Q12"",""Q13""]","[9972.799999713898,12757,13752.699999809265,16596.89999961853,23005.199999809265,33076.89999961853,38124.89999961853,40901.199999809265,47360.7999997139,58256.89999961853,59757.09999990463,63513.39999961853,68769.39999961853,70417.5,74929.5,77662,80497.59999990463]","[]","[8896.799999713898,9972.799999713898,12757,13752.699999809265,16596.89999961853,23005.199999809265,33076.89999961853,38124.89999961853,40901.199999809265,47360.7999997139,58256.89999961853,59757.09999990463,62197.7999997139,63513.39999961853,68769.39999961853,70417.5,74929.5,77662,80497.59999990463,81761.59999990463]","0.46153846153846156","0.3333333333333333","0","","","","","","","","","","","","","","","","","","","","","","","","","","","","",""
"2766","1752052277955","<p style='font-size:1.1em;line-height:1.25'>In the following, we will ask you a few questions relating to your experiences over the past month.<br></p><p style='font-size:1.1em;line-height:1.25'>Press the <strong>Next</strong> button to continue.</p>","0","custom-html-button-response","15","358405","0.0-7.0-4.0","79","1","2025-07-09 09:07:31","7701e855f2ef39aa3fd6c71abdc6918a","92.59.218.179","Mozilla/5.0 (Windows NT 10.0; Win64; x64) AppleWebKit/537.36 (KHTML, like Gecko) Chrome/138.0.0.0 Safari/537.36","WebKit","Chrome","138.0.0.0","Windows","10.0","https://app.prolific.com/","es-ES,es;q=0.9","5c3ce83e9883d400014200a5","686d226cabeef709c732f8e1","686e3129e6ef4534953c73c2","5c3ce83e9883d400014200a5","2025-07-09T09:11:17.956Z","","","","","","","","","","","","","","","","","","","","","","","","","","","","","","","","","","","","","","","","","","","",""
"67778.19999980927","","","","survey-template","16","426185","0.0-7.0-5.0","79","1","2025-07-09 09:07:31","7701e855f2ef39aa3fd6c71abdc6918a","92.59.218.179","Mozilla/5.0 (Windows NT 10.0; Win64; x64) AppleWebKit/537.36 (KHTML, like Gecko) Chrome/138.0.0.0 Safari/537.36","WebKit","Chrome","138.0.0.0","Windows","10.0","https://app.prolific.com/","es-ES,es;q=0.9","5c3ce83e9883d400014200a5","686d226cabeef709c732f8e1","686e3129e6ef4534953c73c2","5c3ce83e9883d400014200a5","2025-07-09T09:12:25.736Z","","","","","","pss","{""Q01"":""2"",""Q02"":""0"",""Q03"":""4"",""Q04"":""4"",""Q05"":""4"",""Q06"":""4"",""Q07"":""3"",""Q08"":""4"",""Q09"":""4"",""Q10"":""4""}","[0,1,2,3,4,5,6,7,8,9]","[""Q01"",""Q02"",""Q03"",""Q04"",""Q05"",""Q05"",""Q06"",""Q07"",""Q08"",""Q09"",""Q10""]","[13563.299999713898,23882.599999904633,27582.799999713898,39079.39999961853,43982.39999961853,46707.2999997139,50339.199999809265,53374.39999961853,56475.2999997139,61539.39999961853,66683.39999961853]","[]","[0.19999980926513672,13563.299999713898,23882.599999904633,27582.799999713898,39079.39999961853,43982.39999961853,46707.2999997139,50339.199999809265,53374.39999961853,56475.2999997139,61539.39999961853,66683.39999961853,67775.5]","0.4","0.5555555555555556","0","","","","","","","","","","","","","","","","","","","","","","","","","","","","",""
"3439","1752052349176","<p style='font-size:1.1em;line-height:1.25'>Thank you for your answers! Now we will ask you a few more questions relating to your feelings in the last 24 hours.<br></p><p style='font-size:1.1em;line-height:1.25'>Press the <strong>Next</strong> button to continue.</p>","0","custom-html-button-response","17","429625","0.0-7.0-6.0","79","1","2025-07-09 09:07:31","7701e855f2ef39aa3fd6c71abdc6918a","92.59.218.179","Mozilla/5.0 (Windows NT 10.0; Win64; x64) AppleWebKit/537.36 (KHTML, like Gecko) Chrome/138.0.0.0 Safari/537.36","WebKit","Chrome","138.0.0.0","Windows","10.0","https://app.prolific.com/","es-ES,es;q=0.9","5c3ce83e9883d400014200a5","686d226cabeef709c732f8e1","686e3129e6ef4534953c73c2","5c3ce83e9883d400014200a5","2025-07-09T09:12:29.176Z","","","","","","","","","","","","","","","","","","","","","","","","","","","","","","","","","","","","","","","","","","","",""
"97073.19999980927","","","","survey-template","18","526703","0.0-7.0-7.0","79","1","2025-07-09 09:07:31","7701e855f2ef39aa3fd6c71abdc6918a","92.59.218.179","Mozilla/5.0 (Windows NT 10.0; Win64; x64) AppleWebKit/537.36 (KHTML, like Gecko) Chrome/138.0.0.0 Safari/537.36","WebKit","Chrome","138.0.0.0","Windows","10.0","https://app.prolific.com/","es-ES,es;q=0.9","5c3ce83e9883d400014200a5","686d226cabeef709c732f8e1","686e3129e6ef4534953c73c2","5c3ce83e9883d400014200a5","2025-07-09T09:14:06.254Z","","","","","","drsp","{""Q01"":""3"",""Q02"":""4"",""Q03"":""1"",""Q04"":""3"",""Q05"":""2"",""Q06"":""3"",""Q07"":""4"",""Q08"":""0"",""Q09"":""1"",""Q10"":""5"",""Q11"":""4"",""Q12"":""5"",""Q13"":""5"",""Q14"":""0"",""Q15"":""0"",""Q16"":""5"",""Q17"":""5"",""Q18"":""3"",""Q19"":""4"",""Q20"":""1"",""Q21"":""1""}","[0,1,2,3,4,5,6,7,8,9,10,11,12,13,14,15,16,17,18,19,20]","[""Q01"",""Q02"",""Q02"",""Q03"",""Q04"",""Q04"",""Q04"",""Q05"",""Q05"",""Q06"",""Q07"",""Q08"",""Q09"",""Q10"",""Q11"",""Q12"",""Q13"",""Q14"",""Q15"",""Q15"",""Q15"",""Q16"",""Q17"",""Q18"",""Q19"",""Q19"",""Q20"",""Q21""]","[5342.300000190735,9010.099999904633,10957.900000095367,13642.5,15002.199999809265,15673.699999809265,19098.699999809265,20457.699999809265,22078.699999809265,29126.699999809265,30826.599999904633,35253.90000009537,41298.800000190735,42658.800000190735,44265.800000190735,46598.09999990463,47794.59999990463,53274.5,55490.699999809265,57349.800000190735,59170.300000190735,62726.699999809265,64027,70354.80000019073,75065.69999980927,76590.59999990463,88735,95018.40000009537]","[]","[0.19999980926513672,5342.300000190735,9010.099999904633,10957.900000095367,13642.5,15002.199999809265,15673.699999809265,19098.699999809265,20457.699999809265,22078.699999809265,29126.699999809265,30826.599999904633,35253.90000009537,40510.90000009537,41298.800000190735,42658.800000190735,44265.800000190735,46598.09999990463,47794.59999990463,53274.5,55490.699999809265,57349.800000190735,59170.300000190735,62726.699999809265,64027,70354.80000019073,75065.69999980927,75498.80000019073,76590.59999990463,88735,95018.40000009537,97067.19999980927]","0.23809523809523808","0.5","0","","","","","","","","","","","","","","","","","","","","","","","","","","","","",""
"17742.300000190735","","","","survey-template","19","544447","0.0-7.0-8.0","79","1","2025-07-09 09:07:31","7701e855f2ef39aa3fd6c71abdc6918a","92.59.218.179","Mozilla/5.0 (Windows NT 10.0; Win64; x64) AppleWebKit/537.36 (KHTML, like Gecko) Chrome/138.0.0.0 Safari/537.36","WebKit","Chrome","138.0.0.0","Windows","10.0","https://app.prolific.com/","es-ES,es;q=0.9","5c3ce83e9883d400014200a5","686d226cabeef709c732f8e1","686e3129e6ef4534953c73c2","5c3ce83e9883d400014200a5","2025-07-09T09:14:23.998Z","","","","","","stress","{""Q01"":""5"",""Q02"":""5"",""Q03"":""4""}","[0,1,2]","[""Q01"",""Q02"",""Q03"",""Q03""]","[7705,11173.5,14464.699999809265,15629.5]","[]","[7145.5,7705,11173.5,14464.699999809265,14977.900000095367,15629.5,17741.400000095367]","0.3333333333333333","0.5","0","","","","","","","","","","","","","","","","","","","","","","","","","","","","",""
"159291","","","","instructions","20","703740","0.0-8.0-0.0","79","1","2025-07-09 09:07:31","7701e855f2ef39aa3fd6c71abdc6918a","92.59.218.179","Mozilla/5.0 (Windows NT 10.0; Win64; x64) AppleWebKit/537.36 (KHTML, like Gecko) Chrome/138.0.0.0 Safari/537.36","WebKit","Chrome","138.0.0.0","Windows","10.0","https://app.prolific.com/","es-ES,es;q=0.9","5c3ce83e9883d400014200a5","686d226cabeef709c732f8e1","686e3129e6ef4534953c73c2","5c3ce83e9883d400014200a5","","[{""page_index"":0,""viewing_time"":21014},{""page_index"":1,""viewing_time"":72216},{""page_index"":2,""viewing_time"":22704},{""page_index"":3,""viewing_time"":43356}]","","","","","","","","","","","","","","","","","","","","","","","","","","","","","","","","","","","","","","","","","","",""
"","","","","ctl-task-cpt","21","735127","0.0-8.0-1.0","79","1","2025-07-09 09:07:31","7701e855f2ef39aa3fd6c71abdc6918a","92.59.218.179","Mozilla/5.0 (Windows NT 10.0; Win64; x64) AppleWebKit/537.36 (KHTML, like Gecko) Chrome/138.0.0.0 Safari/537.36","WebKit","Chrome","138.0.0.0","Windows","10.0","https://app.prolific.com/","es-ES,es;q=0.9","5c3ce83e9883d400014200a5","686d226cabeef709c732f8e1","686e3129e6ef4534953c73c2","5c3ce83e9883d400014200a5","","","","","","","","","","","","","","","","","win-only","3","g1:SW,g2:NE","1","0","1","704659.9","3477.5","7482.1","28378.9","2","4","4","6","2","4","2","2","0","0.015151515151515152","863.9","4000","1190","[""up"",""right""]","{""num_key_presses"":9,""num_perfect"":6,""num_errors"":2,""num_randdir"":0,""num_randdir_good_moves"":0,""num_whilered"":1,""num_whileblue"":0,""num_blue"":0,""num_good_moves"":6}","[410.5803495134626,415.1272321428571,0.4,410.5803495134626,415.1272321428571,103.4,410.5803495134626,415.1272321428571,211.6,417.4553495134626,411.0022321428571,312.1,722.7053495134626,35.62723214285714,412.7,750.2053495134626,12.252232142857139,513.2,784.5803495134626,-16.62276785714286,614.2,754.3303495134626,50.75223214285714,718.4,751.5803495134626,61.75223214285714,819.5,751.5803495134626,61.75223214285714,928.5,751.5803495134626,61.75223214285714,1029.5,751.5803495134626,61.75223214285714,1133.2,751.5803495134626,61.75223214285714,1233.3,751.5803495134626,61.75223214285714,1338.4,751.5803495134626,61.75223214285714,1438.4,751.5803495134626,61.75223214285714,1544.4,751.5803495134626,61.75223214285714,1644.5,751.5803495134626,61.75223214285714,1748.3,751.5803495134626,61.75223214285714,1848.5,751.5803495134626,61.75223214285714,1954.3,751.5803495134626,61.75223214285714,2054.4,751.5803495134626,61.75223214285714,2154.4,751.5803495134626,61.75223214285714,2261.3,751.5803495134626,61.75223214285714,2361.3,751.5803495134626,61.75223214285714,2463.5,751.5803495134626,61.75223214285714,2568.4,751.5803495134626,61.75223214285714,2678.2,751.5803495134626,61.75223214285714,2783.9,751.5803495134626,61.75223214285714,2888.3,751.5803495134626,61.75223214285714,2988.5,751.5803495134626,61.75223214285714,3088.9,751.5803495134626,61.75223214285714,3194.2,751.5803495134626,61.75223214285714,3298.9,751.5803495134626,61.75223214285714,3403.1,751.5803495134626,61.75223214285714,3504.5,751.5803495134626,61.75223214285714,3611.1,751.5803495134626,61.75223214285714,3711.1,751.5803495134626,61.75223214285714,3811.1,751.5803495134626,61.75223214285714,3914.2]","[1555.9,1555.9,1000,0,555.9,""smooth"",""up"",""up"",""good_move"",2447.5,891.2,2612.4,1556.3,-1721.2,""error"",""-"",""-"",""no_move"",2672.4,224.7,2612.4,1556.3,-1496.2,""while_red"",""-"",""-"",""no_move"",6688.6,4240.8,2544.7,3448.4,695.5,""smooth"",""up"",""up"",""good_move"",7990.9,1302.1,2798.8,6688.8,-1496.7,""error"",""-"",""-"",""no_move"",12088,4096.9,2647.4,8994.4,446.2,""smooth"",""right"",""right"",""good_move"",14863.8,2775.6,2201.4,12088.2,574.3,""smooth"",""right"",""right"",""good_move"",17904.1,3039.8,2534.2,14864.3,505.6,""smooth"",""right"",""right"",""good_move"",20791.3,2886.9,2478.5,17904.4,408.4,""smooth"",""up"",""up"",""good_move""]","",""
"23161","","","","instructions","22","758288","0.0-8.0-2.0","79","1","2025-07-09 09:07:31","7701e855f2ef39aa3fd6c71abdc6918a","92.59.218.179","Mozilla/5.0 (Windows NT 10.0; Win64; x64) AppleWebKit/537.36 (KHTML, like Gecko) Chrome/138.0.0.0 Safari/537.36","WebKit","Chrome","138.0.0.0","Windows","10.0","https://app.prolific.com/","es-ES,es;q=0.9","5c3ce83e9883d400014200a5","686d226cabeef709c732f8e1","686e3129e6ef4534953c73c2","5c3ce83e9883d400014200a5","","[{""page_index"":0,""viewing_time"":23160}]","","","","","","","","","","","","","","","","","","","","","","","","","","","","","","","","","","","","","","","","","","",""
"","","","","ctl-task-cpt","23","794286","0.0-8.0-3.0","79","1","2025-07-09 09:07:31","7701e855f2ef39aa3fd6c71abdc6918a","92.59.218.179","Mozilla/5.0 (Windows NT 10.0; Win64; x64) AppleWebKit/537.36 (KHTML, like Gecko) Chrome/138.0.0.0 Safari/537.36","WebKit","Chrome","138.0.0.0","Windows","10.0","https://app.prolific.com/","es-ES,es;q=0.9","5c3ce83e9883d400014200a5","686d226cabeef709c732f8e1","686e3129e6ef4534953c73c2","5c3ce83e9883d400014200a5","","","","","","","","","","","","","","","","","win-only","3","g1:SW,g2:NE","0.35","0","3","759208.2","1985.8","5986.1","32980.7","2","4","8","6","1","2","1","1","0","0.007575757575757576","2014","4000","855","[""down"",""left""]","{""num_key_presses"":8,""num_perfect"":4,""num_errors"":1,""num_randdir"":3,""num_randdir_good_moves"":1,""num_whilered"":0,""num_whileblue"":1,""num_blue"":2,""num_good_moves"":6}","[416.0803495134626,419.2522321428571,0.3,416.0803495134626,419.2522321428571,105.4,431.2053495134626,411.0022321428571,206.6,884.9553495134626,276.2522321428571,318.2,904.2053495134626,274.8772321428571,418.3,904.2053495134626,274.8772321428571,520.2,904.2053495134626,274.8772321428571,625.3,904.2053495134626,274.8772321428571,725.3,904.2053495134626,274.8772321428571,825.4,904.2053495134626,274.8772321428571,932.9,875.3303495134626,269.3772321428571,1034.5,-261.7946504865374,-38.62276785714286,1140.4,-227.4196504865374,68.62723214285714,1241.3,-237.0446504865374,269.3772321428571,1344.9,-257.6696504865374,331.2522321428571,1445.1,-279.6696504865374,390.3772321428571,1545.4,-36.29465048653739,779.5022321428571,1649.8,-19.794650486537392,809.7522321428571,1750.4,-0.5446504865373925,798.7522321428571,1855,31.080349513462608,772.6272321428571,1955.6,35.20534951346261,768.5022321428571,2059.6,35.20534951346261,768.5022321428571,2160.7,-1.9196504865373925,701.1272321428571,2266.8,-202.6696504865374,511.3772321428571,2370,-202.6696504865374,511.3772321428571,2475.8,-202.6696504865374,511.3772321428571,2580.5,-202.6696504865374,511.3772321428571,2684.9,-202.6696504865374,511.3772321428571,2785.1,-202.6696504865374,511.3772321428571,2885.2,-202.6696504865374,511.3772321428571,2989.8,-202.6696504865374,511.3772321428571,3090.5,-202.6696504865374,511.3772321428571,3195.1,-202.6696504865374,511.3772321428571,3300.7,-202.6696504865374,511.3772321428571,3404.8,-202.6696504865374,511.3772321428571,3505.3,-202.6696504865374,511.3772321428571,3606.2,-202.6696504865374,511.3772321428571,3710.7,-202.6696504865374,511.3772321428571,3811.2,-202.6696504865374,511.3772321428571,3911.5]","[1661.3,1661.3,1004.4,0,656.9,""while_blue"",""left"",""left"",""good_move"",4395.5,2733.6,2042.7,1661.9,690.9,""smooth"",""down"",""down"",""good_move"",9003.6,4607.7,4147.6,4395.9,460.1,""smooth"",""left"",""left"",""good_move"",11739.9,2736,2276,9003.9,460,""oops"",""down"",""up"",""bad_move"",14251.1,2510.8,2084.4,11740.3,426.4,""oops"",""down"",""right"",""bad_move"",17219.4,2967.9,2612.2,14251.5,355.7,""oops"",""down"",""left"",""good_move"",19971.5,2751.9,2393.7,17219.7,358.2,""smooth"",""down"",""down"",""good_move"",26909,6937.2,2977.9,23496,435.1,""smooth"",""down"",""down"",""good_move""]","",""
"48534","","","","instructions","24","842820","0.0-8.0-4.0","79","1","2025-07-09 09:07:31","7701e855f2ef39aa3fd6c71abdc6918a","92.59.218.179","Mozilla/5.0 (Windows NT 10.0; Win64; x64) AppleWebKit/537.36 (KHTML, like Gecko) Chrome/138.0.0.0 Safari/537.36","WebKit","Chrome","138.0.0.0","Windows","10.0","https://app.prolific.com/","es-ES,es;q=0.9","5c3ce83e9883d400014200a5","686d226cabeef709c732f8e1","686e3129e6ef4534953c73c2","5c3ce83e9883d400014200a5","","[{""page_index"":0,""viewing_time"":11721},{""page_index"":1,""viewing_time"":36812}]","","","","","","","","","","","","","","","","","","","","","","","","","","","","","","","","","","","","","","","","","","",""
"22571","","","{""green_ball"":[""Ball always moves in the direction I press"",""Ball sometimes shakes and moves in a random direction""]}","survey-multi-select","25","865393","0.0-8.0-5.0-0.0","79","1","2025-07-09 09:07:31","7701e855f2ef39aa3fd6c71abdc6918a","92.59.218.179","Mozilla/5.0 (Windows NT 10.0; Win64; x64) AppleWebKit/537.36 (KHTML, like Gecko) Chrome/138.0.0.0 Safari/537.36","WebKit","Chrome","138.0.0.0","Windows","10.0","https://app.prolific.com/","es-ES,es;q=0.9","5c3ce83e9883d400014200a5","686d226cabeef709c732f8e1","686e3129e6ef4534953c73c2","5c3ce83e9883d400014200a5","","","[0]","","","","quiz","","","","","","","","","","","","","","","","","","","","","","","","","","","","","","","","","","","","","false",""
"8474","","<p align='center'><b>INCORRECT.</b> Usually the green ball moves in the indicated direction, but sometimes it shakes and moves randomly. </p>","0","html-button-response","26","873868","0.0-8.0-5.0-1.0","79","1","2025-07-09 09:07:31","7701e855f2ef39aa3fd6c71abdc6918a","92.59.218.179","Mozilla/5.0 (Windows NT 10.0; Win64; x64) AppleWebKit/537.36 (KHTML, like Gecko) Chrome/138.0.0.0 Safari/537.36","WebKit","Chrome","138.0.0.0","Windows","10.0","https://app.prolific.com/","es-ES,es;q=0.9","5c3ce83e9883d400014200a5","686d226cabeef709c732f8e1","686e3129e6ef4534953c73c2","5c3ce83e9883d400014200a5","","","","","","","","","","","","","","","","","","","","","","","","","","","","","","","","","","","","","","","","","","","","",""
"6119","","","{""green_ball"":[""Ball sometimes shakes and moves in a random direction""]}","survey-multi-select","27","879989","0.0-8.0-5.1-0.1","79","1","2025-07-09 09:07:31","7701e855f2ef39aa3fd6c71abdc6918a","92.59.218.179","Mozilla/5.0 (Windows NT 10.0; Win64; x64) AppleWebKit/537.36 (KHTML, like Gecko) Chrome/138.0.0.0 Safari/537.36","WebKit","Chrome","138.0.0.0","Windows","10.0","https://app.prolific.com/","es-ES,es;q=0.9","5c3ce83e9883d400014200a5","686d226cabeef709c732f8e1","686e3129e6ef4534953c73c2","5c3ce83e9883d400014200a5","","","[0]","","","","quiz","","","","","","","","","","","","","","","","","","","","","","","","","","","","","","","","","","","","","true",""
"2962","","<p align='center'><b>CORRECT!</b> Indeed, the green ball may sometimes shake and move in a random direction.</p>","0","html-button-response","28","882952","0.0-8.0-5.1-1.1","79","1","2025-07-09 09:07:31","7701e855f2ef39aa3fd6c71abdc6918a","92.59.218.179","Mozilla/5.0 (Windows NT 10.0; Win64; x64) AppleWebKit/537.36 (KHTML, like Gecko) Chrome/138.0.0.0 Safari/537.36","WebKit","Chrome","138.0.0.0","Windows","10.0","https://app.prolific.com/","es-ES,es;q=0.9","5c3ce83e9883d400014200a5","686d226cabeef709c732f8e1","686e3129e6ef4534953c73c2","5c3ce83e9883d400014200a5","","","","","","","","","","","","","","","","","","","","","","","","","","","","","","","","","","","","","","","","","","","","",""
"10323","","","{""yellow_ball"":[""Ball doesn‘t move and I get -1 penalty point""]}","survey-multi-select","29","893277","0.0-8.0-6.0-0.0","79","1","2025-07-09 09:07:31","7701e855f2ef39aa3fd6c71abdc6918a","92.59.218.179","Mozilla/5.0 (Windows NT 10.0; Win64; x64) AppleWebKit/537.36 (KHTML, like Gecko) Chrome/138.0.0.0 Safari/537.36","WebKit","Chrome","138.0.0.0","Windows","10.0","https://app.prolific.com/","es-ES,es;q=0.9","5c3ce83e9883d400014200a5","686d226cabeef709c732f8e1","686e3129e6ef4534953c73c2","5c3ce83e9883d400014200a5","","","[0]","","","","quiz","","","","","","","","","","","","","","","","","","","","","","","","","","","","","","","","","","","","","true",""
"1182","","<p align='center'><b>CORRECT!</b> Indeed, the yellow ball never moves and you receive a penalty.</p>","0","html-button-response","30","894460","0.0-8.0-6.0-1.0","79","1","2025-07-09 09:07:31","7701e855f2ef39aa3fd6c71abdc6918a","92.59.218.179","Mozilla/5.0 (Windows NT 10.0; Win64; x64) AppleWebKit/537.36 (KHTML, like Gecko) Chrome/138.0.0.0 Safari/537.36","WebKit","Chrome","138.0.0.0","Windows","10.0","https://app.prolific.com/","es-ES,es;q=0.9","5c3ce83e9883d400014200a5","686d226cabeef709c732f8e1","686e3129e6ef4534953c73c2","5c3ce83e9883d400014200a5","","","","","","","","","","","","","","","","","","","","","","","","","","","","","","","","","","","","","","","","","","","","",""
"8372","","","{""blue_ball"":[""Ball always shakes and moves in a random direction""]}","survey-multi-select","31","902833","0.0-8.0-7.0-0.0","79","1","2025-07-09 09:07:31","7701e855f2ef39aa3fd6c71abdc6918a","92.59.218.179","Mozilla/5.0 (Windows NT 10.0; Win64; x64) AppleWebKit/537.36 (KHTML, like Gecko) Chrome/138.0.0.0 Safari/537.36","WebKit","Chrome","138.0.0.0","Windows","10.0","https://app.prolific.com/","es-ES,es;q=0.9","5c3ce83e9883d400014200a5","686d226cabeef709c732f8e1","686e3129e6ef4534953c73c2","5c3ce83e9883d400014200a5","","","[0]","","","","quiz","","","","","","","","","","","","","","","","","","","","","","","","","","","","","","","","","","","","","true",""
"2154","","<p align='center'><b>CORRECT!</b> Indeed, the blue ball always shakes and moves in a random direction. Also there is a penalty of -1 point.</p>","0","html-button-response","32","904989","0.0-8.0-7.0-1.0","79","1","2025-07-09 09:07:31","7701e855f2ef39aa3fd6c71abdc6918a","92.59.218.179","Mozilla/5.0 (Windows NT 10.0; Win64; x64) AppleWebKit/537.36 (KHTML, like Gecko) Chrome/138.0.0.0 Safari/537.36","WebKit","Chrome","138.0.0.0","Windows","10.0","https://app.prolific.com/","es-ES,es;q=0.9","5c3ce83e9883d400014200a5","686d226cabeef709c732f8e1","686e3129e6ef4534953c73c2","5c3ce83e9883d400014200a5","","","","","","","","","","","","","","","","","","","","","","","","","","","","","","","","","","","","","","","","","","","","",""
"5206","","","{""bonus"":[""When I reach 50% of points""]}","survey-multi-select","33","910196","0.0-8.0-8.0-0.0","79","1","2025-07-09 09:07:31","7701e855f2ef39aa3fd6c71abdc6918a","92.59.218.179","Mozilla/5.0 (Windows NT 10.0; Win64; x64) AppleWebKit/537.36 (KHTML, like Gecko) Chrome/138.0.0.0 Safari/537.36","WebKit","Chrome","138.0.0.0","Windows","10.0","https://app.prolific.com/","es-ES,es;q=0.9","5c3ce83e9883d400014200a5","686d226cabeef709c732f8e1","686e3129e6ef4534953c73c2","5c3ce83e9883d400014200a5","","","[0]","","","","quiz","","","","","","","","","","","","","","","","","","","","","","","","","","","","","","","","","","","","","true",""
"1743","","<p align='center'><b>CORRECT!</b> Indeed, you receive 2 pounds extra when you reach 50% of points.</p>","0","html-button-response","34","911940","0.0-8.0-8.0-1.0","79","1","2025-07-09 09:07:31","7701e855f2ef39aa3fd6c71abdc6918a","92.59.218.179","Mozilla/5.0 (Windows NT 10.0; Win64; x64) AppleWebKit/537.36 (KHTML, like Gecko) Chrome/138.0.0.0 Safari/537.36","WebKit","Chrome","138.0.0.0","Windows","10.0","https://app.prolific.com/","es-ES,es;q=0.9","5c3ce83e9883d400014200a5","686d226cabeef709c732f8e1","686e3129e6ef4534953c73c2","5c3ce83e9883d400014200a5","","","","","","","","","","","","","","","","","","","","","","","","","","","","","","","","","","","","","","","","","","","","",""
"2539","","","","instructions","35","914481","0.0-8.0-9.0","79","1","2025-07-09 09:07:31","7701e855f2ef39aa3fd6c71abdc6918a","92.59.218.179","Mozilla/5.0 (Windows NT 10.0; Win64; x64) AppleWebKit/537.36 (KHTML, like Gecko) Chrome/138.0.0.0 Safari/537.36","WebKit","Chrome","138.0.0.0","Windows","10.0","https://app.prolific.com/","es-ES,es;q=0.9","5c3ce83e9883d400014200a5","686d226cabeef709c732f8e1","686e3129e6ef4534953c73c2","5c3ce83e9883d400014200a5","","[{""page_index"":0,""viewing_time"":2539}]","","","","","","","","","","","","","","","","","","","","","","","","","","","","","","","","","","","","","","","","","","",""
"13474","","<p>Before you start with this game please answer the following three questions yourself. </p>
  <p>Through this game, we measure several aspects of your cognitive performance, such as reaction times, multi-tasking capabilities </p>
  <p>and the ability to assess the situation you are in.</p>
  <p></p>
  <p><b>How good do you usually are in such tasks?</b></p>","19","html-slider-response","36","927956","0.0-9.0-0.0","79","1","2025-07-09 09:07:31","7701e855f2ef39aa3fd6c71abdc6918a","92.59.218.179","Mozilla/5.0 (Windows NT 10.0; Win64; x64) AppleWebKit/537.36 (KHTML, like Gecko) Chrome/138.0.0.0 Safari/537.36","WebKit","Chrome","138.0.0.0","Windows","10.0","https://app.prolific.com/","es-ES,es;q=0.9","5c3ce83e9883d400014200a5","686d226cabeef709c732f8e1","686e3129e6ef4534953c73c2","5c3ce83e9883d400014200a5","2025-07-09T09:20:47.507Z","","","","","","PreSkillQ","","","","","","","","","","","","","","","","","","","","","","","","","","","","","","","","","","","","","","50"
"3459","","<div style=""width:500px;"">
  <p>How well do you think you will perform in this task compared to other participants?</p>
  </div>","17","html-slider-response","37","931417","0.0-9.0-1.0","79","1","2025-07-09 09:07:31","7701e855f2ef39aa3fd6c71abdc6918a","92.59.218.179","Mozilla/5.0 (Windows NT 10.0; Win64; x64) AppleWebKit/537.36 (KHTML, like Gecko) Chrome/138.0.0.0 Safari/537.36","WebKit","Chrome","138.0.0.0","Windows","10.0","https://app.prolific.com/","es-ES,es;q=0.9","5c3ce83e9883d400014200a5","686d226cabeef709c732f8e1","686e3129e6ef4534953c73c2","5c3ce83e9883d400014200a5","2025-07-09T09:20:50.968Z","","","","","","PrePerfQ","","","","","","","","","","","","","","","","","","","","","","","","","","","","","","","","","","","","","","50"
"3767","","<div style=""width:500px;"">
  <p>What best describes how you currently feel?</p>
  </div>","27","html-slider-response","38","935184","0.0-9.0-2.0","79","1","2025-07-09 09:07:31","7701e855f2ef39aa3fd6c71abdc6918a","92.59.218.179","Mozilla/5.0 (Windows NT 10.0; Win64; x64) AppleWebKit/537.36 (KHTML, like Gecko) Chrome/138.0.0.0 Safari/537.36","WebKit","Chrome","138.0.0.0","Windows","10.0","https://app.prolific.com/","es-ES,es;q=0.9","5c3ce83e9883d400014200a5","686d226cabeef709c732f8e1","686e3129e6ef4534953c73c2","5c3ce83e9883d400014200a5","2025-07-09T09:20:54.736Z","","","","","","PreMotivationQ","","","","","","","","","","","","","","","","","","","","","","","","","","","","","","","","","","","","","","50"
"","","","","ctl-task-cpt","39","965348","0.0-10.0-0.0","79","1","2025-07-09 09:07:31","7701e855f2ef39aa3fd6c71abdc6918a","92.59.218.179","Mozilla/5.0 (Windows NT 10.0; Win64; x64) AppleWebKit/537.36 (KHTML, like Gecko) Chrome/138.0.0.0 Safari/537.36","WebKit","Chrome","138.0.0.0","Windows","10.0","https://app.prolific.com/","es-ES,es;q=0.9","5c3ce83e9883d400014200a5","686d226cabeef709c732f8e1","686e3129e6ef4534953c73c2","5c3ce83e9883d400014200a5","2025-07-09T09:21:24.899Z","","","","","","","","","","","","","","","","win-only","0","g1:NW,g2:SE","1","1","0","936105.2","1453.5","6455.8","27142.9","1","4","8","6","2","8","8","8","0","0.06060606060606061","980.6","3000","360","[""down"",""right""]","{""num_key_presses"":6,""num_perfect"":6,""num_errors"":0,""num_randdir"":0,""num_randdir_good_moves"":0,""num_whilered"":0,""num_whileblue"":0,""num_blue"":1,""num_good_moves"":6}","[418.8303495134626,416.5022321428571,0.3,418.8303495134626,416.5022321428571,103,418.8303495134626,416.5022321428571,206.7,418.8303495134626,416.5022321428571,306.8,418.8303495134626,416.5022321428571,407.9,490.3303495134626,474.2522321428571,513,659.4553495134626,603.5022321428571,617.5,703.4553495134626,650.2522321428571,717.6,758.4553495134626,694.2522321428571,822.7,757.0803495134626,742.3772321428571,927.1,757.0803495134626,742.3772321428571,1028.4,758.4553495134626,738.2522321428571,1128.8,765.3303495134626,697.0022321428571,1232.7,922.0803495134626,449.5022321428571,1337.5,944.0803495134626,428.8772321428571,1437.9,944.0803495134626,428.8772321428571,1544,944.0803495134626,428.8772321428571,1647.2,944.0803495134626,428.8772321428571,1747.3,944.0803495134626,428.8772321428571,1847.5,944.0803495134626,428.8772321428571,1952.6,944.0803495134626,428.8772321428571,2052.8,944.0803495134626,428.8772321428571,2152.8,944.0803495134626,428.8772321428571,2253.2,944.0803495134626,428.8772321428571,2357.9,944.0803495134626,428.8772321428571,2462.2,944.0803495134626,428.8772321428571,2562.8,944.0803495134626,428.8772321428571,2662.8,944.0803495134626,428.8772321428571,2763,944.0803495134626,428.8772321428571,2867.2,944.0803495134626,428.8772321428571,2968.5,944.0803495134626,428.8772321428571,3071.9,944.0803495134626,428.8772321428571,3173.4,944.0803495134626,428.8772321428571,3273.9,944.0803495134626,428.8772321428571,3377,944.0803495134626,428.8772321428571,3478.3,944.0803495134626,428.8772321428571,3582,944.0803495134626,428.8772321428571,3682.7,944.0803495134626,428.8772321428571,3782.7,944.0803495134626,428.8772321428571,3883.3,944.0803495134626,428.8772321428571,3987.6,944.0803495134626,428.8772321428571,4093.3,944.0803495134626,428.8772321428571,4197.1,944.0803495134626,428.8772321428571,4302.8,944.0803495134626,428.8772321428571,4403,944.0803495134626,428.8772321428571,4507.8,944.0803495134626,428.8772321428571,4612,944.0803495134626,428.8772321428571,4712.9,944.0803495134626,428.8772321428571,4818.4,944.0803495134626,428.8772321428571,4922.5]","[1470.1,1470.1,1000,0,470.1,""smooth"",""right"",""right"",""good_move"",8369.4,6898.3,3064.9,4919.8,384.7,""smooth"",""down"",""down"",""good_move"",11805.6,3435.6,2973.2,8370,462.4,""smooth"",""right"",""right"",""good_move"",14304,2498,2007.7,11806,490.3,""smooth"",""down"",""down"",""good_move"",16887.8,2583.4,2152,14304.4,431.4,""smooth"",""right"",""right"",""good_move"",20598.3,3710.3,3268.6,16888,441.7,""smooth"",""down"",""down"",""good_move""]","",""
"5275","","<div style=""width:500px;"">
  <p>What determined the result of this run?</p>
  </div>","100","html-slider-response","40","970625","0.0-10.0-1.0","79","1","2025-07-09 09:07:31","7701e855f2ef39aa3fd6c71abdc6918a","92.59.218.179","Mozilla/5.0 (Windows NT 10.0; Win64; x64) AppleWebKit/537.36 (KHTML, like Gecko) Chrome/138.0.0.0 Safari/537.36","WebKit","Chrome","138.0.0.0","Windows","10.0","https://app.prolific.com/","es-ES,es;q=0.9","5c3ce83e9883d400014200a5","686d226cabeef709c732f8e1","686e3129e6ef4534953c73c2","5c3ce83e9883d400014200a5","2025-07-09T09:21:30.176Z","","","","","","AttribQ","","","","","","","","","","","","","","","","","","","","","","","","","","","","","","","","","","","","","","50"
"2691","","<div style=""width:500px;"">
  <p>How much control did you have over the ball?</p>
  </div>","100","html-slider-response","41","973317","0.0-10.0-2.0","79","1","2025-07-09 09:07:31","7701e855f2ef39aa3fd6c71abdc6918a","92.59.218.179","Mozilla/5.0 (Windows NT 10.0; Win64; x64) AppleWebKit/537.36 (KHTML, like Gecko) Chrome/138.0.0.0 Safari/537.36","WebKit","Chrome","138.0.0.0","Windows","10.0","https://app.prolific.com/","es-ES,es;q=0.9","5c3ce83e9883d400014200a5","686d226cabeef709c732f8e1","686e3129e6ef4534953c73c2","5c3ce83e9883d400014200a5","2025-07-09T09:21:32.868Z","","","","","","ControlQ","","","","","","","","","","","","","","","","","","","","","","","","","","","","","","","","","","","","","","50"
"3923","","<div style=""width:500px;"">
  <p>How would you describe your current emotional state?</p>
  </div>","33","html-slider-response","42","977241","0.0-10.0-3.0","79","1","2025-07-09 09:07:31","7701e855f2ef39aa3fd6c71abdc6918a","92.59.218.179","Mozilla/5.0 (Windows NT 10.0; Win64; x64) AppleWebKit/537.36 (KHTML, like Gecko) Chrome/138.0.0.0 Safari/537.36","WebKit","Chrome","138.0.0.0","Windows","10.0","https://app.prolific.com/","es-ES,es;q=0.9","5c3ce83e9883d400014200a5","686d226cabeef709c732f8e1","686e3129e6ef4534953c73c2","5c3ce83e9883d400014200a5","2025-07-09T09:21:36.792Z","","","","","","StressQ","","","","","","","","","","","","","","","","","","","","","","","","","","","","","","","","","","","","","","50"
"3474","","<div style=""width:500px;"">
  <p>What best describes how you currently feel?</p>
  </div>","61","html-slider-response","43","980716","0.0-10.0-4.0","79","1","2025-07-09 09:07:31","7701e855f2ef39aa3fd6c71abdc6918a","92.59.218.179","Mozilla/5.0 (Windows NT 10.0; Win64; x64) AppleWebKit/537.36 (KHTML, like Gecko) Chrome/138.0.0.0 Safari/537.36","WebKit","Chrome","138.0.0.0","Windows","10.0","https://app.prolific.com/","es-ES,es;q=0.9","5c3ce83e9883d400014200a5","686d226cabeef709c732f8e1","686e3129e6ef4534953c73c2","5c3ce83e9883d400014200a5","2025-07-09T09:21:40.267Z","","","","","","MotivationQ","","","","","","","","","","","","","","","","","","","","","","","","","","","","","","","","","","","","","","50"
"","","","","ctl-task-cpt","44","1012744","0.0-10.0-0.1","79","1","2025-07-09 09:07:31","7701e855f2ef39aa3fd6c71abdc6918a","92.59.218.179","Mozilla/5.0 (Windows NT 10.0; Win64; x64) AppleWebKit/537.36 (KHTML, like Gecko) Chrome/138.0.0.0 Safari/537.36","WebKit","Chrome","138.0.0.0","Windows","10.0","https://app.prolific.com/","es-ES,es;q=0.9","5c3ce83e9883d400014200a5","686d226cabeef709c732f8e1","686e3129e6ef4534953c73c2","5c3ce83e9883d400014200a5","2025-07-09T09:22:12.295Z","","","","","","","","","","","","","","","","win-only","2","g1:SE,g2:NW","0.9","2","0","981636.8","1314.9","6315.6","29001.1","1","4","4","6","2","4","4","12","8","0.09090909090909091","993.5","3000","860","[""left"",""up""]","{""num_key_presses"":6,""num_perfect"":6,""num_errors"":0,""num_randdir"":0,""num_randdir_good_moves"":0,""num_whilered"":0,""num_whileblue"":0,""num_blue"":2,""num_good_moves"":6}","[418.8303495134626,416.5022321428571,0.2,418.8303495134626,416.5022321428571,100.4,464.2053495134626,379.3772321428571,214.5,575.5803495134626,291.3772321428571,316.1,552.2053495134626,266.6272321428571,416.3,466.9553495134626,236.37723214285714,520.7,157.5803495134626,97.50223214285714,620.9,120.45534951346261,64.50223214285714,731.1,113.58034951346261,61.75223214285714,831.1,102.58034951346261,64.50223214285714,931.2,102.58034951346261,64.50223214285714,1031.7,114.95534951346261,85.12723214285714,1135.7,127.33034951346261,98.87723214285714,1236.2,127.33034951346261,98.87723214285714,1341.3,127.33034951346261,98.87723214285714,1446.9,127.33034951346261,98.87723214285714,1547.8,127.33034951346261,98.87723214285714,1650.9,127.33034951346261,98.87723214285714,1756.2,127.33034951346261,98.87723214285714,1864.7,127.33034951346261,98.87723214285714,1966.2,127.33034951346261,98.87723214285714,2071.3,127.33034951346261,98.87723214285714,2180.8,127.33034951346261,98.87723214285714,2281.1,127.33034951346261,98.87723214285714,2381.1,127.33034951346261,98.87723214285714,2481.1,127.33034951346261,98.87723214285714,2586.1,127.33034951346261,98.87723214285714,2691.2,127.33034951346261,98.87723214285714,2791.3,127.33034951346261,98.87723214285714,2896.4,127.33034951346261,98.87723214285714,3001,127.33034951346261,98.87723214285714,3105.4,127.33034951346261,98.87723214285714,3213.4,127.33034951346261,98.87723214285714,3313.6,127.33034951346261,98.87723214285714,3414.6,127.33034951346261,98.87723214285714,3517,127.33034951346261,98.87723214285714,3620.4,127.33034951346261,98.87723214285714,3720.8,127.33034951346261,98.87723214285714,3831.2,127.33034951346261,98.87723214285714,3936.7,127.33034951346261,98.87723214285714,4041.2,127.33034951346261,98.87723214285714,4145.8,127.33034951346261,98.87723214285714,4246.2,127.33034951346261,98.87723214285714,4346.2,127.33034951346261,98.87723214285714,4446.2,127.33034951346261,98.87723214285714,4546.3,127.33034951346261,98.87723214285714,4650.6,127.33034951346261,98.87723214285714,4751.3,127.33034951346261,98.87723214285714,4851.4,127.33034951346261,98.87723214285714,4963.3]","[1414.5,1414.5,1000,0,414.5,""smooth"",""left"",""left"",""good_move"",4734.7,3319.8,2921.6,1414.9,398.2,""smooth"",""up"",""up"",""good_move"",7561.4,2826.4,2419.1,4735.1,407.3,""smooth"",""left"",""left"",""good_move"",13182.8,5621.1,1649.1,11049.8,483.9,""smooth"",""up"",""up"",""good_move"",16262.4,3079.5,2654.2,13182.9,425.3,""smooth"",""left"",""left"",""good_move"",22591.6,6329.1,2200,19965.4,426.3,""smooth"",""up"",""up"",""good_move""]","",""
"3520","","<div style=""width:500px;"">
  <p>What determined the result of this run?</p>
  </div>","100","html-slider-response","45","1016265","0.0-10.0-1.1","79","1","2025-07-09 09:07:31","7701e855f2ef39aa3fd6c71abdc6918a","92.59.218.179","Mozilla/5.0 (Windows NT 10.0; Win64; x64) AppleWebKit/537.36 (KHTML, like Gecko) Chrome/138.0.0.0 Safari/537.36","WebKit","Chrome","138.0.0.0","Windows","10.0","https://app.prolific.com/","es-ES,es;q=0.9","5c3ce83e9883d400014200a5","686d226cabeef709c732f8e1","686e3129e6ef4534953c73c2","5c3ce83e9883d400014200a5","2025-07-09T09:22:15.816Z","","","","","","AttribQ","","","","","","","","","","","","","","","","","","","","","","","","","","","","","","","","","","","","","","50"
"2171","","<div style=""width:500px;"">
  <p>How much control did you have over the ball?</p>
  </div>","100","html-slider-response","46","1018437","0.0-10.0-2.1","79","1","2025-07-09 09:07:31","7701e855f2ef39aa3fd6c71abdc6918a","92.59.218.179","Mozilla/5.0 (Windows NT 10.0; Win64; x64) AppleWebKit/537.36 (KHTML, like Gecko) Chrome/138.0.0.0 Safari/537.36","WebKit","Chrome","138.0.0.0","Windows","10.0","https://app.prolific.com/","es-ES,es;q=0.9","5c3ce83e9883d400014200a5","686d226cabeef709c732f8e1","686e3129e6ef4534953c73c2","5c3ce83e9883d400014200a5","2025-07-09T09:22:17.989Z","","","","","","ControlQ","","","","","","","","","","","","","","","","","","","","","","","","","","","","","","","","","","","","","","50"
"4059","","<div style=""width:500px;"">
  <p>How would you describe your current emotional state?</p>
  </div>","43","html-slider-response","47","1022497","0.0-10.0-3.1","79","1","2025-07-09 09:07:31","7701e855f2ef39aa3fd6c71abdc6918a","92.59.218.179","Mozilla/5.0 (Windows NT 10.0; Win64; x64) AppleWebKit/537.36 (KHTML, like Gecko) Chrome/138.0.0.0 Safari/537.36","WebKit","Chrome","138.0.0.0","Windows","10.0","https://app.prolific.com/","es-ES,es;q=0.9","5c3ce83e9883d400014200a5","686d226cabeef709c732f8e1","686e3129e6ef4534953c73c2","5c3ce83e9883d400014200a5","2025-07-09T09:22:22.048Z","","","","","","StressQ","","","","","","","","","","","","","","","","","","","","","","","","","","","","","","","","","","","","","","50"
"3155","","<div style=""width:500px;"">
  <p>What best describes how you currently feel?</p>
  </div>","61","html-slider-response","48","1025653","0.0-10.0-4.1","79","1","2025-07-09 09:07:31","7701e855f2ef39aa3fd6c71abdc6918a","92.59.218.179","Mozilla/5.0 (Windows NT 10.0; Win64; x64) AppleWebKit/537.36 (KHTML, like Gecko) Chrome/138.0.0.0 Safari/537.36","WebKit","Chrome","138.0.0.0","Windows","10.0","https://app.prolific.com/","es-ES,es;q=0.9","5c3ce83e9883d400014200a5","686d226cabeef709c732f8e1","686e3129e6ef4534953c73c2","5c3ce83e9883d400014200a5","2025-07-09T09:22:25.205Z","","","","","","MotivationQ","","","","","","","","","","","","","","","","","","","","","","","","","","","","","","","","","","","","","","50"
"","","","","ctl-task-cpt","49","1050856","0.0-10.0-0.2","79","1","2025-07-09 09:07:31","7701e855f2ef39aa3fd6c71abdc6918a","92.59.218.179","Mozilla/5.0 (Windows NT 10.0; Win64; x64) AppleWebKit/537.36 (KHTML, like Gecko) Chrome/138.0.0.0 Safari/537.36","WebKit","Chrome","138.0.0.0","Windows","10.0","https://app.prolific.com/","es-ES,es;q=0.9","5c3ce83e9883d400014200a5","686d226cabeef709c732f8e1","686e3129e6ef4534953c73c2","5c3ce83e9883d400014200a5","2025-07-09T09:22:50.408Z","","","","","","","","","","","","","","","","win-only","0","g1:NW,g2:SE","0.8","3","0","1026573.8","1386.7","6391.3","22185.1","1","4","8","6","2","8","8","20","12","0.15151515151515152","808.2","3000","960","[""down"",""right""]","{""num_key_presses"":6,""num_perfect"":5,""num_errors"":0,""num_randdir"":1,""num_randdir_good_moves"":1,""num_whilered"":0,""num_whileblue"":0,""num_blue"":0,""num_good_moves"":6}","[417.4553495134626,417.8772321428571,0.1,417.4553495134626,417.8772321428571,112.3,438.0803495134626,415.1272321428571,217,457.3303495134626,464.6272321428571,318.1,479.3303495134626,471.5022321428571,419.3,670.4553495134626,639.2522321428571,519.9,785.9553495134626,767.1272321428571,623.9,785.9553495134626,771.2522321428571,725,787.3303495134626,771.2522321428571,835,787.3303495134626,769.8772321428571,935,802.4553495134626,747.8772321428571,1035.5,966.0803495134626,673.6272321428571,1137.2,1113.2053495134626,607.6272321428571,1240.7,1115.9553495134626,607.6272321428571,1343.9,1115.9553495134626,607.6272321428571,1452,1115.9553495134626,607.6272321428571,1554.1,1115.9553495134626,607.6272321428571,1654.2,1115.9553495134626,607.6272321428571,1754.3,1115.9553495134626,607.6272321428571,1866.9,1115.9553495134626,607.6272321428571,1967.5,1115.9553495134626,607.6272321428571,2068.6,1115.9553495134626,607.6272321428571,2169.5,1115.9553495134626,607.6272321428571,2274.3,1115.9553495134626,607.6272321428571,2383.8,1115.9553495134626,607.6272321428571,2489.1,1115.9553495134626,607.6272321428571,2593.7,1115.9553495134626,607.6272321428571,2693.7,1115.9553495134626,607.6272321428571,2794,1115.9553495134626,607.6272321428571,2894,1115.9553495134626,607.6272321428571,2998.8,1115.9553495134626,607.6272321428571,3104.1,1115.9553495134626,607.6272321428571,3204.2,1115.9553495134626,607.6272321428571,3304.5,1115.9553495134626,607.6272321428571,3416.5,1115.9553495134626,607.6272321428571,3517.1,1115.9553495134626,607.6272321428571,3618.5,1115.9553495134626,607.6272321428571,3719.6,1115.9553495134626,607.6272321428571,3824.1,1115.9553495134626,607.6272321428571,3925,1115.9553495134626,607.6272321428571,4033.7,1115.9553495134626,607.6272321428571,4134.5,1115.9553495134626,607.6272321428571,4238.6,1115.9553495134626,607.6272321428571,4339,1115.9553495134626,607.6272321428571,4439.5,1115.9553495134626,607.6272321428571,4550.1,1115.9553495134626,607.6272321428571,4655,1115.9553495134626,607.6272321428571,4767.5,1115.9553495134626,607.6272321428571,4869.5,1115.9553495134626,607.6272321428571,4973.8]","[1434.1,1434.1,1000,0,434.1,""oops"",""right"",""down"",""good_move"",4546,3111.5,2630.3,1434.6,481.1,""smooth"",""right"",""right"",""good_move"",7376,2829.8,2442.8,4546.2,387,""smooth"",""down"",""down"",""good_move"",9875.8,2499.6,2067.4,7376.2,432.2,""smooth"",""right"",""right"",""good_move"",12642.5,2766.5,2360.2,9876,406.3,""smooth"",""down"",""down"",""good_move"",15682.4,3039.8,2637.3,12642.7,402.4,""smooth"",""right"",""right"",""good_move""]","",""
"3640","","<div style=""width:500px;"">
  <p>What determined the result of this run?</p>
  </div>","95","html-slider-response","50","1054498","0.0-10.0-1.2","79","1","2025-07-09 09:07:31","7701e855f2ef39aa3fd6c71abdc6918a","92.59.218.179","Mozilla/5.0 (Windows NT 10.0; Win64; x64) AppleWebKit/537.36 (KHTML, like Gecko) Chrome/138.0.0.0 Safari/537.36","WebKit","Chrome","138.0.0.0","Windows","10.0","https://app.prolific.com/","es-ES,es;q=0.9","5c3ce83e9883d400014200a5","686d226cabeef709c732f8e1","686e3129e6ef4534953c73c2","5c3ce83e9883d400014200a5","2025-07-09T09:22:54.049Z","","","","","","AttribQ","","","","","","","","","","","","","","","","","","","","","","","","","","","","","","","","","","","","","","50"
"2977","","<div style=""width:500px;"">
  <p>How much control did you have over the ball?</p>
  </div>","93","html-slider-response","51","1057477","0.0-10.0-2.2","79","1","2025-07-09 09:07:31","7701e855f2ef39aa3fd6c71abdc6918a","92.59.218.179","Mozilla/5.0 (Windows NT 10.0; Win64; x64) AppleWebKit/537.36 (KHTML, like Gecko) Chrome/138.0.0.0 Safari/537.36","WebKit","Chrome","138.0.0.0","Windows","10.0","https://app.prolific.com/","es-ES,es;q=0.9","5c3ce83e9883d400014200a5","686d226cabeef709c732f8e1","686e3129e6ef4534953c73c2","5c3ce83e9883d400014200a5","2025-07-09T09:22:57.028Z","","","","","","ControlQ","","","","","","","","","","","","","","","","","","","","","","","","","","","","","","","","","","","","","","50"
"3004","","<div style=""width:500px;"">
  <p>How would you describe your current emotional state?</p>
  </div>","47","html-slider-response","52","1060482","0.0-10.0-3.2","79","1","2025-07-09 09:07:31","7701e855f2ef39aa3fd6c71abdc6918a","92.59.218.179","Mozilla/5.0 (Windows NT 10.0; Win64; x64) AppleWebKit/537.36 (KHTML, like Gecko) Chrome/138.0.0.0 Safari/537.36","WebKit","Chrome","138.0.0.0","Windows","10.0","https://app.prolific.com/","es-ES,es;q=0.9","5c3ce83e9883d400014200a5","686d226cabeef709c732f8e1","686e3129e6ef4534953c73c2","5c3ce83e9883d400014200a5","2025-07-09T09:23:00.033Z","","","","","","StressQ","","","","","","","","","","","","","","","","","","","","","","","","","","","","","","","","","","","","","","50"
"2514","","<div style=""width:500px;"">
  <p>What best describes how you currently feel?</p>
  </div>","70","html-slider-response","53","1062997","0.0-10.0-4.2","79","1","2025-07-09 09:07:31","7701e855f2ef39aa3fd6c71abdc6918a","92.59.218.179","Mozilla/5.0 (Windows NT 10.0; Win64; x64) AppleWebKit/537.36 (KHTML, like Gecko) Chrome/138.0.0.0 Safari/537.36","WebKit","Chrome","138.0.0.0","Windows","10.0","https://app.prolific.com/","es-ES,es;q=0.9","5c3ce83e9883d400014200a5","686d226cabeef709c732f8e1","686e3129e6ef4534953c73c2","5c3ce83e9883d400014200a5","2025-07-09T09:23:02.548Z","","","","","","MotivationQ","","","","","","","","","","","","","","","","","","","","","","","","","","","","","","","","","","","","","","50"
"","","","","ctl-task-cpt","54","1101599","0.0-10.0-0.3","79","1","2025-07-09 09:07:31","7701e855f2ef39aa3fd6c71abdc6918a","92.59.218.179","Mozilla/5.0 (Windows NT 10.0; Win64; x64) AppleWebKit/537.36 (KHTML, like Gecko) Chrome/138.0.0.0 Safari/537.36","WebKit","Chrome","138.0.0.0","Windows","10.0","https://app.prolific.com/","es-ES,es;q=0.9","5c3ce83e9883d400014200a5","686d226cabeef709c732f8e1","686e3129e6ef4534953c73c2","5c3ce83e9883d400014200a5","2025-07-09T09:23:41.150Z","","","","","","","","","","","","","","","","win-only","0","g1:NW,g2:SE","0.7","4","0","1063917.7","1336.4","6337.2","35571","1","4","4","6","2","4","4","24","20","0.18181818181818182","751.6","3000","515","[""down"",""right""]","{""num_key_presses"":8,""num_perfect"":6,""num_errors"":0,""num_randdir"":2,""num_randdir_good_moves"":1,""num_whilered"":0,""num_whileblue"":0,""num_blue"":2,""num_good_moves"":7}","[416.0803495134626,419.2522321428571,0.3,416.0803495134626,419.2522321428571,104.3,414.7053495134626,420.6272321428571,208.9,414.7053495134626,420.6272321428571,310.2,600.3303495134626,563.6272321428571,414.3,772.2053495134626,768.5022321428571,515.4,773.5803495134626,775.3772321428571,619.8,773.5803495134626,778.1272321428571,724.9,773.5803495134626,778.1272321428571,831.1,773.5803495134626,772.6272321428571,936,809.3303495134626,742.3772321428571,1039.6,1162.7053495134626,540.2522321428571,1153.9,1168.2053495134626,478.3772321428571,1254.6,1168.2053495134626,478.3772321428571,1354.8,1168.2053495134626,478.3772321428571,1454.8,1168.2053495134626,478.3772321428571,1555,1168.2053495134626,478.3772321428571,1659.6,1168.2053495134626,478.3772321428571,1759.8,1168.2053495134626,478.3772321428571,1864.9,1168.2053495134626,478.3772321428571,1969.5,1168.2053495134626,478.3772321428571,2074.4,1168.2053495134626,478.3772321428571,2179.1,1168.2053495134626,478.3772321428571,2279.3,1168.2053495134626,478.3772321428571,2384.7,1168.2053495134626,478.3772321428571,2486.4,1168.2053495134626,478.3772321428571,2588.9,1168.2053495134626,478.3772321428571,2689.2,1168.2053495134626,478.3772321428571,2789.6,1168.2053495134626,478.3772321428571,2902.3,1168.2053495134626,478.3772321428571,3003.5,1168.2053495134626,478.3772321428571,3104.4,1168.2053495134626,478.3772321428571,3205.2,1168.2053495134626,478.3772321428571,3309.8,1168.2053495134626,478.3772321428571,3410,1168.2053495134626,478.3772321428571,3514.5,1168.2053495134626,478.3772321428571,3617.9,1168.2053495134626,478.3772321428571,3719.5,1168.2053495134626,478.3772321428571,3819.5,1168.2053495134626,478.3772321428571,3919.6,1168.2053495134626,478.3772321428571,4024,1168.2053495134626,478.3772321428571,4129.1,1168.2053495134626,478.3772321428571,4229.2,1168.2053495134626,478.3772321428571,4336.9,1168.2053495134626,478.3772321428571,4444.4,1168.2053495134626,478.3772321428571,4552.7,1168.2053495134626,478.3772321428571,4653.7,1168.2053495134626,478.3772321428571,4754.2,1168.2053495134626,478.3772321428571,4860,1168.2053495134626,478.3772321428571,4967.7]","[1466.9,1466.9,1000,0,466.9,""smooth"",""right"",""right"",""good_move"",4649,3181.7,2814.3,1467.4,367.3,""smooth"",""down"",""down"",""good_move"",7992.7,3343.3,2957.9,4649.4,385.4,""smooth"",""right"",""right"",""good_move"",10672.7,2679.7,2263.2,7993,416.5,""smooth"",""down"",""down"",""good_move"",16552.8,5880,2265.4,13903.8,383.6,""oops"",""right"",""up"",""bad_move"",19336.7,2783.5,2404.3,16553.2,379.2,""smooth"",""down"",""down"",""good_move"",22264.6,2927.6,2575.6,19337,352,""smooth"",""down"",""down"",""good_move"",29129.4,6864.6,3269.7,25449,410.7,""oops"",""right"",""right"",""good_move""]","",""
"4953","","<div style=""width:500px;"">
  <p>What determined the result of this run?</p>
  </div>","81","html-slider-response","55","1106554","0.0-10.0-1.3","79","1","2025-07-09 09:07:31","7701e855f2ef39aa3fd6c71abdc6918a","92.59.218.179","Mozilla/5.0 (Windows NT 10.0; Win64; x64) AppleWebKit/537.36 (KHTML, like Gecko) Chrome/138.0.0.0 Safari/537.36","WebKit","Chrome","138.0.0.0","Windows","10.0","https://app.prolific.com/","es-ES,es;q=0.9","5c3ce83e9883d400014200a5","686d226cabeef709c732f8e1","686e3129e6ef4534953c73c2","5c3ce83e9883d400014200a5","2025-07-09T09:23:46.105Z","","","","","","AttribQ","","","","","","","","","","","","","","","","","","","","","","","","","","","","","","","","","","","","","","50"
"2410","","<div style=""width:500px;"">
  <p>How much control did you have over the ball?</p>
  </div>","89","html-slider-response","56","1108966","0.0-10.0-2.3","79","1","2025-07-09 09:07:31","7701e855f2ef39aa3fd6c71abdc6918a","92.59.218.179","Mozilla/5.0 (Windows NT 10.0; Win64; x64) AppleWebKit/537.36 (KHTML, like Gecko) Chrome/138.0.0.0 Safari/537.36","WebKit","Chrome","138.0.0.0","Windows","10.0","https://app.prolific.com/","es-ES,es;q=0.9","5c3ce83e9883d400014200a5","686d226cabeef709c732f8e1","686e3129e6ef4534953c73c2","5c3ce83e9883d400014200a5","2025-07-09T09:23:48.517Z","","","","","","ControlQ","","","","","","","","","","","","","","","","","","","","","","","","","","","","","","","","","","","","","","50"
"2979","","<div style=""width:500px;"">
  <p>How would you describe your current emotional state?</p>
  </div>","45","html-slider-response","57","1111946","0.0-10.0-3.3","79","1","2025-07-09 09:07:31","7701e855f2ef39aa3fd6c71abdc6918a","92.59.218.179","Mozilla/5.0 (Windows NT 10.0; Win64; x64) AppleWebKit/537.36 (KHTML, like Gecko) Chrome/138.0.0.0 Safari/537.36","WebKit","Chrome","138.0.0.0","Windows","10.0","https://app.prolific.com/","es-ES,es;q=0.9","5c3ce83e9883d400014200a5","686d226cabeef709c732f8e1","686e3129e6ef4534953c73c2","5c3ce83e9883d400014200a5","2025-07-09T09:23:51.497Z","","","","","","StressQ","","","","","","","","","","","","","","","","","","","","","","","","","","","","","","","","","","","","","","50"
"2923","","<div style=""width:500px;"">
  <p>What best describes how you currently feel?</p>
  </div>","68","html-slider-response","58","1114870","0.0-10.0-4.3","79","1","2025-07-09 09:07:31","7701e855f2ef39aa3fd6c71abdc6918a","92.59.218.179","Mozilla/5.0 (Windows NT 10.0; Win64; x64) AppleWebKit/537.36 (KHTML, like Gecko) Chrome/138.0.0.0 Safari/537.36","WebKit","Chrome","138.0.0.0","Windows","10.0","https://app.prolific.com/","es-ES,es;q=0.9","5c3ce83e9883d400014200a5","686d226cabeef709c732f8e1","686e3129e6ef4534953c73c2","5c3ce83e9883d400014200a5","2025-07-09T09:23:54.421Z","","","","","","MotivationQ","","","","","","","","","","","","","","","","","","","","","","","","","","","","","","","","","","","","","","50"
"","","","","ctl-task-cpt","59","1162516","0.0-10.0-0.4","79","1","2025-07-09 09:07:31","7701e855f2ef39aa3fd6c71abdc6918a","92.59.218.179","Mozilla/5.0 (Windows NT 10.0; Win64; x64) AppleWebKit/537.36 (KHTML, like Gecko) Chrome/138.0.0.0 Safari/537.36","WebKit","Chrome","138.0.0.0","Windows","10.0","https://app.prolific.com/","es-ES,es;q=0.9","5c3ce83e9883d400014200a5","686d226cabeef709c732f8e1","686e3129e6ef4534953c73c2","5c3ce83e9883d400014200a5","2025-07-09T09:24:42.067Z","","","","","","","","","","","","","","","","win-only","3","g1:SW,g2:NE","0.6","5","0","1115790.9","1166.7","6168.3","44626.4","1","4","4","6","2","-4","-4","20","24","0.15151515151515152","672","3000","-2535","[""up"",""right""]","{""num_key_presses"":9,""num_perfect"":5,""num_errors"":0,""num_randdir"":4,""num_randdir_good_moves"":1,""num_whilered"":0,""num_whileblue"":0,""num_blue"":3,""num_good_moves"":6}","[416.0803495134626,419.2522321428571,0.3,416.0803495134626,417.8772321428571,105,421.5803495134626,438.5022321428571,213.2,454.5803495134626,460.5022321428571,313.6,605.8303495134626,274.8772321428571,413.8,765.3303495134626,127.75223214285714,513.8,766.7053495134626,104.37723214285714,614.2,766.7053495134626,104.37723214285714,714.5,773.5803495134626,104.37723214285714,820,941.3303495134626,82.37723214285714,920.1,964.7053495134626,81.00223214285714,1025,964.7053495134626,81.00223214285714,1129.5,964.7053495134626,81.00223214285714,1229.8,964.7053495134626,81.00223214285714,1344.2,964.7053495134626,81.00223214285714,1444.6,964.7053495134626,81.00223214285714,1545.1,964.7053495134626,81.00223214285714,1649.5,964.7053495134626,81.00223214285714,1754.7,964.7053495134626,81.00223214285714,1859.4,964.7053495134626,81.00223214285714,1959.8,964.7053495134626,81.00223214285714,2064.2,964.7053495134626,81.00223214285714,2179,964.7053495134626,81.00223214285714,2279.1,964.7053495134626,81.00223214285714,2379.6,964.7053495134626,81.00223214285714,2484.7,964.7053495134626,81.00223214285714,2590,964.7053495134626,81.00223214285714,2690.4,964.7053495134626,81.00223214285714,2793.8,964.7053495134626,81.00223214285714,2894.7,964.7053495134626,81.00223214285714,2998.7,964.7053495134626,81.00223214285714,3100.1,964.7053495134626,81.00223214285714,3201.5,964.7053495134626,81.00223214285714,3304.2,964.7053495134626,81.00223214285714,3412.5,964.7053495134626,81.00223214285714,3513.5,964.7053495134626,81.00223214285714,3613.9,964.7053495134626,81.00223214285714,3715.3,964.7053495134626,81.00223214285714,3828.8,964.7053495134626,81.00223214285714,3933.7,964.7053495134626,81.00223214285714,4033.9,964.7053495134626,81.00223214285714,4134.9,964.7053495134626,81.00223214285714,4244.6,964.7053495134626,81.00223214285714,4348.6,964.7053495134626,81.00223214285714,4448.7,964.7053495134626,81.00223214285714,4549.1,964.7053495134626,81.00223214285714,4650.7,964.7053495134626,81.00223214285714,4752.8,964.7053495134626,81.00223214285714,4861.5,964.7053495134626,81.00223214285714,4964.6]","[1417.5,1417.5,1000,0,417.5,""oops"",""up"",""left"",""bad_move"",8590.2,7172.4,2344.9,5842.9,402.4,""smooth"",""right"",""right"",""good_move"",12025.1,3434.4,2949.7,8590.7,484.7,""oops"",""up"",""up"",""good_move"",18048.8,6023.3,2805.6,14868.3,374.9,""smooth"",""right"",""right"",""good_move"",20272.7,2223.6,1774.6,18049.1,449.1,""smooth"",""up"",""up"",""good_move"",22921,2648,2247,20273,401,""oops"",""right"",""down"",""bad_move"",25714.2,2792.8,2355.5,22921.4,437.3,""oops"",""up"",""left"",""bad_move"",29257.7,3542.9,3138.1,25714.8,404.8,""smooth"",""right"",""right"",""good_move"",35490.2,6231.6,2329.5,32757.8,402.9,""smooth"",""up"",""up"",""good_move""]","",""
"4229","","<div style=""width:500px;"">
  <p>What determined the result of this run?</p>
  </div>","14","html-slider-response","60","1166748","0.0-10.0-1.4","79","1","2025-07-09 09:07:31","7701e855f2ef39aa3fd6c71abdc6918a","92.59.218.179","Mozilla/5.0 (Windows NT 10.0; Win64; x64) AppleWebKit/537.36 (KHTML, like Gecko) Chrome/138.0.0.0 Safari/537.36","WebKit","Chrome","138.0.0.0","Windows","10.0","https://app.prolific.com/","es-ES,es;q=0.9","5c3ce83e9883d400014200a5","686d226cabeef709c732f8e1","686e3129e6ef4534953c73c2","5c3ce83e9883d400014200a5","2025-07-09T09:24:46.299Z","","","","","","AttribQ","","","","","","","","","","","","","","","","","","","","","","","","","","","","","","","","","","","","","","50"
"6281","","<div style=""width:500px;"">
  <p>How much control did you have over the ball?</p>
  </div>","12","html-slider-response","61","1173031","0.0-10.0-2.4","79","1","2025-07-09 09:07:31","7701e855f2ef39aa3fd6c71abdc6918a","92.59.218.179","Mozilla/5.0 (Windows NT 10.0; Win64; x64) AppleWebKit/537.36 (KHTML, like Gecko) Chrome/138.0.0.0 Safari/537.36","WebKit","Chrome","138.0.0.0","Windows","10.0","https://app.prolific.com/","es-ES,es;q=0.9","5c3ce83e9883d400014200a5","686d226cabeef709c732f8e1","686e3129e6ef4534953c73c2","5c3ce83e9883d400014200a5","2025-07-09T09:24:52.582Z","","","","","","ControlQ","","","","","","","","","","","","","","","","","","","","","","","","","","","","","","","","","","","","","","50"
"2318","","<div style=""width:500px;"">
  <p>How would you describe your current emotional state?</p>
  </div>","58","html-slider-response","62","1175350","0.0-10.0-3.4","79","1","2025-07-09 09:07:31","7701e855f2ef39aa3fd6c71abdc6918a","92.59.218.179","Mozilla/5.0 (Windows NT 10.0; Win64; x64) AppleWebKit/537.36 (KHTML, like Gecko) Chrome/138.0.0.0 Safari/537.36","WebKit","Chrome","138.0.0.0","Windows","10.0","https://app.prolific.com/","es-ES,es;q=0.9","5c3ce83e9883d400014200a5","686d226cabeef709c732f8e1","686e3129e6ef4534953c73c2","5c3ce83e9883d400014200a5","2025-07-09T09:24:54.902Z","","","","","","StressQ","","","","","","","","","","","","","","","","","","","","","","","","","","","","","","","","","","","","","","50"
"2723","","<div style=""width:500px;"">
  <p>What best describes how you currently feel?</p>
  </div>","58","html-slider-response","63","1178075","0.0-10.0-4.4","79","1","2025-07-09 09:07:31","7701e855f2ef39aa3fd6c71abdc6918a","92.59.218.179","Mozilla/5.0 (Windows NT 10.0; Win64; x64) AppleWebKit/537.36 (KHTML, like Gecko) Chrome/138.0.0.0 Safari/537.36","WebKit","Chrome","138.0.0.0","Windows","10.0","https://app.prolific.com/","es-ES,es;q=0.9","5c3ce83e9883d400014200a5","686d226cabeef709c732f8e1","686e3129e6ef4534953c73c2","5c3ce83e9883d400014200a5","2025-07-09T09:24:57.626Z","","","","","","MotivationQ","","","","","","","","","","","","","","","","","","","","","","","","","","","","","","","","","","","","","","50"
"","","","","ctl-task-cpt","64","1229956","0.0-10.0-0.5","79","1","2025-07-09 09:07:31","7701e855f2ef39aa3fd6c71abdc6918a","92.59.218.179","Mozilla/5.0 (Windows NT 10.0; Win64; x64) AppleWebKit/537.36 (KHTML, like Gecko) Chrome/138.0.0.0 Safari/537.36","WebKit","Chrome","138.0.0.0","Windows","10.0","https://app.prolific.com/","es-ES,es;q=0.9","5c3ce83e9883d400014200a5","686d226cabeef709c732f8e1","686e3129e6ef4534953c73c2","5c3ce83e9883d400014200a5","2025-07-09T09:25:49.507Z","","","","","","","","","","","","","","","","win-only","0","g1:NW,g2:SE","0.5","6","0","1178996.4","1347","6351.2","48853.1","1","4","8","6","2","8","8","28","20","0.21212121212121213","830.9","3000","425","[""down"",""right""]","{""num_key_presses"":12,""num_perfect"":7,""num_errors"":0,""num_randdir"":5,""num_randdir_good_moves"":2,""num_whilered"":0,""num_whileblue"":0,""num_blue"":2,""num_good_moves"":9}","[416.0803495134626,422.0022321428571,0.4,416.0803495134626,422.0022321428571,100.6,416.0803495134626,423.3772321428571,205.3,469.7053495134626,499.0022321428571,318.9,556.3303495134626,556.7522321428571,420.1,689.7053495134626,650.2522321428571,521.8,686.9553495134626,669.5022321428571,631.5,740.5803495134626,749.2522321428571,734.4,750.2053495134626,753.3772321428571,841.5,750.2053495134626,750.6272321428571,941.8,842.3303495134626,629.6272321428571,1055.8,891.8303495134626,489.3772321428571,1162.1,883.5803495134626,497.6272321428571,1275.1,883.5803495134626,497.6272321428571,1378.3,883.5803495134626,497.6272321428571,1484,883.5803495134626,497.6272321428571,1587,883.5803495134626,497.6272321428571,1690.1,883.5803495134626,497.6272321428571,1802.2,883.5803495134626,497.6272321428571,1902.4,883.5803495134626,497.6272321428571,2002.7,883.5803495134626,497.6272321428571,2103.6,883.5803495134626,497.6272321428571,2204.1,883.5803495134626,497.6272321428571,2308.8,883.5803495134626,497.6272321428571,2409.6,883.5803495134626,497.6272321428571,2510,883.5803495134626,497.6272321428571,2615.5,883.5803495134626,497.6272321428571,2720.2,883.5803495134626,497.6272321428571,2825.2,883.5803495134626,497.6272321428571,2926,883.5803495134626,497.6272321428571,3029.2,883.5803495134626,497.6272321428571,3133.3,883.5803495134626,497.6272321428571,3235.6,883.5803495134626,497.6272321428571,3335.6,883.5803495134626,497.6272321428571,3439.3,883.5803495134626,497.6272321428571,3541.1,883.5803495134626,497.6272321428571,3649.1,883.5803495134626,497.6272321428571,3749.2,883.5803495134626,497.6272321428571,3853.8,883.5803495134626,497.6272321428571,3958.7,883.5803495134626,497.6272321428571,4065.8,883.5803495134626,497.6272321428571,4168.9,883.5803495134626,497.6272321428571,4268.9,883.5803495134626,497.6272321428571,4369.2,883.5803495134626,497.6272321428571,4470.1,883.5803495134626,497.6272321428571,4587.5,883.5803495134626,497.6272321428571,4688.5,883.5803495134626,497.6272321428571,4799.1,883.5803495134626,497.6272321428571,4899.4]","[1460.8,1460.8,1000,0,460.8,""smooth"",""right"",""right"",""good_move"",4253.5,2792.2,2383.8,1461.3,408.4,""smooth"",""down"",""down"",""good_move"",6789.7,2535.3,2144.7,4254.4,390.6,""oops"",""right"",""left"",""bad_move"",9749.1,2958.9,2587.8,6790.2,371.1,""smooth"",""right"",""right"",""good_move"",13366.1,3616.7,3194.1,9749.4,422.6,""oops"",""down"",""up"",""bad_move"",16548.9,3181.2,2801.4,13367.7,379.8,""smooth"",""down"",""down"",""good_move"",19110.2,2560.9,2176.7,16549.4,384.1,""oops"",""right"",""right"",""good_move"",21429.1,2318.4,1891,19110.7,427.4,""smooth"",""down"",""down"",""good_move"",24742.3,3312.9,2962.9,21429.4,350,""oops"",""right"",""left"",""bad_move"",27590.4,2847.5,2441.7,24742.9,405.8,""oops"",""right"",""down"",""good_move"",38478,10887.2,2812.6,35125.8,539.6,""smooth"",""right"",""right"",""good_move"",42157.5,3679.3,3009.3,38478.2,670,""smooth"",""right"",""right"",""good_move""]","",""
"4968","","<div style=""width:500px;"">
  <p>What determined the result of this run?</p>
  </div>","23","html-slider-response","65","1234928","0.0-10.0-1.5","79","1","2025-07-09 09:07:31","7701e855f2ef39aa3fd6c71abdc6918a","92.59.218.179","Mozilla/5.0 (Windows NT 10.0; Win64; x64) AppleWebKit/537.36 (KHTML, like Gecko) Chrome/138.0.0.0 Safari/537.36","WebKit","Chrome","138.0.0.0","Windows","10.0","https://app.prolific.com/","es-ES,es;q=0.9","5c3ce83e9883d400014200a5","686d226cabeef709c732f8e1","686e3129e6ef4534953c73c2","5c3ce83e9883d400014200a5","2025-07-09T09:25:54.479Z","","","","","","AttribQ","","","","","","","","","","","","","","","","","","","","","","","","","","","","","","","","","","","","","","50"
"6237","","<div style=""width:500px;"">
  <p>How much control did you have over the ball?</p>
  </div>","42","html-slider-response","66","1241170","0.0-10.0-2.5","79","1","2025-07-09 09:07:31","7701e855f2ef39aa3fd6c71abdc6918a","92.59.218.179","Mozilla/5.0 (Windows NT 10.0; Win64; x64) AppleWebKit/537.36 (KHTML, like Gecko) Chrome/138.0.0.0 Safari/537.36","WebKit","Chrome","138.0.0.0","Windows","10.0","https://app.prolific.com/","es-ES,es;q=0.9","5c3ce83e9883d400014200a5","686d226cabeef709c732f8e1","686e3129e6ef4534953c73c2","5c3ce83e9883d400014200a5","2025-07-09T09:26:00.721Z","","","","","","ControlQ","","","","","","","","","","","","","","","","","","","","","","","","","","","","","","","","","","","","","","50"
"2784","","<div style=""width:500px;"">
  <p>How would you describe your current emotional state?</p>
  </div>","68","html-slider-response","67","1243957","0.0-10.0-3.5","79","1","2025-07-09 09:07:31","7701e855f2ef39aa3fd6c71abdc6918a","92.59.218.179","Mozilla/5.0 (Windows NT 10.0; Win64; x64) AppleWebKit/537.36 (KHTML, like Gecko) Chrome/138.0.0.0 Safari/537.36","WebKit","Chrome","138.0.0.0","Windows","10.0","https://app.prolific.com/","es-ES,es;q=0.9","5c3ce83e9883d400014200a5","686d226cabeef709c732f8e1","686e3129e6ef4534953c73c2","5c3ce83e9883d400014200a5","2025-07-09T09:26:03.508Z","","","","","","StressQ","","","","","","","","","","","","","","","","","","","","","","","","","","","","","","","","","","","","","","50"
"2239","","<div style=""width:500px;"">
  <p>What best describes how you currently feel?</p>
  </div>","70","html-slider-response","68","1246199","0.0-10.0-4.5","79","1","2025-07-09 09:07:31","7701e855f2ef39aa3fd6c71abdc6918a","92.59.218.179","Mozilla/5.0 (Windows NT 10.0; Win64; x64) AppleWebKit/537.36 (KHTML, like Gecko) Chrome/138.0.0.0 Safari/537.36","WebKit","Chrome","138.0.0.0","Windows","10.0","https://app.prolific.com/","es-ES,es;q=0.9","5c3ce83e9883d400014200a5","686d226cabeef709c732f8e1","686e3129e6ef4534953c73c2","5c3ce83e9883d400014200a5","2025-07-09T09:26:05.750Z","","","","","","MotivationQ","","","","","","","","","","","","","","","","","","","","","","","","","","","","","","","","","","","","","","50"
"","","","","ctl-task-cpt","69","1317856","0.0-10.0-0.6","79","1","2025-07-09 09:07:31","7701e855f2ef39aa3fd6c71abdc6918a","92.59.218.179","Mozilla/5.0 (Windows NT 10.0; Win64; x64) AppleWebKit/537.36 (KHTML, like Gecko) Chrome/138.0.0.0 Safari/537.36","WebKit","Chrome","138.0.0.0","Windows","10.0","https://app.prolific.com/","es-ES,es;q=0.9","5c3ce83e9883d400014200a5","686d226cabeef709c732f8e1","686e3129e6ef4534953c73c2","5c3ce83e9883d400014200a5","2025-07-09T09:27:17.407Z","","","","","","","","","","","","","","","","win-only","0","g1:NW,g2:SE","0.4","7","0","1247123.9","1043.8","6053.3","68607.2","1","4","8","6","2","8","8","36","28","0.2727272727272727","862.4","3000","2085","[""down"",""right""]","{""num_key_presses"":14,""num_perfect"":5,""num_errors"":0,""num_randdir"":9,""num_randdir_good_moves"":5,""num_whilered"":0,""num_whileblue"":0,""num_blue"":2,""num_good_moves"":10}","[414.7053495134626,416.5022321428571,0.4,414.7053495134626,416.5022321428571,107.1,406.4553495134626,434.3772321428571,234,406.4553495134626,438.5022321428571,335.9,526.0803495134626,519.6272321428571,451.4,688.3303495134626,640.6272321428571,555.6,726.8303495134626,691.5022321428571,676.1,732.3303495134626,724.5022321428571,794.4,735.0803495134626,735.5022321428571,916.9,831.3303495134626,670.8772321428571,1046.4,1165.4553495134626,285.8772321428571,1169.7,1187.4553495134626,236.37723214285714,1271.8,1187.4553495134626,236.37723214285714,1373.3,1187.4553495134626,236.37723214285714,1484.8,1187.4553495134626,236.37723214285714,1603.7,1187.4553495134626,236.37723214285714,1712.6,1187.4553495134626,236.37723214285714,1825.1,1187.4553495134626,236.37723214285714,1933.9,1187.4553495134626,236.37723214285714,2047.9,1187.4553495134626,236.37723214285714,2162.3,1187.4553495134626,236.37723214285714,2274.6,1187.4553495134626,236.37723214285714,2387.8,1187.4553495134626,236.37723214285714,2501.2,1187.4553495134626,236.37723214285714,2614.4,1187.4553495134626,236.37723214285714,2731.1,1187.4553495134626,236.37723214285714,2844.4,1187.4553495134626,236.37723214285714,2958.4,1187.4553495134626,236.37723214285714,3072.8,1187.4553495134626,236.37723214285714,3186.3,1187.4553495134626,236.37723214285714,3308.8,1187.4553495134626,236.37723214285714,3422.6,1187.4553495134626,236.37723214285714,3529.3,1187.4553495134626,236.37723214285714,3640.9,1187.4553495134626,236.37723214285714,3752.4,1187.4553495134626,236.37723214285714,3859.9,1187.4553495134626,236.37723214285714,3970.5,1187.4553495134626,236.37723214285714,4083.1,1187.4553495134626,236.37723214285714,4200,1187.4553495134626,236.37723214285714,4322.6,1187.4553495134626,236.37723214285714,4451.6,1187.4553495134626,236.37723214285714,4574.7,1187.4553495134626,236.37723214285714,4674.7,1187.4553495134626,236.37723214285714,4787,1187.4553495134626,236.37723214285714,4899.6]","[1433,1433,1000,0,433,""oops"",""right"",""down"",""good_move"",4576.8,3143.3,2699.7,1433.6,443.5,""smooth"",""right"",""right"",""good_move"",10672.2,6095.1,2361,7887.6,423.6,""oops"",""right"",""right"",""good_move"",13802.1,3129.7,2571,10672.4,558.7,""oops"",""right"",""right"",""good_move"",16947.7,3145.3,2713.6,13802.4,431.7,""oops"",""down"",""left"",""bad_move"",23980.7,7032.5,2809.3,16948.2,4223.2,""oops"",""down"",""left"",""bad_move"",31008.4,7027.5,1787.9,23980.9,5239.6,""oops"",""right"",""left"",""bad_move"",37833.9,6825.1,2369.4,31008.8,4455.7,""smooth"",""right"",""right"",""good_move"",41173,3338.8,2542.1,37834.2,796.7,""smooth"",""down"",""down"",""good_move"",43729.5,2556.2,1891.1,41173.3,665.1,""smooth"",""down"",""down"",""good_move"",48949.2,5219.5,2418.5,46039,491.7,""smooth"",""right"",""right"",""good_move"",51812.1,2862.4,2317.7,48949.7,544.7,""oops"",""right"",""left"",""bad_move"",59321.6,7509.1,2509.2,51812.5,4999.9,""oops"",""right"",""right"",""good_move"",61472.6,2150.7,1589.9,59321.9,560.8,""oops"",""right"",""right"",""good_move""]","",""
"3575","","<div style=""width:500px;"">
  <p>What determined the result of this run?</p>
  </div>","39","html-slider-response","70","1321436","0.0-10.0-1.6","79","1","2025-07-09 09:07:31","7701e855f2ef39aa3fd6c71abdc6918a","92.59.218.179","Mozilla/5.0 (Windows NT 10.0; Win64; x64) AppleWebKit/537.36 (KHTML, like Gecko) Chrome/138.0.0.0 Safari/537.36","WebKit","Chrome","138.0.0.0","Windows","10.0","https://app.prolific.com/","es-ES,es;q=0.9","5c3ce83e9883d400014200a5","686d226cabeef709c732f8e1","686e3129e6ef4534953c73c2","5c3ce83e9883d400014200a5","2025-07-09T09:27:20.988Z","","","","","","AttribQ","","","","","","","","","","","","","","","","","","","","","","","","","","","","","","","","","","","","","","50"
"3572","","<div style=""width:500px;"">
  <p>How much control did you have over the ball?</p>
  </div>","41","html-slider-response","71","1325013","0.0-10.0-2.6","79","1","2025-07-09 09:07:31","7701e855f2ef39aa3fd6c71abdc6918a","92.59.218.179","Mozilla/5.0 (Windows NT 10.0; Win64; x64) AppleWebKit/537.36 (KHTML, like Gecko) Chrome/138.0.0.0 Safari/537.36","WebKit","Chrome","138.0.0.0","Windows","10.0","https://app.prolific.com/","es-ES,es;q=0.9","5c3ce83e9883d400014200a5","686d226cabeef709c732f8e1","686e3129e6ef4534953c73c2","5c3ce83e9883d400014200a5","2025-07-09T09:27:24.564Z","","","","","","ControlQ","","","","","","","","","","","","","","","","","","","","","","","","","","","","","","","","","","","","","","50"
"2508","","<div style=""width:500px;"">
  <p>How would you describe your current emotional state?</p>
  </div>","66","html-slider-response","72","1327525","0.0-10.0-3.6","79","1","2025-07-09 09:07:31","7701e855f2ef39aa3fd6c71abdc6918a","92.59.218.179","Mozilla/5.0 (Windows NT 10.0; Win64; x64) AppleWebKit/537.36 (KHTML, like Gecko) Chrome/138.0.0.0 Safari/537.36","WebKit","Chrome","138.0.0.0","Windows","10.0","https://app.prolific.com/","es-ES,es;q=0.9","5c3ce83e9883d400014200a5","686d226cabeef709c732f8e1","686e3129e6ef4534953c73c2","5c3ce83e9883d400014200a5","2025-07-09T09:27:27.076Z","","","","","","StressQ","","","","","","","","","","","","","","","","","","","","","","","","","","","","","","","","","","","","","","50"
"2322","","<div style=""width:500px;"">
  <p>What best describes how you currently feel?</p>
  </div>","76","html-slider-response","73","1329851","0.0-10.0-4.6","79","1","2025-07-09 09:07:31","7701e855f2ef39aa3fd6c71abdc6918a","92.59.218.179","Mozilla/5.0 (Windows NT 10.0; Win64; x64) AppleWebKit/537.36 (KHTML, like Gecko) Chrome/138.0.0.0 Safari/537.36","WebKit","Chrome","138.0.0.0","Windows","10.0","https://app.prolific.com/","es-ES,es;q=0.9","5c3ce83e9883d400014200a5","686d226cabeef709c732f8e1","686e3129e6ef4534953c73c2","5c3ce83e9883d400014200a5","2025-07-09T09:27:29.402Z","","","","","","MotivationQ","","","","","","","","","","","","","","","","","","","","","","","","","","","","","","","","","","","","","","50"
"","","","","ctl-task-cpt","74","1435380","0.0-10.0-0.7","79","1","2025-07-09 09:07:31","7701e855f2ef39aa3fd6c71abdc6918a","92.59.218.179","Mozilla/5.0 (Windows NT 10.0; Win64; x64) AppleWebKit/537.36 (KHTML, like Gecko) Chrome/138.0.0.0 Safari/537.36","WebKit","Chrome","138.0.0.0","Windows","10.0","https://app.prolific.com/","es-ES,es;q=0.9","5c3ce83e9883d400014200a5","686d226cabeef709c732f8e1","686e3129e6ef4534953c73c2","5c3ce83e9883d400014200a5","2025-07-09T09:29:14.931Z","","","","","","","","","","","","","","","","win-only","0","g1:NW,g2:SE","0.3","8","0","1330774.9","840.7","5848","102475.2","1","4","4","6","2","4","4","40","36","0.30303030303030304","909.3","3000","2045","[""down"",""right""]","{""num_key_presses"":19,""num_perfect"":6,""num_errors"":0,""num_randdir"":13,""num_randdir_good_moves"":7,""num_whilered"":0,""num_whileblue"":0,""num_blue"":0,""num_good_moves"":13}","[418.8303495134626,420.6272321428571,0.2,418.8303495134626,420.6272321428571,121.6,424.3303495134626,409.6272321428571,239.1,413.3303495134626,395.8772321428571,366.9,537.0803495134626,435.7522321428571,493.2,856.0803495134626,742.3772321428571,629.5,828.5803495134626,780.8772321428571,775.7,780.4553495134626,764.3772321428571,923.9,904.2053495134626,703.8772321428571,1053.2,1098.0803495134626,522.3772321428571,1178.7,1092.5803495134626,505.8772321428571,1299.8,1092.5803495134626,505.8772321428571,1416.1,1092.5803495134626,505.8772321428571,1552.2,1092.5803495134626,505.8772321428571,1692.6,1092.5803495134626,505.8772321428571,1834.8,1092.5803495134626,505.8772321428571,1976.3,1092.5803495134626,505.8772321428571,2092.1,1092.5803495134626,505.8772321428571,2236.8,1092.5803495134626,505.8772321428571,2372.6,1092.5803495134626,505.8772321428571,2488.9,1092.5803495134626,505.8772321428571,2611.8,1092.5803495134626,505.8772321428571,2755.3,1092.5803495134626,505.8772321428571,2888.8,1092.5803495134626,505.8772321428571,3005.1,1092.5803495134626,505.8772321428571,3122.8,1092.5803495134626,505.8772321428571,3253.1,1092.5803495134626,505.8772321428571,3395.1,1092.5803495134626,505.8772321428571,3540.5,1092.5803495134626,505.8772321428571,3640.6,1092.5803495134626,505.8772321428571,3782.9,1092.5803495134626,505.8772321428571,3927.5,1092.5803495134626,505.8772321428571,4033.2,1092.5803495134626,505.8772321428571,4142.2,1092.5803495134626,505.8772321428571,4249.7,1092.5803495134626,505.8772321428571,4364.1,1092.5803495134626,505.8772321428571,4471.7,1092.5803495134626,505.8772321428571,4577.1,1092.5803495134626,505.8772321428571,4684.7,1092.5803495134626,505.8772321428571,4836.5,1092.5803495134626,505.8772321428571,4950.3]","[1458.9,1458.9,1000,0,458.9,""oops"",""right"",""left"",""bad_move"",9423.8,7964.5,2727.1,1459.3,5237.4,""oops"",""right"",""down"",""good_move"",13623,4198.9,3632.6,9424.1,566.3,""oops"",""right"",""left"",""bad_move"",22665.7,9042.3,2081.8,13623.4,6960.5,""oops"",""down"",""up"",""bad_move"",32622.5,9956.1,2912.2,22666.4,7043.9,""smooth"",""down"",""down"",""good_move"",36319.5,3696.9,3125.6,32622.7,571.3,""oops"",""down"",""down"",""good_move"",40204.7,3884.9,2702,36319.9,1182.8,""oops"",""right"",""up"",""bad_move"",49567.3,9362.3,2368.9,40205,6993.4,""oops"",""right"",""up"",""bad_move"",57539.3,7971.6,2599.3,49567.7,5372.3,""smooth"",""right"",""right"",""good_move"",61206.6,3666.9,3031.3,57539.7,635.6,""smooth"",""right"",""right"",""good_move"",64085.3,2878.5,2437.9,61206.9,440.5,""oops"",""right"",""right"",""good_move"",67011.1,2925.5,2266.8,64085.6,658.7,""smooth"",""right"",""right"",""good_move"",70061.7,3050.3,2397,67011.4,653.3,""oops"",""right"",""left"",""bad_move"",79606.1,9544.1,2176.3,70062,7367.8,""oops"",""down"",""right"",""good_move"",82351.6,2745.2,1903,79606.4,842.2,""oops"",""down"",""right"",""good_move"",85925.2,3573.2,3116.3,82352,456.9,""smooth"",""down"",""down"",""good_move"",89640.5,3715.1,3126.1,85925.4,589,""oops"",""down"",""down"",""good_move"",93213,3571.8,3152.9,89641.2,418.9,""smooth"",""down"",""down"",""good_move"",96503.1,3289.8,2664.7,93213.3,625.1,""oops"",""down"",""right"",""good_move""]","",""
"4054","","<div style=""width:500px;"">
  <p>What determined the result of this run?</p>
  </div>","39","html-slider-response","75","1439440","0.0-10.0-1.7","79","1","2025-07-09 09:07:31","7701e855f2ef39aa3fd6c71abdc6918a","92.59.218.179","Mozilla/5.0 (Windows NT 10.0; Win64; x64) AppleWebKit/537.36 (KHTML, like Gecko) Chrome/138.0.0.0 Safari/537.36","WebKit","Chrome","138.0.0.0","Windows","10.0","https://app.prolific.com/","es-ES,es;q=0.9","5c3ce83e9883d400014200a5","686d226cabeef709c732f8e1","686e3129e6ef4534953c73c2","5c3ce83e9883d400014200a5","2025-07-09T09:29:18.991Z","","","","","","AttribQ","","","","","","","","","","","","","","","","","","","","","","","","","","","","","","","","","","","","","","50"
"3129","","<div style=""width:500px;"">
  <p>How much control did you have over the ball?</p>
  </div>","33","html-slider-response","76","1442577","0.0-10.0-2.7","79","1","2025-07-09 09:07:31","7701e855f2ef39aa3fd6c71abdc6918a","92.59.218.179","Mozilla/5.0 (Windows NT 10.0; Win64; x64) AppleWebKit/537.36 (KHTML, like Gecko) Chrome/138.0.0.0 Safari/537.36","WebKit","Chrome","138.0.0.0","Windows","10.0","https://app.prolific.com/","es-ES,es;q=0.9","5c3ce83e9883d400014200a5","686d226cabeef709c732f8e1","686e3129e6ef4534953c73c2","5c3ce83e9883d400014200a5","2025-07-09T09:29:22.128Z","","","","","","ControlQ","","","","","","","","","","","","","","","","","","","","","","","","","","","","","","","","","","","","","","50"
"1904","","<div style=""width:500px;"">
  <p>How would you describe your current emotional state?</p>
  </div>","66","html-slider-response","77","1444486","0.0-10.0-3.7","79","1","2025-07-09 09:07:31","7701e855f2ef39aa3fd6c71abdc6918a","92.59.218.179","Mozilla/5.0 (Windows NT 10.0; Win64; x64) AppleWebKit/537.36 (KHTML, like Gecko) Chrome/138.0.0.0 Safari/537.36","WebKit","Chrome","138.0.0.0","Windows","10.0","https://app.prolific.com/","es-ES,es;q=0.9","5c3ce83e9883d400014200a5","686d226cabeef709c732f8e1","686e3129e6ef4534953c73c2","5c3ce83e9883d400014200a5","2025-07-09T09:29:24.037Z","","","","","","StressQ","","","","","","","","","","","","","","","","","","","","","","","","","","","","","","","","","","","","","","50"
"2065","","<div style=""width:500px;"">
  <p>What best describes how you currently feel?</p>
  </div>","75","html-slider-response","78","1446556","0.0-10.0-4.7","79","1","2025-07-09 09:07:31","7701e855f2ef39aa3fd6c71abdc6918a","92.59.218.179","Mozilla/5.0 (Windows NT 10.0; Win64; x64) AppleWebKit/537.36 (KHTML, like Gecko) Chrome/138.0.0.0 Safari/537.36","WebKit","Chrome","138.0.0.0","Windows","10.0","https://app.prolific.com/","es-ES,es;q=0.9","5c3ce83e9883d400014200a5","686d226cabeef709c732f8e1","686e3129e6ef4534953c73c2","5c3ce83e9883d400014200a5","2025-07-09T09:29:26.107Z","","","","","","MotivationQ","","","","","","","","","","","","","","","","","","","","","","","","","","","","","","","","","","","","","","50"
"","","","","ctl-task-cpt","79","1598917","0.0-10.0-0.8","79","1","2025-07-09 09:07:31","7701e855f2ef39aa3fd6c71abdc6918a","92.59.218.179","Mozilla/5.0 (Windows NT 10.0; Win64; x64) AppleWebKit/537.36 (KHTML, like Gecko) Chrome/138.0.0.0 Safari/537.36","WebKit","Chrome","138.0.0.0","Windows","10.0","https://app.prolific.com/","es-ES,es;q=0.9","5c3ce83e9883d400014200a5","686d226cabeef709c732f8e1","686e3129e6ef4534953c73c2","5c3ce83e9883d400014200a5","2025-07-09T09:31:58.468Z","","","","","","","","","","","","","","","","win-only","1","g1:NE,g2:SW","0.2","9","0","1447505.3","946.2","5954.5","149303.7","1","4","4","6","2","4","3","43","40","0.32575757575757575","943.6","3000","1675","[""down"",""left""]","{""num_key_presses"":17,""num_perfect"":4,""num_errors"":1,""num_randdir"":12,""num_randdir_good_moves"":7,""num_whilered"":0,""num_whileblue"":0,""num_blue"":10,""num_good_moves"":11}","[418.8303495134626,423.3772321428571,0.3,418.8303495134626,423.3772321428571,147.4,420.2053495134626,422.0022321428571,264.3,465.5803495134626,393.1272321428571,381.4,377.5803495134626,453.6272321428571,501,257.9553495134626,600.7522321428571,608.1,156.2053495134626,664.0022321428571,714.1,143.8303495134626,691.5022321428571,831,95.70534951346261,738.2522321428571,944.5,168.5803495134626,701.1272321428571,1064,735.0803495134626,405.5022321428571,1173.3,820.3303495134626,288.6272321428571,1284.9,820.3303495134626,288.6272321428571,1389.4,820.3303495134626,288.6272321428571,1535.4,820.3303495134626,288.6272321428571,1677.3,820.3303495134626,288.6272321428571,1832.2,820.3303495134626,288.6272321428571,1945.5,820.3303495134626,288.6272321428571,2057.9,820.3303495134626,288.6272321428571,2177.9,820.3303495134626,288.6272321428571,2299.2,820.3303495134626,288.6272321428571,2418,820.3303495134626,288.6272321428571,2542,820.3303495134626,288.6272321428571,2650.8,820.3303495134626,288.6272321428571,2765.6,820.3303495134626,288.6272321428571,2891.6,820.3303495134626,288.6272321428571,3036.2,820.3303495134626,288.6272321428571,3166.3,820.3303495134626,288.6272321428571,3292.3,820.3303495134626,288.6272321428571,3439.9,820.3303495134626,288.6272321428571,3561.6,820.3303495134626,288.6272321428571,3663,820.3303495134626,288.6272321428571,3767.1,820.3303495134626,288.6272321428571,3868.6,820.3303495134626,288.6272321428571,4062.2,820.3303495134626,288.6272321428571,4262.4,820.3303495134626,288.6272321428571,4375.2,820.3303495134626,288.6272321428571,4544.3,820.3303495134626,288.6272321428571,4649,820.3303495134626,288.6272321428571,4838.3]","[378.8,378.9,1000,0,-621.1,""error"",""-"",""-"",""no_move"",10344.6,9965.4,2244,7554.5,546.2,""oops"",""down"",""down"",""good_move"",13075.3,2730.4,1883.3,10344.9,847.1,""oops"",""down"",""right"",""bad_move"",21201.1,8125.5,3320.4,17304.4,576.3,""oops"",""left"",""up"",""bad_move"",37513.4,16311.9,2522.5,21201.5,13789.4,""oops"",""left"",""down"",""good_move"",45043.8,7530.2,2600.5,41828.5,614.8,""smooth"",""left"",""left"",""good_move"",61378.9,16334.7,3068.2,45044.2,13266.5,""oops"",""left"",""left"",""good_move"",81610.2,20230.9,2942.8,78067.4,600,""smooth"",""down"",""down"",""good_move"",85455.4,3844.8,3105.3,81610.6,739.5,""oops"",""left"",""up"",""bad_move"",105871.5,20415.7,2784,102669.2,418.3,""oops"",""down"",""up"",""bad_move"",112463.7,6591.8,2350.2,109709.5,404,""oops"",""left"",""left"",""good_move"",122464.5,9999.9,2570.9,119426.2,467.4,""oops"",""down"",""right"",""bad_move"",125592,3127.2,2539.8,122464.8,587.4,""smooth"",""down"",""down"",""good_move"",131408.5,5816,2446.3,128524.2,438,""smooth"",""down"",""down"",""good_move"",134712.3,3303.5,2907.1,131408.8,396.4,""oops"",""left"",""down"",""good_move"",138016.1,3303.6,2873.8,134712.6,429.8,""oops"",""left"",""left"",""good_move"",142881.9,4865.1,2108.7,138016.8,2756.4,""oops"",""left"",""left"",""good_move""]","",""
"3873","","<div style=""width:500px;"">
  <p>What determined the result of this run?</p>
  </div>","19","html-slider-response","80","1602795","0.0-10.0-1.8","79","1","2025-07-09 09:07:31","7701e855f2ef39aa3fd6c71abdc6918a","92.59.218.179","Mozilla/5.0 (Windows NT 10.0; Win64; x64) AppleWebKit/537.36 (KHTML, like Gecko) Chrome/138.0.0.0 Safari/537.36","WebKit","Chrome","138.0.0.0","Windows","10.0","https://app.prolific.com/","es-ES,es;q=0.9","5c3ce83e9883d400014200a5","686d226cabeef709c732f8e1","686e3129e6ef4534953c73c2","5c3ce83e9883d400014200a5","2025-07-09T09:32:02.346Z","","","","","","AttribQ","","","","","","","","","","","","","","","","","","","","","","","","","","","","","","","","","","","","","","50"
"3826","","<div style=""width:500px;"">
  <p>How much control did you have over the ball?</p>
  </div>","32","html-slider-response","81","1606624","0.0-10.0-2.8","79","1","2025-07-09 09:07:31","7701e855f2ef39aa3fd6c71abdc6918a","92.59.218.179","Mozilla/5.0 (Windows NT 10.0; Win64; x64) AppleWebKit/537.36 (KHTML, like Gecko) Chrome/138.0.0.0 Safari/537.36","WebKit","Chrome","138.0.0.0","Windows","10.0","https://app.prolific.com/","es-ES,es;q=0.9","5c3ce83e9883d400014200a5","686d226cabeef709c732f8e1","686e3129e6ef4534953c73c2","5c3ce83e9883d400014200a5","2025-07-09T09:32:06.175Z","","","","","","ControlQ","","","","","","","","","","","","","","","","","","","","","","","","","","","","","","","","","","","","","","50"
"2208","","<div style=""width:500px;"">
  <p>How would you describe your current emotional state?</p>
  </div>","62","html-slider-response","82","1608834","0.0-10.0-3.8","79","1","2025-07-09 09:07:31","7701e855f2ef39aa3fd6c71abdc6918a","92.59.218.179","Mozilla/5.0 (Windows NT 10.0; Win64; x64) AppleWebKit/537.36 (KHTML, like Gecko) Chrome/138.0.0.0 Safari/537.36","WebKit","Chrome","138.0.0.0","Windows","10.0","https://app.prolific.com/","es-ES,es;q=0.9","5c3ce83e9883d400014200a5","686d226cabeef709c732f8e1","686e3129e6ef4534953c73c2","5c3ce83e9883d400014200a5","2025-07-09T09:32:08.386Z","","","","","","StressQ","","","","","","","","","","","","","","","","","","","","","","","","","","","","","","","","","","","","","","50"
"1854","","<div style=""width:500px;"">
  <p>What best describes how you currently feel?</p>
  </div>","80","html-slider-response","83","1610691","0.0-10.0-4.8","79","1","2025-07-09 09:07:31","7701e855f2ef39aa3fd6c71abdc6918a","92.59.218.179","Mozilla/5.0 (Windows NT 10.0; Win64; x64) AppleWebKit/537.36 (KHTML, like Gecko) Chrome/138.0.0.0 Safari/537.36","WebKit","Chrome","138.0.0.0","Windows","10.0","https://app.prolific.com/","es-ES,es;q=0.9","5c3ce83e9883d400014200a5","686d226cabeef709c732f8e1","686e3129e6ef4534953c73c2","5c3ce83e9883d400014200a5","2025-07-09T09:32:10.242Z","","","","","","MotivationQ","","","","","","","","","","","","","","","","","","","","","","","","","","","","","","","","","","","","","","50"
