"rt","response_timestamp","stimulus","response","trial_type","trial_index","time_elapsed","internal_node_id","run_id","condition","recorded_at","source_code_version","ip","user_agent","device","browser","browser_version","platform","platform_version","referer","accept_language","PROLIFIC_PID","STUDY_ID","SESSION_ID","prolific_id","realtime","view_history","question_order","consent","success","question_id","eventType","responses","item_order","radio_event_ids","radio_event_times","key_event_times","mouse_event_times","straightlining","zigzagging","honeypot","which_type","canvas_config","goals_layout","control_level","trial_number","tutorial_trial_number","trial_start_time","phase1_start_time","phase2_start_time","phase3_start_time","goal_1_value","goal_1_distance","goal_2_value","goal_2_distance","goal_selected","outcome","outcome_total","participant_final_score","participant_initial_score","participant_final_score_prop","goal_choice_rt","allocated_time","allocated_time_remaining","goal_direction","counts","mouse_movements","key_presses","correct","slider_start","sub_question"
"7051","1752051632469","<p style='font-size:40px;line-height:1.25'><strong>Welcome to the experiment!</strong></p><p style='font-size:1.1em;line-height:1.25'>Thank you for your interest in our experiment! Before you begin, it is important that we obtain your informed consent to participate in the study.</p><p style='font-size:1.1em;line-height:1.25'>On the next screen will be an <strong>information sheet</strong> for you to read. To participate in the study we need you to read this information sheet and the following consent form carefully. If you agree with all the statements, please click the <strong>I agree</strong> button.</p><p style='font-size:1.1em;line-height:1.25'>Press <strong>Next</strong> to read the information sheet.</p>","0","custom-html-button-response","0","7053","0.0-0.0","1","1","2025-07-09 09:00:24","7701e855f2ef39aa3fd6c71abdc6918a","176.166.46.124","Mozilla/5.0 (Macintosh; Intel Mac OS X 10_15_7) AppleWebKit/537.36 (KHTML, like Gecko) Chrome/133.0.0.0 Safari/537.36","Macintosh","Chrome","133.0.0.0","OS X","10_15_7","https://app.prolific.com/","fr-FR,fr;q=0.9,en-US;q=0.8,en;q=0.7","6133593ca9cb1c01cc4c8de4","686d226cabeef709c732f8e1","686e2f91df7003a12f469bb3","6133593ca9cb1c01cc4c8de4","2025-07-09T09:00:32.471Z","","","","","","","","","","","","","","","","","","","","","","","","","","","","","","","","","","","","","","","","","","","","",""
"17144","","","","instructions","1","24200","0.0-1.0","1","1","2025-07-09 09:00:24","7701e855f2ef39aa3fd6c71abdc6918a","176.166.46.124","Mozilla/5.0 (Macintosh; Intel Mac OS X 10_15_7) AppleWebKit/537.36 (KHTML, like Gecko) Chrome/133.0.0.0 Safari/537.36","Macintosh","Chrome","133.0.0.0","OS X","10_15_7","https://app.prolific.com/","fr-FR,fr;q=0.9,en-US;q=0.8,en;q=0.7","6133593ca9cb1c01cc4c8de4","686d226cabeef709c732f8e1","686e2f91df7003a12f469bb3","6133593ca9cb1c01cc4c8de4","","[{""page_index"":0,""viewing_time"":13892},{""page_index"":1,""viewing_time"":3251}]","","","","","","","","","","","","","","","","","","","","","","","","","","","","","","","","","","","","","","","","","","","",""
"4032","","","{""Q0"":"""",""Q1"":"""",""Q2"":"""",""Q3"":"""",""Q4"":"""",""Q5"":"""",""Q6"":""I agree""}","survey-multi-choice","2","28237","0.0-2.0","1","1","2025-07-09 09:00:24","7701e855f2ef39aa3fd6c71abdc6918a","176.166.46.124","Mozilla/5.0 (Macintosh; Intel Mac OS X 10_15_7) AppleWebKit/537.36 (KHTML, like Gecko) Chrome/133.0.0.0 Safari/537.36","Macintosh","Chrome","133.0.0.0","OS X","10_15_7","https://app.prolific.com/","fr-FR,fr;q=0.9,en-US;q=0.8,en;q=0.7","6133593ca9cb1c01cc4c8de4","686d226cabeef709c732f8e1","686e2f91df7003a12f469bb3","6133593ca9cb1c01cc4c8de4","","","[0,1,2,3,4,5,6]","true","","","","","","","","","","","","","","","","","","","","","","","","","","","","","","","","","","","","","","","","","",""
"4660","","","","fullscreen","3","33904","0.0-4.0","1","1","2025-07-09 09:00:24","7701e855f2ef39aa3fd6c71abdc6918a","176.166.46.124","Mozilla/5.0 (Macintosh; Intel Mac OS X 10_15_7) AppleWebKit/537.36 (KHTML, like Gecko) Chrome/133.0.0.0 Safari/537.36","Macintosh","Chrome","133.0.0.0","OS X","10_15_7","https://app.prolific.com/","fr-FR,fr;q=0.9,en-US;q=0.8,en;q=0.7","6133593ca9cb1c01cc4c8de4","686d226cabeef709c732f8e1","686e2f91df7003a12f469bb3","6133593ca9cb1c01cc4c8de4","","","","","true","","","","","","","","","","","","","","","","","","","","","","","","","","","","","","","","","","","","","","","","",""
"35411","1752051694734"," <p style='font-size:1.1em;line-height:1.25'>Thank you for completing the consent form and closing all other tabs.</p><p style='font-size:1.1em;line-height:1.25'>We will now invite you to fill in some demographic information and questionnaires, before starting the game.<br>This will take about 5 minutes.<br></p><p style='font-size:1.1em;line-height:1.25'>Press the <strong>Next</strong> button to continue.</p>","0","custom-html-button-response","4","69317","0.0-5.0","1","1","2025-07-09 09:00:24","7701e855f2ef39aa3fd6c71abdc6918a","176.166.46.124","Mozilla/5.0 (Macintosh; Intel Mac OS X 10_15_7) AppleWebKit/537.36 (KHTML, like Gecko) Chrome/133.0.0.0 Safari/537.36","Macintosh","Chrome","133.0.0.0","OS X","10_15_7","https://app.prolific.com/","fr-FR,fr;q=0.9,en-US;q=0.8,en;q=0.7","6133593ca9cb1c01cc4c8de4","686d226cabeef709c732f8e1","686e2f91df7003a12f469bb3","6133593ca9cb1c01cc4c8de4","2025-07-09T09:01:34.736Z","","","","","","","","","","","","","","","","","","","","","","","","","","","","","","","","","","","","","","","","","","","","",""
"3063","","","{""age"":""34""}","survey-text","5","72385","0.0-6.0-0.0","1","1","2025-07-09 09:00:24","7701e855f2ef39aa3fd6c71abdc6918a","176.166.46.124","Mozilla/5.0 (Macintosh; Intel Mac OS X 10_15_7) AppleWebKit/537.36 (KHTML, like Gecko) Chrome/133.0.0.0 Safari/537.36","Macintosh","Chrome","133.0.0.0","OS X","10_15_7","https://app.prolific.com/","fr-FR,fr;q=0.9,en-US;q=0.8,en;q=0.7","6133593ca9cb1c01cc4c8de4","686d226cabeef709c732f8e1","686e2f91df7003a12f469bb3","6133593ca9cb1c01cc4c8de4","","","","","","0","demographics","","","","","","","","","","","","","","","","","","","","","","","","","","","","","","","","","","","","","","",""
"2995","","","{""gender_identity"":""female/woman""}","survey-multi-choice","6","75382","0.0-6.0-1.0","1","1","2025-07-09 09:00:24","7701e855f2ef39aa3fd6c71abdc6918a","176.166.46.124","Mozilla/5.0 (Macintosh; Intel Mac OS X 10_15_7) AppleWebKit/537.36 (KHTML, like Gecko) Chrome/133.0.0.0 Safari/537.36","Macintosh","Chrome","133.0.0.0","OS X","10_15_7","https://app.prolific.com/","fr-FR,fr;q=0.9,en-US;q=0.8,en;q=0.7","6133593ca9cb1c01cc4c8de4","686d226cabeef709c732f8e1","686e2f91df7003a12f469bb3","6133593ca9cb1c01cc4c8de4","","","[0]","","","1","demographics","","","","","","","","","","","","","","","","","","","","","","","","","","","","","","","","","","","","","","",""
"2114","","","{""assigned_sex"":""female""}","survey-multi-choice","7","77498","0.0-6.0-2.0","1","1","2025-07-09 09:00:24","7701e855f2ef39aa3fd6c71abdc6918a","176.166.46.124","Mozilla/5.0 (Macintosh; Intel Mac OS X 10_15_7) AppleWebKit/537.36 (KHTML, like Gecko) Chrome/133.0.0.0 Safari/537.36","Macintosh","Chrome","133.0.0.0","OS X","10_15_7","https://app.prolific.com/","fr-FR,fr;q=0.9,en-US;q=0.8,en;q=0.7","6133593ca9cb1c01cc4c8de4","686d226cabeef709c732f8e1","686e2f91df7003a12f469bb3","6133593ca9cb1c01cc4c8de4","","","[0]","","","2","demographics","","","","","","","","","","","","","","","","","","","","","","","","","","","","","","","","","","","","","","",""
"2983","","","{""menstrual_cycle"":""Yes""}","survey-multi-choice","8","80483","0.0-6.0-3.0","1","1","2025-07-09 09:00:24","7701e855f2ef39aa3fd6c71abdc6918a","176.166.46.124","Mozilla/5.0 (Macintosh; Intel Mac OS X 10_15_7) AppleWebKit/537.36 (KHTML, like Gecko) Chrome/133.0.0.0 Safari/537.36","Macintosh","Chrome","133.0.0.0","OS X","10_15_7","https://app.prolific.com/","fr-FR,fr;q=0.9,en-US;q=0.8,en;q=0.7","6133593ca9cb1c01cc4c8de4","686d226cabeef709c732f8e1","686e2f91df7003a12f469bb3","6133593ca9cb1c01cc4c8de4","","","[0]","","","4","demographics","","","","","","","","","","","","","","","","","","","","","","","","","","","","","","","","","","","","","","",""
"2997","","","{""education"":""Master's Degree (e.g., MSc)""}","survey-multi-choice","9","83482","0.0-6.0-4.0","1","1","2025-07-09 09:00:24","7701e855f2ef39aa3fd6c71abdc6918a","176.166.46.124","Mozilla/5.0 (Macintosh; Intel Mac OS X 10_15_7) AppleWebKit/537.36 (KHTML, like Gecko) Chrome/133.0.0.0 Safari/537.36","Macintosh","Chrome","133.0.0.0","OS X","10_15_7","https://app.prolific.com/","fr-FR,fr;q=0.9,en-US;q=0.8,en;q=0.7","6133593ca9cb1c01cc4c8de4","686d226cabeef709c732f8e1","686e2f91df7003a12f469bb3","6133593ca9cb1c01cc4c8de4","","","[0]","","","5","demographics","","","","","","","","","","","","","","","","","","","","","","","","","","","","","","","","","","","","","","",""
"4999","","","{""education"":""Doctoral Degree (e.g., PhD)""}","survey-multi-choice","10","88482","0.0-6.0-5.0","1","1","2025-07-09 09:00:24","7701e855f2ef39aa3fd6c71abdc6918a","176.166.46.124","Mozilla/5.0 (Macintosh; Intel Mac OS X 10_15_7) AppleWebKit/537.36 (KHTML, like Gecko) Chrome/133.0.0.0 Safari/537.36","Macintosh","Chrome","133.0.0.0","OS X","10_15_7","https://app.prolific.com/","fr-FR,fr;q=0.9,en-US;q=0.8,en;q=0.7","6133593ca9cb1c01cc4c8de4","686d226cabeef709c732f8e1","686e2f91df7003a12f469bb3","6133593ca9cb1c01cc4c8de4","2025-07-09T09:01:53.901Z","","[0]","","","6","demographics","","","","","","","","","","","","","","","","","","","","","","","","","","","","","","","","","","","","","","",""
"10866","","","{""mental_health_condition"":""none"",""mental_health_treatment"":""no"",""psychiatric_medication"":""no""}","survey-text","11","99352","0.0-7.0-0.0","1","1","2025-07-09 09:00:24","7701e855f2ef39aa3fd6c71abdc6918a","176.166.46.124","Mozilla/5.0 (Macintosh; Intel Mac OS X 10_15_7) AppleWebKit/537.36 (KHTML, like Gecko) Chrome/133.0.0.0 Safari/537.36","Macintosh","Chrome","133.0.0.0","OS X","10_15_7","https://app.prolific.com/","fr-FR,fr;q=0.9,en-US;q=0.8,en;q=0.7","6133593ca9cb1c01cc4c8de4","686d226cabeef709c732f8e1","686e2f91df7003a12f469bb3","6133593ca9cb1c01cc4c8de4","2025-07-09T09:02:04.770Z","","","","","1","mental_health","","","","","","","","","","","","","","","","","","","","","","","","","","","","","","","","","","","","","","",""
"5375","","","{""depression_history"":[""Yes""]}","survey-multi-select","12","104733","0.0-7.0-1.0","1","1","2025-07-09 09:00:24","7701e855f2ef39aa3fd6c71abdc6918a","176.166.46.124","Mozilla/5.0 (Macintosh; Intel Mac OS X 10_15_7) AppleWebKit/537.36 (KHTML, like Gecko) Chrome/133.0.0.0 Safari/537.36","Macintosh","Chrome","133.0.0.0","OS X","10_15_7","https://app.prolific.com/","fr-FR,fr;q=0.9,en-US;q=0.8,en;q=0.7","6133593ca9cb1c01cc4c8de4","686d226cabeef709c732f8e1","686e2f91df7003a12f469bb3","6133593ca9cb1c01cc4c8de4","","","[0]","","","","mental_health","","","","","","","","","","","","","","","","","","","","","","","","","","","","","","","","","","","","","","",""
"5614","","","{""depression_episodes"":""1-2"",""depression_recent"":""More than 1 year ago""}","survey-multi-choice","13","110349","0.0-7.0-2.0-0.0","1","1","2025-07-09 09:00:24","7701e855f2ef39aa3fd6c71abdc6918a","176.166.46.124","Mozilla/5.0 (Macintosh; Intel Mac OS X 10_15_7) AppleWebKit/537.36 (KHTML, like Gecko) Chrome/133.0.0.0 Safari/537.36","Macintosh","Chrome","133.0.0.0","OS X","10_15_7","https://app.prolific.com/","fr-FR,fr;q=0.9,en-US;q=0.8,en;q=0.7","6133593ca9cb1c01cc4c8de4","686d226cabeef709c732f8e1","686e2f91df7003a12f469bb3","6133593ca9cb1c01cc4c8de4","2025-07-09T09:02:15.767Z","","[0,1]","","","3","mental_health","","","","","","","","","","","","","","","","","","","","","","","","","","","","","","","","","","","","","","",""
"35130.800000190735","","","","survey-template","14","145486","0.0-7.0-3.0","1","1","2025-07-09 09:00:24","7701e855f2ef39aa3fd6c71abdc6918a","176.166.46.124","Mozilla/5.0 (Macintosh; Intel Mac OS X 10_15_7) AppleWebKit/537.36 (KHTML, like Gecko) Chrome/133.0.0.0 Safari/537.36","Macintosh","Chrome","133.0.0.0","OS X","10_15_7","https://app.prolific.com/","fr-FR,fr;q=0.9,en-US;q=0.8,en;q=0.7","6133593ca9cb1c01cc4c8de4","686d226cabeef709c732f8e1","686e2f91df7003a12f469bb3","6133593ca9cb1c01cc4c8de4","2025-07-09T09:02:50.904Z","","","","","","ius","{""Q01"":""2"",""Q02"":""3"",""Q03"":""3"",""Q04"":""3"",""Q05"":""2"",""Q06"":""1"",""Q07"":""2"",""Q08"":""0"",""Q09"":""3"",""Q10"":""3"",""Q11"":""1"",""Q12"":""3"",""Q13"":""3""}","[0,1,2,3,4,5,6,7,8,9,10,11,12]","[""Q01"",""Q02"",""Q03"",""Q04"",""Q05"",""Q06"",""Q07"",""Q08"",""Q09"",""Q11"",""Q12"",""Q13"",""Q10""]","[5026.900000095367,6544.100000143051,9510.900000095367,10893.300000190735,12993.200000047684,15410.5,17810.5,19811.200000047684,22394.400000095367,25577.300000190735,27793.10000014305,29410.400000095367,34027.40000009537]","[]","[5026.900000095367,6544.100000143051,8444.100000143051,9510.900000095367,10893.300000190735,12993.200000047684,15410.5,17810.5,19811.200000047684,22394.400000095367,23660.300000190735,25577.300000190735,27793.10000014305,29410.400000095367,30044.200000047684,30527.700000047684,33343.800000190735,34027.40000009537,35127.800000190735]","0.5384615384615384","0.3333333333333333","0","","","","","","","","","","","","","","","","","","","","","","","","","","","","","",""
"1726","1752051772632","<p style='font-size:1.1em;line-height:1.25'>In the following, we will ask you a few questions relating to your experiences over the past month.<br></p><p style='font-size:1.1em;line-height:1.25'>Press the <strong>Next</strong> button to continue.</p>","0","custom-html-button-response","15","147215","0.0-7.0-4.0","1","1","2025-07-09 09:00:24","7701e855f2ef39aa3fd6c71abdc6918a","176.166.46.124","Mozilla/5.0 (Macintosh; Intel Mac OS X 10_15_7) AppleWebKit/537.36 (KHTML, like Gecko) Chrome/133.0.0.0 Safari/537.36","Macintosh","Chrome","133.0.0.0","OS X","10_15_7","https://app.prolific.com/","fr-FR,fr;q=0.9,en-US;q=0.8,en;q=0.7","6133593ca9cb1c01cc4c8de4","686d226cabeef709c732f8e1","686e2f91df7003a12f469bb3","6133593ca9cb1c01cc4c8de4","2025-07-09T09:02:52.633Z","","","","","","","","","","","","","","","","","","","","","","","","","","","","","","","","","","","","","","","","","","","","",""
"29581.799999952316","","","","survey-template","16","176800","0.0-7.0-5.0","1","1","2025-07-09 09:00:24","7701e855f2ef39aa3fd6c71abdc6918a","176.166.46.124","Mozilla/5.0 (Macintosh; Intel Mac OS X 10_15_7) AppleWebKit/537.36 (KHTML, like Gecko) Chrome/133.0.0.0 Safari/537.36","Macintosh","Chrome","133.0.0.0","OS X","10_15_7","https://app.prolific.com/","fr-FR,fr;q=0.9,en-US;q=0.8,en;q=0.7","6133593ca9cb1c01cc4c8de4","686d226cabeef709c732f8e1","686e2f91df7003a12f469bb3","6133593ca9cb1c01cc4c8de4","2025-07-09T09:03:22.218Z","","","","","","pss","{""Q01"":""2"",""Q02"":""2"",""Q03"":""3"",""Q04"":""2"",""Q05"":""2"",""Q06"":""1"",""Q07"":""2"",""Q08"":""3"",""Q09"":""0"",""Q10"":""1""}","[0,1,2,3,4,5,6,7,8,9]","[""Q01"",""Q02"",""Q03"",""Q04"",""Q05"",""Q06"",""Q07"",""Q08"",""Q09"",""Q10""]","[4546.700000047684,7030.899999856949,9696.5,12079.599999904633,13996,16846.799999952316,22197,24246.700000047684,25980.200000047684,28763.39999985695]","[]","[0,4546.700000047684,7030.899999856949,9696.5,12079.599999904633,13996,16846.799999952316,22197,24246.700000047684,25980.200000047684,28163.39999985695,28763.39999985695,29579.700000047684]","0.5","0.7777777777777778","0","","","","","","","","","","","","","","","","","","","","","","","","","","","","","",""
"1711","1752051803931","<p style='font-size:1.1em;line-height:1.25'>Thank you for your answers! Now we will ask you a few more questions relating to your feelings in the last 24 hours.<br></p><p style='font-size:1.1em;line-height:1.25'>Press the <strong>Next</strong> button to continue.</p>","0","custom-html-button-response","17","178514","0.0-7.0-6.0","1","1","2025-07-09 09:00:24","7701e855f2ef39aa3fd6c71abdc6918a","176.166.46.124","Mozilla/5.0 (Macintosh; Intel Mac OS X 10_15_7) AppleWebKit/537.36 (KHTML, like Gecko) Chrome/133.0.0.0 Safari/537.36","Macintosh","Chrome","133.0.0.0","OS X","10_15_7","https://app.prolific.com/","fr-FR,fr;q=0.9,en-US;q=0.8,en;q=0.7","6133593ca9cb1c01cc4c8de4","686d226cabeef709c732f8e1","686e2f91df7003a12f469bb3","6133593ca9cb1c01cc4c8de4","2025-07-09T09:03:23.932Z","","","","","","","","","","","","","","","","","","","","","","","","","","","","","","","","","","","","","","","","","","","","",""
"40770.299999952316","","","","survey-template","18","219288","0.0-7.0-7.0","1","1","2025-07-09 09:00:24","7701e855f2ef39aa3fd6c71abdc6918a","176.166.46.124","Mozilla/5.0 (Macintosh; Intel Mac OS X 10_15_7) AppleWebKit/537.36 (KHTML, like Gecko) Chrome/133.0.0.0 Safari/537.36","Macintosh","Chrome","133.0.0.0","OS X","10_15_7","https://app.prolific.com/","fr-FR,fr;q=0.9,en-US;q=0.8,en;q=0.7","6133593ca9cb1c01cc4c8de4","686d226cabeef709c732f8e1","686e2f91df7003a12f469bb3","6133593ca9cb1c01cc4c8de4","2025-07-09T09:04:04.706Z","","","","","","drsp","{""Q01"":""1"",""Q02"":""1"",""Q03"":""1"",""Q04"":""4"",""Q05"":""1"",""Q06"":""1"",""Q07"":""1"",""Q08"":""1"",""Q09"":""1"",""Q10"":""1"",""Q11"":""3"",""Q12"":""2"",""Q13"":""0"",""Q14"":""0"",""Q15"":""1"",""Q16"":""3"",""Q17"":""1"",""Q18"":""0"",""Q19"":""0"",""Q20"":""0"",""Q21"":""0""}","[0,1,2,3,4,5,6,7,8,9,10,11,12,13,14,15,16,17,18,19,20]","[""Q01"",""Q02"",""Q03"",""Q04"",""Q05"",""Q06"",""Q07"",""Q08"",""Q09"",""Q10"",""Q11"",""Q12"",""Q13"",""Q14"",""Q15"",""Q16"",""Q17"",""Q18"",""Q19"",""Q20"",""Q21""]","[3630,5797.599999904633,6713.200000047684,7829.899999856949,9430.599999904633,11780.799999952316,12680.599999904633,13680.599999904633,15230.399999856949,16063,17830.5,18913.799999952316,20646.599999904633,22813.89999985695,25347.099999904633,26980.700000047684,28197.200000047684,30897,34380.5,36897.200000047684,39697.299999952316]","[]","[0.09999990463256836,3630,4314.200000047684,5213.200000047684,5797.599999904633,6713.200000047684,7829.899999856949,9430.599999904633,11780.799999952316,12680.599999904633,13680.599999904633,15230.399999856949,16063,17830.5,18913.799999952316,20646.599999904633,22813.89999985695,25347.099999904633,26980.700000047684,28197.200000047684,30897,34380.5,36197.799999952316,36897.200000047684,38429.89999985695,39097.59999990463,39697.299999952316,40764.299999952316]","0.5238095238095238","0.15","0","","","","","","","","","","","","","","","","","","","","","","","","","","","","","",""
"7841.199999809265","","","","survey-template","19","227132","0.0-7.0-8.0","1","1","2025-07-09 09:00:24","7701e855f2ef39aa3fd6c71abdc6918a","176.166.46.124","Mozilla/5.0 (Macintosh; Intel Mac OS X 10_15_7) AppleWebKit/537.36 (KHTML, like Gecko) Chrome/133.0.0.0 Safari/537.36","Macintosh","Chrome","133.0.0.0","OS X","10_15_7","https://app.prolific.com/","fr-FR,fr;q=0.9,en-US;q=0.8,en;q=0.7","6133593ca9cb1c01cc4c8de4","686d226cabeef709c732f8e1","686e2f91df7003a12f469bb3","6133593ca9cb1c01cc4c8de4","2025-07-09T09:04:12.550Z","","","","","","stress","{""Q01"":""3"",""Q02"":""3"",""Q03"":""1""}","[0,1,2]","[""Q01"",""Q02"",""Q03""]","[3473,5323.199999809265,6955.599999904633]","[]","[3473,5323.199999809265,6955.599999904633,7839.699999809265]","0.3333333333333333","1","0","","","","","","","","","","","","","","","","","","","","","","","","","","","","","",""
"100881","","","","instructions","20","328013","0.0-8.0-0.0","1","1","2025-07-09 09:00:24","7701e855f2ef39aa3fd6c71abdc6918a","176.166.46.124","Mozilla/5.0 (Macintosh; Intel Mac OS X 10_15_7) AppleWebKit/537.36 (KHTML, like Gecko) Chrome/133.0.0.0 Safari/537.36","Macintosh","Chrome","133.0.0.0","OS X","10_15_7","https://app.prolific.com/","fr-FR,fr;q=0.9,en-US;q=0.8,en;q=0.7","6133593ca9cb1c01cc4c8de4","686d226cabeef709c732f8e1","686e2f91df7003a12f469bb3","6133593ca9cb1c01cc4c8de4","","[{""page_index"":0,""viewing_time"":70380},{""page_index"":1,""viewing_time"":12683},{""page_index"":2,""viewing_time"":8334},{""page_index"":3,""viewing_time"":9483}]","","","","","","","","","","","","","","","","","","","","","","","","","","","","","","","","","","","","","","","","","","","",""
"","","","","ctl-task-cpt","21","360679","0.0-8.0-1.0","1","1","2025-07-09 09:00:24","7701e855f2ef39aa3fd6c71abdc6918a","176.166.46.124","Mozilla/5.0 (Macintosh; Intel Mac OS X 10_15_7) AppleWebKit/537.36 (KHTML, like Gecko) Chrome/133.0.0.0 Safari/537.36","Macintosh","Chrome","133.0.0.0","OS X","10_15_7","https://app.prolific.com/","fr-FR,fr;q=0.9,en-US;q=0.8,en;q=0.7","6133593ca9cb1c01cc4c8de4","686d226cabeef709c732f8e1","686e2f91df7003a12f469bb3","6133593ca9cb1c01cc4c8de4","","","","","","","","","","","","","","","","","win-only","0","g1:NW,g2:SE","1","0","1","328852.1","2595.5","6597.2","29653.6","2","4","4","6","2","4","2","2","0","0.015151515151515152","2466","4000","1645","[""down"",""right""]","{""num_key_presses"":9,""num_perfect"":6,""num_errors"":2,""num_randdir"":0,""num_randdir_good_moves"":0,""num_whilered"":1,""num_whileblue"":0,""num_blue"":0,""num_good_moves"":6}","[700.2857142857143,694.0825892857143,0.3,700.2857142857143,694.0825892857143,615.4,700.2857142857143,694.0825892857143,720.2,700.2857142857143,694.0825892857143,821,700.2857142857143,694.0825892857143,921.3,700.2857142857143,694.0825892857143,1025.3,700.2857142857143,694.0825892857143,1125.5,700.2857142857143,694.0825892857143,1226.5,700.2857142857143,694.0825892857143,1331.2,700.2857142857143,694.0825892857143,1435.7,700.2857142857143,694.0825892857143,1541,700.2857142857143,692.0825892857143,1645.8,730.2857142857143,726.0825892857143,1745.8,1158.2857142857142,1152.0825892857142,1850.8,1158.2857142857142,1152.0825892857142,1955.9,1158.2857142857142,1152.0825892857142,2056.1,1200.2857142857142,1210.0825892857142,2161.2,1242.2857142857142,1244.0825892857142,2265.6,1250.2857142857142,1246.0825892857142,2365.9,1250.2857142857142,1246.0825892857142,2466.9,1250.2857142857142,1246.0825892857142,2570.7,1250.2857142857142,1246.0825892857142,2676,1250.2857142857142,1246.0825892857142,2776.2,1250.2857142857142,1246.0825892857142,2876.9,1250.2857142857142,1246.0825892857142,2981.7,1250.2857142857142,1246.0825892857142,3085.4,1250.2857142857142,1246.0825892857142,3185.8,1250.2857142857142,1246.0825892857142,3290.5,1250.2857142857142,1246.0825892857142,3396.7,1250.2857142857142,1246.0825892857142,3500.1,1250.2857142857142,1246.0825892857142,3606.3,1250.2857142857142,1246.0825892857142,3710.7,1250.2857142857142,1246.0825892857142,3811,1250.2857142857142,1246.0825892857142,3911.2]","[370.9,370.9,1000,0,-629.1,""error"",""-"",""-"",""no_move"",4715.9,4344.8,2931.2,1374.5,410.3,""smooth"",""down"",""down"",""good_move"",5155.3,438.9,3060.9,4716.4,-2622,""error"",""-"",""-"",""no_move"",5401.2,245.7,3060.9,4716.4,-2376.1,""while_red"",""-"",""-"",""no_move"",9298.4,4142.9,2760.5,6159.7,378.2,""smooth"",""down"",""down"",""good_move"",12612.9,3314.4,2938.1,9298.6,376.2,""smooth"",""right"",""right"",""good_move"",16215.3,3602.2,3235.2,12613.1,367,""smooth"",""right"",""right"",""good_move"",19483.3,3267.7,2710.5,16215.6,557.2,""smooth"",""down"",""down"",""good_move"",22965.7,3482.2,3188.6,19483.5,293.6,""smooth"",""right"",""right"",""good_move""]","","",""
"5899","","","","instructions","22","366579","0.0-8.0-2.0","1","1","2025-07-09 09:00:24","7701e855f2ef39aa3fd6c71abdc6918a","176.166.46.124","Mozilla/5.0 (Macintosh; Intel Mac OS X 10_15_7) AppleWebKit/537.36 (KHTML, like Gecko) Chrome/133.0.0.0 Safari/537.36","Macintosh","Chrome","133.0.0.0","OS X","10_15_7","https://app.prolific.com/","fr-FR,fr;q=0.9,en-US;q=0.8,en;q=0.7","6133593ca9cb1c01cc4c8de4","686d226cabeef709c732f8e1","686e2f91df7003a12f469bb3","6133593ca9cb1c01cc4c8de4","","[{""page_index"":0,""viewing_time"":5899}]","","","","","","","","","","","","","","","","","","","","","","","","","","","","","","","","","","","","","","","","","","","",""
"","","","","ctl-task-cpt","23","407066","0.0-8.0-3.0","1","1","2025-07-09 09:00:24","7701e855f2ef39aa3fd6c71abdc6918a","176.166.46.124","Mozilla/5.0 (Macintosh; Intel Mac OS X 10_15_7) AppleWebKit/537.36 (KHTML, like Gecko) Chrome/133.0.0.0 Safari/537.36","Macintosh","Chrome","133.0.0.0","OS X","10_15_7","https://app.prolific.com/","fr-FR,fr;q=0.9,en-US;q=0.8,en;q=0.7","6133593ca9cb1c01cc4c8de4","686d226cabeef709c732f8e1","686e2f91df7003a12f469bb3","6133593ca9cb1c01cc4c8de4","","","","","","","","","","","","","","","","","win-only","0","g1:NW,g2:SE","0.35","0","3","367413","2185.1","6186.2","37477.4","2","4","8","6","2","-8","-8","0","0","0","1481.6","4000","-3010","[""down"",""right""]","{""num_key_presses"":8,""num_perfect"":4,""num_errors"":0,""num_randdir"":4,""num_randdir_good_moves"":2,""num_whilered"":0,""num_whileblue"":0,""num_blue"":2,""num_good_moves"":6}","[702.2857142857143,712.0825892857143,0.1,702.2857142857143,712.0825892857143,100.5,702.2857142857143,712.0825892857143,201.7,702.2857142857143,712.0825892857143,301.7,702.2857142857143,712.0825892857143,407,702.2857142857143,712.0825892857143,511.8,702.2857142857143,712.0825892857143,616.5,748.2857142857143,760.0825892857143,720.3,1140.2857142857142,1262.0825892857142,820.3,1140.2857142857142,1262.0825892857142,920.4,1140.2857142857142,1262.0825892857142,1020.7,1176.2857142857142,1260.0825892857142,1126,1262.2857142857142,1278.0825892857142,1226.2,1268.2857142857142,1276.0825892857142,1330.2,1268.2857142857142,1276.0825892857142,1430.9,1268.2857142857142,1276.0825892857142,1532.5,1268.2857142857142,1276.0825892857142,1635.3,1268.2857142857142,1276.0825892857142,1736.3,1268.2857142857142,1276.0825892857142,1840.3,1268.2857142857142,1276.0825892857142,1940.6,1268.2857142857142,1276.0825892857142,2041.3,1268.2857142857142,1276.0825892857142,2145.3,1268.2857142857142,1276.0825892857142,2246.8,1268.2857142857142,1276.0825892857142,2348.4,1268.2857142857142,1276.0825892857142,2451,1268.2857142857142,1276.0825892857142,2551.1,1268.2857142857142,1276.0825892857142,2656.5,1268.2857142857142,1276.0825892857142,2760.7,1268.2857142857142,1276.0825892857142,2861,1268.2857142857142,1276.0825892857142,2961.4,1268.2857142857142,1276.0825892857142,3062.3,1268.2857142857142,1276.0825892857142,3168.9,1268.2857142857142,1276.0825892857142,3270.4,1268.2857142857142,1276.0825892857142,3371,1268.2857142857142,1276.0825892857142,3471.9,1268.2857142857142,1276.0825892857142,3575.7,1268.2857142857142,1276.0825892857142,3676.4,1268.2857142857142,1276.0825892857142,3776.9,1268.2857142857142,1276.0825892857142,3881.3,1268.2857142857142,1276.0825892857142,3982.5]","[1452.4,1452.4,1000,0,452.4,""oops"",""down"",""right"",""good_move"",5164.9,3712.2,3233.1,1452.7,479.1,""smooth"",""down"",""down"",""good_move"",11266.2,6101.1,2535.4,8119.3,611.5,""oops"",""right"",""right"",""good_move"",14264.6,2998.2,2396,11266.4,602.2,""smooth"",""right"",""right"",""good_move"",16480.4,2215.7,1843.6,14264.7,372.1,""oops"",""down"",""left"",""bad_move"",19510.9,3030.4,2581,16480.5,449.4,""smooth"",""right"",""right"",""good_move"",22599.6,3088.5,2660.8,19511.1,427.7,""oops"",""down"",""left"",""bad_move"",29052,6452.2,2642.1,26025.8,384.1,""smooth"",""down"",""down"",""good_move""]","","",""
"25545","","","","instructions","24","432610","0.0-8.0-4.0","1","1","2025-07-09 09:00:24","7701e855f2ef39aa3fd6c71abdc6918a","176.166.46.124","Mozilla/5.0 (Macintosh; Intel Mac OS X 10_15_7) AppleWebKit/537.36 (KHTML, like Gecko) Chrome/133.0.0.0 Safari/537.36","Macintosh","Chrome","133.0.0.0","OS X","10_15_7","https://app.prolific.com/","fr-FR,fr;q=0.9,en-US;q=0.8,en;q=0.7","6133593ca9cb1c01cc4c8de4","686d226cabeef709c732f8e1","686e2f91df7003a12f469bb3","6133593ca9cb1c01cc4c8de4","","[{""page_index"":0,""viewing_time"":14260},{""page_index"":1,""viewing_time"":11284}]","","","","","","","","","","","","","","","","","","","","","","","","","","","","","","","","","","","","","","","","","","","",""
"7831","","","{""green_ball"":[""Ball sometimes shakes and moves in a random direction""]}","survey-multi-select","25","440444","0.0-8.0-5.0-0.0","1","1","2025-07-09 09:00:24","7701e855f2ef39aa3fd6c71abdc6918a","176.166.46.124","Mozilla/5.0 (Macintosh; Intel Mac OS X 10_15_7) AppleWebKit/537.36 (KHTML, like Gecko) Chrome/133.0.0.0 Safari/537.36","Macintosh","Chrome","133.0.0.0","OS X","10_15_7","https://app.prolific.com/","fr-FR,fr;q=0.9,en-US;q=0.8,en;q=0.7","6133593ca9cb1c01cc4c8de4","686d226cabeef709c732f8e1","686e2f91df7003a12f469bb3","6133593ca9cb1c01cc4c8de4","","","[0]","","","","quiz","","","","","","","","","","","","","","","","","","","","","","","","","","","","","","","","","","","","","true","",""
"2212","","<p align='center'><b>CORRECT!</b> Indeed, the green ball may sometimes shake and move in a random direction.</p>","0","html-button-response","26","442659","0.0-8.0-5.0-1.0","1","1","2025-07-09 09:00:24","7701e855f2ef39aa3fd6c71abdc6918a","176.166.46.124","Mozilla/5.0 (Macintosh; Intel Mac OS X 10_15_7) AppleWebKit/537.36 (KHTML, like Gecko) Chrome/133.0.0.0 Safari/537.36","Macintosh","Chrome","133.0.0.0","OS X","10_15_7","https://app.prolific.com/","fr-FR,fr;q=0.9,en-US;q=0.8,en;q=0.7","6133593ca9cb1c01cc4c8de4","686d226cabeef709c732f8e1","686e2f91df7003a12f469bb3","6133593ca9cb1c01cc4c8de4","","","","","","","","","","","","","","","","","","","","","","","","","","","","","","","","","","","","","","","","","","","","","",""
"3533","","","{""yellow_ball"":[""Ball doesn‘t move and I get -1 penalty point""]}","survey-multi-select","27","446192","0.0-8.0-6.0-0.0","1","1","2025-07-09 09:00:24","7701e855f2ef39aa3fd6c71abdc6918a","176.166.46.124","Mozilla/5.0 (Macintosh; Intel Mac OS X 10_15_7) AppleWebKit/537.36 (KHTML, like Gecko) Chrome/133.0.0.0 Safari/537.36","Macintosh","Chrome","133.0.0.0","OS X","10_15_7","https://app.prolific.com/","fr-FR,fr;q=0.9,en-US;q=0.8,en;q=0.7","6133593ca9cb1c01cc4c8de4","686d226cabeef709c732f8e1","686e2f91df7003a12f469bb3","6133593ca9cb1c01cc4c8de4","","","[0]","","","","quiz","","","","","","","","","","","","","","","","","","","","","","","","","","","","","","","","","","","","","true","",""
"1116","","<p align='center'><b>CORRECT!</b> Indeed, the yellow ball never moves and you receive a penalty.</p>","0","html-button-response","28","447309","0.0-8.0-6.0-1.0","1","1","2025-07-09 09:00:24","7701e855f2ef39aa3fd6c71abdc6918a","176.166.46.124","Mozilla/5.0 (Macintosh; Intel Mac OS X 10_15_7) AppleWebKit/537.36 (KHTML, like Gecko) Chrome/133.0.0.0 Safari/537.36","Macintosh","Chrome","133.0.0.0","OS X","10_15_7","https://app.prolific.com/","fr-FR,fr;q=0.9,en-US;q=0.8,en;q=0.7","6133593ca9cb1c01cc4c8de4","686d226cabeef709c732f8e1","686e2f91df7003a12f469bb3","6133593ca9cb1c01cc4c8de4","","","","","","","","","","","","","","","","","","","","","","","","","","","","","","","","","","","","","","","","","","","","","",""
"7016","","","{""blue_ball"":[""Ball always shakes and moves in a random direction""]}","survey-multi-select","29","454326","0.0-8.0-7.0-0.0","1","1","2025-07-09 09:00:24","7701e855f2ef39aa3fd6c71abdc6918a","176.166.46.124","Mozilla/5.0 (Macintosh; Intel Mac OS X 10_15_7) AppleWebKit/537.36 (KHTML, like Gecko) Chrome/133.0.0.0 Safari/537.36","Macintosh","Chrome","133.0.0.0","OS X","10_15_7","https://app.prolific.com/","fr-FR,fr;q=0.9,en-US;q=0.8,en;q=0.7","6133593ca9cb1c01cc4c8de4","686d226cabeef709c732f8e1","686e2f91df7003a12f469bb3","6133593ca9cb1c01cc4c8de4","","","[0]","","","","quiz","","","","","","","","","","","","","","","","","","","","","","","","","","","","","","","","","","","","","true","",""
"1149","","<p align='center'><b>CORRECT!</b> Indeed, the blue ball always shakes and moves in a random direction. Also there is a penalty of -1 point.</p>","0","html-button-response","30","455476","0.0-8.0-7.0-1.0","1","1","2025-07-09 09:00:24","7701e855f2ef39aa3fd6c71abdc6918a","176.166.46.124","Mozilla/5.0 (Macintosh; Intel Mac OS X 10_15_7) AppleWebKit/537.36 (KHTML, like Gecko) Chrome/133.0.0.0 Safari/537.36","Macintosh","Chrome","133.0.0.0","OS X","10_15_7","https://app.prolific.com/","fr-FR,fr;q=0.9,en-US;q=0.8,en;q=0.7","6133593ca9cb1c01cc4c8de4","686d226cabeef709c732f8e1","686e2f91df7003a12f469bb3","6133593ca9cb1c01cc4c8de4","","","","","","","","","","","","","","","","","","","","","","","","","","","","","","","","","","","","","","","","","","","","","",""
"2967","","","{""bonus"":[""When I reach 50% of points""]}","survey-multi-select","31","458443","0.0-8.0-8.0-0.0","1","1","2025-07-09 09:00:24","7701e855f2ef39aa3fd6c71abdc6918a","176.166.46.124","Mozilla/5.0 (Macintosh; Intel Mac OS X 10_15_7) AppleWebKit/537.36 (KHTML, like Gecko) Chrome/133.0.0.0 Safari/537.36","Macintosh","Chrome","133.0.0.0","OS X","10_15_7","https://app.prolific.com/","fr-FR,fr;q=0.9,en-US;q=0.8,en;q=0.7","6133593ca9cb1c01cc4c8de4","686d226cabeef709c732f8e1","686e2f91df7003a12f469bb3","6133593ca9cb1c01cc4c8de4","","","[0]","","","","quiz","","","","","","","","","","","","","","","","","","","","","","","","","","","","","","","","","","","","","true","",""
"1099","","<p align='center'><b>CORRECT!</b> Indeed, you receive 2 pounds extra when you reach 50% of points.</p>","0","html-button-response","32","459543","0.0-8.0-8.0-1.0","1","1","2025-07-09 09:00:24","7701e855f2ef39aa3fd6c71abdc6918a","176.166.46.124","Mozilla/5.0 (Macintosh; Intel Mac OS X 10_15_7) AppleWebKit/537.36 (KHTML, like Gecko) Chrome/133.0.0.0 Safari/537.36","Macintosh","Chrome","133.0.0.0","OS X","10_15_7","https://app.prolific.com/","fr-FR,fr;q=0.9,en-US;q=0.8,en;q=0.7","6133593ca9cb1c01cc4c8de4","686d226cabeef709c732f8e1","686e2f91df7003a12f469bb3","6133593ca9cb1c01cc4c8de4","","","","","","","","","","","","","","","","","","","","","","","","","","","","","","","","","","","","","","","","","","","","","",""
"1817","","","","instructions","33","461360","0.0-8.0-9.0","1","1","2025-07-09 09:00:24","7701e855f2ef39aa3fd6c71abdc6918a","176.166.46.124","Mozilla/5.0 (Macintosh; Intel Mac OS X 10_15_7) AppleWebKit/537.36 (KHTML, like Gecko) Chrome/133.0.0.0 Safari/537.36","Macintosh","Chrome","133.0.0.0","OS X","10_15_7","https://app.prolific.com/","fr-FR,fr;q=0.9,en-US;q=0.8,en;q=0.7","6133593ca9cb1c01cc4c8de4","686d226cabeef709c732f8e1","686e2f91df7003a12f469bb3","6133593ca9cb1c01cc4c8de4","","[{""page_index"":0,""viewing_time"":1816}]","","","","","","","","","","","","","","","","","","","","","","","","","","","","","","","","","","","","","","","","","","","",""
"6978","","<p>Before you start with this game please answer the following three questions yourself. </p>
  <p>Through this game, we measure several aspects of your cognitive performance, such as reaction times, multi-tasking capabilities </p>
  <p>and the ability to assess the situation you are in.</p>
  <p></p>
  <p><b>How good do you usually are in such tasks?</b></p>","34","html-slider-response","34","468342","0.0-9.0-0.0","1","1","2025-07-09 09:00:24","7701e855f2ef39aa3fd6c71abdc6918a","176.166.46.124","Mozilla/5.0 (Macintosh; Intel Mac OS X 10_15_7) AppleWebKit/537.36 (KHTML, like Gecko) Chrome/133.0.0.0 Safari/537.36","Macintosh","Chrome","133.0.0.0","OS X","10_15_7","https://app.prolific.com/","fr-FR,fr;q=0.9,en-US;q=0.8,en;q=0.7","6133593ca9cb1c01cc4c8de4","686d226cabeef709c732f8e1","686e2f91df7003a12f469bb3","6133593ca9cb1c01cc4c8de4","2025-07-09T09:08:13.760Z","","","","","","PreSkillQ","","","","","","","","","","","","","","","","","","","","","","","","","","","","","","","","","","","","","","50",""
"2368","","<div style=""width:500px;"">
  <p>How well do you think you will perform in this task compared to other participants?</p>
  </div>","27","html-slider-response","35","470710","0.0-9.0-1.0","1","1","2025-07-09 09:00:24","7701e855f2ef39aa3fd6c71abdc6918a","176.166.46.124","Mozilla/5.0 (Macintosh; Intel Mac OS X 10_15_7) AppleWebKit/537.36 (KHTML, like Gecko) Chrome/133.0.0.0 Safari/537.36","Macintosh","Chrome","133.0.0.0","OS X","10_15_7","https://app.prolific.com/","fr-FR,fr;q=0.9,en-US;q=0.8,en;q=0.7","6133593ca9cb1c01cc4c8de4","686d226cabeef709c732f8e1","686e2f91df7003a12f469bb3","6133593ca9cb1c01cc4c8de4","2025-07-09T09:08:16.128Z","","","","","","PrePerfQ","","","","","","","","","","","","","","","","","","","","","","","","","","","","","","","","","","","","","","50",""
"3664","","<div style=""width:500px;"">
  <p>What best describes how you currently feel?</p>
  </div>","20","html-slider-response","36","474375","0.0-9.0-2.0","1","1","2025-07-09 09:00:24","7701e855f2ef39aa3fd6c71abdc6918a","176.166.46.124","Mozilla/5.0 (Macintosh; Intel Mac OS X 10_15_7) AppleWebKit/537.36 (KHTML, like Gecko) Chrome/133.0.0.0 Safari/537.36","Macintosh","Chrome","133.0.0.0","OS X","10_15_7","https://app.prolific.com/","fr-FR,fr;q=0.9,en-US;q=0.8,en;q=0.7","6133593ca9cb1c01cc4c8de4","686d226cabeef709c732f8e1","686e2f91df7003a12f469bb3","6133593ca9cb1c01cc4c8de4","2025-07-09T09:08:19.793Z","","","","","","PreMotivationQ","","","","","","","","","","","","","","","","","","","","","","","","","","","","","","","","","","","","","","50",""
"","","","","ctl-task-cpt","37","507190","0.0-10.0-0.0","1","1","2025-07-09 09:00:24","7701e855f2ef39aa3fd6c71abdc6918a","176.166.46.124","Mozilla/5.0 (Macintosh; Intel Mac OS X 10_15_7) AppleWebKit/537.36 (KHTML, like Gecko) Chrome/133.0.0.0 Safari/537.36","Macintosh","Chrome","133.0.0.0","OS X","10_15_7","https://app.prolific.com/","fr-FR,fr;q=0.9,en-US;q=0.8,en;q=0.7","6133593ca9cb1c01cc4c8de4","686d226cabeef709c732f8e1","686e2f91df7003a12f469bb3","6133593ca9cb1c01cc4c8de4","2025-07-09T09:08:52.608Z","","","","","","","","","","","","","","","","win-only","0","g1:NW,g2:SE","1","1","0","475211.8","1099.7","6101.3","29810.7","1","4","4","6","2","4","4","4","0","0.030303030303030304","998.3","3000","610","[""down"",""right""]","{""num_key_presses"":6,""num_perfect"":6,""num_errors"":0,""num_randdir"":0,""num_randdir_good_moves"":0,""num_whilered"":0,""num_whileblue"":0,""num_blue"":2,""num_good_moves"":6}","[698.2857142857143,682.0825892857143,0.3,698.2857142857143,682.0825892857143,101.2,698.2857142857143,682.0825892857143,201.2,698.2857142857143,682.0825892857143,301.5,700.2857142857143,682.0825892857143,406,928.2857142857143,948.0825892857143,510.8,1046.2857142857142,1190.0825892857142,611.1,1046.2857142857142,1190.0825892857142,715.8,1102.2857142857142,1214.0825892857142,816.2,1222.2857142857142,1240.0825892857142,916.4,1232.2857142857142,1248.0825892857142,1022.8,1232.2857142857142,1248.0825892857142,1126.3,1232.2857142857142,1248.0825892857142,1227.8,1232.2857142857142,1248.0825892857142,1330.9,1232.2857142857142,1248.0825892857142,1431.4,1232.2857142857142,1248.0825892857142,1535.9,1232.2857142857142,1248.0825892857142,1641.4,1232.2857142857142,1248.0825892857142,1741.9,1232.2857142857142,1248.0825892857142,1846.5,1232.2857142857142,1248.0825892857142,1946.9,1232.2857142857142,1248.0825892857142,2051,1232.2857142857142,1248.0825892857142,2153.3,1232.2857142857142,1248.0825892857142,2256.2,1232.2857142857142,1248.0825892857142,2356.8,1232.2857142857142,1248.0825892857142,2461.4,1232.2857142857142,1248.0825892857142,2566.6,1232.2857142857142,1248.0825892857142,2670.6,1232.2857142857142,1248.0825892857142,2771.4,1232.2857142857142,1248.0825892857142,2871.4,1232.2857142857142,1248.0825892857142,2973.7,1232.2857142857142,1248.0825892857142,3075.8,1232.2857142857142,1248.0825892857142,3176.9,1232.2857142857142,1248.0825892857142,3281,1232.2857142857142,1248.0825892857142,3381.6,1232.2857142857142,1248.0825892857142,3481.9,1232.2857142857142,1248.0825892857142,3587.4,1232.2857142857142,1248.0825892857142,3691.7,1232.2857142857142,1248.0825892857142,3792.5,1232.2857142857142,1248.0825892857142,3896.8,1232.2857142857142,1248.0825892857142,4003.2,1232.2857142857142,1248.0825892857142,4106.7,1232.2857142857142,1248.0825892857142,4207.1,1232.2857142857142,1248.0825892857142,4310.6,1232.2857142857142,1248.0825892857142,4411.1,1232.2857142857142,1248.0825892857142,4511.1,1232.2857142857142,1248.0825892857142,4616.1,1232.2857142857142,1248.0825892857142,4716.6,1232.2857142857142,1248.0825892857142,4821.4,1232.2857142857142,1248.0825892857142,4926.4]","[1485.6,1485.6,1000,0,485.6,""smooth"",""right"",""right"",""good_move"",4272.3,2786.4,2367.2,1485.9,419.2,""smooth"",""down"",""down"",""good_move"",6475.4,2202.9,1842.9,4272.5,360,""smooth"",""down"",""down"",""good_move"",13372.5,6897,2990.3,9979.8,402.4,""smooth"",""down"",""down"",""good_move"",16385.8,3013,2714.9,13372.8,298.1,""smooth"",""right"",""right"",""good_move"",23621.9,7235.9,3408.2,19754.9,458.9,""smooth"",""right"",""right"",""good_move""]","","",""
"5517","","<div style=""width:500px;"">
  <p>What determined the result of this run?</p>
  </div>","66","html-slider-response","38","512708","0.0-10.0-1.0","1","1","2025-07-09 09:00:24","7701e855f2ef39aa3fd6c71abdc6918a","176.166.46.124","Mozilla/5.0 (Macintosh; Intel Mac OS X 10_15_7) AppleWebKit/537.36 (KHTML, like Gecko) Chrome/133.0.0.0 Safari/537.36","Macintosh","Chrome","133.0.0.0","OS X","10_15_7","https://app.prolific.com/","fr-FR,fr;q=0.9,en-US;q=0.8,en;q=0.7","6133593ca9cb1c01cc4c8de4","686d226cabeef709c732f8e1","686e2f91df7003a12f469bb3","6133593ca9cb1c01cc4c8de4","2025-07-09T09:08:58.126Z","","","","","","AttribQ","","","","","","","","","","","","","","","","","","","","","","","","","","","","","","","","","","","","","","50",""
"4383","","<div style=""width:500px;"">
  <p>How much control did you have over the ball?</p>
  </div>","86","html-slider-response","39","517091","0.0-10.0-2.0","1","1","2025-07-09 09:00:24","7701e855f2ef39aa3fd6c71abdc6918a","176.166.46.124","Mozilla/5.0 (Macintosh; Intel Mac OS X 10_15_7) AppleWebKit/537.36 (KHTML, like Gecko) Chrome/133.0.0.0 Safari/537.36","Macintosh","Chrome","133.0.0.0","OS X","10_15_7","https://app.prolific.com/","fr-FR,fr;q=0.9,en-US;q=0.8,en;q=0.7","6133593ca9cb1c01cc4c8de4","686d226cabeef709c732f8e1","686e2f91df7003a12f469bb3","6133593ca9cb1c01cc4c8de4","2025-07-09T09:09:02.509Z","","","","","","ControlQ","","","","","","","","","","","","","","","","","","","","","","","","","","","","","","","","","","","","","","50",""
"3832","","<div style=""width:500px;"">
  <p>How would you describe your current emotional state?</p>
  </div>","43","html-slider-response","40","520924","0.0-10.0-3.0","1","1","2025-07-09 09:00:24","7701e855f2ef39aa3fd6c71abdc6918a","176.166.46.124","Mozilla/5.0 (Macintosh; Intel Mac OS X 10_15_7) AppleWebKit/537.36 (KHTML, like Gecko) Chrome/133.0.0.0 Safari/537.36","Macintosh","Chrome","133.0.0.0","OS X","10_15_7","https://app.prolific.com/","fr-FR,fr;q=0.9,en-US;q=0.8,en;q=0.7","6133593ca9cb1c01cc4c8de4","686d226cabeef709c732f8e1","686e2f91df7003a12f469bb3","6133593ca9cb1c01cc4c8de4","2025-07-09T09:09:06.342Z","","","","","","StressQ","","","","","","","","","","","","","","","","","","","","","","","","","","","","","","","","","","","","","","50",""
"2133","","<div style=""width:500px;"">
  <p>What best describes how you currently feel?</p>
  </div>","38","html-slider-response","41","523058","0.0-10.0-4.0","1","1","2025-07-09 09:00:24","7701e855f2ef39aa3fd6c71abdc6918a","176.166.46.124","Mozilla/5.0 (Macintosh; Intel Mac OS X 10_15_7) AppleWebKit/537.36 (KHTML, like Gecko) Chrome/133.0.0.0 Safari/537.36","Macintosh","Chrome","133.0.0.0","OS X","10_15_7","https://app.prolific.com/","fr-FR,fr;q=0.9,en-US;q=0.8,en;q=0.7","6133593ca9cb1c01cc4c8de4","686d226cabeef709c732f8e1","686e2f91df7003a12f469bb3","6133593ca9cb1c01cc4c8de4","2025-07-09T09:09:08.476Z","","","","","","MotivationQ","","","","","","","","","","","","","","","","","","","","","","","","","","","","","","","","","","","","","","50",""
"","","","","ctl-task-cpt","42","557734","0.0-10.0-0.1","1","1","2025-07-09 09:00:24","7701e855f2ef39aa3fd6c71abdc6918a","176.166.46.124","Mozilla/5.0 (Macintosh; Intel Mac OS X 10_15_7) AppleWebKit/537.36 (KHTML, like Gecko) Chrome/133.0.0.0 Safari/537.36","Macintosh","Chrome","133.0.0.0","OS X","10_15_7","https://app.prolific.com/","fr-FR,fr;q=0.9,en-US;q=0.8,en;q=0.7","6133593ca9cb1c01cc4c8de4","686d226cabeef709c732f8e1","686e2f91df7003a12f469bb3","6133593ca9cb1c01cc4c8de4","2025-07-09T09:09:43.153Z","","","","","","","","","","","","","","","","win-only","0","g1:NW,g2:SE","0.9","2","0","523899.2","2762.6","7766.7","31662.1","1","4","8","6","2","8","8","12","4","0.09090909090909091","1820.1","3000","740","[""down"",""right""]","{""num_key_presses"":6,""num_perfect"":6,""num_errors"":0,""num_randdir"":0,""num_randdir_good_moves"":0,""num_whilered"":0,""num_whileblue"":0,""num_blue"":2,""num_good_moves"":6}","[694.2857142857143,692.0825892857143,0.2,692.2857142857143,692.0825892857143,105.9,692.2857142857143,692.0825892857143,208,692.2857142857143,692.0825892857143,313.1,692.2857142857143,692.0825892857143,413.6,692.2857142857143,692.0825892857143,517.8,692.2857142857143,692.0825892857143,618.1,692.2857142857143,692.0825892857143,718.8,692.2857142857143,692.0825892857143,827.8,692.2857142857143,692.0825892857143,928.9,692.2857142857143,692.0825892857143,1034,692.2857142857143,692.0825892857143,1137.7,692.2857142857143,692.0825892857143,1237.7,692.2857142857143,692.0825892857143,1338.4,946.2857142857143,836.0825892857143,1438.5,1278.2857142857142,1164.0825892857142,1538.8,1288.2857142857142,1176.0825892857142,1639.3,1280.2857142857142,1180.0825892857142,1743.1,1270.2857142857142,1188.0825892857142,1844.3,1270.2857142857142,1188.0825892857142,1948.1,1270.2857142857142,1188.0825892857142,2048.3,1270.2857142857142,1188.0825892857142,2148.8,1270.2857142857142,1188.0825892857142,2252.9,1270.2857142857142,1188.0825892857142,2353.2,1270.2857142857142,1188.0825892857142,2454.7,1270.2857142857142,1188.0825892857142,2555.1,1270.2857142857142,1188.0825892857142,2657.7,1270.2857142857142,1188.0825892857142,2758.2,1270.2857142857142,1188.0825892857142,2858.4,1270.2857142857142,1188.0825892857142,2963.1,1270.2857142857142,1188.0825892857142,3070,1270.2857142857142,1188.0825892857142,3171.3,1270.2857142857142,1188.0825892857142,3273.7,1270.2857142857142,1188.0825892857142,3377.8,1270.2857142857142,1188.0825892857142,3478,1270.2857142857142,1188.0825892857142,3578.6,1270.2857142857142,1188.0825892857142,3684.2,1270.2857142857142,1188.0825892857142,3786.6,1270.2857142857142,1188.0825892857142,3888.3,1270.2857142857142,1188.0825892857142,3988.7,1270.2857142857142,1188.0825892857142,4093.6,1270.2857142857142,1188.0825892857142,4198.4,1270.2857142857142,1188.0825892857142,4306.7,1270.2857142857142,1188.0825892857142,4407.7,1270.2857142857142,1188.0825892857142,4507.7,1270.2857142857142,1188.0825892857142,4607.9,1270.2857142857142,1188.0825892857142,4709.4,1270.2857142857142,1188.0825892857142,4814.6,1270.2857142857142,1188.0825892857142,4919.7]","[5036,5036,2661.6,2004.3,370.1,""smooth"",""down"",""down"",""good_move"",8399.2,3362.9,2975.1,5036.3,387.8,""smooth"",""down"",""down"",""good_move"",11237.7,2838.4,2452.3,8399.3,386.1,""smooth"",""down"",""down"",""good_move"",14081.5,2843.8,2487.7,11237.7,356.1,""smooth"",""right"",""right"",""good_move"",20950,6868.4,3041.7,17558.9,349.4,""smooth"",""right"",""right"",""good_move"",23804.6,2854.6,2396.3,20950,458.3,""smooth"",""right"",""right"",""good_move""]","","",""
"21321","","<div style=""width:500px;"">
  <p>What determined the result of this run?</p>
  </div>","57","html-slider-response","43","579057","0.0-10.0-1.1","1","1","2025-07-09 09:00:24","7701e855f2ef39aa3fd6c71abdc6918a","176.166.46.124","Mozilla/5.0 (Macintosh; Intel Mac OS X 10_15_7) AppleWebKit/537.36 (KHTML, like Gecko) Chrome/133.0.0.0 Safari/537.36","Macintosh","Chrome","133.0.0.0","OS X","10_15_7","https://app.prolific.com/","fr-FR,fr;q=0.9,en-US;q=0.8,en;q=0.7","6133593ca9cb1c01cc4c8de4","686d226cabeef709c732f8e1","686e2f91df7003a12f469bb3","6133593ca9cb1c01cc4c8de4","2025-07-09T09:10:04.475Z","","","","","","AttribQ","","","","","","","","","","","","","","","","","","","","","","","","","","","","","","","","","","","","","","50",""
"2049","","<div style=""width:500px;"">
  <p>How much control did you have over the ball?</p>
  </div>","84","html-slider-response","44","581107","0.0-10.0-2.1","1","1","2025-07-09 09:00:24","7701e855f2ef39aa3fd6c71abdc6918a","176.166.46.124","Mozilla/5.0 (Macintosh; Intel Mac OS X 10_15_7) AppleWebKit/537.36 (KHTML, like Gecko) Chrome/133.0.0.0 Safari/537.36","Macintosh","Chrome","133.0.0.0","OS X","10_15_7","https://app.prolific.com/","fr-FR,fr;q=0.9,en-US;q=0.8,en;q=0.7","6133593ca9cb1c01cc4c8de4","686d226cabeef709c732f8e1","686e2f91df7003a12f469bb3","6133593ca9cb1c01cc4c8de4","2025-07-09T09:10:06.525Z","","","","","","ControlQ","","","","","","","","","","","","","","","","","","","","","","","","","","","","","","","","","","","","","","50",""
"2633","","<div style=""width:500px;"">
  <p>How would you describe your current emotional state?</p>
  </div>","40","html-slider-response","45","583740","0.0-10.0-3.1","1","1","2025-07-09 09:00:24","7701e855f2ef39aa3fd6c71abdc6918a","176.166.46.124","Mozilla/5.0 (Macintosh; Intel Mac OS X 10_15_7) AppleWebKit/537.36 (KHTML, like Gecko) Chrome/133.0.0.0 Safari/537.36","Macintosh","Chrome","133.0.0.0","OS X","10_15_7","https://app.prolific.com/","fr-FR,fr;q=0.9,en-US;q=0.8,en;q=0.7","6133593ca9cb1c01cc4c8de4","686d226cabeef709c732f8e1","686e2f91df7003a12f469bb3","6133593ca9cb1c01cc4c8de4","2025-07-09T09:10:09.159Z","","","","","","StressQ","","","","","","","","","","","","","","","","","","","","","","","","","","","","","","","","","","","","","","50",""
"3932","","<div style=""width:500px;"">
  <p>What best describes how you currently feel?</p>
  </div>","42","html-slider-response","46","587674","0.0-10.0-4.1","1","1","2025-07-09 09:00:24","7701e855f2ef39aa3fd6c71abdc6918a","176.166.46.124","Mozilla/5.0 (Macintosh; Intel Mac OS X 10_15_7) AppleWebKit/537.36 (KHTML, like Gecko) Chrome/133.0.0.0 Safari/537.36","Macintosh","Chrome","133.0.0.0","OS X","10_15_7","https://app.prolific.com/","fr-FR,fr;q=0.9,en-US;q=0.8,en;q=0.7","6133593ca9cb1c01cc4c8de4","686d226cabeef709c732f8e1","686e2f91df7003a12f469bb3","6133593ca9cb1c01cc4c8de4","2025-07-09T09:10:13.092Z","","","","","","MotivationQ","","","","","","","","","","","","","","","","","","","","","","","","","","","","","","","","","","","","","","50",""
"","","","","ctl-task-cpt","47","600795","0.0-10.0-0.2","1","1","2025-07-09 09:00:24","7701e855f2ef39aa3fd6c71abdc6918a","176.166.46.124","Mozilla/5.0 (Macintosh; Intel Mac OS X 10_15_7) AppleWebKit/537.36 (KHTML, like Gecko) Chrome/133.0.0.0 Safari/537.36","Macintosh","Chrome","133.0.0.0","OS X","10_15_7","https://app.prolific.com/","fr-FR,fr;q=0.9,en-US;q=0.8,en;q=0.7","6133593ca9cb1c01cc4c8de4","686d226cabeef709c732f8e1","686e2f91df7003a12f469bb3","6133593ca9cb1c01cc4c8de4","2025-07-09T09:10:26.213Z","","","","","","","","","","","","","","","","win-only","1","g1:NE,g2:SW","0.8","3","0","588512.5","1065.2","6071","10111.6","1","4","4","6","2","-4","-4","8","12","0.06060606060606061","1632.3","3000","-3005","[""down"",""left""]","{""num_key_presses"":0,""num_perfect"":0,""num_errors"":0,""num_randdir"":0,""num_randdir_good_moves"":0,""num_whilered"":0,""num_whileblue"":0,""num_blue"":0,""num_good_moves"":0}","[694.2857142857143,680.0825892857143,0,694.2857142857143,680.0825892857143,101,694.2857142857143,680.0825892857143,201.2,694.2857142857143,680.0825892857143,302.1,694.2857142857143,680.0825892857143,406.8,694.2857142857143,680.0825892857143,508.3,694.2857142857143,680.0825892857143,611,764.2857142857143,610.0825892857143,712.4,796.2857142857143,582.0825892857143,815.3,798.2857142857143,580.0825892857143,915.5,798.2857142857143,580.0825892857143,1021.3,760.2857142857143,602.0825892857143,1125,356.2857142857143,948.0825892857143,1225.1,244.28571428571428,1252.0825892857142,1328.7,240.28571428571428,1270.0825892857142,1431,206.28571428571428,1262.0825892857142,1532.4,172.28571428571428,1250.0825892857142,1635.6,172.28571428571428,1250.0825892857142,1743.4,172.28571428571428,1250.0825892857142,1845.7,172.28571428571428,1250.0825892857142,1946.8,172.28571428571428,1250.0825892857142,2050.1,172.28571428571428,1250.0825892857142,2155.3,172.28571428571428,1250.0825892857142,2256,172.28571428571428,1250.0825892857142,2356.4,172.28571428571428,1250.0825892857142,2460.2,172.28571428571428,1250.0825892857142,2560.2,172.28571428571428,1250.0825892857142,2661.1,172.28571428571428,1250.0825892857142,2765.8,172.28571428571428,1250.0825892857142,2866.2,172.28571428571428,1250.0825892857142,2970.8,172.28571428571428,1250.0825892857142,3078.8,172.28571428571428,1250.0825892857142,3180,172.28571428571428,1250.0825892857142,3282,172.28571428571428,1250.0825892857142,3382.7,172.28571428571428,1250.0825892857142,3489.4,172.28571428571428,1250.0825892857142,3590.4,172.28571428571428,1250.0825892857142,3691,172.28571428571428,1250.0825892857142,3791.5,172.28571428571428,1250.0825892857142,3895.2,172.28571428571428,1250.0825892857142,3995.4,172.28571428571428,1250.0825892857142,4102.1,172.28571428571428,1250.0825892857142,4205.2,172.28571428571428,1250.0825892857142,4305.6,172.28571428571428,1250.0825892857142,4410.7,304.2857142857143,1070.0825892857142,4510.9,474.2857142857143,920.0825892857143,4616,636.2857142857143,838.0825892857143,4720.9,900.2857142857143,670.0825892857143,4821.1,900.2857142857143,670.0825892857143,4925.7]","[]","","",""
"4427","","<div style=""width:500px;"">
  <p>What determined the result of this run?</p>
  </div>","15","html-slider-response","48","605224","0.0-10.0-1.2","1","1","2025-07-09 09:00:24","7701e855f2ef39aa3fd6c71abdc6918a","176.166.46.124","Mozilla/5.0 (Macintosh; Intel Mac OS X 10_15_7) AppleWebKit/537.36 (KHTML, like Gecko) Chrome/133.0.0.0 Safari/537.36","Macintosh","Chrome","133.0.0.0","OS X","10_15_7","https://app.prolific.com/","fr-FR,fr;q=0.9,en-US;q=0.8,en;q=0.7","6133593ca9cb1c01cc4c8de4","686d226cabeef709c732f8e1","686e2f91df7003a12f469bb3","6133593ca9cb1c01cc4c8de4","2025-07-09T09:10:30.642Z","","","","","","AttribQ","","","","","","","","","","","","","","","","","","","","","","","","","","","","","","","","","","","","","","50",""
"2582","","<div style=""width:500px;"">
  <p>How much control did you have over the ball?</p>
  </div>","0","html-slider-response","49","607806","0.0-10.0-2.2","1","1","2025-07-09 09:00:24","7701e855f2ef39aa3fd6c71abdc6918a","176.166.46.124","Mozilla/5.0 (Macintosh; Intel Mac OS X 10_15_7) AppleWebKit/537.36 (KHTML, like Gecko) Chrome/133.0.0.0 Safari/537.36","Macintosh","Chrome","133.0.0.0","OS X","10_15_7","https://app.prolific.com/","fr-FR,fr;q=0.9,en-US;q=0.8,en;q=0.7","6133593ca9cb1c01cc4c8de4","686d226cabeef709c732f8e1","686e2f91df7003a12f469bb3","6133593ca9cb1c01cc4c8de4","2025-07-09T09:10:33.224Z","","","","","","ControlQ","","","","","","","","","","","","","","","","","","","","","","","","","","","","","","","","","","","","","","50",""
"3383","","<div style=""width:500px;"">
  <p>How would you describe your current emotional state?</p>
  </div>","54","html-slider-response","50","611189","0.0-10.0-3.2","1","1","2025-07-09 09:00:24","7701e855f2ef39aa3fd6c71abdc6918a","176.166.46.124","Mozilla/5.0 (Macintosh; Intel Mac OS X 10_15_7) AppleWebKit/537.36 (KHTML, like Gecko) Chrome/133.0.0.0 Safari/537.36","Macintosh","Chrome","133.0.0.0","OS X","10_15_7","https://app.prolific.com/","fr-FR,fr;q=0.9,en-US;q=0.8,en;q=0.7","6133593ca9cb1c01cc4c8de4","686d226cabeef709c732f8e1","686e2f91df7003a12f469bb3","6133593ca9cb1c01cc4c8de4","2025-07-09T09:10:36.607Z","","","","","","StressQ","","","","","","","","","","","","","","","","","","","","","","","","","","","","","","","","","","","","","","50",""
"2167","","<div style=""width:500px;"">
  <p>What best describes how you currently feel?</p>
  </div>","42","html-slider-response","51","613356","0.0-10.0-4.2","1","1","2025-07-09 09:00:24","7701e855f2ef39aa3fd6c71abdc6918a","176.166.46.124","Mozilla/5.0 (Macintosh; Intel Mac OS X 10_15_7) AppleWebKit/537.36 (KHTML, like Gecko) Chrome/133.0.0.0 Safari/537.36","Macintosh","Chrome","133.0.0.0","OS X","10_15_7","https://app.prolific.com/","fr-FR,fr;q=0.9,en-US;q=0.8,en;q=0.7","6133593ca9cb1c01cc4c8de4","686d226cabeef709c732f8e1","686e2f91df7003a12f469bb3","6133593ca9cb1c01cc4c8de4","2025-07-09T09:10:38.775Z","","","","","","MotivationQ","","","","","","","","","","","","","","","","","","","","","","","","","","","","","","","","","","","","","","50",""
"","","","","ctl-task-cpt","52","679201","0.0-10.0-0.3","1","1","2025-07-09 09:00:24","7701e855f2ef39aa3fd6c71abdc6918a","176.166.46.124","Mozilla/5.0 (Macintosh; Intel Mac OS X 10_15_7) AppleWebKit/537.36 (KHTML, like Gecko) Chrome/133.0.0.0 Safari/537.36","Macintosh","Chrome","133.0.0.0","OS X","10_15_7","https://app.prolific.com/","fr-FR,fr;q=0.9,en-US;q=0.8,en;q=0.7","6133593ca9cb1c01cc4c8de4","686d226cabeef709c732f8e1","686e2f91df7003a12f469bb3","6133593ca9cb1c01cc4c8de4","2025-07-09T09:11:44.619Z","","","","","","","","","","","","","","","","win-only","0","g1:NW,g2:SE","0.7","4","0","614196.5","917.4","5923.9","62835.3","1","4","8","6","2","-8","-9","0","8","0","1035.1","3000","-2960","[""down"",""right""]","{""num_key_presses"":8,""num_perfect"":5,""num_errors"":1,""num_randdir"":2,""num_randdir_good_moves"":0,""num_whilered"":0,""num_whileblue"":1,""num_blue"":9,""num_good_moves"":5}","[698.2857142857143,680.0825892857143,0.1,698.2857142857143,680.0825892857143,101.4,698.2857142857143,680.0825892857143,203,698.2857142857143,680.0825892857143,305.8,698.2857142857143,680.0825892857143,408.1,984.2857142857143,952.0825892857143,508.8,1140.2857142857142,1142.0825892857142,614.1,1140.2857142857142,1142.0825892857142,722,1172.2857142857142,1182.0825892857142,823.4,1252.2857142857142,1272.0825892857142,924.1,1268.2857142857142,1294.0825892857142,1027.9,1268.2857142857142,1294.0825892857142,1128.2,1268.2857142857142,1294.0825892857142,1228.5,1268.2857142857142,1294.0825892857142,1336.8,1268.2857142857142,1294.0825892857142,1443.1,1268.2857142857142,1294.0825892857142,1548.4,1268.2857142857142,1294.0825892857142,1650.8,1272.2857142857142,1152.0825892857142,1755,1368.2857142857142,938.0825892857143,1857.9,1368.2857142857142,938.0825892857143,1959.4,1368.2857142857142,938.0825892857143,2059.5,1368.2857142857142,938.0825892857143,2163.8,1368.2857142857142,938.0825892857143,2269.7,1368.2857142857142,938.0825892857143,2370.1,1368.2857142857142,938.0825892857143,2473.4,1368.2857142857142,938.0825892857143,2573.8,1368.2857142857142,938.0825892857143,2678.6,1368.2857142857142,938.0825892857143,2778.6,1368.2857142857142,938.0825892857143,2885.7,1368.2857142857142,938.0825892857143,2985.7,1368.2857142857142,938.0825892857143,3085.7,1368.2857142857142,938.0825892857143,3188.1,1368.2857142857142,938.0825892857143,3293.3,1368.2857142857142,938.0825892857143,3393.3,1368.2857142857142,938.0825892857143,3498.5,1368.2857142857142,938.0825892857143,3598.7,1368.2857142857142,938.0825892857143,3702.8,1368.2857142857142,938.0825892857143,3804.1,1368.2857142857142,938.0825892857143,3908.9,1368.2857142857142,938.0825892857143,4009,1368.2857142857142,938.0825892857143,4113.3,1368.2857142857142,938.0825892857143,4213.4,1368.2857142857142,938.0825892857143,4317.7,1368.2857142857142,938.0825892857143,4423,1368.2857142857142,938.0825892857143,4523.4,1368.2857142857142,938.0825892857143,4628.1,1368.2857142857142,938.0825892857143,4728.3,1368.2857142857142,938.0825892857143,4828.3,1368.2857142857142,938.0825892857143,4936.4]","[5185,5185,2729.3,2007,448.7,""smooth"",""right"",""right"",""good_move"",12050.5,6865.3,2731.1,8902.4,417,""smooth"",""right"",""right"",""good_move"",20010,7959.4,3611.5,16036.7,361.8,""smooth"",""right"",""right"",""good_move"",23009.8,2999.7,2631.9,20010.1,367.8,""oops"",""down"",""left"",""bad_move"",30477.8,7467.6,2974.5,27067,436.3,""oops"",""down"",""up"",""bad_move"",39663,9185,1682.3,37587.2,393.5,""smooth"",""right"",""right"",""good_move"",43298.9,3635.8,3267.9,39663.1,367.9,""while_blue"",""down"",""up"",""bad_move"",53566,10266.7,2288.9,50897.3,379.8,""smooth"",""down"",""down"",""good_move""]","","",""
"25771","","<div style=""width:500px;"">
  <p>What determined the result of this run?</p>
  </div>","21","html-slider-response","53","704972","0.0-10.0-1.3","1","1","2025-07-09 09:00:24","7701e855f2ef39aa3fd6c71abdc6918a","176.166.46.124","Mozilla/5.0 (Macintosh; Intel Mac OS X 10_15_7) AppleWebKit/537.36 (KHTML, like Gecko) Chrome/133.0.0.0 Safari/537.36","Macintosh","Chrome","133.0.0.0","OS X","10_15_7","https://app.prolific.com/","fr-FR,fr;q=0.9,en-US;q=0.8,en;q=0.7","6133593ca9cb1c01cc4c8de4","686d226cabeef709c732f8e1","686e2f91df7003a12f469bb3","6133593ca9cb1c01cc4c8de4","2025-07-09T09:12:10.390Z","","","","","","AttribQ","","","","","","","","","","","","","","","","","","","","","","","","","","","","","","","","","","","","","","50",""
"3514","","<div style=""width:500px;"">
  <p>How much control did you have over the ball?</p>
  </div>","34","html-slider-response","54","708487","0.0-10.0-2.3","1","1","2025-07-09 09:00:24","7701e855f2ef39aa3fd6c71abdc6918a","176.166.46.124","Mozilla/5.0 (Macintosh; Intel Mac OS X 10_15_7) AppleWebKit/537.36 (KHTML, like Gecko) Chrome/133.0.0.0 Safari/537.36","Macintosh","Chrome","133.0.0.0","OS X","10_15_7","https://app.prolific.com/","fr-FR,fr;q=0.9,en-US;q=0.8,en;q=0.7","6133593ca9cb1c01cc4c8de4","686d226cabeef709c732f8e1","686e2f91df7003a12f469bb3","6133593ca9cb1c01cc4c8de4","2025-07-09T09:12:13.905Z","","","","","","ControlQ","","","","","","","","","","","","","","","","","","","","","","","","","","","","","","","","","","","","","","50",""
"2500","","<div style=""width:500px;"">
  <p>How would you describe your current emotional state?</p>
  </div>","56","html-slider-response","55","710988","0.0-10.0-3.3","1","1","2025-07-09 09:00:24","7701e855f2ef39aa3fd6c71abdc6918a","176.166.46.124","Mozilla/5.0 (Macintosh; Intel Mac OS X 10_15_7) AppleWebKit/537.36 (KHTML, like Gecko) Chrome/133.0.0.0 Safari/537.36","Macintosh","Chrome","133.0.0.0","OS X","10_15_7","https://app.prolific.com/","fr-FR,fr;q=0.9,en-US;q=0.8,en;q=0.7","6133593ca9cb1c01cc4c8de4","686d226cabeef709c732f8e1","686e2f91df7003a12f469bb3","6133593ca9cb1c01cc4c8de4","2025-07-09T09:12:16.406Z","","","","","","StressQ","","","","","","","","","","","","","","","","","","","","","","","","","","","","","","","","","","","","","","50",""
"2748","","<div style=""width:500px;"">
  <p>What best describes how you currently feel?</p>
  </div>","31","html-slider-response","56","713738","0.0-10.0-4.3","1","1","2025-07-09 09:00:24","7701e855f2ef39aa3fd6c71abdc6918a","176.166.46.124","Mozilla/5.0 (Macintosh; Intel Mac OS X 10_15_7) AppleWebKit/537.36 (KHTML, like Gecko) Chrome/133.0.0.0 Safari/537.36","Macintosh","Chrome","133.0.0.0","OS X","10_15_7","https://app.prolific.com/","fr-FR,fr;q=0.9,en-US;q=0.8,en;q=0.7","6133593ca9cb1c01cc4c8de4","686d226cabeef709c732f8e1","686e2f91df7003a12f469bb3","6133593ca9cb1c01cc4c8de4","2025-07-09T09:12:19.156Z","","","","","","MotivationQ","","","","","","","","","","","","","","","","","","","","","","","","","","","","","","","","","","","","","","50",""
"","","","","ctl-task-cpt","57","781308","0.0-10.0-0.4","1","1","2025-07-09 09:00:24","7701e855f2ef39aa3fd6c71abdc6918a","176.166.46.124","Mozilla/5.0 (Macintosh; Intel Mac OS X 10_15_7) AppleWebKit/537.36 (KHTML, like Gecko) Chrome/133.0.0.0 Safari/537.36","Macintosh","Chrome","133.0.0.0","OS X","10_15_7","https://app.prolific.com/","fr-FR,fr;q=0.9,en-US;q=0.8,en;q=0.7","6133593ca9cb1c01cc4c8de4","686d226cabeef709c732f8e1","686e2f91df7003a12f469bb3","6133593ca9cb1c01cc4c8de4","2025-07-09T09:13:26.727Z","","","","","","","","","","","","","","","","win-only","0","g1:NW,g2:SE","0.6","5","0","714578.8","20972.9","25973.4","64560.6","1","4","8","6","2","-8","-9","0","0","0","1242.8","3000","-2855","[""down"",""right""]","{""num_key_presses"":8,""num_perfect"":4,""num_errors"":1,""num_randdir"":3,""num_randdir_good_moves"":1,""num_whilered"":0,""num_whileblue"":1,""num_blue"":5,""num_good_moves"":5}","[700.2857142857143,698.0825892857143,0.2,700.2857142857143,698.0825892857143,100.3,700.2857142857143,698.0825892857143,203.2,700.2857142857143,698.0825892857143,307.5,700.2857142857143,698.0825892857143,408.7,686.2857142857143,656.0825892857143,512.6,638.2857142857143,648.0825892857143,617.7,626.2857142857143,646.0825892857143,722.8,854.2857142857143,914.0825892857143,823.2,1166.2857142857142,1042.0825892857142,923.3,1254.2857142857142,1150.0825892857142,1027.9,1346.2857142857142,1306.0825892857142,1128.3,1346.2857142857142,1306.0825892857142,1236.5,1346.2857142857142,1306.0825892857142,1339.5,1346.2857142857142,1306.0825892857142,1443.1,1346.2857142857142,1306.0825892857142,1548.6,1346.2857142857142,1306.0825892857142,1652.9,1346.2857142857142,1306.0825892857142,1752.9,1346.2857142857142,1306.0825892857142,1858.4,1346.2857142857142,1306.0825892857142,1966.6,1346.2857142857142,1306.0825892857142,2073.7,1346.2857142857142,1306.0825892857142,2184.6,1346.2857142857142,1306.0825892857142,2285.2,1346.2857142857142,1306.0825892857142,2385.4,1346.2857142857142,1306.0825892857142,2487.3,1346.2857142857142,1306.0825892857142,2589.6,1346.2857142857142,1306.0825892857142,2694,1346.2857142857142,1306.0825892857142,2800.9,1346.2857142857142,1306.0825892857142,2902.6,1346.2857142857142,1306.0825892857142,3003.2,1346.2857142857142,1306.0825892857142,3107.7,1346.2857142857142,1306.0825892857142,3215.6,1346.2857142857142,1306.0825892857142,3321.1,1346.2857142857142,1306.0825892857142,3422.7,1346.2857142857142,1306.0825892857142,3523.6,1346.2857142857142,1306.0825892857142,3624.2,1346.2857142857142,1306.0825892857142,3725.1,1346.2857142857142,1306.0825892857142,3828,1346.2857142857142,1306.0825892857142,3930.9,1346.2857142857142,1306.0825892857142,4036.9,1346.2857142857142,1306.0825892857142,4137.8,1346.2857142857142,1306.0825892857142,4242.2,1346.2857142857142,1306.0825892857142,4342.9,1346.2857142857142,1306.0825892857142,4443.1,1346.2857142857142,1306.0825892857142,4549.7,1346.2857142857142,1306.0825892857142,4652.3,1346.2857142857142,1306.0825892857142,4752.4,1346.2857142857142,1306.0825892857142,4857.6,1346.2857142857142,1306.0825892857142,4963.8]","[4933.7,4933.7,2493,2008.4,432.3,""smooth"",""right"",""right"",""good_move"",11273.9,6340,2436.1,8416.3,421.5,""smooth"",""down"",""down"",""good_move"",13851,2577,2248.2,11274,328.8,""while_blue"",""down"",""up"",""bad_move"",16835.1,2983.9,2511.3,13851.2,472.6,""oops"",""down"",""up"",""bad_move"",19884.2,3049,2524.5,16835.2,524.5,""smooth"",""down"",""down"",""good_move"",23652.5,3768.2,3256.4,19884.3,511.8,""oops"",""down"",""up"",""bad_move"",29769.2,6116.6,2026.6,27342.6,400,""oops"",""right"",""down"",""good_move"",32581.3,2811.9,2320.1,29769.4,491.8,""smooth"",""right"",""right"",""good_move""]","","",""
"3278","","<div style=""width:500px;"">
  <p>What determined the result of this run?</p>
  </div>","39","html-slider-response","58","784587","0.0-10.0-1.4","1","1","2025-07-09 09:00:24","7701e855f2ef39aa3fd6c71abdc6918a","176.166.46.124","Mozilla/5.0 (Macintosh; Intel Mac OS X 10_15_7) AppleWebKit/537.36 (KHTML, like Gecko) Chrome/133.0.0.0 Safari/537.36","Macintosh","Chrome","133.0.0.0","OS X","10_15_7","https://app.prolific.com/","fr-FR,fr;q=0.9,en-US;q=0.8,en;q=0.7","6133593ca9cb1c01cc4c8de4","686d226cabeef709c732f8e1","686e2f91df7003a12f469bb3","6133593ca9cb1c01cc4c8de4","2025-07-09T09:13:30.005Z","","","","","","AttribQ","","","","","","","","","","","","","","","","","","","","","","","","","","","","","","","","","","","","","","50",""
"3265","","<div style=""width:500px;"">
  <p>How much control did you have over the ball?</p>
  </div>","21","html-slider-response","59","787852","0.0-10.0-2.4","1","1","2025-07-09 09:00:24","7701e855f2ef39aa3fd6c71abdc6918a","176.166.46.124","Mozilla/5.0 (Macintosh; Intel Mac OS X 10_15_7) AppleWebKit/537.36 (KHTML, like Gecko) Chrome/133.0.0.0 Safari/537.36","Macintosh","Chrome","133.0.0.0","OS X","10_15_7","https://app.prolific.com/","fr-FR,fr;q=0.9,en-US;q=0.8,en;q=0.7","6133593ca9cb1c01cc4c8de4","686d226cabeef709c732f8e1","686e2f91df7003a12f469bb3","6133593ca9cb1c01cc4c8de4","2025-07-09T09:13:33.271Z","","","","","","ControlQ","","","","","","","","","","","","","","","","","","","","","","","","","","","","","","","","","","","","","","50",""
"3967","","<div style=""width:500px;"">
  <p>How would you describe your current emotional state?</p>
  </div>","60","html-slider-response","60","791820","0.0-10.0-3.4","1","1","2025-07-09 09:00:24","7701e855f2ef39aa3fd6c71abdc6918a","176.166.46.124","Mozilla/5.0 (Macintosh; Intel Mac OS X 10_15_7) AppleWebKit/537.36 (KHTML, like Gecko) Chrome/133.0.0.0 Safari/537.36","Macintosh","Chrome","133.0.0.0","OS X","10_15_7","https://app.prolific.com/","fr-FR,fr;q=0.9,en-US;q=0.8,en;q=0.7","6133593ca9cb1c01cc4c8de4","686d226cabeef709c732f8e1","686e2f91df7003a12f469bb3","6133593ca9cb1c01cc4c8de4","2025-07-09T09:13:37.238Z","","","","","","StressQ","","","","","","","","","","","","","","","","","","","","","","","","","","","","","","","","","","","","","","50",""
"4150","","<div style=""width:500px;"">
  <p>What best describes how you currently feel?</p>
  </div>","37","html-slider-response","61","795970","0.0-10.0-4.4","1","1","2025-07-09 09:00:24","7701e855f2ef39aa3fd6c71abdc6918a","176.166.46.124","Mozilla/5.0 (Macintosh; Intel Mac OS X 10_15_7) AppleWebKit/537.36 (KHTML, like Gecko) Chrome/133.0.0.0 Safari/537.36","Macintosh","Chrome","133.0.0.0","OS X","10_15_7","https://app.prolific.com/","fr-FR,fr;q=0.9,en-US;q=0.8,en;q=0.7","6133593ca9cb1c01cc4c8de4","686d226cabeef709c732f8e1","686e2f91df7003a12f469bb3","6133593ca9cb1c01cc4c8de4","2025-07-09T09:13:41.388Z","","","","","","MotivationQ","","","","","","","","","","","","","","","","","","","","","","","","","","","","","","","","","","","","","","50",""
"","","","","ctl-task-cpt","62","846247","0.0-10.0-0.5","1","1","2025-07-09 09:00:24","7701e855f2ef39aa3fd6c71abdc6918a","176.166.46.124","Mozilla/5.0 (Macintosh; Intel Mac OS X 10_15_7) AppleWebKit/537.36 (KHTML, like Gecko) Chrome/133.0.0.0 Safari/537.36","Macintosh","Chrome","133.0.0.0","OS X","10_15_7","https://app.prolific.com/","fr-FR,fr;q=0.9,en-US;q=0.8,en;q=0.7","6133593ca9cb1c01cc4c8de4","686d226cabeef709c732f8e1","686e2f91df7003a12f469bb3","6133593ca9cb1c01cc4c8de4","2025-07-09T09:14:31.665Z","","","","","","","","","","","","","","","","win-only","3","g1:SW,g2:NE","0.5","6","0","796813.1","1015.3","6022.4","47264.4","1","4","4","6","2","-4","-5","0","0","0","1465.8","3000","-2795","[""up"",""right""]","{""num_key_presses"":8,""num_perfect"":3,""num_errors"":1,""num_randdir"":4,""num_randdir_good_moves"":2,""num_whilered"":0,""num_whileblue"":0,""num_blue"":5,""num_good_moves"":5}","[692.2857142857143,690.0825892857143,0.2,692.2857142857143,690.0825892857143,100.7,692.2857142857143,688.0825892857143,201.1,692.2857142857143,688.0825892857143,309.7,660.2857142857143,728.0825892857143,411,108.28571428571429,1084.0825892857142,515.2,56.28571428571429,1198.0825892857142,615.6,56.28571428571429,1198.0825892857142,715.7,56.28571428571429,1168.0825892857142,820.3,978.2857142857143,396.0825892857143,924.9,1154.2857142857142,278.0825892857143,1032,1154.2857142857142,278.0825892857143,1139.4,1208.2857142857142,192.08258928571428,1246.6,1284.2857142857142,106.08258928571429,1350.5,1288.2857142857142,102.08258928571429,1450.7,1288.2857142857142,102.08258928571429,1550.9,1288.2857142857142,102.08258928571429,1657.3,1288.2857142857142,102.08258928571429,1760.6,1288.2857142857142,102.08258928571429,1860.7,1288.2857142857142,102.08258928571429,1964.8,1288.2857142857142,102.08258928571429,2066.9,1288.2857142857142,102.08258928571429,2167.6,1288.2857142857142,102.08258928571429,2272.9,1288.2857142857142,102.08258928571429,2375.5,1288.2857142857142,102.08258928571429,2476.4,1288.2857142857142,102.08258928571429,2580.3,1288.2857142857142,102.08258928571429,2681.7,1288.2857142857142,102.08258928571429,2787.4,1288.2857142857142,102.08258928571429,2890.7,1288.2857142857142,102.08258928571429,2994.9,1288.2857142857142,102.08258928571429,3095.6,1288.2857142857142,102.08258928571429,3196.5,1288.2857142857142,102.08258928571429,3300,1288.2857142857142,102.08258928571429,3400.8,1288.2857142857142,102.08258928571429,3502.7,1288.2857142857142,102.08258928571429,3606.5,1288.2857142857142,102.08258928571429,3710.8,1288.2857142857142,102.08258928571429,3811.1,1288.2857142857142,102.08258928571429,3915.3,1288.2857142857142,102.08258928571429,4016.8,1288.2857142857142,102.08258928571429,4120.4,1288.2857142857142,102.08258928571429,4221.4,1288.2857142857142,102.08258928571429,4331.2,1288.2857142857142,102.08258928571429,4442.1,1288.2857142857142,102.08258928571429,4546.3,1288.2857142857142,102.08258928571429,4650,1288.2857142857142,102.08258928571429,4750.8,1288.2857142857142,102.08258928571429,4858.1,1288.2857142857142,102.08258928571429,4960.6]","[1770.4,1770.4,1000,0,770.4,""smooth"",""right"",""right"",""good_move"",3898.9,2128.4,1575.3,1770.6,553.1,""smooth"",""up"",""up"",""good_move"",7731.2,3832,3378.2,3899.2,453.8,""smooth"",""up"",""up"",""good_move"",20936.8,13205.5,1639.2,18882.3,415.3,""oops"",""up"",""right"",""good_move"",24315.8,3378.8,3010.6,20937,368.2,""oops"",""up"",""right"",""good_move"",26903.4,2587.5,2206.7,24315.9,380.8,""oops"",""up"",""down"",""bad_move"",34068.1,7164.7,3149.5,30537.6,381.1,""oops"",""up"",""down"",""bad_move"",37871.6,3803.2,2610.3,37407.8,-2146.5,""error"",""-"",""-"",""no_move""]","","",""
"2687","","<div style=""width:500px;"">
  <p>What determined the result of this run?</p>
  </div>","22","html-slider-response","63","848935","0.0-10.0-1.5","1","1","2025-07-09 09:00:24","7701e855f2ef39aa3fd6c71abdc6918a","176.166.46.124","Mozilla/5.0 (Macintosh; Intel Mac OS X 10_15_7) AppleWebKit/537.36 (KHTML, like Gecko) Chrome/133.0.0.0 Safari/537.36","Macintosh","Chrome","133.0.0.0","OS X","10_15_7","https://app.prolific.com/","fr-FR,fr;q=0.9,en-US;q=0.8,en;q=0.7","6133593ca9cb1c01cc4c8de4","686d226cabeef709c732f8e1","686e2f91df7003a12f469bb3","6133593ca9cb1c01cc4c8de4","2025-07-09T09:14:34.353Z","","","","","","AttribQ","","","","","","","","","","","","","","","","","","","","","","","","","","","","","","","","","","","","","","50",""
"2333","","<div style=""width:500px;"">
  <p>How much control did you have over the ball?</p>
  </div>","27","html-slider-response","64","851268","0.0-10.0-2.5","1","1","2025-07-09 09:00:24","7701e855f2ef39aa3fd6c71abdc6918a","176.166.46.124","Mozilla/5.0 (Macintosh; Intel Mac OS X 10_15_7) AppleWebKit/537.36 (KHTML, like Gecko) Chrome/133.0.0.0 Safari/537.36","Macintosh","Chrome","133.0.0.0","OS X","10_15_7","https://app.prolific.com/","fr-FR,fr;q=0.9,en-US;q=0.8,en;q=0.7","6133593ca9cb1c01cc4c8de4","686d226cabeef709c732f8e1","686e2f91df7003a12f469bb3","6133593ca9cb1c01cc4c8de4","2025-07-09T09:14:36.686Z","","","","","","ControlQ","","","","","","","","","","","","","","","","","","","","","","","","","","","","","","","","","","","","","","50",""
"4016","","<div style=""width:500px;"">
  <p>How would you describe your current emotional state?</p>
  </div>","65","html-slider-response","65","855285","0.0-10.0-3.5","1","1","2025-07-09 09:00:24","7701e855f2ef39aa3fd6c71abdc6918a","176.166.46.124","Mozilla/5.0 (Macintosh; Intel Mac OS X 10_15_7) AppleWebKit/537.36 (KHTML, like Gecko) Chrome/133.0.0.0 Safari/537.36","Macintosh","Chrome","133.0.0.0","OS X","10_15_7","https://app.prolific.com/","fr-FR,fr;q=0.9,en-US;q=0.8,en;q=0.7","6133593ca9cb1c01cc4c8de4","686d226cabeef709c732f8e1","686e2f91df7003a12f469bb3","6133593ca9cb1c01cc4c8de4","2025-07-09T09:14:40.703Z","","","","","","StressQ","","","","","","","","","","","","","","","","","","","","","","","","","","","","","","","","","","","","","","50",""
"2700","","<div style=""width:500px;"">
  <p>What best describes how you currently feel?</p>
  </div>","28","html-slider-response","66","857986","0.0-10.0-4.5","1","1","2025-07-09 09:00:24","7701e855f2ef39aa3fd6c71abdc6918a","176.166.46.124","Mozilla/5.0 (Macintosh; Intel Mac OS X 10_15_7) AppleWebKit/537.36 (KHTML, like Gecko) Chrome/133.0.0.0 Safari/537.36","Macintosh","Chrome","133.0.0.0","OS X","10_15_7","https://app.prolific.com/","fr-FR,fr;q=0.9,en-US;q=0.8,en;q=0.7","6133593ca9cb1c01cc4c8de4","686d226cabeef709c732f8e1","686e2f91df7003a12f469bb3","6133593ca9cb1c01cc4c8de4","2025-07-09T09:14:43.404Z","","","","","","MotivationQ","","","","","","","","","","","","","","","","","","","","","","","","","","","","","","","","","","","","","","50",""
"","","","","ctl-task-cpt","67","877505","0.0-10.0-0.6","1","1","2025-07-09 09:00:24","7701e855f2ef39aa3fd6c71abdc6918a","176.166.46.124","Mozilla/5.0 (Macintosh; Intel Mac OS X 10_15_7) AppleWebKit/537.36 (KHTML, like Gecko) Chrome/133.0.0.0 Safari/537.36","Macintosh","Chrome","133.0.0.0","OS X","10_15_7","https://app.prolific.com/","fr-FR,fr;q=0.9,en-US;q=0.8,en;q=0.7","6133593ca9cb1c01cc4c8de4","686d226cabeef709c732f8e1","686e2f91df7003a12f469bb3","6133593ca9cb1c01cc4c8de4","2025-07-09T09:15:02.923Z","","","","","","","","","","","","","","","","win-only","1","g1:NE,g2:SW","0.4","7","0","858830","986.2","5990.7","16516.2","1","4","4","6","2","-4","-4","0","0","0","2544.8","3000","-2865","[""down"",""left""]","{""num_key_presses"":2,""num_perfect"":1,""num_errors"":0,""num_randdir"":1,""num_randdir_good_moves"":0,""num_whilered"":0,""num_whileblue"":0,""num_blue"":0,""num_good_moves"":1}","[696.2857142857143,676.0825892857143,0.2,696.2857142857143,676.0825892857143,101.5,698.2857142857143,676.0825892857143,204.8,698.2857142857143,676.0825892857143,309.1,698.2857142857143,676.0825892857143,409.2,698.2857142857143,676.0825892857143,510.8,690.2857142857143,676.0825892857143,617.3,594.2857142857143,548.0825892857143,719.8,590.2857142857143,386.0825892857143,820,590.2857142857143,386.0825892857143,926.3,590.2857142857143,386.0825892857143,1029.7,586.2857142857143,388.0825892857143,1136.4,-21.714285714285708,1100.0825892857142,1240,-87.71428571428571,1242.0825892857142,1344.6,-87.71428571428571,1242.0825892857142,1449.2,-337.7142857142857,1498.0825892857142,1550.4,-437.7142857142857,1600.0825892857142,1659.3,-437.7142857142857,1600.0825892857142,1759.6,-437.7142857142857,1600.0825892857142,1860,-437.7142857142857,1600.0825892857142,1967.1,-447.7142857142857,1452.0825892857142,2072.4,-349.7142857142857,1414.0825892857142,2174.4,-93.71428571428571,1322.0825892857142,2279.8,-1.7142857142857082,1302.0825892857142,2383.6,60.28571428571429,1296.0825892857142,2484.6,72.28571428571429,1298.0825892857142,2591.3,72.28571428571429,1298.0825892857142,2694.6,72.28571428571429,1298.0825892857142,2794.9,72.28571428571429,1298.0825892857142,2894.9,72.28571428571429,1298.0825892857142,3001.5,240.28571428571428,930.0825892857143,3102.6,426.2857142857143,664.0825892857143,3202.8,426.2857142857143,664.0825892857143,3304.5,426.2857142857143,664.0825892857143,3409.4,426.2857142857143,664.0825892857143,3510.2,426.2857142857143,664.0825892857143,3610.5,426.2857142857143,664.0825892857143,3714.8,426.2857142857143,664.0825892857143,3816.8,426.2857142857143,664.0825892857143,3919.4,426.2857142857143,664.0825892857143,4019.6,426.2857142857143,664.0825892857143,4120,426.2857142857143,664.0825892857143,4221,426.2857142857143,664.0825892857143,4324.5,426.2857142857143,664.0825892857143,4429.5,426.2857142857143,664.0825892857143,4536.8,426.2857142857143,664.0825892857143,4639.7,426.2857142857143,664.0825892857143,4739.9,426.2857142857143,664.0825892857143,4844.9,426.2857142857143,664.0825892857143,4949.5]","[2887.2,2887.2,1000,0,1887.2,""oops"",""down"",""right"",""bad_move"",7131,4243.6,2876.6,2887.4,1367,""smooth"",""down"",""down"",""good_move""]","","",""
"10679","","<div style=""width:500px;"">
  <p>What determined the result of this run?</p>
  </div>","14","html-slider-response","68","888185","0.0-10.0-1.6","1","1","2025-07-09 09:00:24","7701e855f2ef39aa3fd6c71abdc6918a","176.166.46.124","Mozilla/5.0 (Macintosh; Intel Mac OS X 10_15_7) AppleWebKit/537.36 (KHTML, like Gecko) Chrome/133.0.0.0 Safari/537.36","Macintosh","Chrome","133.0.0.0","OS X","10_15_7","https://app.prolific.com/","fr-FR,fr;q=0.9,en-US;q=0.8,en;q=0.7","6133593ca9cb1c01cc4c8de4","686d226cabeef709c732f8e1","686e2f91df7003a12f469bb3","6133593ca9cb1c01cc4c8de4","2025-07-09T09:15:13.603Z","","","","","","AttribQ","","","","","","","","","","","","","","","","","","","","","","","","","","","","","","","","","","","","","","50",""
"1732","","<div style=""width:500px;"">
  <p>How much control did you have over the ball?</p>
  </div>","30","html-slider-response","69","889917","0.0-10.0-2.6","1","1","2025-07-09 09:00:24","7701e855f2ef39aa3fd6c71abdc6918a","176.166.46.124","Mozilla/5.0 (Macintosh; Intel Mac OS X 10_15_7) AppleWebKit/537.36 (KHTML, like Gecko) Chrome/133.0.0.0 Safari/537.36","Macintosh","Chrome","133.0.0.0","OS X","10_15_7","https://app.prolific.com/","fr-FR,fr;q=0.9,en-US;q=0.8,en;q=0.7","6133593ca9cb1c01cc4c8de4","686d226cabeef709c732f8e1","686e2f91df7003a12f469bb3","6133593ca9cb1c01cc4c8de4","2025-07-09T09:15:15.335Z","","","","","","ControlQ","","","","","","","","","","","","","","","","","","","","","","","","","","","","","","","","","","","","","","50",""
"1983","","<div style=""width:500px;"">
  <p>How would you describe your current emotional state?</p>
  </div>","70","html-slider-response","70","891901","0.0-10.0-3.6","1","1","2025-07-09 09:00:24","7701e855f2ef39aa3fd6c71abdc6918a","176.166.46.124","Mozilla/5.0 (Macintosh; Intel Mac OS X 10_15_7) AppleWebKit/537.36 (KHTML, like Gecko) Chrome/133.0.0.0 Safari/537.36","Macintosh","Chrome","133.0.0.0","OS X","10_15_7","https://app.prolific.com/","fr-FR,fr;q=0.9,en-US;q=0.8,en;q=0.7","6133593ca9cb1c01cc4c8de4","686d226cabeef709c732f8e1","686e2f91df7003a12f469bb3","6133593ca9cb1c01cc4c8de4","2025-07-09T09:15:17.319Z","","","","","","StressQ","","","","","","","","","","","","","","","","","","","","","","","","","","","","","","","","","","","","","","50",""
"1633","","<div style=""width:500px;"">
  <p>What best describes how you currently feel?</p>
  </div>","34","html-slider-response","71","893534","0.0-10.0-4.6","1","1","2025-07-09 09:00:24","7701e855f2ef39aa3fd6c71abdc6918a","176.166.46.124","Mozilla/5.0 (Macintosh; Intel Mac OS X 10_15_7) AppleWebKit/537.36 (KHTML, like Gecko) Chrome/133.0.0.0 Safari/537.36","Macintosh","Chrome","133.0.0.0","OS X","10_15_7","https://app.prolific.com/","fr-FR,fr;q=0.9,en-US;q=0.8,en;q=0.7","6133593ca9cb1c01cc4c8de4","686d226cabeef709c732f8e1","686e2f91df7003a12f469bb3","6133593ca9cb1c01cc4c8de4","2025-07-09T09:15:18.953Z","","","","","","MotivationQ","","","","","","","","","","","","","","","","","","","","","","","","","","","","","","","","","","","","","","50",""
"","","","","ctl-task-cpt","72","924765","0.0-10.0-0.7","1","1","2025-07-09 09:00:24","7701e855f2ef39aa3fd6c71abdc6918a","176.166.46.124","Mozilla/5.0 (Macintosh; Intel Mac OS X 10_15_7) AppleWebKit/537.36 (KHTML, like Gecko) Chrome/133.0.0.0 Safari/537.36","Macintosh","Chrome","133.0.0.0","OS X","10_15_7","https://app.prolific.com/","fr-FR,fr;q=0.9,en-US;q=0.8,en;q=0.7","6133593ca9cb1c01cc4c8de4","686d226cabeef709c732f8e1","686e2f91df7003a12f469bb3","6133593ca9cb1c01cc4c8de4","2025-07-09T09:15:50.183Z","","","","","","","","","","","","","","","","win-only","2","g1:SE,g2:NW","0.3","8","0","894379.7","800.5","5805.7","28221.4","1","4","8","6","2","-8","-8","0","0","0","1184.2","3000","-2805","[""left"",""up""]","{""num_key_presses"":4,""num_perfect"":3,""num_errors"":0,""num_randdir"":1,""num_randdir_good_moves"":0,""num_whilered"":0,""num_whileblue"":0,""num_blue"":2,""num_good_moves"":3}","[696.2857142857143,682.0825892857143,0.1,696.2857142857143,682.0825892857143,100.5,696.2857142857143,682.0825892857143,202,696.2857142857143,682.0825892857143,304.9,594.2857142857143,576.0825892857143,409.7,470.2857142857143,420.0825892857143,510.5,632.2857142857143,598.0825892857143,615,440.2857142857143,312.0825892857143,715,278.2857142857143,230.08258928571428,825.6,278.2857142857143,230.08258928571428,929.6,178.28571428571428,166.08258928571428,1030.5,134.28571428571428,142.08258928571428,1135.5,134.28571428571428,140.08258928571428,1239.7,134.28571428571428,140.08258928571428,1340.3,134.28571428571428,140.08258928571428,1441.8,134.28571428571428,140.08258928571428,1545.3,134.28571428571428,140.08258928571428,1645.4,134.28571428571428,140.08258928571428,1751.2,134.28571428571428,140.08258928571428,1856.1,134.28571428571428,140.08258928571428,1960.3,134.28571428571428,140.08258928571428,2060.6,134.28571428571428,140.08258928571428,2165,134.28571428571428,140.08258928571428,2265,134.28571428571428,140.08258928571428,2374.9,134.28571428571428,140.08258928571428,2476.2,134.28571428571428,140.08258928571428,2580,134.28571428571428,140.08258928571428,2680.6,134.28571428571428,140.08258928571428,2785.2,134.28571428571428,140.08258928571428,2891.6,134.28571428571428,140.08258928571428,2994.6,134.28571428571428,140.08258928571428,3096.4,134.28571428571428,140.08258928571428,3200,134.28571428571428,140.08258928571428,3306,134.28571428571428,140.08258928571428,3410.1,134.28571428571428,140.08258928571428,3514.8,134.28571428571428,140.08258928571428,3615.1,134.28571428571428,140.08258928571428,3716.8,134.28571428571428,140.08258928571428,3825,134.28571428571428,140.08258928571428,3930.4,134.28571428571428,140.08258928571428,4035.3,134.28571428571428,140.08258928571428,4140.3,134.28571428571428,140.08258928571428,4240.4,134.28571428571428,140.08258928571428,4341.7,134.28571428571428,140.08258928571428,4445.9,134.28571428571428,140.08258928571428,4550.4,134.28571428571428,140.08258928571428,4654.6,134.28571428571428,140.08258928571428,4755.1,134.28571428571428,140.08258928571428,4858.6,134.28571428571428,140.08258928571428,4960.3]","[2248.8,2248.9,1000,0,1248.9,""smooth"",""left"",""left"",""good_move"",6052.2,3803,3267.8,2249.2,535.2,""smooth"",""left"",""left"",""good_move"",12551.2,6498.7,2373.5,9725.1,452.6,""smooth"",""up"",""up"",""good_move"",15552.8,3001.3,2154,12551.5,847.3,""oops"",""up"",""right"",""bad_move""]","","",""
"3001","","<div style=""width:500px;"">
  <p>What determined the result of this run?</p>
  </div>","21","html-slider-response","73","927767","0.0-10.0-1.7","1","1","2025-07-09 09:00:24","7701e855f2ef39aa3fd6c71abdc6918a","176.166.46.124","Mozilla/5.0 (Macintosh; Intel Mac OS X 10_15_7) AppleWebKit/537.36 (KHTML, like Gecko) Chrome/133.0.0.0 Safari/537.36","Macintosh","Chrome","133.0.0.0","OS X","10_15_7","https://app.prolific.com/","fr-FR,fr;q=0.9,en-US;q=0.8,en;q=0.7","6133593ca9cb1c01cc4c8de4","686d226cabeef709c732f8e1","686e2f91df7003a12f469bb3","6133593ca9cb1c01cc4c8de4","2025-07-09T09:15:53.185Z","","","","","","AttribQ","","","","","","","","","","","","","","","","","","","","","","","","","","","","","","","","","","","","","","50",""
"2499","","<div style=""width:500px;"">
  <p>How much control did you have over the ball?</p>
  </div>","22","html-slider-response","74","930267","0.0-10.0-2.7","1","1","2025-07-09 09:00:24","7701e855f2ef39aa3fd6c71abdc6918a","176.166.46.124","Mozilla/5.0 (Macintosh; Intel Mac OS X 10_15_7) AppleWebKit/537.36 (KHTML, like Gecko) Chrome/133.0.0.0 Safari/537.36","Macintosh","Chrome","133.0.0.0","OS X","10_15_7","https://app.prolific.com/","fr-FR,fr;q=0.9,en-US;q=0.8,en;q=0.7","6133593ca9cb1c01cc4c8de4","686d226cabeef709c732f8e1","686e2f91df7003a12f469bb3","6133593ca9cb1c01cc4c8de4","2025-07-09T09:15:55.685Z","","","","","","ControlQ","","","","","","","","","","","","","","","","","","","","","","","","","","","","","","","","","","","","","","50",""
"3566","","<div style=""width:500px;"">
  <p>How would you describe your current emotional state?</p>
  </div>","75","html-slider-response","75","933834","0.0-10.0-3.7","1","1","2025-07-09 09:00:24","7701e855f2ef39aa3fd6c71abdc6918a","176.166.46.124","Mozilla/5.0 (Macintosh; Intel Mac OS X 10_15_7) AppleWebKit/537.36 (KHTML, like Gecko) Chrome/133.0.0.0 Safari/537.36","Macintosh","Chrome","133.0.0.0","OS X","10_15_7","https://app.prolific.com/","fr-FR,fr;q=0.9,en-US;q=0.8,en;q=0.7","6133593ca9cb1c01cc4c8de4","686d226cabeef709c732f8e1","686e2f91df7003a12f469bb3","6133593ca9cb1c01cc4c8de4","2025-07-09T09:15:59.252Z","","","","","","StressQ","","","","","","","","","","","","","","","","","","","","","","","","","","","","","","","","","","","","","","50",""
"1465","","<div style=""width:500px;"">
  <p>What best describes how you currently feel?</p>
  </div>","25","html-slider-response","76","935300","0.0-10.0-4.7","1","1","2025-07-09 09:00:24","7701e855f2ef39aa3fd6c71abdc6918a","176.166.46.124","Mozilla/5.0 (Macintosh; Intel Mac OS X 10_15_7) AppleWebKit/537.36 (KHTML, like Gecko) Chrome/133.0.0.0 Safari/537.36","Macintosh","Chrome","133.0.0.0","OS X","10_15_7","https://app.prolific.com/","fr-FR,fr;q=0.9,en-US;q=0.8,en;q=0.7","6133593ca9cb1c01cc4c8de4","686d226cabeef709c732f8e1","686e2f91df7003a12f469bb3","6133593ca9cb1c01cc4c8de4","2025-07-09T09:16:00.718Z","","","","","","MotivationQ","","","","","","","","","","","","","","","","","","","","","","","","","","","","","","","","","","","","","","50",""
"","","","","ctl-task-cpt","77","967306","0.0-10.0-0.8","1","1","2025-07-09 09:00:24","7701e855f2ef39aa3fd6c71abdc6918a","176.166.46.124","Mozilla/5.0 (Macintosh; Intel Mac OS X 10_15_7) AppleWebKit/537.36 (KHTML, like Gecko) Chrome/133.0.0.0 Safari/537.36","Macintosh","Chrome","133.0.0.0","OS X","10_15_7","https://app.prolific.com/","fr-FR,fr;q=0.9,en-US;q=0.8,en;q=0.7","6133593ca9cb1c01cc4c8de4","686d226cabeef709c732f8e1","686e2f91df7003a12f469bb3","6133593ca9cb1c01cc4c8de4","2025-07-09T09:16:32.725Z","","","","","","","","","","","","","","","","win-only","3","g1:SW,g2:NE","0.2","9","0","936145.8","816.1","5825.7","28997.1","1","4","8","6","2","-8","-8","0","0","0","1566.7","3000","-2855","[""up"",""right""]","{""num_key_presses"":7,""num_perfect"":2,""num_errors"":0,""num_randdir"":5,""num_randdir_good_moves"":2,""num_whilered"":0,""num_whileblue"":0,""num_blue"":0,""num_good_moves"":4}","[674.2857142857143,684.0825892857143,0.1,676.2857142857143,688.0825892857143,104.5,676.2857142857143,692.0825892857143,209.1,676.2857142857143,692.0825892857143,314.4,498.2857142857143,798.0825892857143,414.8,170.28571428571428,1244.0825892857142,519.7,166.28571428571428,1254.0825892857142,629.4,196.28571428571428,1136.0825892857142,729.8,1300.2857142857142,-39.91741071428571,834.3,1300.2857142857142,-39.91741071428571,934.8,1300.2857142857142,-39.91741071428571,1034.9,1242.2857142857142,122.08258928571429,1134.9,1184.2857142857142,190.08258928571428,1243.9,1208.2857142857142,170.08258928571428,1344,1238.2857142857142,138.08258928571428,1444.3,1246.2857142857142,134.08258928571428,1544.6,1246.2857142857142,134.08258928571428,1644.8,1246.2857142857142,134.08258928571428,1749.4,1246.2857142857142,134.08258928571428,1855.1,1098.2857142857142,192.08258928571428,1960.1,680.2857142857143,822.0825892857143,2064.2,678.2857142857143,844.0825892857143,2165,678.2857142857143,844.0825892857143,2265.2,678.2857142857143,844.0825892857143,2371.7,678.2857142857143,844.0825892857143,2479.1,678.2857142857143,844.0825892857143,2579.6,784.2857142857143,836.0825892857143,2684.2,1072.2857142857142,868.0825892857143,2791.9,1072.2857142857142,868.0825892857143,2893.4,1072.2857142857142,868.0825892857143,2994.2,1072.2857142857142,868.0825892857143,3095,1072.2857142857142,868.0825892857143,3199.6,1072.2857142857142,868.0825892857143,3304.1,1072.2857142857142,868.0825892857143,3404.1,1072.2857142857142,868.0825892857143,3505.1,1072.2857142857142,868.0825892857143,3609.1,1072.2857142857142,868.0825892857143,3709.2,1072.2857142857142,868.0825892857143,3814.7,1072.2857142857142,868.0825892857143,3919.6,1072.2857142857142,868.0825892857143,4019.9,1072.2857142857142,868.0825892857143,4124,1072.2857142857142,868.0825892857143,4225.2,1072.2857142857142,868.0825892857143,4329.1,1072.2857142857142,868.0825892857143,4430,1072.2857142857142,868.0825892857143,4535,1072.2857142857142,868.0825892857143,4639.8,1072.2857142857142,868.0825892857143,4740.2,1072.2857142857142,868.0825892857143,4843.9,1072.2857142857142,868.0825892857143,4944]","[1750.9,1750.9,1000,0,750.9,""smooth"",""up"",""up"",""good_move"",5212.7,3461.5,3085.6,1751.2,375.9,""oops"",""up"",""right"",""good_move"",8173.7,2960.8,2609.8,5212.9,351,""oops"",""up"",""left"",""bad_move"",11008,2834.1,2399.6,8173.9,434.5,""oops"",""up"",""down"",""bad_move"",13800,2791.9,2449.2,11008.1,342.7,""smooth"",""up"",""up"",""good_move"",16941,3140.7,2759.9,13800.3,380.8,""oops"",""up"",""left"",""bad_move"",20033.2,3091.9,2741.6,16941.3,350.3,""oops"",""up"",""right"",""good_move""]","","",""
"3192","","<div style=""width:500px;"">
  <p>What determined the result of this run?</p>
  </div>","33","html-slider-response","78","970500","0.0-10.0-1.8","1","1","2025-07-09 09:00:24","7701e855f2ef39aa3fd6c71abdc6918a","176.166.46.124","Mozilla/5.0 (Macintosh; Intel Mac OS X 10_15_7) AppleWebKit/537.36 (KHTML, like Gecko) Chrome/133.0.0.0 Safari/537.36","Macintosh","Chrome","133.0.0.0","OS X","10_15_7","https://app.prolific.com/","fr-FR,fr;q=0.9,en-US;q=0.8,en;q=0.7","6133593ca9cb1c01cc4c8de4","686d226cabeef709c732f8e1","686e2f91df7003a12f469bb3","6133593ca9cb1c01cc4c8de4","2025-07-09T09:16:35.918Z","","","","","","AttribQ","","","","","","","","","","","","","","","","","","","","","","","","","","","","","","","","","","","","","","50",""
"6151","","<div style=""width:500px;"">
  <p>How much control did you have over the ball?</p>
  </div>","13","html-slider-response","79","976651","0.0-10.0-2.8","1","1","2025-07-09 09:00:24","7701e855f2ef39aa3fd6c71abdc6918a","176.166.46.124","Mozilla/5.0 (Macintosh; Intel Mac OS X 10_15_7) AppleWebKit/537.36 (KHTML, like Gecko) Chrome/133.0.0.0 Safari/537.36","Macintosh","Chrome","133.0.0.0","OS X","10_15_7","https://app.prolific.com/","fr-FR,fr;q=0.9,en-US;q=0.8,en;q=0.7","6133593ca9cb1c01cc4c8de4","686d226cabeef709c732f8e1","686e2f91df7003a12f469bb3","6133593ca9cb1c01cc4c8de4","2025-07-09T09:16:42.069Z","","","","","","ControlQ","","","","","","","","","","","","","","","","","","","","","","","","","","","","","","","","","","","","","","50",""
"4131","","<div style=""width:500px;"">
  <p>How would you describe your current emotional state?</p>
  </div>","67","html-slider-response","80","980783","0.0-10.0-3.8","1","1","2025-07-09 09:00:24","7701e855f2ef39aa3fd6c71abdc6918a","176.166.46.124","Mozilla/5.0 (Macintosh; Intel Mac OS X 10_15_7) AppleWebKit/537.36 (KHTML, like Gecko) Chrome/133.0.0.0 Safari/537.36","Macintosh","Chrome","133.0.0.0","OS X","10_15_7","https://app.prolific.com/","fr-FR,fr;q=0.9,en-US;q=0.8,en;q=0.7","6133593ca9cb1c01cc4c8de4","686d226cabeef709c732f8e1","686e2f91df7003a12f469bb3","6133593ca9cb1c01cc4c8de4","2025-07-09T09:16:46.201Z","","","","","","StressQ","","","","","","","","","","","","","","","","","","","","","","","","","","","","","","","","","","","","","","50",""
"2049","","<div style=""width:500px;"">
  <p>What best describes how you currently feel?</p>
  </div>","23","html-slider-response","81","982832","0.0-10.0-4.8","1","1","2025-07-09 09:00:24","7701e855f2ef39aa3fd6c71abdc6918a","176.166.46.124","Mozilla/5.0 (Macintosh; Intel Mac OS X 10_15_7) AppleWebKit/537.36 (KHTML, like Gecko) Chrome/133.0.0.0 Safari/537.36","Macintosh","Chrome","133.0.0.0","OS X","10_15_7","https://app.prolific.com/","fr-FR,fr;q=0.9,en-US;q=0.8,en;q=0.7","6133593ca9cb1c01cc4c8de4","686d226cabeef709c732f8e1","686e2f91df7003a12f469bb3","6133593ca9cb1c01cc4c8de4","2025-07-09T09:16:48.250Z","","","","","","MotivationQ","","","","","","","","","","","","","","","","","","","","","","","","","","","","","","","","","","","","","","50",""
"","","","","ctl-task-cpt","82","1007162","0.0-10.0-0.9","1","1","2025-07-09 09:00:24","7701e855f2ef39aa3fd6c71abdc6918a","176.166.46.124","Mozilla/5.0 (Macintosh; Intel Mac OS X 10_15_7) AppleWebKit/537.36 (KHTML, like Gecko) Chrome/133.0.0.0 Safari/537.36","Macintosh","Chrome","133.0.0.0","OS X","10_15_7","https://app.prolific.com/","fr-FR,fr;q=0.9,en-US;q=0.8,en;q=0.7","6133593ca9cb1c01cc4c8de4","686d226cabeef709c732f8e1","686e2f91df7003a12f469bb3","6133593ca9cb1c01cc4c8de4","2025-07-09T09:17:12.580Z","","","","","","","","","","","","","","","","win-only","3","g1:SW,g2:NE","0.4","10","0","983679.3","2031.8","7041.7","21320.9","1","4","4","6","1","1","1","1","0","0.007575757575757576","1100.1","3000","1675","[""down"",""left""]","{""num_key_presses"":4,""num_perfect"":2,""num_errors"":0,""num_randdir"":2,""num_randdir_good_moves"":2,""num_whilered"":0,""num_whileblue"":0,""num_blue"":1,""num_good_moves"":4}","[702.2857142857143,690.0825892857143,0,702.2857142857143,690.0825892857143,108.1,702.2857142857143,690.0825892857143,209.2,702.2857142857143,690.0825892857143,311.5,624.2857142857143,728.0825892857143,415.3,80.28571428571429,1254.0825892857142,519.5,20.285714285714292,1476.0825892857142,629,20.285714285714292,1476.0825892857142,734.2,20.285714285714292,1476.0825892857142,846.6,90.28571428571429,1364.0825892857142,949,126.28571428571429,1308.0825892857142,1054.7,134.28571428571428,1294.0825892857142,1162.4,134.28571428571428,1294.0825892857142,1263.8,134.28571428571428,1294.0825892857142,1368.5,134.28571428571428,1294.0825892857142,1469,134.28571428571428,1294.0825892857142,1569.7,134.28571428571428,1294.0825892857142,1676.3,134.28571428571428,1294.0825892857142,1779,134.28571428571428,1294.0825892857142,1879.5,134.28571428571428,1294.0825892857142,1983.9,134.28571428571428,1294.0825892857142,2084.4,134.28571428571428,1294.0825892857142,2192,134.28571428571428,1294.0825892857142,2293.6,134.28571428571428,1294.0825892857142,2393.8,134.28571428571428,1294.0825892857142,2493.9,134.28571428571428,1294.0825892857142,2594.5,134.28571428571428,1294.0825892857142,2699.4,134.28571428571428,1294.0825892857142,2803.5,134.28571428571428,1294.0825892857142,2904.4,134.28571428571428,1294.0825892857142,3014.1,134.28571428571428,1294.0825892857142,3118.5,134.28571428571428,1294.0825892857142,3219.2,134.28571428571428,1294.0825892857142,3319.4,134.28571428571428,1294.0825892857142,3419.8,134.28571428571428,1294.0825892857142,3526.8,134.28571428571428,1294.0825892857142,3629,134.28571428571428,1294.0825892857142,3733.5,134.28571428571428,1294.0825892857142,3833.5,134.28571428571428,1294.0825892857142,3933.9,134.28571428571428,1294.0825892857142,4034.7,134.28571428571428,1294.0825892857142,4139.6,134.28571428571428,1294.0825892857142,4243.2,134.28571428571428,1294.0825892857142,4343.5,134.28571428571428,1294.0825892857142,4444.5,134.28571428571428,1294.0825892857142,4549.2,134.28571428571428,1294.0825892857142,4649.2,134.28571428571428,1294.0825892857142,4757.4,134.28571428571428,1294.0825892857142,4858.5,134.28571428571428,1294.0825892857142,4958.7]","[5016.2,5016.3,2612.7,2004.3,399.3,""oops"",""down"",""down"",""good_move"",7914.5,2897.9,2565.5,5016.6,332.4,""smooth"",""down"",""down"",""good_move"",11477.9,3563.2,3216.4,7914.7,346.8,""oops"",""left"",""left"",""good_move"",14185.2,2707.1,2354.1,11478.1,353,""smooth"",""left"",""left"",""good_move""]","","",""
"8335","","<div style=""width:500px;"">
  <p>What determined the result of this run?</p>
