"rt","response_timestamp","stimulus","response","trial_type","trial_index","time_elapsed","internal_node_id","run_id","condition","recorded_at","source_code_version","ip","user_agent","device","browser","browser_version","platform","platform_version","referer","accept_language","PROLIFIC_PID","STUDY_ID","SESSION_ID","prolific_id","realtime","view_history","question_order","consent","success","question_id","eventType","responses","item_order","radio_event_ids","radio_event_times","key_event_times","mouse_event_times","straightlining","zigzagging","honeypot","which_type","canvas_config","goals_layout","control_level","trial_number","tutorial_trial_number","trial_start_time","phase1_start_time","phase2_start_time","phase3_start_time","goal_1_value","goal_1_distance","goal_2_value","goal_2_distance","goal_selected","outcome","outcome_total","participant_final_score","participant_initial_score","participant_final_score_prop","goal_choice_rt","allocated_time","allocated_time_remaining","goal_direction","counts","mouse_movements","key_presses","correct","slider_start"
"123800","1752052276750","<p style='font-size:40px;line-height:1.25'><strong>Welcome to the experiment!</strong></p><p style='font-size:1.1em;line-height:1.25'>Thank you for your interest in our experiment! Before you begin, it is important that we obtain your informed consent to participate in the study.</p><p style='font-size:1.1em;line-height:1.25'>On the next screen will be an <strong>information sheet</strong> for you to read. To participate in the study we need you to read this information sheet and the following consent form carefully. If you agree with all the statements, please click the <strong>I agree</strong> button.</p><p style='font-size:1.1em;line-height:1.25'>Press <strong>Next</strong> to read the information sheet.</p>","0","custom-html-button-response","0","123811","0.0-0.0","139","1","2025-07-09 09:09:10","7701e855f2ef39aa3fd6c71abdc6918a","41.150.32.213","Mozilla/5.0 (Windows NT 10.0; Win64; x64) AppleWebKit/537.36 (KHTML, like Gecko) Chrome/138.0.0.0 Safari/537.36","WebKit","Chrome","138.0.0.0","Windows","10.0","https://app.prolific.com/","en-ZA,en-GB;q=0.9,en-US;q=0.8,en;q=0.7","666408427db5e38fe0ea1736","686d226cabeef709c732f8e1","686e3134c5ff705efbb43705","666408427db5e38fe0ea1736","2025-07-09T09:11:16.752Z","","","","","","","","","","","","","","","","","","","","","","","","","","","","","","","","","","","","","","","","","","","",""
"42388","","","","instructions","1","166202","0.0-1.0","139","1","2025-07-09 09:09:10","7701e855f2ef39aa3fd6c71abdc6918a","41.150.32.213","Mozilla/5.0 (Windows NT 10.0; Win64; x64) AppleWebKit/537.36 (KHTML, like Gecko) Chrome/138.0.0.0 Safari/537.36","WebKit","Chrome","138.0.0.0","Windows","10.0","https://app.prolific.com/","en-ZA,en-GB;q=0.9,en-US;q=0.8,en;q=0.7","666408427db5e38fe0ea1736","686d226cabeef709c732f8e1","686e3134c5ff705efbb43705","666408427db5e38fe0ea1736","","[{""page_index"":0,""viewing_time"":32251},{""page_index"":1,""viewing_time"":10137}]","","","","","","","","","","","","","","","","","","","","","","","","","","","","","","","","","","","","","","","","","","",""
"9034","","","{""Q0"":"""",""Q1"":"""",""Q2"":"""",""Q3"":"""",""Q4"":"""",""Q5"":"""",""Q6"":""I agree""}","survey-multi-choice","2","175241","0.0-2.0","139","1","2025-07-09 09:09:10","7701e855f2ef39aa3fd6c71abdc6918a","41.150.32.213","Mozilla/5.0 (Windows NT 10.0; Win64; x64) AppleWebKit/537.36 (KHTML, like Gecko) Chrome/138.0.0.0 Safari/537.36","WebKit","Chrome","138.0.0.0","Windows","10.0","https://app.prolific.com/","en-ZA,en-GB;q=0.9,en-US;q=0.8,en;q=0.7","666408427db5e38fe0ea1736","686d226cabeef709c732f8e1","686e3134c5ff705efbb43705","666408427db5e38fe0ea1736","","","[0,1,2,3,4,5,6]","true","","","","","","","","","","","","","","","","","","","","","","","","","","","","","","","","","","","","","","","","",""
"127024","","","","fullscreen","3","303285","0.0-4.0","139","1","2025-07-09 09:09:10","7701e855f2ef39aa3fd6c71abdc6918a","41.150.32.213","Mozilla/5.0 (Windows NT 10.0; Win64; x64) AppleWebKit/537.36 (KHTML, like Gecko) Chrome/138.0.0.0 Safari/537.36","WebKit","Chrome","138.0.0.0","Windows","10.0","https://app.prolific.com/","en-ZA,en-GB;q=0.9,en-US;q=0.8,en;q=0.7","666408427db5e38fe0ea1736","686d226cabeef709c732f8e1","686e3134c5ff705efbb43705","666408427db5e38fe0ea1736","","","","","true","","","","","","","","","","","","","","","","","","","","","","","","","","","","","","","","","","","","","","","",""
"9267","1752052465495"," <p style='font-size:1.1em;line-height:1.25'>Thank you for completing the consent form and closing all other tabs.</p><p style='font-size:1.1em;line-height:1.25'>We will now invite you to fill in some demographic information and questionnaires, before starting the game.<br>This will take about 5 minutes.<br></p><p style='font-size:1.1em;line-height:1.25'>Press the <strong>Next</strong> button to continue.</p>","0","custom-html-button-response","4","312555","0.0-5.0","139","1","2025-07-09 09:09:10","7701e855f2ef39aa3fd6c71abdc6918a","41.150.32.213","Mozilla/5.0 (Windows NT 10.0; Win64; x64) AppleWebKit/537.36 (KHTML, like Gecko) Chrome/138.0.0.0 Safari/537.36","WebKit","Chrome","138.0.0.0","Windows","10.0","https://app.prolific.com/","en-ZA,en-GB;q=0.9,en-US;q=0.8,en;q=0.7","666408427db5e38fe0ea1736","686d226cabeef709c732f8e1","686e3134c5ff705efbb43705","666408427db5e38fe0ea1736","2025-07-09T09:14:25.496Z","","","","","","","","","","","","","","","","","","","","","","","","","","","","","","","","","","","","","","","","","","","",""
"3278","","","{""age"":""22""}","survey-text","5","315839","0.0-6.0-0.0","139","1","2025-07-09 09:09:10","7701e855f2ef39aa3fd6c71abdc6918a","41.150.32.213","Mozilla/5.0 (Windows NT 10.0; Win64; x64) AppleWebKit/537.36 (KHTML, like Gecko) Chrome/138.0.0.0 Safari/537.36","WebKit","Chrome","138.0.0.0","Windows","10.0","https://app.prolific.com/","en-ZA,en-GB;q=0.9,en-US;q=0.8,en;q=0.7","666408427db5e38fe0ea1736","686d226cabeef709c732f8e1","686e3134c5ff705efbb43705","666408427db5e38fe0ea1736","","","","","","0","demographics","","","","","","","","","","","","","","","","","","","","","","","","","","","","","","","","","","","","","",""
"4100","","","{""gender_identity"":""female/woman""}","survey-multi-choice","6","319942","0.0-6.0-1.0","139","1","2025-07-09 09:09:10","7701e855f2ef39aa3fd6c71abdc6918a","41.150.32.213","Mozilla/5.0 (Windows NT 10.0; Win64; x64) AppleWebKit/537.36 (KHTML, like Gecko) Chrome/138.0.0.0 Safari/537.36","WebKit","Chrome","138.0.0.0","Windows","10.0","https://app.prolific.com/","en-ZA,en-GB;q=0.9,en-US;q=0.8,en;q=0.7","666408427db5e38fe0ea1736","686d226cabeef709c732f8e1","686e3134c5ff705efbb43705","666408427db5e38fe0ea1736","","","[0]","","","1","demographics","","","","","","","","","","","","","","","","","","","","","","","","","","","","","","","","","","","","","",""
"4289","","","{""assigned_sex"":""female""}","survey-multi-choice","7","324233","0.0-6.0-2.0","139","1","2025-07-09 09:09:10","7701e855f2ef39aa3fd6c71abdc6918a","41.150.32.213","Mozilla/5.0 (Windows NT 10.0; Win64; x64) AppleWebKit/537.36 (KHTML, like Gecko) Chrome/138.0.0.0 Safari/537.36","WebKit","Chrome","138.0.0.0","Windows","10.0","https://app.prolific.com/","en-ZA,en-GB;q=0.9,en-US;q=0.8,en;q=0.7","666408427db5e38fe0ea1736","686d226cabeef709c732f8e1","686e3134c5ff705efbb43705","666408427db5e38fe0ea1736","","","[0]","","","2","demographics","","","","","","","","","","","","","","","","","","","","","","","","","","","","","","","","","","","","","",""
"4010","","","{""menstrual_cycle"":""Yes""}","survey-multi-choice","8","328245","0.0-6.0-3.0","139","1","2025-07-09 09:09:10","7701e855f2ef39aa3fd6c71abdc6918a","41.150.32.213","Mozilla/5.0 (Windows NT 10.0; Win64; x64) AppleWebKit/537.36 (KHTML, like Gecko) Chrome/138.0.0.0 Safari/537.36","WebKit","Chrome","138.0.0.0","Windows","10.0","https://app.prolific.com/","en-ZA,en-GB;q=0.9,en-US;q=0.8,en;q=0.7","666408427db5e38fe0ea1736","686d226cabeef709c732f8e1","686e3134c5ff705efbb43705","666408427db5e38fe0ea1736","","","[0]","","","4","demographics","","","","","","","","","","","","","","","","","","","","","","","","","","","","","","","","","","","","","",""
"4937","","","{""education"":""Bachelor's Degree (e.g., BA)""}","survey-multi-choice","9","333185","0.0-6.0-4.0","139","1","2025-07-09 09:09:10","7701e855f2ef39aa3fd6c71abdc6918a","41.150.32.213","Mozilla/5.0 (Windows NT 10.0; Win64; x64) AppleWebKit/537.36 (KHTML, like Gecko) Chrome/138.0.0.0 Safari/537.36","WebKit","Chrome","138.0.0.0","Windows","10.0","https://app.prolific.com/","en-ZA,en-GB;q=0.9,en-US;q=0.8,en;q=0.7","666408427db5e38fe0ea1736","686d226cabeef709c732f8e1","686e3134c5ff705efbb43705","666408427db5e38fe0ea1736","","","[0]","","","5","demographics","","","","","","","","","","","","","","","","","","","","","","","","","","","","","","","","","","","","","",""
"8630","","","{""education"":""Master's Degree (e.g., MSc)""}","survey-multi-choice","10","341816","0.0-6.0-5.0","139","1","2025-07-09 09:09:10","7701e855f2ef39aa3fd6c71abdc6918a","41.150.32.213","Mozilla/5.0 (Windows NT 10.0; Win64; x64) AppleWebKit/537.36 (KHTML, like Gecko) Chrome/138.0.0.0 Safari/537.36","WebKit","Chrome","138.0.0.0","Windows","10.0","https://app.prolific.com/","en-ZA,en-GB;q=0.9,en-US;q=0.8,en;q=0.7","666408427db5e38fe0ea1736","686d226cabeef709c732f8e1","686e3134c5ff705efbb43705","666408427db5e38fe0ea1736","2025-07-09T09:14:54.757Z","","[0]","","","6","demographics","","","","","","","","","","","","","","","","","","","","","","","","","","","","","","","","","","","","","",""
"278592","","","{""mental_health_condition"":""PTSD"",""mental_health_treatment"":""Cognitive Behavioral therapy"",""psychiatric_medication"":""sertaline :50 mg once daily""}","survey-text","11","620425","0.0-7.0-0.0","139","1","2025-07-09 09:09:10","7701e855f2ef39aa3fd6c71abdc6918a","41.150.32.213","Mozilla/5.0 (Windows NT 10.0; Win64; x64) AppleWebKit/537.36 (KHTML, like Gecko) Chrome/138.0.0.0 Safari/537.36","WebKit","Chrome","138.0.0.0","Windows","10.0","https://app.prolific.com/","en-ZA,en-GB;q=0.9,en-US;q=0.8,en;q=0.7","666408427db5e38fe0ea1736","686d226cabeef709c732f8e1","686e3134c5ff705efbb43705","666408427db5e38fe0ea1736","2025-07-09T09:19:33.366Z","","","","","1","mental_health","","","","","","","","","","","","","","","","","","","","","","","","","","","","","","","","","","","","","",""
"12688","","","{""depression_history"":[""Yes""]}","survey-multi-select","12","633117","0.0-7.0-1.0","139","1","2025-07-09 09:09:10","7701e855f2ef39aa3fd6c71abdc6918a","41.150.32.213","Mozilla/5.0 (Windows NT 10.0; Win64; x64) AppleWebKit/537.36 (KHTML, like Gecko) Chrome/138.0.0.0 Safari/537.36","WebKit","Chrome","138.0.0.0","Windows","10.0","https://app.prolific.com/","en-ZA,en-GB;q=0.9,en-US;q=0.8,en;q=0.7","666408427db5e38fe0ea1736","686d226cabeef709c732f8e1","686e3134c5ff705efbb43705","666408427db5e38fe0ea1736","","","[0]","","","","mental_health","","","","","","","","","","","","","","","","","","","","","","","","","","","","","","","","","","","","","",""
"14603","","","{""depression_episodes"":""3-5"",""depression_recent"":""More than 1 year ago""}","survey-multi-choice","13","647724","0.0-7.0-2.0-0.0","139","1","2025-07-09 09:09:10","7701e855f2ef39aa3fd6c71abdc6918a","41.150.32.213","Mozilla/5.0 (Windows NT 10.0; Win64; x64) AppleWebKit/537.36 (KHTML, like Gecko) Chrome/138.0.0.0 Safari/537.36","WebKit","Chrome","138.0.0.0","Windows","10.0","https://app.prolific.com/","en-ZA,en-GB;q=0.9,en-US;q=0.8,en;q=0.7","666408427db5e38fe0ea1736","686d226cabeef709c732f8e1","686e3134c5ff705efbb43705","666408427db5e38fe0ea1736","2025-07-09T09:20:00.665Z","","[0,1]","","","3","mental_health","","","","","","","","","","","","","","","","","","","","","","","","","","","","","","","","","","","","","",""
"91662.80000007153","","","","survey-template","14","739399","0.0-7.0-3.0","139","1","2025-07-09 09:09:10","7701e855f2ef39aa3fd6c71abdc6918a","41.150.32.213","Mozilla/5.0 (Windows NT 10.0; Win64; x64) AppleWebKit/537.36 (KHTML, like Gecko) Chrome/138.0.0.0 Safari/537.36","WebKit","Chrome","138.0.0.0","Windows","10.0","https://app.prolific.com/","en-ZA,en-GB;q=0.9,en-US;q=0.8,en;q=0.7","666408427db5e38fe0ea1736","686d226cabeef709c732f8e1","686e3134c5ff705efbb43705","666408427db5e38fe0ea1736","2025-07-09T09:21:32.340Z","","","","","","ius","{""Q01"":""4"",""Q02"":""3"",""Q03"":""3"",""Q04"":""4"",""Q05"":""3"",""Q06"":""2"",""Q07"":""3"",""Q08"":""0"",""Q09"":""3"",""Q10"":""4"",""Q11"":""3"",""Q12"":""4"",""Q13"":""2""}","[0,1,2,3,4,5,6,7,8,9,10,11,12]","[""Q01"",""Q02"",""Q03"",""Q04"",""Q05"",""Q06"",""Q05"",""Q06"",""Q07"",""Q08"",""Q09"",""Q10"",""Q11"",""Q12"",""Q13"",""Q13""]","[7081.700000047684,11116.399999976158,18702.399999976158,22216.200000047684,26881.399999976158,28213.899999976158,40338.39999997616,42397.700000047684,45079.10000002384,48876.39999997616,66082.20000004768,68884.89999997616,76220.39999997616,80323.20000004768,85203.60000002384,90409.30000007153]","[]","[3978.8000000715256,5746.399999976158,7081.700000047684,11116.399999976158,16257.300000071526,17519,18702.399999976158,22216.200000047684,25797.5,26881.399999976158,28213.899999976158,37204.10000002384,40338.39999997616,42397.700000047684,45079.10000002384,48876.39999997616,64986.700000047684,66082.20000004768,68884.89999997616,72996.5,74751.60000002384,76220.39999997616,79113.20000004768,80323.20000004768,83922.39999997616,85203.60000002384,90409.30000007153,91655.70000004768]","0.46153846153846156","0.6666666666666666","0","","","","","","","","","","","","","","","","","","","","","","","","","","","","",""
"3610","1752052895952","<p style='font-size:1.1em;line-height:1.25'>In the following, we will ask you a few questions relating to your experiences over the past month.<br></p><p style='font-size:1.1em;line-height:1.25'>Press the <strong>Next</strong> button to continue.</p>","0","custom-html-button-response","15","743011","0.0-7.0-4.0","139","1","2025-07-09 09:09:10","7701e855f2ef39aa3fd6c71abdc6918a","41.150.32.213","Mozilla/5.0 (Windows NT 10.0; Win64; x64) AppleWebKit/537.36 (KHTML, like Gecko) Chrome/138.0.0.0 Safari/537.36","WebKit","Chrome","138.0.0.0","Windows","10.0","https://app.prolific.com/","en-ZA,en-GB;q=0.9,en-US;q=0.8,en;q=0.7","666408427db5e38fe0ea1736","686d226cabeef709c732f8e1","686e3134c5ff705efbb43705","666408427db5e38fe0ea1736","2025-07-09T09:21:35.953Z","","","","","","","","","","","","","","","","","","","","","","","","","","","","","","","","","","","","","","","","","","","",""
"79221.89999997616","","","","survey-template","16","822240","0.0-7.0-5.0","139","1","2025-07-09 09:09:10","7701e855f2ef39aa3fd6c71abdc6918a","41.150.32.213","Mozilla/5.0 (Windows NT 10.0; Win64; x64) AppleWebKit/537.36 (KHTML, like Gecko) Chrome/138.0.0.0 Safari/537.36","WebKit","Chrome","138.0.0.0","Windows","10.0","https://app.prolific.com/","en-ZA,en-GB;q=0.9,en-US;q=0.8,en;q=0.7","666408427db5e38fe0ea1736","686d226cabeef709c732f8e1","686e3134c5ff705efbb43705","666408427db5e38fe0ea1736","2025-07-09T09:22:55.181Z","","","","","","pss","{""Q01"":""2"",""Q02"":""2"",""Q03"":""1"",""Q04"":""0"",""Q05"":""0"",""Q06"":""1"",""Q07"":""2"",""Q08"":""0"",""Q09"":""2"",""Q10"":""2""}","[0,1,2,3,4,5,6,7,8,9]","[""Q01"",""Q02"",""Q03"",""Q04"",""Q05"",""Q02"",""Q06"",""Q07"",""Q08"",""Q07"",""Q09"",""Q10""]","[13256.100000023842,19384.199999928474,23688.5,29826.600000023842,32886.5,42871.299999952316,49680.299999952316,56430.10000002384,64497.299999952316,65979.39999997616,72279.5,77914.89999997616]","[]","[0,9038.399999976158,11441.899999976158,13256.100000023842,18141,19384.199999928474,23688.5,28049.199999928474,29826.600000023842,31793.600000023842,32886.5,41405.39999997616,42871.299999952316,48498.60000002384,49680.299999952316,56430.10000002384,61844.5,64497.299999952316,65979.39999997616,70945,72279.5,77914.89999997616,79214.5]","0.5","0.2222222222222222","0","","","","","","","","","","","","","","","","","","","","","","","","","","","","",""
"3557","1752052978740","<p style='font-size:1.1em;line-height:1.25'>Thank you for your answers! Now we will ask you a few more questions relating to your feelings in the last 24 hours.<br></p><p style='font-size:1.1em;line-height:1.25'>Press the <strong>Next</strong> button to continue.</p>","0","custom-html-button-response","17","825800","0.0-7.0-6.0","139","1","2025-07-09 09:09:10","7701e855f2ef39aa3fd6c71abdc6918a","41.150.32.213","Mozilla/5.0 (Windows NT 10.0; Win64; x64) AppleWebKit/537.36 (KHTML, like Gecko) Chrome/138.0.0.0 Safari/537.36","WebKit","Chrome","138.0.0.0","Windows","10.0","https://app.prolific.com/","en-ZA,en-GB;q=0.9,en-US;q=0.8,en;q=0.7","666408427db5e38fe0ea1736","686d226cabeef709c732f8e1","686e3134c5ff705efbb43705","666408427db5e38fe0ea1736","2025-07-09T09:22:58.741Z","","","","","","","","","","","","","","","","","","","","","","","","","","","","","","","","","","","","","","","","","","","",""
"148661.29999995232","","","","survey-template","18","974475","0.0-7.0-7.0","139","1","2025-07-09 09:09:10","7701e855f2ef39aa3fd6c71abdc6918a","41.150.32.213","Mozilla/5.0 (Windows NT 10.0; Win64; x64) AppleWebKit/537.36 (KHTML, like Gecko) Chrome/138.0.0.0 Safari/537.36","WebKit","Chrome","138.0.0.0","Windows","10.0","https://app.prolific.com/","en-ZA,en-GB;q=0.9,en-US;q=0.8,en;q=0.7","666408427db5e38fe0ea1736","686d226cabeef709c732f8e1","686e3134c5ff705efbb43705","666408427db5e38fe0ea1736","2025-07-09T09:25:27.416Z","","","","","","drsp","{""Q01"":""2"",""Q02"":""1"",""Q03"":""1"",""Q04"":""3"",""Q05"":""3"",""Q06"":""2"",""Q07"":""2"",""Q08"":""1"",""Q09"":""2"",""Q10"":""2"",""Q11"":""2"",""Q12"":""3"",""Q13"":""2"",""Q14"":""2"",""Q15"":""2"",""Q16"":""1"",""Q17"":""0"",""Q18"":""3"",""Q19"":""2"",""Q20"":""3"",""Q21"":""4""}","[0,1,2,3,4,5,6,7,8,9,10,11,12,13,14,15,16,17,18,19,20]","[""Q01"",""Q02"",""Q03"",""Q04"",""Q05"",""Q06"",""Q07"",""Q08"",""Q09"",""Q10"",""Q11"",""Q12"",""Q13"",""Q14"",""Q15"",""Q16"",""Q17"",""Q18"",""Q18"",""Q17"",""Q19"",""Q20"",""Q21""]","[4507.699999928474,8022.599999904633,10689.599999904633,13360,21092.799999952316,25054.699999928474,26327.599999904633,30883.699999928474,38226.89999997616,41644,46171.09999990463,52298.5,54610,58618.09999990463,64276.799999952316,110566.19999992847,112704.79999995232,117670,124932.09999990463,132106.39999997616,136292.69999992847,143257.5,146937.89999997616]","[]","[0.09999990463256836,4507.699999928474,8022.599999904633,10689.599999904633,13360,18122.899999976158,19507.799999952316,21092.799999952316,23572.099999904633,25054.699999928474,26327.599999904633,28939.899999976158,30023.799999952316,30883.699999928474,36979,38226.89999997616,41644,44751.199999928474,46171.09999990463,52298.5,54610,58618.09999990463,62386,64276.799999952316,70516.09999990463,110566.19999992847,112704.79999995232,117670,119614,124932.09999990463,130551.89999997616,132106.39999997616,136292.69999992847,143257.5,146937.89999997616,148649.89999997616]","0.47619047619047616","0.55","0","","","","","","","","","","","","","","","","","","","","","","","","","","","","",""
"25548.5","","","","survey-template","19","1000027","0.0-7.0-8.0","139","1","2025-07-09 09:09:10","7701e855f2ef39aa3fd6c71abdc6918a","41.150.32.213","Mozilla/5.0 (Windows NT 10.0; Win64; x64) AppleWebKit/537.36 (KHTML, like Gecko) Chrome/138.0.0.0 Safari/537.36","WebKit","Chrome","138.0.0.0","Windows","10.0","https://app.prolific.com/","en-ZA,en-GB;q=0.9,en-US;q=0.8,en;q=0.7","666408427db5e38fe0ea1736","686d226cabeef709c732f8e1","686e3134c5ff705efbb43705","666408427db5e38fe0ea1736","2025-07-09T09:25:52.968Z","","","","","","stress","{""Q01"":""3"",""Q02"":""3"",""Q03"":""3""}","[0,1,2]","[""Q01"",""Q02"",""Q03""]","[16365.600000023842,17648.100000023842,24269.100000023842]","[]","[16365.600000023842,17648.100000023842,23128.800000071526,24269.100000023842,25545.600000023842]","0.6666666666666666","1","0","","","","","","","","","","","","","","","","","","","","","","","","","","","","",""
"161226","","","","instructions","20","1161263","0.0-8.0-0.0","139","1","2025-07-09 09:09:10","7701e855f2ef39aa3fd6c71abdc6918a","41.150.32.213","Mozilla/5.0 (Windows NT 10.0; Win64; x64) AppleWebKit/537.36 (KHTML, like Gecko) Chrome/138.0.0.0 Safari/537.36","WebKit","Chrome","138.0.0.0","Windows","10.0","https://app.prolific.com/","en-ZA,en-GB;q=0.9,en-US;q=0.8,en;q=0.7","666408427db5e38fe0ea1736","686d226cabeef709c732f8e1","686e3134c5ff705efbb43705","666408427db5e38fe0ea1736","","[{""page_index"":0,""viewing_time"":85605},{""page_index"":1,""viewing_time"":36360},{""page_index"":2,""viewing_time"":18027},{""page_index"":3,""viewing_time"":21234}]","","","","","","","","","","","","","","","","","","","","","","","","","","","","","","","","","","","","","","","","","","",""
"","","","","ctl-task-cpt","21","1190472","0.0-8.0-1.0","139","1","2025-07-09 09:09:10","7701e855f2ef39aa3fd6c71abdc6918a","41.150.32.213","Mozilla/5.0 (Windows NT 10.0; Win64; x64) AppleWebKit/537.36 (KHTML, like Gecko) Chrome/138.0.0.0 Safari/537.36","WebKit","Chrome","138.0.0.0","Windows","10.0","https://app.prolific.com/","en-ZA,en-GB;q=0.9,en-US;q=0.8,en;q=0.7","666408427db5e38fe0ea1736","686d226cabeef709c732f8e1","686e3134c5ff705efbb43705","666408427db5e38fe0ea1736","","","","","","","","","","","","","","","","","win-only","1","g1:NE,g2:SW","1","0","1","1164455.6","3789.1","7799.2","26193","2","4","4","6","1","2","-2","0","0","0","2479.6","4000","2105","[""up"",""right""]","{""num_key_presses"":14,""num_perfect"":4,""num_errors"":4,""num_randdir"":0,""num_randdir_good_moves"":0,""num_whilered"":6,""num_whileblue"":0,""num_blue"":0,""num_good_moves"":4}","[304.22232142857143,296.12857142857143,1,304.22232142857143,296.12857142857143,109.8,304.22232142857143,296.12857142857143,227.3,304.22232142857143,296.12857142857143,332.6,304.22232142857143,296.12857142857143,443.5,304.22232142857143,296.12857142857143,546.8,304.22232142857143,296.12857142857143,650.3,304.22232142857143,296.12857142857143,756.8,304.22232142857143,296.12857142857143,859.6,333.22232142857143,303.12857142857143,960.4,377.22232142857143,278.12857142857143,1063.7,423.22232142857143,227.12857142857143,1165.5,426.22232142857143,222.12857142857143,1266.6,443.22232142857143,195.12857142857143,1367.4,459.22232142857143,166.12857142857143,1469,522.2223214285714,31.128571428571426,1578.5,543.2223214285714,-9.871428571428574,1686.4,545.2223214285714,-11.871428571428574,1792.4,545.2223214285714,7.128571428571426,1898.1,538.2223214285714,26.128571428571426,2005.7,535.2223214285714,30.128571428571426,2113.8,535.2223214285714,30.128571428571426,2213.8,535.2223214285714,30.128571428571426,2314.3,535.2223214285714,30.128571428571426,2417.3,535.2223214285714,30.128571428571426,2517.9,535.2223214285714,30.128571428571426,2618.8,535.2223214285714,30.128571428571426,2723.8,535.2223214285714,30.128571428571426,2824.5,535.2223214285714,30.128571428571426,2928,535.2223214285714,30.128571428571426,3034.6,535.2223214285714,30.128571428571426,3139.6,535.2223214285714,30.128571428571426,3240.2,535.2223214285714,30.128571428571426,3352.6,535.2223214285714,30.128571428571426,3458.5,507.22232142857143,71.12857142857143,3558.6,467.22232142857143,122.12857142857143,3663.4,450.22232142857143,140.12857142857143,3768.8,429.22232142857143,163.12857142857143,3878.5,398.22232142857143,181.12857142857143,3978.8]","[1872.5,1872.4,1000,0.1,872.5,""smooth"",""right"",""right"",""good_move"",2117.6,243.3,2040.8,1874.5,-1797.7,""error"",""-"",""-"",""no_move"",2330.8,212.5,2040.8,1874.5,-1584.5,""while_red"",""-"",""-"",""no_move"",2453.5,335.2,2040.8,1874.5,-1461.7,""while_red"",""-"",""-"",""no_move"",2643.8,525.6,2040.8,1874.5,-1271.4,""while_red"",""-"",""-"",""no_move"",3662.7,1544.4,3409.7,3122.9,-2869.9,""error"",""-"",""-"",""no_move"",3873.4,210.1,3409.7,3122.9,-2659,""while_red"",""-"",""-"",""no_move"",4055.7,392.2,3409.7,3122.9,-2476.9,""while_red"",""-"",""-"",""no_move"",4510.3,846.8,3409.7,3122.9,-2022.3,""while_red"",""-"",""-"",""no_move"",6012.7,2349.2,3043.8,4669.4,-1700.5,""error"",""-"",""-"",""no_move"",9785.3,3771.9,2415.8,7015.2,354.3,""smooth"",""up"",""up"",""good_move"",11396.7,1610.4,1820.5,9786.3,-210.1,""error"",""-"",""-"",""no_move"",15298.5,3901,2497.1,12403.8,397.6,""smooth"",""up"",""up"",""good_move"",18261.4,2962,2015.4,15299.4,946.6,""smooth"",""right"",""right"",""good_move""]","",""
"18565","","","","instructions","22","1209041","0.0-8.0-2.0","139","1","2025-07-09 09:09:10","7701e855f2ef39aa3fd6c71abdc6918a","41.150.32.213","Mozilla/5.0 (Windows NT 10.0; Win64; x64) AppleWebKit/537.36 (KHTML, like Gecko) Chrome/138.0.0.0 Safari/537.36","WebKit","Chrome","138.0.0.0","Windows","10.0","https://app.prolific.com/","en-ZA,en-GB;q=0.9,en-US;q=0.8,en;q=0.7","666408427db5e38fe0ea1736","686d226cabeef709c732f8e1","686e3134c5ff705efbb43705","666408427db5e38fe0ea1736","","[{""page_index"":0,""viewing_time"":18565}]","","","","","","","","","","","","","","","","","","","","","","","","","","","","","","","","","","","","","","","","","","",""
"","","","","ctl-task-cpt","23","1259187","0.0-8.0-3.0","139","1","2025-07-09 09:09:10","7701e855f2ef39aa3fd6c71abdc6918a","41.150.32.213","Mozilla/5.0 (Windows NT 10.0; Win64; x64) AppleWebKit/537.36 (KHTML, like Gecko) Chrome/138.0.0.0 Safari/537.36","WebKit","Chrome","138.0.0.0","Windows","10.0","https://app.prolific.com/","en-ZA,en-GB;q=0.9,en-US;q=0.8,en;q=0.7","666408427db5e38fe0ea1736","686d226cabeef709c732f8e1","686e3134c5ff705efbb43705","666408427db5e38fe0ea1736","","","","","","","","","","","","","","","","","win-only","1","g1:NE,g2:SW","0.35","0","3","1212228.4","2263","6265.2","47133.9","2","4","8","6","1","-2","-3","0","0","0","4002.2","4000","-2295","[""up"",""right""]","{""num_key_presses"":10,""num_perfect"":4,""num_errors"":1,""num_randdir"":5,""num_randdir_good_moves"":1,""num_whilered"":0,""num_whileblue"":0,""num_blue"":2,""num_good_moves"":5}","[296.22232142857143,301.12857142857143,0.6,296.22232142857143,301.12857142857143,106.7,296.22232142857143,301.12857142857143,210,296.22232142857143,301.12857142857143,311.2,296.22232142857143,301.12857142857143,418.2,296.22232142857143,301.12857142857143,527.1,296.22232142857143,301.12857142857143,628.4,296.22232142857143,301.12857142857143,729.1,296.22232142857143,301.12857142857143,835,296.22232142857143,301.12857142857143,938.6,296.22232142857143,301.12857142857143,1045.6,296.22232142857143,301.12857142857143,1153.4,296.22232142857143,301.12857142857143,1265,296.22232142857143,301.12857142857143,1366.5,296.22232142857143,301.12857142857143,1473.8,296.22232142857143,301.12857142857143,1573.8,296.22232142857143,301.12857142857143,1678.2,296.22232142857143,301.12857142857143,1780.9,296.22232142857143,301.12857142857143,1881.9,296.22232142857143,301.12857142857143,1986.3,296.22232142857143,301.12857142857143,2088,296.22232142857143,301.12857142857143,2188.1,296.22232142857143,301.12857142857143,2293.4,296.22232142857143,301.12857142857143,2398.9,296.22232142857143,301.12857142857143,2500.8,296.22232142857143,301.12857142857143,2608.9,296.22232142857143,301.12857142857143,2716.5,296.22232142857143,301.12857142857143,2818.1,296.22232142857143,301.12857142857143,2920.5,296.22232142857143,301.12857142857143,3023.4,296.22232142857143,301.12857142857143,3128.2,296.22232142857143,301.12857142857143,3236.3,296.22232142857143,301.12857142857143,3337.5,296.22232142857143,301.12857142857143,3437.5,296.22232142857143,301.12857142857143,3537.8,296.22232142857143,301.12857142857143,3638.5,296.22232142857143,301.12857142857143,3739.4,296.22232142857143,301.12857142857143,3844.7,296.22232142857143,301.12857142857143,3944.7]","[819.8,819.8,1000,0,-180.1,""error"",""-"",""-"",""no_move"",4845.5,4025.1,2532.7,1821.4,491.4,""oops"",""right"",""right"",""good_move"",8147.3,3300.5,2700.2,4846.8,600.3,""smooth"",""right"",""right"",""good_move"",15252.6,7104.8,3068.2,11705.9,478.5,""oops"",""up"",""left"",""bad_move"",17749.8,2496.5,1715.1,15253.3,781.4,""oops"",""up"",""down"",""bad_move"",21019.5,3268.9,2820.9,17750.6,448,""oops"",""up"",""down"",""bad_move"",24120.6,3100.6,2568.9,21020,531.7,""smooth"",""up"",""up"",""good_move"",30690.6,6569.3,2270.5,27986.8,433.3,""smooth"",""up"",""up"",""good_move"",34398.4,3707.4,3231.3,30691.1,476,""smooth"",""up"",""up"",""good_move"",38220,3820.7,2832.8,34399.4,987.8,""oops"",""up"",""down"",""bad_move""]","",""
"73670","","","","instructions","24","1332864","0.0-8.0-4.0","139","1","2025-07-09 09:09:10","7701e855f2ef39aa3fd6c71abdc6918a","41.150.32.213","Mozilla/5.0 (Windows NT 10.0; Win64; x64) AppleWebKit/537.36 (KHTML, like Gecko) Chrome/138.0.0.0 Safari/537.36","WebKit","Chrome","138.0.0.0","Windows","10.0","https://app.prolific.com/","en-ZA,en-GB;q=0.9,en-US;q=0.8,en;q=0.7","666408427db5e38fe0ea1736","686d226cabeef709c732f8e1","686e3134c5ff705efbb43705","666408427db5e38fe0ea1736","","[{""page_index"":0,""viewing_time"":9967},{""page_index"":1,""viewing_time"":63702}]","","","","","","","","","","","","","","","","","","","","","","","","","","","","","","","","","","","","","","","","","","",""
"15657","","","{""green_ball"":[""Ball always moves in the direction I press""]}","survey-multi-select","25","1348527","0.0-8.0-5.0-0.0","139","1","2025-07-09 09:09:10","7701e855f2ef39aa3fd6c71abdc6918a","41.150.32.213","Mozilla/5.0 (Windows NT 10.0; Win64; x64) AppleWebKit/537.36 (KHTML, like Gecko) Chrome/138.0.0.0 Safari/537.36","WebKit","Chrome","138.0.0.0","Windows","10.0","https://app.prolific.com/","en-ZA,en-GB;q=0.9,en-US;q=0.8,en;q=0.7","666408427db5e38fe0ea1736","686d226cabeef709c732f8e1","686e3134c5ff705efbb43705","666408427db5e38fe0ea1736","","","[0]","","","","quiz","","","","","","","","","","","","","","","","","","","","","","","","","","","","","","","","","","","","","false",""
"3663","","<p align='center'><b>INCORRECT.</b> Usually the green ball moves in the indicated direction, but sometimes it shakes and moves randomly. </p>","0","html-button-response","26","1352195","0.0-8.0-5.0-1.0","139","1","2025-07-09 09:09:10","7701e855f2ef39aa3fd6c71abdc6918a","41.150.32.213","Mozilla/5.0 (Windows NT 10.0; Win64; x64) AppleWebKit/537.36 (KHTML, like Gecko) Chrome/138.0.0.0 Safari/537.36","WebKit","Chrome","138.0.0.0","Windows","10.0","https://app.prolific.com/","en-ZA,en-GB;q=0.9,en-US;q=0.8,en;q=0.7","666408427db5e38fe0ea1736","686d226cabeef709c732f8e1","686e3134c5ff705efbb43705","666408427db5e38fe0ea1736","","","","","","","","","","","","","","","","","","","","","","","","","","","","","","","","","","","","","","","","","","","","",""
"4897","","","{""green_ball"":[""Ball sometimes shakes and moves in a random direction""]}","survey-multi-select","27","1357097","0.0-8.0-5.1-0.1","139","1","2025-07-09 09:09:10","7701e855f2ef39aa3fd6c71abdc6918a","41.150.32.213","Mozilla/5.0 (Windows NT 10.0; Win64; x64) AppleWebKit/537.36 (KHTML, like Gecko) Chrome/138.0.0.0 Safari/537.36","WebKit","Chrome","138.0.0.0","Windows","10.0","https://app.prolific.com/","en-ZA,en-GB;q=0.9,en-US;q=0.8,en;q=0.7","666408427db5e38fe0ea1736","686d226cabeef709c732f8e1","686e3134c5ff705efbb43705","666408427db5e38fe0ea1736","","","[0]","","","","quiz","","","","","","","","","","","","","","","","","","","","","","","","","","","","","","","","","","","","","true",""
"3090","","<p align='center'><b>CORRECT!</b> Indeed, the green ball may sometimes shake and move in a random direction.</p>","0","html-button-response","28","1360190","0.0-8.0-5.1-1.1","139","1","2025-07-09 09:09:10","7701e855f2ef39aa3fd6c71abdc6918a","41.150.32.213","Mozilla/5.0 (Windows NT 10.0; Win64; x64) AppleWebKit/537.36 (KHTML, like Gecko) Chrome/138.0.0.0 Safari/537.36","WebKit","Chrome","138.0.0.0","Windows","10.0","https://app.prolific.com/","en-ZA,en-GB;q=0.9,en-US;q=0.8,en;q=0.7","666408427db5e38fe0ea1736","686d226cabeef709c732f8e1","686e3134c5ff705efbb43705","666408427db5e38fe0ea1736","","","","","","","","","","","","","","","","","","","","","","","","","","","","","","","","","","","","","","","","","","","","",""
"6940","","","{""yellow_ball"":[""Ball doesn‘t move and I get -1 penalty point""]}","survey-multi-select","29","1367135","0.0-8.0-6.0-0.0","139","1","2025-07-09 09:09:10","7701e855f2ef39aa3fd6c71abdc6918a","41.150.32.213","Mozilla/5.0 (Windows NT 10.0; Win64; x64) AppleWebKit/537.36 (KHTML, like Gecko) Chrome/138.0.0.0 Safari/537.36","WebKit","Chrome","138.0.0.0","Windows","10.0","https://app.prolific.com/","en-ZA,en-GB;q=0.9,en-US;q=0.8,en;q=0.7","666408427db5e38fe0ea1736","686d226cabeef709c732f8e1","686e3134c5ff705efbb43705","666408427db5e38fe0ea1736","","","[0]","","","","quiz","","","","","","","","","","","","","","","","","","","","","","","","","","","","","","","","","","","","","true",""
"2605","","<p align='center'><b>CORRECT!</b> Indeed, the yellow ball never moves and you receive a penalty.</p>","0","html-button-response","30","1369742","0.0-8.0-6.0-1.0","139","1","2025-07-09 09:09:10","7701e855f2ef39aa3fd6c71abdc6918a","41.150.32.213","Mozilla/5.0 (Windows NT 10.0; Win64; x64) AppleWebKit/537.36 (KHTML, like Gecko) Chrome/138.0.0.0 Safari/537.36","WebKit","Chrome","138.0.0.0","Windows","10.0","https://app.prolific.com/","en-ZA,en-GB;q=0.9,en-US;q=0.8,en;q=0.7","666408427db5e38fe0ea1736","686d226cabeef709c732f8e1","686e3134c5ff705efbb43705","666408427db5e38fe0ea1736","","","","","","","","","","","","","","","","","","","","","","","","","","","","","","","","","","","","","","","","","","","","",""
"6189","","","{""blue_ball"":[""Ball doesn‘t move and I get -1 penalty point""]}","survey-multi-select","31","1375937","0.0-8.0-7.0-0.0","139","1","2025-07-09 09:09:10","7701e855f2ef39aa3fd6c71abdc6918a","41.150.32.213","Mozilla/5.0 (Windows NT 10.0; Win64; x64) AppleWebKit/537.36 (KHTML, like Gecko) Chrome/138.0.0.0 Safari/537.36","WebKit","Chrome","138.0.0.0","Windows","10.0","https://app.prolific.com/","en-ZA,en-GB;q=0.9,en-US;q=0.8,en;q=0.7","666408427db5e38fe0ea1736","686d226cabeef709c732f8e1","686e3134c5ff705efbb43705","666408427db5e38fe0ea1736","","","[0]","","","","quiz","","","","","","","","","","","","","","","","","","","","","","","","","","","","","","","","","","","","","false",""
"2474","","<p align='center'><b>INCORRECT.</b> The blue ball always shakes and moves randomly.</p>","0","html-button-response","32","1378414","0.0-8.0-7.0-1.0","139","1","2025-07-09 09:09:10","7701e855f2ef39aa3fd6c71abdc6918a","41.150.32.213","Mozilla/5.0 (Windows NT 10.0; Win64; x64) AppleWebKit/537.36 (KHTML, like Gecko) Chrome/138.0.0.0 Safari/537.36","WebKit","Chrome","138.0.0.0","Windows","10.0","https://app.prolific.com/","en-ZA,en-GB;q=0.9,en-US;q=0.8,en;q=0.7","666408427db5e38fe0ea1736","686d226cabeef709c732f8e1","686e3134c5ff705efbb43705","666408427db5e38fe0ea1736","","","","","","","","","","","","","","","","","","","","","","","","","","","","","","","","","","","","","","","","","","","","",""
"5535","","","{""blue_ball"":[""Ball always shakes and moves in a random direction""]}","survey-multi-select","33","1383952","0.0-8.0-7.1-0.1","139","1","2025-07-09 09:09:10","7701e855f2ef39aa3fd6c71abdc6918a","41.150.32.213","Mozilla/5.0 (Windows NT 10.0; Win64; x64) AppleWebKit/537.36 (KHTML, like Gecko) Chrome/138.0.0.0 Safari/537.36","WebKit","Chrome","138.0.0.0","Windows","10.0","https://app.prolific.com/","en-ZA,en-GB;q=0.9,en-US;q=0.8,en;q=0.7","666408427db5e38fe0ea1736","686d226cabeef709c732f8e1","686e3134c5ff705efbb43705","666408427db5e38fe0ea1736","","","[0]","","","","quiz","","","","","","","","","","","","","","","","","","","","","","","","","","","","","","","","","","","","","true",""
"7222","","<p align='center'><b>CORRECT!</b> Indeed, the blue ball always shakes and moves in a random direction. Also there is a penalty of -1 point.</p>","0","html-button-response","34","1391177","0.0-8.0-7.1-1.1","139","1","2025-07-09 09:09:10","7701e855f2ef39aa3fd6c71abdc6918a","41.150.32.213","Mozilla/5.0 (Windows NT 10.0; Win64; x64) AppleWebKit/537.36 (KHTML, like Gecko) Chrome/138.0.0.0 Safari/537.36","WebKit","Chrome","138.0.0.0","Windows","10.0","https://app.prolific.com/","en-ZA,en-GB;q=0.9,en-US;q=0.8,en;q=0.7","666408427db5e38fe0ea1736","686d226cabeef709c732f8e1","686e3134c5ff705efbb43705","666408427db5e38fe0ea1736","","","","","","","","","","","","","","","","","","","","","","","","","","","","","","","","","","","","","","","","","","","","",""
"7128","","","{""bonus"":[""When I reach 50% of points""]}","survey-multi-select","35","1398312","0.0-8.0-8.0-0.0","139","1","2025-07-09 09:09:10","7701e855f2ef39aa3fd6c71abdc6918a","41.150.32.213","Mozilla/5.0 (Windows NT 10.0; Win64; x64) AppleWebKit/537.36 (KHTML, like Gecko) Chrome/138.0.0.0 Safari/537.36","WebKit","Chrome","138.0.0.0","Windows","10.0","https://app.prolific.com/","en-ZA,en-GB;q=0.9,en-US;q=0.8,en;q=0.7","666408427db5e38fe0ea1736","686d226cabeef709c732f8e1","686e3134c5ff705efbb43705","666408427db5e38fe0ea1736","","","[0]","","","","quiz","","","","","","","","","","","","","","","","","","","","","","","","","","","","","","","","","","","","","true",""
"3683","","<p align='center'><b>CORRECT!</b> Indeed, you receive 2 pounds extra when you reach 50% of points.</p>","0","html-button-response","36","1401998","0.0-8.0-8.0-1.0","139","1","2025-07-09 09:09:10","7701e855f2ef39aa3fd6c71abdc6918a","41.150.32.213","Mozilla/5.0 (Windows NT 10.0; Win64; x64) AppleWebKit/537.36 (KHTML, like Gecko) Chrome/138.0.0.0 Safari/537.36","WebKit","Chrome","138.0.0.0","Windows","10.0","https://app.prolific.com/","en-ZA,en-GB;q=0.9,en-US;q=0.8,en;q=0.7","666408427db5e38fe0ea1736","686d226cabeef709c732f8e1","686e3134c5ff705efbb43705","666408427db5e38fe0ea1736","","","","","","","","","","","","","","","","","","","","","","","","","","","","","","","","","","","","","","","","","","","","",""
"4059","","","","instructions","37","1406060","0.0-8.0-9.0","139","1","2025-07-09 09:09:10","7701e855f2ef39aa3fd6c71abdc6918a","41.150.32.213","Mozilla/5.0 (Windows NT 10.0; Win64; x64) AppleWebKit/537.36 (KHTML, like Gecko) Chrome/138.0.0.0 Safari/537.36","WebKit","Chrome","138.0.0.0","Windows","10.0","https://app.prolific.com/","en-ZA,en-GB;q=0.9,en-US;q=0.8,en;q=0.7","666408427db5e38fe0ea1736","686d226cabeef709c732f8e1","686e3134c5ff705efbb43705","666408427db5e38fe0ea1736","","[{""page_index"":0,""viewing_time"":4059}]","","","","","","","","","","","","","","","","","","","","","","","","","","","","","","","","","","","","","","","","","","",""
"12950","","<p>Before you start with this game please answer the following three questions yourself. </p>
  <p>Through this game, we measure several aspects of your cognitive performance, such as reaction times, multi-tasking capabilities </p>
  <p>and the ability to assess the situation you are in.</p>
  <p></p>
  <p><b>How good do you usually are in such tasks?</b></p>","81","html-slider-response","38","1419014","0.0-9.0-0.0","139","1","2025-07-09 09:09:10","7701e855f2ef39aa3fd6c71abdc6918a","41.150.32.213","Mozilla/5.0 (Windows NT 10.0; Win64; x64) AppleWebKit/537.36 (KHTML, like Gecko) Chrome/138.0.0.0 Safari/537.36","WebKit","Chrome","138.0.0.0","Windows","10.0","https://app.prolific.com/","en-ZA,en-GB;q=0.9,en-US;q=0.8,en;q=0.7","666408427db5e38fe0ea1736","686d226cabeef709c732f8e1","686e3134c5ff705efbb43705","666408427db5e38fe0ea1736","2025-07-09T09:32:51.955Z","","","","","","PreSkillQ","","","","","","","","","","","","","","","","","","","","","","","","","","","","","","","","","","","","","","50"
"13259","","<div style=""width:500px;"">
  <p>How well do you think you will perform in this task compared to other participants?</p>
  </div>","86","html-slider-response","39","1432277","0.0-9.0-1.0","139","1","2025-07-09 09:09:10","7701e855f2ef39aa3fd6c71abdc6918a","41.150.32.213","Mozilla/5.0 (Windows NT 10.0; Win64; x64) AppleWebKit/537.36 (KHTML, like Gecko) Chrome/138.0.0.0 Safari/537.36","WebKit","Chrome","138.0.0.0","Windows","10.0","https://app.prolific.com/","en-ZA,en-GB;q=0.9,en-US;q=0.8,en;q=0.7","666408427db5e38fe0ea1736","686d226cabeef709c732f8e1","686e3134c5ff705efbb43705","666408427db5e38fe0ea1736","2025-07-09T09:33:05.219Z","","","","","","PrePerfQ","","","","","","","","","","","","","","","","","","","","","","","","","","","","","","","","","","","","","","50"
"5760","","<div style=""width:500px;"">
  <p>What best describes how you currently feel?</p>
  </div>","86","html-slider-response","40","1438042","0.0-9.0-2.0","139","1","2025-07-09 09:09:10","7701e855f2ef39aa3fd6c71abdc6918a","41.150.32.213","Mozilla/5.0 (Windows NT 10.0; Win64; x64) AppleWebKit/537.36 (KHTML, like Gecko) Chrome/138.0.0.0 Safari/537.36","WebKit","Chrome","138.0.0.0","Windows","10.0","https://app.prolific.com/","en-ZA,en-GB;q=0.9,en-US;q=0.8,en;q=0.7","666408427db5e38fe0ea1736","686d226cabeef709c732f8e1","686e3134c5ff705efbb43705","666408427db5e38fe0ea1736","2025-07-09T09:33:10.983Z","","","","","","PreMotivationQ","","","","","","","","","","","","","","","","","","","","","","","","","","","","","","","","","","","","","","50"
"","","","","ctl-task-cpt","41","1474940","0.0-10.0-0.0","139","1","2025-07-09 09:09:10","7701e855f2ef39aa3fd6c71abdc6918a","41.150.32.213","Mozilla/5.0 (Windows NT 10.0; Win64; x64) AppleWebKit/537.36 (KHTML, like Gecko) Chrome/138.0.0.0 Safari/537.36","WebKit","Chrome","138.0.0.0","Windows","10.0","https://app.prolific.com/","en-ZA,en-GB;q=0.9,en-US;q=0.8,en;q=0.7","666408427db5e38fe0ea1736","686d226cabeef709c732f8e1","686e3134c5ff705efbb43705","666408427db5e38fe0ea1736","2025-07-09T09:33:47.881Z","","","","","","","","","","","","","","","","win-only","3","g1:SW,g2:NE","1","1","0","1441225.8","7710.1","12712.9","33876.2","1","4","8","6","2","8","8","8","0","0.06060606060606061","1954.5","3000","590","[""up"",""right""]","{""num_key_presses"":6,""num_perfect"":6,""num_errors"":0,""num_randdir"":0,""num_randdir_good_moves"":0,""num_whilered"":0,""num_whileblue"":0,""num_blue"":1,""num_good_moves"":6}","[297.22232142857143,289.12857142857143,0.5,297.22232142857143,289.12857142857143,102.5,297.22232142857143,289.12857142857143,209,297.22232142857143,289.12857142857143,309.5,297.22232142857143,289.12857142857143,411.7,297.22232142857143,289.12857142857143,511.8,297.22232142857143,289.12857142857143,619.8,297.22232142857143,289.12857142857143,728.2,297.22232142857143,289.12857142857143,831.9,297.22232142857143,289.12857142857143,935.7,297.22232142857143,289.12857142857143,1036.9,298.22232142857143,286.12857142857143,1144.4,303.22232142857143,280.12857142857143,1248,309.22232142857143,270.12857142857143,1348.3,371.22232142857143,222.12857142857143,1451.1,448.22232142857143,147.12857142857143,1554,505.22232142857143,73.12857142857143,1656.5,526.2223214285714,52.128571428571426,1756.5,526.2223214285714,52.128571428571426,1858.4,526.2223214285714,52.128571428571426,1962.1,526.2223214285714,52.128571428571426,2066.7,526.2223214285714,52.128571428571426,2178.3,526.2223214285714,52.128571428571426,2280.1,526.2223214285714,52.128571428571426,2382.9,526.2223214285714,52.128571428571426,2490.3,526.2223214285714,52.128571428571426,2592.9,512.2223214285714,71.12857142857143,2693.7,505.22232142857143,80.12857142857143,2794.3,505.22232142857143,81.12857142857143,2895.2,505.22232142857143,81.12857142857143,3002.4,504.22232142857143,83.12857142857143,3109.3,493.22232142857143,107.12857142857143,3211.4,491.22232142857143,111.12857142857143,3316.2,491.22232142857143,111.12857142857143,3416.8,491.22232142857143,111.12857142857143,3524.4,491.22232142857143,111.12857142857143,3625.7,491.22232142857143,111.12857142857143,3732.3,491.22232142857143,111.12857142857143,3832.8,491.22232142857143,111.12857142857143,3933.3,491.22232142857143,111.12857142857143,4043.7,491.22232142857143,111.12857142857143,4149.7,491.22232142857143,111.12857142857143,4251,491.22232142857143,111.12857142857143,4351.5,491.22232142857143,111.12857142857143,4454.8,491.22232142857143,111.12857142857143,4558.6,491.22232142857143,111.12857142857143,4665.7,491.22232142857143,111.12857142857143,4765.9,491.22232142857143,111.12857142857143,4870.7,491.22232142857143,111.12857142857143,4971.3]","[1538.1,1538.1,1000,0,538.1,""smooth"",""up"",""up"",""good_move"",4716.6,3177.9,2687.4,1538.8,490.4,""smooth"",""right"",""right"",""good_move"",7096,2378.4,1906.2,4717.7,472.1,""smooth"",""right"",""right"",""good_move"",10560.8,3464.4,2622.8,7096.4,841.6,""smooth"",""up"",""up"",""good_move"",18183.1,7621.9,3472.6,14119.8,590.7,""smooth"",""up"",""up"",""good_move"",21033.9,2850.5,2398.4,18183.5,452,""smooth"",""right"",""right"",""good_move""]","",""
"4952","","<div style=""width:500px;"">
  <p>What determined the result of this run?</p>
  </div>","100","html-slider-response","42","1479895","0.0-10.0-1.0","139","1","2025-07-09 09:09:10","7701e855f2ef39aa3fd6c71abdc6918a","41.150.32.213","Mozilla/5.0 (Windows NT 10.0; Win64; x64) AppleWebKit/537.36 (KHTML, like Gecko) Chrome/138.0.0.0 Safari/537.36","WebKit","Chrome","138.0.0.0","Windows","10.0","https://app.prolific.com/","en-ZA,en-GB;q=0.9,en-US;q=0.8,en;q=0.7","666408427db5e38fe0ea1736","686d226cabeef709c732f8e1","686e3134c5ff705efbb43705","666408427db5e38fe0ea1736","2025-07-09T09:33:52.836Z","","","","","","AttribQ","","","","","","","","","","","","","","","","","","","","","","","","","","","","","","","","","","","","","","50"
"7336","","<div style=""width:500px;"">
  <p>How much control did you have over the ball?</p>
  </div>","100","html-slider-response","43","1487233","0.0-10.0-2.0","139","1","2025-07-09 09:09:10","7701e855f2ef39aa3fd6c71abdc6918a","41.150.32.213","Mozilla/5.0 (Windows NT 10.0; Win64; x64) AppleWebKit/537.36 (KHTML, like Gecko) Chrome/138.0.0.0 Safari/537.36","WebKit","Chrome","138.0.0.0","Windows","10.0","https://app.prolific.com/","en-ZA,en-GB;q=0.9,en-US;q=0.8,en;q=0.7","666408427db5e38fe0ea1736","686d226cabeef709c732f8e1","686e3134c5ff705efbb43705","666408427db5e38fe0ea1736","2025-07-09T09:34:00.174Z","","","","","","ControlQ","","","","","","","","","","","","","","","","","","","","","","","","","","","","","","","","","","","","","","50"
"5077","","<div style=""width:500px;"">
  <p>How would you describe your current emotional state?</p>
  </div>","19","html-slider-response","44","1492312","0.0-10.0-3.0","139","1","2025-07-09 09:09:10","7701e855f2ef39aa3fd6c71abdc6918a","41.150.32.213","Mozilla/5.0 (Windows NT 10.0; Win64; x64) AppleWebKit/537.36 (KHTML, like Gecko) Chrome/138.0.0.0 Safari/537.36","WebKit","Chrome","138.0.0.0","Windows","10.0","https://app.prolific.com/","en-ZA,en-GB;q=0.9,en-US;q=0.8,en;q=0.7","666408427db5e38fe0ea1736","686d226cabeef709c732f8e1","686e3134c5ff705efbb43705","666408427db5e38fe0ea1736","2025-07-09T09:34:05.253Z","","","","","","StressQ","","","","","","","","","","","","","","","","","","","","","","","","","","","","","","","","","","","","","","50"
"4915","","<div style=""width:500px;"">
  <p>What best describes how you currently feel?</p>
  </div>","96","html-slider-response","45","1497230","0.0-10.0-4.0","139","1","2025-07-09 09:09:10","7701e855f2ef39aa3fd6c71abdc6918a","41.150.32.213","Mozilla/5.0 (Windows NT 10.0; Win64; x64) AppleWebKit/537.36 (KHTML, like Gecko) Chrome/138.0.0.0 Safari/537.36","WebKit","Chrome","138.0.0.0","Windows","10.0","https://app.prolific.com/","en-ZA,en-GB;q=0.9,en-US;q=0.8,en;q=0.7","666408427db5e38fe0ea1736","686d226cabeef709c732f8e1","686e3134c5ff705efbb43705","666408427db5e38fe0ea1736","2025-07-09T09:34:10.172Z","","","","","","MotivationQ","","","","","","","","","","","","","","","","","","","","","","","","","","","","","","","","","","","","","","50"
"","","","","ctl-task-cpt","46","1536684","0.0-10.0-0.1","139","1","2025-07-09 09:09:10","7701e855f2ef39aa3fd6c71abdc6918a","41.150.32.213","Mozilla/5.0 (Windows NT 10.0; Win64; x64) AppleWebKit/537.36 (KHTML, like Gecko) Chrome/138.0.0.0 Safari/537.36","WebKit","Chrome","138.0.0.0","Windows","10.0","https://app.prolific.com/","en-ZA,en-GB;q=0.9,en-US;q=0.8,en;q=0.7","666408427db5e38fe0ea1736","686d226cabeef709c732f8e1","686e3134c5ff705efbb43705","666408427db5e38fe0ea1736","2025-07-09T09:34:49.625Z","","","","","","","","","","","","","","","","win-only","2","g1:SE,g2:NW","0.9","2","0","1500411.5","6001.3","11005","36436.5","1","4","4","6","2","-4","-4","4","8","0.030303030303030304","2686.4","3000","-2280","[""left"",""up""]","{""num_key_presses"":6,""num_perfect"":6,""num_errors"":0,""num_randdir"":0,""num_randdir_good_moves"":0,""num_whilered"":0,""num_whileblue"":0,""num_blue"":1,""num_good_moves"":5}","[299.22232142857143,303.12857142857143,0.4,299.22232142857143,303.12857142857143,100.6,299.22232142857143,303.12857142857143,203.1,299.22232142857143,303.12857142857143,310.3,299.22232142857143,303.12857142857143,417.7,299.22232142857143,303.12857142857143,524.6,299.22232142857143,303.12857142857143,626.2,299.22232142857143,303.12857142857143,727.4,299.22232142857143,303.12857142857143,827.4,299.22232142857143,303.12857142857143,932.4,299.22232142857143,303.12857142857143,1041.4,299.22232142857143,303.12857142857143,1142.2,299.22232142857143,303.12857142857143,1244.3,299.22232142857143,303.12857142857143,1344.4,299.22232142857143,303.12857142857143,1450.2,299.22232142857143,303.12857142857143,1556.3,299.22232142857143,303.12857142857143,1657.5,299.22232142857143,303.12857142857143,1758.5,299.22232142857143,303.12857142857143,1861.3,237.22232142857143,208.12857142857143,1964.2,129.22232142857143,40.128571428571426,2068.6,105.22232142857143,6.128571428571426,2177.6,103.22232142857143,8.128571428571426,2279.8,81.22232142857143,41.128571428571426,2381.9,70.22232142857143,49.128571428571426,2485.5,67.22232142857143,51.128571428571426,2587.5,67.22232142857143,51.128571428571426,2695.7,67.22232142857143,51.128571428571426,2805.1,67.22232142857143,51.128571428571426,2905.3,67.22232142857143,51.128571428571426,3011.4,67.22232142857143,51.128571428571426,3114.4,67.22232142857143,51.128571428571426,3215.1,67.22232142857143,51.128571428571426,3315.2,67.22232142857143,51.128571428571426,3415.2,67.22232142857143,51.128571428571426,3515.8,67.22232142857143,51.128571428571426,3620.3,67.22232142857143,51.128571428571426,3728.3,67.22232142857143,51.128571428571426,3829.1,67.22232142857143,51.128571428571426,3935.5,67.22232142857143,51.128571428571426,4036,67.22232142857143,51.128571428571426,4137.5,67.22232142857143,51.128571428571426,4247,67.22232142857143,51.128571428571426,4355.1,67.22232142857143,51.128571428571426,4462,67.22232142857143,51.128571428571426,4562.2,67.22232142857143,51.128571428571426,4662.5,67.22232142857143,51.128571428571426,4769.2,67.22232142857143,51.128571428571426,4871,67.22232142857143,51.128571428571426,4982.3]","[1485.1,1485.1,1000,0,485.1,""smooth"",""up"",""up"",""good_move"",4812.3,3326.8,2473.1,1485.7,853.6,""smooth"",""left"",""left"",""good_move"",7897.1,3084.4,2445.1,4812.7,639.3,""smooth"",""up"",""up"",""good_move"",11120.5,3223.2,2342.5,7897.5,880.6,""smooth"",""down"",""down"",""bad_move"",14601.2,3479.8,2943.2,11121.4,536.6,""smooth"",""left"",""left"",""good_move"",18168.9,3567.4,2856.6,14601.5,710.8,""smooth"",""up"",""up"",""good_move""]","",""
"7259","","<div style=""width:500px;"">
  <p>What determined the result of this run?</p>
  </div>","74","html-slider-response","47","1543945","0.0-10.0-1.1","139","1","2025-07-09 09:09:10","7701e855f2ef39aa3fd6c71abdc6918a","41.150.32.213","Mozilla/5.0 (Windows NT 10.0; Win64; x64) AppleWebKit/537.36 (KHTML, like Gecko) Chrome/138.0.0.0 Safari/537.36","WebKit","Chrome","138.0.0.0","Windows","10.0","https://app.prolific.com/","en-ZA,en-GB;q=0.9,en-US;q=0.8,en;q=0.7","666408427db5e38fe0ea1736","686d226cabeef709c732f8e1","686e3134c5ff705efbb43705","666408427db5e38fe0ea1736","2025-07-09T09:34:56.886Z","","","","","","AttribQ","","","","","","","","","","","","","","","","","","","","","","","","","","","","","","","","","","","","","","50"
"3485","","<div style=""width:500px;"">
  <p>How much control did you have over the ball?</p>
  </div>","89","html-slider-response","48","1547431","0.0-10.0-2.1","139","1","2025-07-09 09:09:10","7701e855f2ef39aa3fd6c71abdc6918a","41.150.32.213","Mozilla/5.0 (Windows NT 10.0; Win64; x64) AppleWebKit/537.36 (KHTML, like Gecko) Chrome/138.0.0.0 Safari/537.36","WebKit","Chrome","138.0.0.0","Windows","10.0","https://app.prolific.com/","en-ZA,en-GB;q=0.9,en-US;q=0.8,en;q=0.7","666408427db5e38fe0ea1736","686d226cabeef709c732f8e1","686e3134c5ff705efbb43705","666408427db5e38fe0ea1736","2025-07-09T09:35:00.373Z","","","","","","ControlQ","","","","","","","","","","","","","","","","","","","","","","","","","","","","","","","","","","","","","","50"
"5024","","<div style=""width:500px;"">
  <p>How would you describe your current emotional state?</p>
  </div>","77","html-slider-response","49","1552458","0.0-10.0-3.1","139","1","2025-07-09 09:09:10","7701e855f2ef39aa3fd6c71abdc6918a","41.150.32.213","Mozilla/5.0 (Windows NT 10.0; Win64; x64) AppleWebKit/537.36 (KHTML, like Gecko) Chrome/138.0.0.0 Safari/537.36","WebKit","Chrome","138.0.0.0","Windows","10.0","https://app.prolific.com/","en-ZA,en-GB;q=0.9,en-US;q=0.8,en;q=0.7","666408427db5e38fe0ea1736","686d226cabeef709c732f8e1","686e3134c5ff705efbb43705","666408427db5e38fe0ea1736","2025-07-09T09:35:05.399Z","","","","","","StressQ","","","","","","","","","","","","","","","","","","","","","","","","","","","","","","","","","","","","","","50"
"5479","","<div style=""width:500px;"">
  <p>What best describes how you currently feel?</p>
  </div>","59","html-slider-response","50","1557940","0.0-10.0-4.1","139","1","2025-07-09 09:09:10","7701e855f2ef39aa3fd6c71abdc6918a","41.150.32.213","Mozilla/5.0 (Windows NT 10.0; Win64; x64) AppleWebKit/537.36 (KHTML, like Gecko) Chrome/138.0.0.0 Safari/537.36","WebKit","Chrome","138.0.0.0","Windows","10.0","https://app.prolific.com/","en-ZA,en-GB;q=0.9,en-US;q=0.8,en;q=0.7","666408427db5e38fe0ea1736","686d226cabeef709c732f8e1","686e3134c5ff705efbb43705","666408427db5e38fe0ea1736","2025-07-09T09:35:10.881Z","","","","","","MotivationQ","","","","","","","","","","","","","","","","","","","","","","","","","","","","","","","","","","","","","","50"
"","","","","ctl-task-cpt","51","1614123","0.0-10.0-0.2","139","1","2025-07-09 09:09:10","7701e855f2ef39aa3fd6c71abdc6918a","41.150.32.213","Mozilla/5.0 (Windows NT 10.0; Win64; x64) AppleWebKit/537.36 (KHTML, like Gecko) Chrome/138.0.0.0 Safari/537.36","WebKit","Chrome","138.0.0.0","Windows","10.0","https://app.prolific.com/","en-ZA,en-GB;q=0.9,en-US;q=0.8,en;q=0.7","666408427db5e38fe0ea1736","686d226cabeef709c732f8e1","686e3134c5ff705efbb43705","666408427db5e38fe0ea1736","2025-07-09T09:36:07.064Z","","","","","","","","","","","","","","","","win-only","1","g1:NE,g2:SW","0.8","3","0","1561118.6","4913","9921.6","53162.2","1","4","8","6","2","8","7","11","4","0.08333333333333333","1369.5","3000","60","[""down"",""left""]","{""num_key_presses"":9,""num_perfect"":6,""num_errors"":1,""num_randdir"":2,""num_randdir_good_moves"":1,""num_whilered"":0,""num_whileblue"":0,""num_blue"":5,""num_good_moves"":7}","[295.22232142857143,301.12857142857143,0.4,295.22232142857143,301.12857142857143,105.2,295.22232142857143,301.12857142857143,213.3,295.22232142857143,301.12857142857143,313.7,295.22232142857143,301.12857142857143,419.9,295.22232142857143,301.12857142857143,528.6,295.22232142857143,301.12857142857143,637.5,249.22232142857143,325.12857142857143,741.8,249.22232142857143,337.12857142857143,847.8,249.22232142857143,337.12857142857143,955.1,249.22232142857143,337.12857142857143,1056.1,52.222321428571426,496.12857142857143,1163,41.222321428571426,510.12857142857143,1265.3,41.222321428571426,510.12857142857143,1372.2,41.222321428571426,510.12857142857143,1478.6,41.222321428571426,510.12857142857143,1579.7,41.222321428571426,510.12857142857143,1687.5,41.222321428571426,510.12857142857143,1793.5,41.222321428571426,510.12857142857143,1897.2,41.222321428571426,510.12857142857143,2003.7,41.222321428571426,510.12857142857143,2105,48.222321428571426,506.12857142857143,2210.1,96.22232142857143,471.12857142857143,2312.5,115.22232142857143,443.12857142857143,2420.3,134.22232142857143,422.12857142857143,2521.3,159.22232142857143,403.12857142857143,2621.4,180.22232142857143,392.12857142857143,2721.7,186.22232142857143,390.12857142857143,2822.6,190.22232142857143,389.12857142857143,2930.4,190.22232142857143,389.12857142857143,3033.7,190.22232142857143,389.12857142857143,3137.6,190.22232142857143,389.12857142857143,3238.9,190.22232142857143,389.12857142857143,3340.3,190.22232142857143,389.12857142857143,3453.2,190.22232142857143,389.12857142857143,3562.7,190.22232142857143,389.12857142857143,3669.1,190.22232142857143,389.12857142857143,3770.4,190.22232142857143,389.12857142857143,3876.2,190.22232142857143,389.12857142857143,3982.4,190.22232142857143,389.12857142857143,4087.3,190.22232142857143,389.12857142857143,4188.2,190.22232142857143,389.12857142857143,4293.2,190.22232142857143,389.12857142857143,4398.1,190.22232142857143,389.12857142857143,4506.1,190.22232142857143,389.12857142857143,4609.2,190.22232142857143,389.12857142857143,4720.2,190.22232142857143,389.12857142857143,4822.8,190.22232142857143,389.12857142857143,4923.6]","[13325.5,13325.5,2557,10209.4,559.1,""smooth"",""down"",""down"",""good_move"",17063.6,3737.2,3116.7,13326.4,620.5,""smooth"",""down"",""down"",""good_move"",20670,3606,3137.1,17064,468.9,""smooth"",""left"",""left"",""good_move"",23490.2,2819.7,2104.9,20670.5,714.8,""smooth"",""left"",""left"",""good_move"",30034,6543.4,2239.5,27346,448.5,""smooth"",""down"",""down"",""good_move"",35697.4,5662.6,1937.4,33377.8,382.2,""oops"",""left"",""right"",""bad_move"",36740.6,1042.7,2781,35697.9,-1738.3,""error"",""-"",""-"",""no_move"",40716.1,3975.2,2522.9,37753.2,440,""smooth"",""left"",""left"",""good_move"",43128.1,2411.5,1936.3,40716.6,475.2,""oops"",""left"",""left"",""good_move""]","",""
"5324","","<div style=""width:500px;"">
  <p>What determined the result of this run?</p>
  </div>","100","html-slider-response","52","1619449","0.0-10.0-1.2","139","1","2025-07-09 09:09:10","7701e855f2ef39aa3fd6c71abdc6918a","41.150.32.213","Mozilla/5.0 (Windows NT 10.0; Win64; x64) AppleWebKit/537.36 (KHTML, like Gecko) Chrome/138.0.0.0 Safari/537.36","WebKit","Chrome","138.0.0.0","Windows","10.0","https://app.prolific.com/","en-ZA,en-GB;q=0.9,en-US;q=0.8,en;q=0.7","666408427db5e38fe0ea1736","686d226cabeef709c732f8e1","686e3134c5ff705efbb43705","666408427db5e38fe0ea1736","2025-07-09T09:36:12.390Z","","","","","","AttribQ","","","","","","","","","","","","","","","","","","","","","","","","","","","","","","","","","","","","","","50"
"5208","","<div style=""width:500px;"">
  <p>How much control did you have over the ball?</p>
  </div>","96","html-slider-response","53","1624658","0.0-10.0-2.2","139","1","2025-07-09 09:09:10","7701e855f2ef39aa3fd6c71abdc6918a","41.150.32.213","Mozilla/5.0 (Windows NT 10.0; Win64; x64) AppleWebKit/537.36 (KHTML, like Gecko) Chrome/138.0.0.0 Safari/537.36","WebKit","Chrome","138.0.0.0","Windows","10.0","https://app.prolific.com/","en-ZA,en-GB;q=0.9,en-US;q=0.8,en;q=0.7","666408427db5e38fe0ea1736","686d226cabeef709c732f8e1","686e3134c5ff705efbb43705","666408427db5e38fe0ea1736","2025-07-09T09:36:17.600Z","","","","","","ControlQ","","","","","","","","","","","","","","","","","","","","","","","","","","","","","","","","","","","","","","50"
"4311","","<div style=""width:500px;"">
  <p>How would you describe your current emotional state?</p>
  </div>","38","html-slider-response","54","1628971","0.0-10.0-3.2","139","1","2025-07-09 09:09:10","7701e855f2ef39aa3fd6c71abdc6918a","41.150.32.213","Mozilla/5.0 (Windows NT 10.0; Win64; x64) AppleWebKit/537.36 (KHTML, like Gecko) Chrome/138.0.0.0 Safari/537.36","WebKit","Chrome","138.0.0.0","Windows","10.0","https://app.prolific.com/","en-ZA,en-GB;q=0.9,en-US;q=0.8,en;q=0.7","666408427db5e38fe0ea1736","686d226cabeef709c732f8e1","686e3134c5ff705efbb43705","666408427db5e38fe0ea1736","2025-07-09T09:36:21.912Z","","","","","","StressQ","","","","","","","","","","","","","","","","","","","","","","","","","","","","","","","","","","","","","","50"
"3431","","<div style=""width:500px;"">
  <p>What best describes how you currently feel?</p>
  </div>","84","html-slider-response","55","1632405","0.0-10.0-4.2","139","1","2025-07-09 09:09:10","7701e855f2ef39aa3fd6c71abdc6918a","41.150.32.213","Mozilla/5.0 (Windows NT 10.0; Win64; x64) AppleWebKit/537.36 (KHTML, like Gecko) Chrome/138.0.0.0 Safari/537.36","WebKit","Chrome","138.0.0.0","Windows","10.0","https://app.prolific.com/","en-ZA,en-GB;q=0.9,en-US;q=0.8,en;q=0.7","666408427db5e38fe0ea1736","686d226cabeef709c732f8e1","686e3134c5ff705efbb43705","666408427db5e38fe0ea1736","2025-07-09T09:36:25.346Z","","","","","","MotivationQ","","","","","","","","","","","","","","","","","","","","","","","","","","","","","","","","","","","","","","50"
"","","","","ctl-task-cpt","56","1664366","0.0-10.0-0.3","139","1","2025-07-09 09:09:10","7701e855f2ef39aa3fd6c71abdc6918a","41.150.32.213","Mozilla/5.0 (Windows NT 10.0; Win64; x64) AppleWebKit/537.36 (KHTML, like Gecko) Chrome/138.0.0.0 Safari/537.36","WebKit","Chrome","138.0.0.0","Windows","10.0","https://app.prolific.com/","en-ZA,en-GB;q=0.9,en-US;q=0.8,en;q=0.7","666408427db5e38fe0ea1736","686d226cabeef709c732f8e1","686e3134c5ff705efbb43705","666408427db5e38fe0ea1736","2025-07-09T09:36:57.307Z","","","","","","","","","","","","","","","","win-only","3","g1:SW,g2:NE","0.7","4","0","1635577.2","5799.1","10800","28946.5","1","4","4","6","2","-4","-4","7","11","0.05303030303030303","4390.5","3000","-2380","[""up"",""right""]","{""num_key_presses"":5,""num_perfect"":3,""num_errors"":0,""num_randdir"":2,""num_randdir_good_moves"":0,""num_whilered"":0,""num_whileblue"":0,""num_blue"":0,""num_good_moves"":3}","[300.22232142857143,301.12857142857143,0.3,300.22232142857143,301.12857142857143,104.7,300.22232142857143,301.12857142857143,209.9,300.22232142857143,301.12857142857143,315.2,300.22232142857143,301.12857142857143,416.6,300.22232142857143,301.12857142857143,524,300.22232142857143,301.12857142857143,624.3,300.22232142857143,301.12857142857143,732.3,300.22232142857143,301.12857142857143,839.5,300.22232142857143,301.12857142857143,939.9,300.22232142857143,301.12857142857143,1045.6,300.22232142857143,301.12857142857143,1147.1,300.22232142857143,301.12857142857143,1248.3,300.22232142857143,301.12857142857143,1350.7,300.22232142857143,301.12857142857143,1453.1,300.22232142857143,301.12857142857143,1556.3,300.22232142857143,301.12857142857143,1657.4,306.22232142857143,297.12857142857143,1757.7,311.22232142857143,292.12857142857143,1864,313.22232142857143,290.12857142857143,1965.6,313.22232142857143,290.12857142857143,2068,312.22232142857143,290.12857142857143,2174.1,312.22232142857143,291.12857142857143,2279.8,312.22232142857143,291.12857142857143,2382.4,312.22232142857143,291.12857142857143,2482.9,338.22232142857143,259.12857142857143,2582.9,380.22232142857143,203.12857142857143,2683.8,406.22232142857143,133.12857142857143,2792.5,482.22232142857143,92.12857142857143,2899.2,546.2223214285714,63.128571428571426,3001.5,554.2223214285714,55.128571428571426,3105.1,554.2223214285714,55.128571428571426,3205.9,554.2223214285714,55.128571428571426,3306.3,554.2223214285714,55.128571428571426,3416.7,554.2223214285714,55.128571428571426,3517.2,554.2223214285714,55.128571428571426,3624.1,554.2223214285714,55.128571428571426,3730,554.2223214285714,55.128571428571426,3833.7,554.2223214285714,55.128571428571426,3934,554.2223214285714,55.128571428571426,4034.3,554.2223214285714,55.128571428571426,4136.6,554.2223214285714,55.128571428571426,4237.1,554.2223214285714,55.128571428571426,4341.2,554.2223214285714,55.128571428571426,4441.5,554.2223214285714,55.128571428571426,4549.9,554.2223214285714,55.128571428571426,4651.7,554.2223214285714,55.128571428571426,4752.4,554.2223214285714,55.128571428571426,4858.7,554.2223214285714,55.128571428571426,4967.2]","[1646.6,1646.6,1000,0,646.6,""smooth"",""up"",""up"",""good_move"",5344.1,3696.7,2863,1647.5,833.6,""oops"",""right"",""left"",""bad_move"",8430.9,3086.2,2430.7,5344.7,655.5,""smooth"",""right"",""right"",""good_move"",12162.1,3730.8,3169.5,8431.4,561.3,""oops"",""right"",""down"",""bad_move"",15180.6,3018,2288.6,12162.6,729.4,""smooth"",""right"",""right"",""good_move""]","",""
"7251","","<div style=""width:500px;"">
  <p>What determined the result of this run?</p>
  </div>","33","html-slider-response","57","1671619","0.0-10.0-1.3","139","1","2025-07-09 09:09:10","7701e855f2ef39aa3fd6c71abdc6918a","41.150.32.213","Mozilla/5.0 (Windows NT 10.0; Win64; x64) AppleWebKit/537.36 (KHTML, like Gecko) Chrome/138.0.0.0 Safari/537.36","WebKit","Chrome","138.0.0.0","Windows","10.0","https://app.prolific.com/","en-ZA,en-GB;q=0.9,en-US;q=0.8,en;q=0.7","666408427db5e38fe0ea1736","686d226cabeef709c732f8e1","686e3134c5ff705efbb43705","666408427db5e38fe0ea1736","2025-07-09T09:37:04.560Z","","","","","","AttribQ","","","","","","","","","","","","","","","","","","","","","","","","","","","","","","","","","","","","","","50"
"5483","","<div style=""width:500px;"">
  <p>How much control did you have over the ball?</p>
  </div>","28","html-slider-response","58","1677103","0.0-10.0-2.3","139","1","2025-07-09 09:09:10","7701e855f2ef39aa3fd6c71abdc6918a","41.150.32.213","Mozilla/5.0 (Windows NT 10.0; Win64; x64) AppleWebKit/537.36 (KHTML, like Gecko) Chrome/138.0.0.0 Safari/537.36","WebKit","Chrome","138.0.0.0","Windows","10.0","https://app.prolific.com/","en-ZA,en-GB;q=0.9,en-US;q=0.8,en;q=0.7","666408427db5e38fe0ea1736","686d226cabeef709c732f8e1","686e3134c5ff705efbb43705","666408427db5e38fe0ea1736","2025-07-09T09:37:10.044Z","","","","","","ControlQ","","","","","","","","","","","","","","","","","","","","","","","","","","","","","","","","","","","","","","50"
"5286","","<div style=""width:500px;"">
  <p>How would you describe your current emotional state?</p>
  </div>","64","html-slider-response","59","1682390","0.0-10.0-3.3","139","1","2025-07-09 09:09:10","7701e855f2ef39aa3fd6c71abdc6918a","41.150.32.213","Mozilla/5.0 (Windows NT 10.0; Win64; x64) AppleWebKit/537.36 (KHTML, like Gecko) Chrome/138.0.0.0 Safari/537.36","WebKit","Chrome","138.0.0.0","Windows","10.0","https://app.prolific.com/","en-ZA,en-GB;q=0.9,en-US;q=0.8,en;q=0.7","666408427db5e38fe0ea1736","686d226cabeef709c732f8e1","686e3134c5ff705efbb43705","666408427db5e38fe0ea1736","2025-07-09T09:37:15.332Z","","","","","","StressQ","","","","","","","","","","","","","","","","","","","","","","","","","","","","","","","","","","","","","","50"
"5022","","<div style=""width:500px;"">
  <p>What best describes how you currently feel?</p>
  </div>","64","html-slider-response","60","1687414","0.0-10.0-4.3","139","1","2025-07-09 09:09:10","7701e855f2ef39aa3fd6c71abdc6918a","41.150.32.213","Mozilla/5.0 (Windows NT 10.0; Win64; x64) AppleWebKit/537.36 (KHTML, like Gecko) Chrome/138.0.0.0 Safari/537.36","WebKit","Chrome","138.0.0.0","Windows","10.0","https://app.prolific.com/","en-ZA,en-GB;q=0.9,en-US;q=0.8,en;q=0.7","666408427db5e38fe0ea1736","686d226cabeef709c732f8e1","686e3134c5ff705efbb43705","666408427db5e38fe0ea1736","2025-07-09T09:37:20.355Z","","","","","","MotivationQ","","","","","","","","","","","","","","","","","","","","","","","","","","","","","","","","","","","","","","50"
"","","","","ctl-task-cpt","61","1737335","0.0-10.0-0.4","139","1","2025-07-09 09:09:10","7701e855f2ef39aa3fd6c71abdc6918a","41.150.32.213","Mozilla/5.0 (Windows NT 10.0; Win64; x64) AppleWebKit/537.36 (KHTML, like Gecko) Chrome/138.0.0.0 Safari/537.36","WebKit","Chrome","138.0.0.0","Windows","10.0","https://app.prolific.com/","en-ZA,en-GB;q=0.9,en-US;q=0.8,en;q=0.7","666408427db5e38fe0ea1736","686d226cabeef709c732f8e1","686e3134c5ff705efbb43705","666408427db5e38fe0ea1736","2025-07-09T09:38:10.276Z","","","","","","","","","","","","","","","","win-only","1","g1:NE,g2:SW","0.6","5","0","1690586.7","5321.8","10322.9","46888.4","1","4","8","6","2","-8","-8","0","7","0","3078.4","3000","-2250","[""down"",""left""]","{""num_key_presses"":7,""num_perfect"":4,""num_errors"":0,""num_randdir"":3,""num_randdir_good_moves"":2,""num_whilered"":0,""num_whileblue"":0,""num_blue"":4,""num_good_moves"":6}","[294.22232142857143,289.12857142857143,0.2,294.22232142857143,289.12857142857143,102.7,294.22232142857143,289.12857142857143,205.2,294.22232142857143,289.12857142857143,309.9,294.22232142857143,289.12857142857143,410.5,294.22232142857143,289.12857142857143,510.7,294.22232142857143,289.12857142857143,618.1,294.22232142857143,289.12857142857143,718.9,294.22232142857143,289.12857142857143,826,294.22232142857143,289.12857142857143,931.7,294.22232142857143,289.12857142857143,1042.1,294.22232142857143,289.12857142857143,1146,294.22232142857143,289.12857142857143,1246.2,294.22232142857143,289.12857142857143,1352.3,294.22232142857143,289.12857142857143,1453.1,294.22232142857143,289.12857142857143,1553.2,294.22232142857143,289.12857142857143,1661.9,294.22232142857143,289.12857142857143,1764,294.22232142857143,289.12857142857143,1864.1,294.22232142857143,289.12857142857143,1964.7,294.22232142857143,289.12857142857143,2071.2,294.22232142857143,289.12857142857143,2171.6,154.22232142857143,422.12857142857143,2272.8,33.222321428571426,507.12857142857143,2374.3,33.222321428571426,507.12857142857143,2477.2,33.222321428571426,507.12857142857143,2586.9,33.222321428571426,507.12857142857143,2689.7,33.222321428571426,507.12857142857143,2794.4,33.222321428571426,507.12857142857143,2895.4,33.222321428571426,507.12857142857143,2996.7,33.222321428571426,507.12857142857143,3101.3,33.222321428571426,507.12857142857143,3206.4,33.222321428571426,507.12857142857143,3310.3,33.222321428571426,507.12857142857143,3412.5,33.222321428571426,507.12857142857143,3521.1,33.222321428571426,507.12857142857143,3621.8,33.222321428571426,507.12857142857143,3726.2,33.222321428571426,507.12857142857143,3832.5,33.222321428571426,507.12857142857143,3935.4,33.222321428571426,507.12857142857143,4038.6,33.222321428571426,507.12857142857143,4139,33.222321428571426,507.12857142857143,4239.5,33.222321428571426,507.12857142857143,4345.2,33.222321428571426,507.12857142857143,4452.5,33.222321428571426,507.12857142857143,4555.8,33.222321428571426,507.12857142857143,4661.1,33.222321428571426,507.12857142857143,4765.1,33.222321428571426,507.12857142857143,4869,33.222321428571426,507.12857142857143,4979.4]","[8462.5,8462.5,1864.8,6092.6,505.1,""smooth"",""left"",""left"",""good_move"",11255.4,2792.1,1862.3,8463.3,929.8,""oops"",""left"",""left"",""good_move"",15059.1,3803.3,3321.8,11255.8,481.5,""oops"",""down"",""down"",""good_move"",18207.4,3147.6,2613.2,15059.9,534.3,""smooth"",""left"",""left"",""good_move"",21413.3,3205.7,2731.4,18207.7,474.2,""oops"",""down"",""right"",""bad_move"",27538.5,6124.7,1806.1,25212,520.5,""smooth"",""left"",""left"",""good_move"",30449.5,2910.7,2434,27538.9,476.6,""smooth"",""down"",""down"",""good_move""]","",""
"7953","","<div style=""width:500px;"">
  <p>What determined the result of this run?</p>
  </div>","58","html-slider-response","62","1745290","0.0-10.0-1.4","139","1","2025-07-09 09:09:10","7701e855f2ef39aa3fd6c71abdc6918a","41.150.32.213","Mozilla/5.0 (Windows NT 10.0; Win64; x64) AppleWebKit/537.36 (KHTML, like Gecko) Chrome/138.0.0.0 Safari/537.36","WebKit","Chrome","138.0.0.0","Windows","10.0","https://app.prolific.com/","en-ZA,en-GB;q=0.9,en-US;q=0.8,en;q=0.7","666408427db5e38fe0ea1736","686d226cabeef709c732f8e1","686e3134c5ff705efbb43705","666408427db5e38fe0ea1736","2025-07-09T09:38:18.231Z","","","","","","AttribQ","","","","","","","","","","","","","","","","","","","","","","","","","","","","","","","","","","","","","","50"
"3390","","<div style=""width:500px;"">
  <p>How much control did you have over the ball?</p>
  </div>","66","html-slider-response","63","1748682","0.0-10.0-2.4","139","1","2025-07-09 09:09:10","7701e855f2ef39aa3fd6c71abdc6918a","41.150.32.213","Mozilla/5.0 (Windows NT 10.0; Win64; x64) AppleWebKit/537.36 (KHTML, like Gecko) Chrome/138.0.0.0 Safari/537.36","WebKit","Chrome","138.0.0.0","Windows","10.0","https://app.prolific.com/","en-ZA,en-GB;q=0.9,en-US;q=0.8,en;q=0.7","666408427db5e38fe0ea1736","686d226cabeef709c732f8e1","686e3134c5ff705efbb43705","666408427db5e38fe0ea1736","2025-07-09T09:38:21.623Z","","","","","","ControlQ","","","","","","","","","","","","","","","","","","","","","","","","","","","","","","","","","","","","","","50"
"5489","","<div style=""width:500px;"">
  <p>How would you describe your current emotional state?</p>
  </div>","55","html-slider-response","64","1754175","0.0-10.0-3.4","139","1","2025-07-09 09:09:10","7701e855f2ef39aa3fd6c71abdc6918a","41.150.32.213","Mozilla/5.0 (Windows NT 10.0; Win64; x64) AppleWebKit/537.36 (KHTML, like Gecko) Chrome/138.0.0.0 Safari/537.36","WebKit","Chrome","138.0.0.0","Windows","10.0","https://app.prolific.com/","en-ZA,en-GB;q=0.9,en-US;q=0.8,en;q=0.7","666408427db5e38fe0ea1736","686d226cabeef709c732f8e1","686e3134c5ff705efbb43705","666408427db5e38fe0ea1736","2025-07-09T09:38:27.116Z","","","","","","StressQ","","","","","","","","","","","","","","","","","","","","","","","","","","","","","","","","","","","","","","50"
"3858","","<div style=""width:500px;"">
  <p>What best describes how you currently feel?</p>
  </div>","65","html-slider-response","65","1758033","0.0-10.0-4.4","139","1","2025-07-09 09:09:10","7701e855f2ef39aa3fd6c71abdc6918a","41.150.32.213","Mozilla/5.0 (Windows NT 10.0; Win64; x64) AppleWebKit/537.36 (KHTML, like Gecko) Chrome/138.0.0.0 Safari/537.36","WebKit","Chrome","138.0.0.0","Windows","10.0","https://app.prolific.com/","en-ZA,en-GB;q=0.9,en-US;q=0.8,en;q=0.7","666408427db5e38fe0ea1736","686d226cabeef709c732f8e1","686e3134c5ff705efbb43705","666408427db5e38fe0ea1736","2025-07-09T09:38:30.975Z","","","","","","MotivationQ","","","","","","","","","","","","","","","","","","","","","","","","","","","","","","","","","","","","","","50"
"","","","","ctl-task-cpt","66","1782548","0.0-10.0-0.5","139","1","2025-07-09 09:09:10","7701e855f2ef39aa3fd6c71abdc6918a","41.150.32.213","Mozilla/5.0 (Windows NT 10.0; Win64; x64) AppleWebKit/537.36 (KHTML, like Gecko) Chrome/138.0.0.0 Safari/537.36","WebKit","Chrome","138.0.0.0","Windows","10.0","https://app.prolific.com/","en-ZA,en-GB;q=0.9,en-US;q=0.8,en;q=0.7","666408427db5e38fe0ea1736","686d226cabeef709c732f8e1","686e3134c5ff705efbb43705","666408427db5e38fe0ea1736","2025-07-09T09:38:55.489Z","","","","","","","","","","","","","","","","win-only","3","g1:SW,g2:NE","0.5","6","0","1761203.5","3171.7","8177","21501.7","1","4","4","6","1","1","0","0","0","0","2826.6","3000","1400","[""down"",""left""]","{""num_key_presses"":5,""num_perfect"":3,""num_errors"":1,""num_randdir"":1,""num_randdir_good_moves"":1,""num_whilered"":0,""num_whileblue"":0,""num_blue"":0,""num_good_moves"":4}","[296.22232142857143,288.12857142857143,0.3,296.22232142857143,288.12857142857143,103.6,296.22232142857143,288.12857142857143,205.8,296.22232142857143,288.12857142857143,307.1,296.22232142857143,288.12857142857143,408.6,296.22232142857143,288.12857142857143,511.9,296.22232142857143,288.12857142857143,614.8,296.22232142857143,288.12857142857143,719.7,296.22232142857143,288.12857142857143,830.6,296.22232142857143,288.12857142857143,938.1,296.22232142857143,288.12857142857143,1039.2,296.22232142857143,288.12857142857143,1139.7,295.22232142857143,290.12857142857143,1253.9,283.22232142857143,299.12857142857143,1360.6,265.22232142857143,316.12857142857143,1473.7,264.22232142857143,316.12857142857143,1575.9,264.22232142857143,316.12857142857143,1677.4,264.22232142857143,316.12857142857143,1778.9,264.22232142857143,316.12857142857143,1879.1,264.22232142857143,316.12857142857143,1981.9,264.22232142857143,316.12857142857143,2086.2,173.22232142857143,431.12857142857143,2186.9,120.22232142857143,490.12857142857143,2287.9,43.222321428571426,582.1285714285714,2394.9,43.222321428571426,582.1285714285714,2504.1,43.222321428571426,582.1285714285714,2612.1,43.222321428571426,582.1285714285714,2715.2,43.222321428571426,582.1285714285714,2819.4,43.222321428571426,582.1285714285714,2927.7,43.222321428571426,582.1285714285714,3031.9,43.222321428571426,582.1285714285714,3133.9,43.222321428571426,582.1285714285714,3236.9,43.222321428571426,582.1285714285714,3345.8,43.222321428571426,582.1285714285714,3446.3,43.222321428571426,582.1285714285714,3554.7,43.222321428571426,582.1285714285714,3654.8,43.222321428571426,582.1285714285714,3760.5,43.222321428571426,582.1285714285714,3871.5,43.222321428571426,582.1285714285714,3973.1,43.222321428571426,582.1285714285714,4073.8,43.222321428571426,582.1285714285714,4177.9,43.222321428571426,582.1285714285714,4278.7,43.222321428571426,582.1285714285714,4381.6,43.222321428571426,582.1285714285714,4484.7,43.222321428571426,582.1285714285714,4585,43.222321428571426,582.1285714285714,4688.5,43.222321428571426,582.1285714285714,4788.5,43.222321428571426,582.1285714285714,4889.8,43.222321428571426,582.1285714285714,4990.4]","[380,380,1000,0,-620,""error"",""-"",""-"",""no_move"",4324.3,3943.9,2397.4,1384.1,542.8,""smooth"",""left"",""left"",""good_move"",7224.2,2899.4,2297.4,4324.8,602,""smooth"",""left"",""left"",""good_move"",10256.2,3031.6,2574.9,7224.7,456.6,""smooth"",""down"",""down"",""good_move"",13204.8,2947.8,2489.3,10257,458.5,""oops"",""down"",""down"",""good_move""]","",""
"5873","","<div style=""width:500px;"">
  <p>What determined the result of this run?</p>
  </div>","25","html-slider-response","67","1788424","0.0-10.0-1.5","139","1","2025-07-09 09:09:10","7701e855f2ef39aa3fd6c71abdc6918a","41.150.32.213","Mozilla/5.0 (Windows NT 10.0; Win64; x64) AppleWebKit/537.36 (KHTML, like Gecko) Chrome/138.0.0.0 Safari/537.36","WebKit","Chrome","138.0.0.0","Windows","10.0","https://app.prolific.com/","en-ZA,en-GB;q=0.9,en-US;q=0.8,en;q=0.7","666408427db5e38fe0ea1736","686d226cabeef709c732f8e1","686e3134c5ff705efbb43705","666408427db5e38fe0ea1736","2025-07-09T09:39:01.365Z","","","","","","AttribQ","","","","","","","","","","","","","","","","","","","","","","","","","","","","","","","","","","","","","","50"
"4563","","<div style=""width:500px;"">
  <p>How much control did you have over the ball?</p>
  </div>","46","html-slider-response","68","1792988","0.0-10.0-2.5","139","1","2025-07-09 09:09:10","7701e855f2ef39aa3fd6c71abdc6918a","41.150.32.213","Mozilla/5.0 (Windows NT 10.0; Win64; x64) AppleWebKit/537.36 (KHTML, like Gecko) Chrome/138.0.0.0 Safari/537.36","WebKit","Chrome","138.0.0.0","Windows","10.0","https://app.prolific.com/","en-ZA,en-GB;q=0.9,en-US;q=0.8,en;q=0.7","666408427db5e38fe0ea1736","686d226cabeef709c732f8e1","686e3134c5ff705efbb43705","666408427db5e38fe0ea1736","2025-07-09T09:39:05.930Z","","","","","","ControlQ","","","","","","","","","","","","","","","","","","","","","","","","","","","","","","","","","","","","","","50"
"2619","","<div style=""width:500px;"">
  <p>How would you describe your current emotional state?</p>
  </div>","73","html-slider-response","69","1795609","0.0-10.0-3.5","139","1","2025-07-09 09:09:10","7701e855f2ef39aa3fd6c71abdc6918a","41.150.32.213","Mozilla/5.0 (Windows NT 10.0; Win64; x64) AppleWebKit/537.36 (KHTML, like Gecko) Chrome/138.0.0.0 Safari/537.36","WebKit","Chrome","138.0.0.0","Windows","10.0","https://app.prolific.com/","en-ZA,en-GB;q=0.9,en-US;q=0.8,en;q=0.7","666408427db5e38fe0ea1736","686d226cabeef709c732f8e1","686e3134c5ff705efbb43705","666408427db5e38fe0ea1736","2025-07-09T09:39:08.550Z","","","","","","StressQ","","","","","","","","","","","","","","","","","","","","","","","","","","","","","","","","","","","","","","50"
"4552","","<div style=""width:500px;"">
  <p>What best describes how you currently feel?</p>
  </div>","41","html-slider-response","70","1800163","0.0-10.0-4.5","139","1","2025-07-09 09:09:10","7701e855f2ef39aa3fd6c71abdc6918a","41.150.32.213","Mozilla/5.0 (Windows NT 10.0; Win64; x64) AppleWebKit/537.36 (KHTML, like Gecko) Chrome/138.0.0.0 Safari/537.36","WebKit","Chrome","138.0.0.0","Windows","10.0","https://app.prolific.com/","en-ZA,en-GB;q=0.9,en-US;q=0.8,en;q=0.7","666408427db5e38fe0ea1736","686d226cabeef709c732f8e1","686e3134c5ff705efbb43705","666408427db5e38fe0ea1736","2025-07-09T09:39:13.104Z","","","","","","MotivationQ","","","","","","","","","","","","","","","","","","","","","","","","","","","","","","","","","","","","","","50"
"","","","","ctl-task-cpt","71","1851026","0.0-10.0-0.6","139","1","2025-07-09 09:09:10","7701e855f2ef39aa3fd6c71abdc6918a","41.150.32.213","Mozilla/5.0 (Windows NT 10.0; Win64; x64) AppleWebKit/537.36 (KHTML, like Gecko) Chrome/138.0.0.0 Safari/537.36","WebKit","Chrome","138.0.0.0","Windows","10.0","https://app.prolific.com/","en-ZA,en-GB;q=0.9,en-US;q=0.8,en;q=0.7","666408427db5e38fe0ea1736","686d226cabeef709c732f8e1","686e3134c5ff705efbb43705","666408427db5e38fe0ea1736","2025-07-09T09:40:03.967Z","","","","","","","","","","","","","","","","win-only","1","g1:NE,g2:SW","0.4","7","0","1803332.7","4986.6","9996.7","47851.6","1","4","8","6","2","-8","-9","0","0","0","2327.2","3000","-2345","[""down"",""left""]","{""num_key_presses"":9,""num_perfect"":3,""num_errors"":1,""num_randdir"":5,""num_randdir_good_moves"":2,""num_whilered"":0,""num_whileblue"":0,""num_blue"":3,""num_good_moves"":5}","[301.22232142857143,294.12857142857143,0.5,301.22232142857143,294.12857142857143,106.3,301.22232142857143,294.12857142857143,213,301.22232142857143,294.12857142857143,319.9,301.22232142857143,294.12857142857143,420.8,301.22232142857143,294.12857142857143,527,301.22232142857143,294.12857142857143,637.1,301.22232142857143,294.12857142857143,737.3,301.22232142857143,294.12857142857143,842.7,297.22232142857143,300.12857142857143,944.1,249.22232142857143,382.12857142857143,1046.1,249.22232142857143,382.12857142857143,1156.5,249.22232142857143,382.12857142857143,1259.4,249.22232142857143,382.12857142857143,1361.5,158.22232142857143,457.12857142857143,1467.9,143.22232142857143,472.12857142857143,1571.5,128.22232142857143,490.12857142857143,1672.7,76.22232142857143,514.1285714285714,1775.2,66.22232142857143,532.1285714285714,1876.7,66.22232142857143,532.1285714285714,1977.5,66.22232142857143,532.1285714285714,2079.4,66.22232142857143,532.1285714285714,2179.7,66.22232142857143,532.1285714285714,2279.7,66.22232142857143,532.1285714285714,2389.3,66.22232142857143,532.1285714285714,2492.7,66.22232142857143,532.1285714285714,2594.2,66.22232142857143,532.1285714285714,2696.3,66.22232142857143,532.1285714285714,2803,66.22232142857143,532.1285714285714,2912.5,66.22232142857143,532.1285714285714,3015.3,66.22232142857143,532.1285714285714,3117.7,66.22232142857143,532.1285714285714,3220.4,66.22232142857143,532.1285714285714,3321.1,66.22232142857143,532.1285714285714,3432.2,66.22232142857143,532.1285714285714,3539.9,66.22232142857143,532.1285714285714,3642,66.22232142857143,532.1285714285714,3745.1,66.22232142857143,532.1285714285714,3849.4,66.22232142857143,532.1285714285714,3949.7,66.22232142857143,532.1285714285714,4054.4,66.22232142857143,532.1285714285714,4156.1,66.22232142857143,532.1285714285714,4261.1,66.22232142857143,532.1285714285714,4363,66.22232142857143,532.1285714285714,4471.6,66.22232142857143,532.1285714285714,4574,66.22232142857143,532.1285714285714,4676.2,66.22232142857143,532.1285714285714,4785.8,66.22232142857143,532.1285714285714,4887.8,66.22232142857143,532.1285714285714,4988.5]","[1624,1624,1000,0,624,""smooth"",""down"",""down"",""good_move"",9301.6,7677.2,2728,6165.3,408.3,""smooth"",""left"",""left"",""good_move"",12291,2989,2522.6,9302,466.4,""oops"",""left"",""down"",""good_move"",18607.2,6315.5,1944.4,16274.8,388,""smooth"",""down"",""down"",""good_move"",21368.5,2761.1,2301,18607.4,460.1,""oops"",""left"",""right"",""bad_move"",27409.1,6040,2628.1,24296,485,""oops"",""left"",""right"",""bad_move"",30095.5,2686,2024.4,27409.6,661.5,""oops"",""right"",""right"",""bad_move"",33790.3,3694.3,3343.8,30096,350.6,""oops"",""left"",""left"",""good_move"",34108.2,317.2,1961.4,33791,-1644.2,""error"",""-"",""-"",""no_move""]","",""
"5836","","<div style=""width:500px;"">
  <p>What determined the result of this run?</p>
  </div>","33","html-slider-response","72","1856864","0.0-10.0-1.6","139","1","2025-07-09 09:09:10","7701e855f2ef39aa3fd6c71abdc6918a","41.150.32.213","Mozilla/5.0 (Windows NT 10.0; Win64; x64) AppleWebKit/537.36 (KHTML, like Gecko) Chrome/138.0.0.0 Safari/537.36","WebKit","Chrome","138.0.0.0","Windows","10.0","https://app.prolific.com/","en-ZA,en-GB;q=0.9,en-US;q=0.8,en;q=0.7","666408427db5e38fe0ea1736","686d226cabeef709c732f8e1","686e3134c5ff705efbb43705","666408427db5e38fe0ea1736","2025-07-09T09:40:09.805Z","","","","","","AttribQ","","","","","","","","","","","","","","","","","","","","","","","","","","","","","","","","","","","","","","50"
"3992","","<div style=""width:500px;"">
  <p>How much control did you have over the ball?</p>
  </div>","58","html-slider-response","73","1860857","0.0-10.0-2.6","139","1","2025-07-09 09:09:10","7701e855f2ef39aa3fd6c71abdc6918a","41.150.32.213","Mozilla/5.0 (Windows NT 10.0; Win64; x64) AppleWebKit/537.36 (KHTML, like Gecko) Chrome/138.0.0.0 Safari/537.36","WebKit","Chrome","138.0.0.0","Windows","10.0","https://app.prolific.com/","en-ZA,en-GB;q=0.9,en-US;q=0.8,en;q=0.7","666408427db5e38fe0ea1736","686d226cabeef709c732f8e1","686e3134c5ff705efbb43705","666408427db5e38fe0ea1736","2025-07-09T09:40:13.799Z","","","","","","ControlQ","","","","","","","","","","","","","","","","","","","","","","","","","","","","","","","","","","","","","","50"
"5426","","<div style=""width:500px;"">
  <p>How would you describe your current emotional state?</p>
  </div>","33","html-slider-response","74","1866284","0.0-10.0-3.6","139","1","2025-07-09 09:09:10","7701e855f2ef39aa3fd6c71abdc6918a","41.150.32.213","Mozilla/5.0 (Windows NT 10.0; Win64; x64) AppleWebKit/537.36 (KHTML, like Gecko) Chrome/138.0.0.0 Safari/537.36","WebKit","Chrome","138.0.0.0","Windows","10.0","https://app.prolific.com/","en-ZA,en-GB;q=0.9,en-US;q=0.8,en;q=0.7","666408427db5e38fe0ea1736","686d226cabeef709c732f8e1","686e3134c5ff705efbb43705","666408427db5e38fe0ea1736","2025-07-09T09:40:19.226Z","","","","","","StressQ","","","","","","","","","","","","","","","","","","","","","","","","","","","","","","","","","","","","","","50"
"3604","","<div style=""width:500px;"">
  <p>What best describes how you currently feel?</p>
  </div>","66","html-slider-response","75","1869890","0.0-10.0-4.6","139","1","2025-07-09 09:09:10","7701e855f2ef39aa3fd6c71abdc6918a","41.150.32.213","Mozilla/5.0 (Windows NT 10.0; Win64; x64) AppleWebKit/537.36 (KHTML, like Gecko) Chrome/138.0.0.0 Safari/537.36","WebKit","Chrome","138.0.0.0","Windows","10.0","https://app.prolific.com/","en-ZA,en-GB;q=0.9,en-US;q=0.8,en;q=0.7","666408427db5e38fe0ea1736","686d226cabeef709c732f8e1","686e3134c5ff705efbb43705","666408427db5e38fe0ea1736","2025-07-09T09:40:22.831Z","","","","","","MotivationQ","","","","","","","","","","","","","","","","","","","","","","","","","","","","","","","","","","","","","","50"
"","","","","ctl-task-cpt","76","1906166","0.0-10.0-0.7","139","1","2025-07-09 09:09:10","7701e855f2ef39aa3fd6c71abdc6918a","41.150.32.213","Mozilla/5.0 (Windows NT 10.0; Win64; x64) AppleWebKit/537.36 (KHTML, like Gecko) Chrome/138.0.0.0 Safari/537.36","WebKit","Chrome","138.0.0.0","Windows","10.0","https://app.prolific.com/","en-ZA,en-GB;q=0.9,en-US;q=0.8,en;q=0.7","666408427db5e38fe0ea1736","686d226cabeef709c732f8e1","686e3134c5ff705efbb43705","666408427db5e38fe0ea1736","2025-07-09T09:40:59.107Z","","","","","","","","","","","","","","","","win-only","2","g1:SE,g2:NW","0.3","8","0","1873058.1","2784.2","7787.1","33262.9","1","4","4","6","2","-4","-4","0","0","0","2729.7","3000","-2270","[""left"",""up""]","{""num_key_presses"":7,""num_perfect"":2,""num_errors"":0,""num_randdir"":5,""num_randdir_good_moves"":1,""num_whilered"":0,""num_whileblue"":0,""num_blue"":1,""num_good_moves"":3}","[294.22232142857143,287.12857142857143,0.3,294.22232142857143,287.12857142857143,105.1,294.22232142857143,287.12857142857143,208.3,294.22232142857143,287.12857142857143,308.6,294.22232142857143,287.12857142857143,410,294.22232142857143,287.12857142857143,513.2,294.22232142857143,287.12857142857143,620.6,294.22232142857143,287.12857142857143,723.2,294.22232142857143,287.12857142857143,831,294.22232142857143,287.12857142857143,938.9,294.22232142857143,287.12857142857143,1043.6,294.22232142857143,287.12857142857143,1154.7,294.22232142857143,287.12857142857143,1260.6,290.22232142857143,287.12857142857143,1361.7,282.22232142857143,285.12857142857143,1464.2,282.22232142857143,285.12857142857143,1566.8,282.22232142857143,285.12857142857143,1681.4,282.22232142857143,285.12857142857143,1781.9,282.22232142857143,285.12857142857143,1886.4,282.22232142857143,285.12857142857143,1990.2,282.22232142857143,285.12857142857143,2098.4,119.22232142857143,116.12857142857143,2200,62.222321428571426,76.12857142857143,2315.5,53.222321428571426,67.12857142857143,2417.9,53.222321428571426,67.12857142857143,2522.1,53.222321428571426,67.12857142857143,2632.7,53.222321428571426,67.12857142857143,2734.7,53.222321428571426,67.12857142857143,2843.2,53.222321428571426,67.12857142857143,2946.4,53.222321428571426,67.12857142857143,3049,53.222321428571426,67.12857142857143,3149.3,53.222321428571426,67.12857142857143,3251.8,53.222321428571426,67.12857142857143,3352.6,53.222321428571426,67.12857142857143,3454.2,53.222321428571426,67.12857142857143,3565.1,53.222321428571426,67.12857142857143,3674.4,53.222321428571426,67.12857142857143,3775,53.222321428571426,67.12857142857143,3878,53.222321428571426,67.12857142857143,3978,53.222321428571426,67.12857142857143,4083.6,53.222321428571426,67.12857142857143,4200,53.222321428571426,67.12857142857143,4306.3,53.222321428571426,67.12857142857143,4417.4,53.222321428571426,67.12857142857143,4524.6,53.222321428571426,67.12857142857143,4631.1,53.222321428571426,67.12857142857143,4731.6,53.222321428571426,67.12857142857143,4833.4,53.222321428571426,67.12857142857143,4938.8]","[1470.4,1470.4,1000,0,470.4,""oops"",""up"",""down"",""bad_move"",4622.1,3150.9,2542.6,1471.4,608.1,""smooth"",""left"",""left"",""good_move"",8058.7,3436.3,2719.3,4622.4,717,""oops"",""left"",""right"",""bad_move"",10700.5,2641.3,2074.9,8059.2,566.4,""oops"",""up"",""up"",""good_move"",13902.7,3201.6,2795.3,10701.1,406.3,""oops"",""left"",""right"",""bad_move"",19995.2,6092.1,2350.5,17229.7,415,""oops"",""up"",""down"",""bad_move"",22720.1,2724.7,1960.6,19995.4,764.1,""smooth"",""left"",""left"",""good_move""]","",""
"4636","","<div style=""width:500px;"">
  <p>What determined the result of this run?</p>
  </div>","65","html-slider-response","77","1910803","0.0-10.0-1.7","139","1","2025-07-09 09:09:10","7701e855f2ef39aa3fd6c71abdc6918a","41.150.32.213","Mozilla/5.0 (Windows NT 10.0; Win64; x64) AppleWebKit/537.36 (KHTML, like Gecko) Chrome/138.0.0.0 Safari/537.36","WebKit","Chrome","138.0.0.0","Windows","10.0","https://app.prolific.com/","en-ZA,en-GB;q=0.9,en-US;q=0.8,en;q=0.7","666408427db5e38fe0ea1736","686d226cabeef709c732f8e1","686e3134c5ff705efbb43705","666408427db5e38fe0ea1736","2025-07-09T09:41:03.744Z","","","","","","AttribQ","","","","","","","","","","","","","","","","","","","","","","","","","","","","","","","","","","","","","","50"
"3930","","<div style=""width:500px;"">
  <p>How much control did you have over the ball?</p>
  </div>","67","html-slider-response","78","1914735","0.0-10.0-2.7","139","1","2025-07-09 09:09:10","7701e855f2ef39aa3fd6c71abdc6918a","41.150.32.213","Mozilla/5.0 (Windows NT 10.0; Win64; x64) AppleWebKit/537.36 (KHTML, like Gecko) Chrome/138.0.0.0 Safari/537.36","WebKit","Chrome","138.0.0.0","Windows","10.0","https://app.prolific.com/","en-ZA,en-GB;q=0.9,en-US;q=0.8,en;q=0.7","666408427db5e38fe0ea1736","686d226cabeef709c732f8e1","686e3134c5ff705efbb43705","666408427db5e38fe0ea1736","2025-07-09T09:41:07.676Z","","","","","","ControlQ","","","","","","","","","","","","","","","","","","","","","","","","","","","","","","","","","","","","","","50"
"3657","","<div style=""width:500px;"">
  <p>How would you describe your current emotional state?</p>
  </div>","73","html-slider-response","79","1918394","0.0-10.0-3.7","139","1","2025-07-09 09:09:10","7701e855f2ef39aa3fd6c71abdc6918a","41.150.32.213","Mozilla/5.0 (Windows NT 10.0; Win64; x64) AppleWebKit/537.36 (KHTML, like Gecko) Chrome/138.0.0.0 Safari/537.36","WebKit","Chrome","138.0.0.0","Windows","10.0","https://app.prolific.com/","en-ZA,en-GB;q=0.9,en-US;q=0.8,en;q=0.7","666408427db5e38fe0ea1736","686d226cabeef709c732f8e1","686e3134c5ff705efbb43705","666408427db5e38fe0ea1736","2025-07-09T09:41:11.335Z","","","","","","StressQ","","","","","","","","","","","","","","","","","","","","","","","","","","","","","","","","","","","","","","50"
"3646","","<div style=""width:500px;"">
  <p>What best describes how you currently feel?</p>
  </div>","60","html-slider-response","80","1922041","0.0-10.0-4.7","139","1","2025-07-09 09:09:10","7701e855f2ef39aa3fd6c71abdc6918a","41.150.32.213","Mozilla/5.0 (Windows NT 10.0; Win64; x64) AppleWebKit/537.36 (KHTML, like Gecko) Chrome/138.0.0.0 Safari/537.36","WebKit","Chrome","138.0.0.0","Windows","10.0","https://app.prolific.com/","en-ZA,en-GB;q=0.9,en-US;q=0.8,en;q=0.7","666408427db5e38fe0ea1736","686d226cabeef709c732f8e1","686e3134c5ff705efbb43705","666408427db5e38fe0ea1736","2025-07-09T09:41:14.982Z","","","","","","MotivationQ","","","","","","","","","","","","","","","","","","","","","","","","","","","","","","","","","","","","","","50"
"","","","","ctl-task-cpt","81","1964348","0.0-10.0-0.8","139","1","2025-07-09 09:09:10","7701e855f2ef39aa3fd6c71abdc6918a","41.150.32.213","Mozilla/5.0 (Windows NT 10.0; Win64; x64) AppleWebKit/537.36 (KHTML, like Gecko) Chrome/138.0.0.0 Safari/537.36","WebKit","Chrome","138.0.0.0","Windows","10.0","https://app.prolific.com/","en-ZA,en-GB;q=0.9,en-US;q=0.8,en;q=0.7","666408427db5e38fe0ea1736","686d226cabeef709c732f8e1","686e3134c5ff705efbb43705","666408427db5e38fe0ea1736","2025-07-09T09:41:57.289Z","","","","","","","","","","","","","","","","win-only","0","g1:NW,g2:SE","0.2","9","0","1925207.5","2682.9","7683.9","39280.7","1","4","4","6","2","-4","-5","0","0","0","3811.8","3000","-2055","[""down"",""right""]","{""num_key_presses"":8,""num_perfect"":1,""num_errors"":1,""num_randdir"":6,""num_randdir_good_moves"":2,""num_whilered"":0,""num_whileblue"":0,""num_blue"":2,""num_good_moves"":3}","[297.22232142857143,300.12857142857143,0.2,297.22232142857143,300.12857142857143,109.5,297.22232142857143,300.12857142857143,220.3,297.22232142857143,300.12857142857143,323.6,297.22232142857143,300.12857142857143,426.6,297.22232142857143,300.12857142857143,536.4,297.22232142857143,300.12857142857143,637.2,297.22232142857143,300.12857142857143,737.4,297.22232142857143,300.12857142857143,844.7,297.22232142857143,300.12857142857143,947.8,294.22232142857143,300.12857142857143,1053.9,294.22232142857143,300.12857142857143,1172.4,295.22232142857143,302.12857142857143,1272.7,388.22232142857143,439.12857142857143,1386.5,401.22232142857143,439.12857142857143,1486.7,401.22232142857143,439.12857142857143,1587.9,401.22232142857143,439.12857142857143,1692.3,401.22232142857143,439.12857142857143,1794.4,426.22232142857143,461.12857142857143,1904.8,507.22232142857143,533.1285714285714,2012,570.2223214285714,589.1285714285714,2113.1,576.2223214285714,597.1285714285714,2213.8,580.2223214285714,605.1285714285714,2319,581.2223214285714,605.1285714285714,2424.6,581.2223214285714,605.1285714285714,2530,580.2223214285714,605.1285714285714,2635.8,580.2223214285714,605.1285714285714,2738.3,580.2223214285714,605.1285714285714,2856,580.2223214285714,605.1285714285714,2970.7,580.2223214285714,605.1285714285714,3071.7,571.2223214285714,592.1285714285714,3174,556.2223214285714,570.1285714285714,3274.1,556.2223214285714,570.1285714285714,3387.2,556.2223214285714,570.1285714285714,3496.5,556.2223214285714,570.1285714285714,3599.6,556.2223214285714,570.1285714285714,3702.8,556.2223214285714,570.1285714285714,3810.7,556.2223214285714,570.1285714285714,3911.9,556.2223214285714,570.1285714285714,4019.9,556.2223214285714,570.1285714285714,4138,556.2223214285714,570.1285714285714,4239.1,556.2223214285714,570.1285714285714,4342.6,556.2223214285714,570.1285714285714,4444,556.2223214285714,570.1285714285714,4546.4,556.2223214285714,570.1285714285714,4654.7,556.2223214285714,570.1285714285714,4756.2,556.2223214285714,570.1285714285714,4862.5,556.2223214285714,570.1285714285714,4962.5]","[1617.2,1617.2,1000,0,617.2,""oops"",""right"",""left"",""bad_move"",4186.6,2568.7,1937.1,1618,631.5,""oops"",""right"",""up"",""bad_move"",11382.3,7195.1,3183.3,7806,393,""oops"",""right"",""down"",""good_move"",15195.8,3813,2780.4,11382.9,1032.5,""smooth"",""right"",""right"",""good_move"",21449.9,6253.6,2300.4,18770.8,378.7,""oops"",""right"",""down"",""good_move"",23536,2085.5,1508.9,21450.5,576.6,""oops"",""right"",""up"",""bad_move"",26510.4,2973.8,2521.4,23536.6,452.4,""oops"",""down"",""up"",""bad_move"",27329.5,818.6,2770.5,26510.9,-1951.9,""error"",""-"",""-"",""no_move""]","",""
"3594","","<div style=""width:500px;"">
  <p>What determined the result of this run?</p>
  </div>","82","html-slider-response","82","1967944","0.0-10.0-1.8","139","1","2025-07-09 09:09:10","7701e855f2ef39aa3fd6c71abdc6918a","41.150.32.213","Mozilla/5.0 (Windows NT 10.0; Win64; x64) AppleWebKit/537.36 (KHTML, like Gecko) Chrome/138.0.0.0 Safari/537.36","WebKit","Chrome","138.0.0.0","Windows","10.0","https://app.prolific.com/","en-ZA,en-GB;q=0.9,en-US;q=0.8,en;q=0.7","666408427db5e38fe0ea1736","686d226cabeef709c732f8e1","686e3134c5ff705efbb43705","666408427db5e38fe0ea1736","2025-07-09T09:42:00.885Z","","","","","","AttribQ","","","","","","","","","","","","","","","","","","","","","","","","","","","","","","","","","","","","","","50"
"6068","","<div style=""width:500px;"">
  <p>How much control did you have over the ball?</p>
  </div>","15","html-slider-response","83","1974014","0.0-10.0-2.8","139","1","2025-07-09 09:09:10","7701e855f2ef39aa3fd6c71abdc6918a","41.150.32.213","Mozilla/5.0 (Windows NT 10.0; Win64; x64) AppleWebKit/537.36 (KHTML, like Gecko) Chrome/138.0.0.0 Safari/537.36","WebKit","Chrome","138.0.0.0","Windows","10.0","https://app.prolific.com/","en-ZA,en-GB;q=0.9,en-US;q=0.8,en;q=0.7","666408427db5e38fe0ea1736","686d226cabeef709c732f8e1","686e3134c5ff705efbb43705","666408427db5e38fe0ea1736","2025-07-09T09:42:06.955Z","","","","","","ControlQ","","","","","","","","","","","","","","","","","","","","","","","","","","","","","","","","","","","","","","50"
"4864","","<div style=""width:500px;"">
  <p>How would you describe your current emotional state?</p>
  </div>","73","html-slider-response","84","1978879","0.0-10.0-3.8","139","1","2025-07-09 09:09:10","7701e855f2ef39aa3fd6c71abdc6918a","41.150.32.213","Mozilla/5.0 (Windows NT 10.0; Win64; x64) AppleWebKit/537.36 (KHTML, like Gecko) Chrome/138.0.0.0 Safari/537.36","WebKit","Chrome","138.0.0.0","Windows","10.0","https://app.prolific.com/","en-ZA,en-GB;q=0.9,en-US;q=0.8,en;q=0.7","666408427db5e38fe0ea1736","686d226cabeef709c732f8e1","686e3134c5ff705efbb43705","666408427db5e38fe0ea1736","2025-07-09T09:42:11.820Z","","","","","","StressQ","","","","","","","","","","","","","","","","","","","","","","","","","","","","","","","","","","","","","","50"
"5637","","<div style=""width:500px;"">
  <p>What best describes how you currently feel?</p>
