"rt","response_timestamp","stimulus","response","trial_type","trial_index","time_elapsed","internal_node_id","run_id","condition","recorded_at","source_code_version","ip","user_agent","device","browser","browser_version","platform","platform_version","referer","accept_language","PROLIFIC_PID","STUDY_ID","SESSION_ID","prolific_id","realtime","view_history","question_order","consent","success","question_id","eventType","responses","item_order","radio_event_ids","radio_event_times","key_event_times","mouse_event_times","straightlining","zigzagging","honeypot","which_type","canvas_config","goals_layout","control_level","trial_number","tutorial_trial_number","trial_start_time","phase1_start_time","phase2_start_time","phase3_start_time","goal_1_value","goal_1_distance","goal_2_value","goal_2_distance","goal_selected","outcome","outcome_total","participant_final_score","participant_initial_score","participant_final_score_prop","goal_choice_rt","allocated_time","allocated_time_remaining","goal_direction","counts","mouse_movements","key_presses","correct","slider_start","sub_question"
"108612","1752052460869","<p style='font-size:40px;line-height:1.25'><strong>Welcome to the experiment!</strong></p><p style='font-size:1.1em;line-height:1.25'>Thank you for your interest in our experiment! Before you begin, it is important that we obtain your informed consent to participate in the study.</p><p style='font-size:1.1em;line-height:1.25'>On the next screen will be an <strong>information sheet</strong> for you to read. To participate in the study we need you to read this information sheet and the following consent form carefully. If you agree with all the statements, please click the <strong>I agree</strong> button.</p><p style='font-size:1.1em;line-height:1.25'>Press <strong>Next</strong> to read the information sheet.</p>","0","custom-html-button-response","0","108619","0.0-0.0","175","1","2025-07-09 09:12:24","7701e855f2ef39aa3fd6c71abdc6918a","41.115.21.160","Mozilla/5.0 (Windows NT 10.0; Win64; x64) AppleWebKit/537.36 (KHTML, like Gecko) Chrome/137.0.0.0 Safari/537.36","WebKit","Chrome","137.0.0.0","Windows","10.0","https://app.prolific.com/","en-GB,en-US;q=0.9,en;q=0.8","66797151cf3b1921be1c405a","686d226cabeef709c732f8e1","686e312650ea66747cf01bb5","66797151cf3b1921be1c405a","2025-07-09T09:14:20.871Z","","","","","","","","","","","","","","","","","","","","","","","","","","","","","","","","","","","","","","","","","","","","",""
"132538","","","","instructions","1","241160","0.0-1.0","175","1","2025-07-09 09:12:24","7701e855f2ef39aa3fd6c71abdc6918a","41.115.21.160","Mozilla/5.0 (Windows NT 10.0; Win64; x64) AppleWebKit/537.36 (KHTML, like Gecko) Chrome/137.0.0.0 Safari/537.36","WebKit","Chrome","137.0.0.0","Windows","10.0","https://app.prolific.com/","en-GB,en-US;q=0.9,en;q=0.8","66797151cf3b1921be1c405a","686d226cabeef709c732f8e1","686e312650ea66747cf01bb5","66797151cf3b1921be1c405a","","[{""page_index"":0,""viewing_time"":112767},{""page_index"":1,""viewing_time"":19769}]","","","","","","","","","","","","","","","","","","","","","","","","","","","","","","","","","","","","","","","","","","","",""
"5968","","","{""Q0"":"""",""Q1"":"""",""Q2"":"""",""Q3"":"""",""Q4"":"""",""Q5"":"""",""Q6"":""I agree""}","survey-multi-choice","2","247150","0.0-2.0","175","1","2025-07-09 09:12:24","7701e855f2ef39aa3fd6c71abdc6918a","41.115.21.160","Mozilla/5.0 (Windows NT 10.0; Win64; x64) AppleWebKit/537.36 (KHTML, like Gecko) Chrome/137.0.0.0 Safari/537.36","WebKit","Chrome","137.0.0.0","Windows","10.0","https://app.prolific.com/","en-GB,en-US;q=0.9,en;q=0.8","66797151cf3b1921be1c405a","686d226cabeef709c732f8e1","686e312650ea66747cf01bb5","66797151cf3b1921be1c405a","","","[0,1,2,3,4,5,6]","true","","","","","","","","","","","","","","","","","","","","","","","","","","","","","","","","","","","","","","","","","",""
"28253","","","","fullscreen","3","276425","0.0-4.0","175","1","2025-07-09 09:12:24","7701e855f2ef39aa3fd6c71abdc6918a","41.115.21.160","Mozilla/5.0 (Windows NT 10.0; Win64; x64) AppleWebKit/537.36 (KHTML, like Gecko) Chrome/137.0.0.0 Safari/537.36","WebKit","Chrome","137.0.0.0","Windows","10.0","https://app.prolific.com/","en-GB,en-US;q=0.9,en;q=0.8","66797151cf3b1921be1c405a","686d226cabeef709c732f8e1","686e312650ea66747cf01bb5","66797151cf3b1921be1c405a","","","","","true","","","","","","","","","","","","","","","","","","","","","","","","","","","","","","","","","","","","","","","","",""
"10504","1752052639183"," <p style='font-size:1.1em;line-height:1.25'>Thank you for completing the consent form and closing all other tabs.</p><p style='font-size:1.1em;line-height:1.25'>We will now invite you to fill in some demographic information and questionnaires, before starting the game.<br>This will take about 5 minutes.<br></p><p style='font-size:1.1em;line-height:1.25'>Press the <strong>Next</strong> button to continue.</p>","0","custom-html-button-response","4","286932","0.0-5.0","175","1","2025-07-09 09:12:24","7701e855f2ef39aa3fd6c71abdc6918a","41.115.21.160","Mozilla/5.0 (Windows NT 10.0; Win64; x64) AppleWebKit/537.36 (KHTML, like Gecko) Chrome/137.0.0.0 Safari/537.36","WebKit","Chrome","137.0.0.0","Windows","10.0","https://app.prolific.com/","en-GB,en-US;q=0.9,en;q=0.8","66797151cf3b1921be1c405a","686d226cabeef709c732f8e1","686e312650ea66747cf01bb5","66797151cf3b1921be1c405a","2025-07-09T09:17:19.184Z","","","","","","","","","","","","","","","","","","","","","","","","","","","","","","","","","","","","","","","","","","","","",""
"5163","","","{""age"":""26""}","survey-text","5","292108","0.0-6.0-0.0","175","1","2025-07-09 09:12:24","7701e855f2ef39aa3fd6c71abdc6918a","41.115.21.160","Mozilla/5.0 (Windows NT 10.0; Win64; x64) AppleWebKit/537.36 (KHTML, like Gecko) Chrome/137.0.0.0 Safari/537.36","WebKit","Chrome","137.0.0.0","Windows","10.0","https://app.prolific.com/","en-GB,en-US;q=0.9,en;q=0.8","66797151cf3b1921be1c405a","686d226cabeef709c732f8e1","686e312650ea66747cf01bb5","66797151cf3b1921be1c405a","","","","","","0","demographics","","","","","","","","","","","","","","","","","","","","","","","","","","","","","","","","","","","","","","",""
"3740","","","{""gender_identity"":""female/woman""}","survey-multi-choice","6","295851","0.0-6.0-1.0","175","1","2025-07-09 09:12:24","7701e855f2ef39aa3fd6c71abdc6918a","41.115.21.160","Mozilla/5.0 (Windows NT 10.0; Win64; x64) AppleWebKit/537.36 (KHTML, like Gecko) Chrome/137.0.0.0 Safari/537.36","WebKit","Chrome","137.0.0.0","Windows","10.0","https://app.prolific.com/","en-GB,en-US;q=0.9,en;q=0.8","66797151cf3b1921be1c405a","686d226cabeef709c732f8e1","686e312650ea66747cf01bb5","66797151cf3b1921be1c405a","","","[0]","","","1","demographics","","","","","","","","","","","","","","","","","","","","","","","","","","","","","","","","","","","","","","",""
"5307","","","{""assigned_sex"":""female""}","survey-multi-choice","7","301162","0.0-6.0-2.0","175","1","2025-07-09 09:12:24","7701e855f2ef39aa3fd6c71abdc6918a","41.115.21.160","Mozilla/5.0 (Windows NT 10.0; Win64; x64) AppleWebKit/537.36 (KHTML, like Gecko) Chrome/137.0.0.0 Safari/537.36","WebKit","Chrome","137.0.0.0","Windows","10.0","https://app.prolific.com/","en-GB,en-US;q=0.9,en;q=0.8","66797151cf3b1921be1c405a","686d226cabeef709c732f8e1","686e312650ea66747cf01bb5","66797151cf3b1921be1c405a","","","[0]","","","2","demographics","","","","","","","","","","","","","","","","","","","","","","","","","","","","","","","","","","","","","","",""
"5246","","","{""menstrual_cycle"":""Yes""}","survey-multi-choice","8","306412","0.0-6.0-3.0","175","1","2025-07-09 09:12:24","7701e855f2ef39aa3fd6c71abdc6918a","41.115.21.160","Mozilla/5.0 (Windows NT 10.0; Win64; x64) AppleWebKit/537.36 (KHTML, like Gecko) Chrome/137.0.0.0 Safari/537.36","WebKit","Chrome","137.0.0.0","Windows","10.0","https://app.prolific.com/","en-GB,en-US;q=0.9,en;q=0.8","66797151cf3b1921be1c405a","686d226cabeef709c732f8e1","686e312650ea66747cf01bb5","66797151cf3b1921be1c405a","","","[0]","","","4","demographics","","","","","","","","","","","","","","","","","","","","","","","","","","","","","","","","","","","","","","",""
"6318","","","{""education"":""Master's Degree (e.g., MSc)""}","survey-multi-choice","9","312734","0.0-6.0-4.0","175","1","2025-07-09 09:12:24","7701e855f2ef39aa3fd6c71abdc6918a","41.115.21.160","Mozilla/5.0 (Windows NT 10.0; Win64; x64) AppleWebKit/537.36 (KHTML, like Gecko) Chrome/137.0.0.0 Safari/537.36","WebKit","Chrome","137.0.0.0","Windows","10.0","https://app.prolific.com/","en-GB,en-US;q=0.9,en;q=0.8","66797151cf3b1921be1c405a","686d226cabeef709c732f8e1","686e312650ea66747cf01bb5","66797151cf3b1921be1c405a","","","[0]","","","5","demographics","","","","","","","","","","","","","","","","","","","","","","","","","","","","","","","","","","","","","","",""
"6298","","","{""education"":""Bachelor's Degree (e.g., BA)""}","survey-multi-choice","10","319036","0.0-6.0-5.0","175","1","2025-07-09 09:12:24","7701e855f2ef39aa3fd6c71abdc6918a","41.115.21.160","Mozilla/5.0 (Windows NT 10.0; Win64; x64) AppleWebKit/537.36 (KHTML, like Gecko) Chrome/137.0.0.0 Safari/537.36","WebKit","Chrome","137.0.0.0","Windows","10.0","https://app.prolific.com/","en-GB,en-US;q=0.9,en;q=0.8","66797151cf3b1921be1c405a","686d226cabeef709c732f8e1","686e312650ea66747cf01bb5","66797151cf3b1921be1c405a","2025-07-09T09:17:51.288Z","","[0]","","","6","demographics","","","","","","","","","","","","","","","","","","","","","","","","","","","","","","","","","","","","","","",""
"18843","","","{""mental_health_condition"":""no"",""mental_health_treatment"":"" no"",""psychiatric_medication"":""no""}","survey-text","11","337891","0.0-7.0-0.0","175","1","2025-07-09 09:12:24","7701e855f2ef39aa3fd6c71abdc6918a","41.115.21.160","Mozilla/5.0 (Windows NT 10.0; Win64; x64) AppleWebKit/537.36 (KHTML, like Gecko) Chrome/137.0.0.0 Safari/537.36","WebKit","Chrome","137.0.0.0","Windows","10.0","https://app.prolific.com/","en-GB,en-US;q=0.9,en;q=0.8","66797151cf3b1921be1c405a","686d226cabeef709c732f8e1","686e312650ea66747cf01bb5","66797151cf3b1921be1c405a","2025-07-09T09:18:10.144Z","","","","","1","mental_health","","","","","","","","","","","","","","","","","","","","","","","","","","","","","","","","","","","","","","",""
"15907","","","{""depression_history"":[""No""]}","survey-multi-select","12","353820","0.0-7.0-1.0","175","1","2025-07-09 09:12:24","7701e855f2ef39aa3fd6c71abdc6918a","41.115.21.160","Mozilla/5.0 (Windows NT 10.0; Win64; x64) AppleWebKit/537.36 (KHTML, like Gecko) Chrome/137.0.0.0 Safari/537.36","WebKit","Chrome","137.0.0.0","Windows","10.0","https://app.prolific.com/","en-GB,en-US;q=0.9,en;q=0.8","66797151cf3b1921be1c405a","686d226cabeef709c732f8e1","686e312650ea66747cf01bb5","66797151cf3b1921be1c405a","","","[0]","","","","mental_health","","","","","","","","","","","","","","","","","","","","","","","","","","","","","","","","","","","","","","",""
"203482.69999992847","","","","survey-template","13","557329","0.0-7.0-3.0","175","1","2025-07-09 09:12:24","7701e855f2ef39aa3fd6c71abdc6918a","41.115.21.160","Mozilla/5.0 (Windows NT 10.0; Win64; x64) AppleWebKit/537.36 (KHTML, like Gecko) Chrome/137.0.0.0 Safari/537.36","WebKit","Chrome","137.0.0.0","Windows","10.0","https://app.prolific.com/","en-GB,en-US;q=0.9,en;q=0.8","66797151cf3b1921be1c405a","686d226cabeef709c732f8e1","686e312650ea66747cf01bb5","66797151cf3b1921be1c405a","2025-07-09T09:21:49.581Z","","","","","","ius","{""Q01"":""1"",""Q02"":""2"",""Q03"":""1"",""Q04"":""2"",""Q05"":""0"",""Q06"":""0"",""Q07"":""0"",""Q08"":""0"",""Q09"":""3"",""Q10"":""1"",""Q11"":""1"",""Q12"":""3"",""Q13"":""3""}","[0,1,2,3,4,5,6,7,8,9,10,11,12]","[""Q01"",""Q02"",""Q03"",""Q04"",""Q05"",""Q06"",""Q07"",""Q08"",""Q09"",""Q10"",""Q11"",""Q11"",""Q11"",""Q12"",""Q13"",""Q13""]","[9639.799999952316,14047,31387,95672.19999992847,104269.79999995232,109126,113395.79999995232,120225.69999992847,124407.60000002384,131581.89999997616,136822.79999995232,139872.60000002384,141431.69999992847,148741.69999992847,178421.69999992847,200215.79999995232]","[]","[7897.899999976158,9639.799999952316,14047,31387,95672.19999992847,104269.79999995232,108065.5,109126,112499.79999995232,113395.79999995232,120225.69999992847,124407.60000002384,131581.89999997616,136822.79999995232,139872.60000002384,141431.69999992847,147189.69999992847,148129.60000002384,148741.69999992847,178421.69999992847,200215.79999995232,203478.10000002384]","0.3076923076923077","0.25","0","","","","","","","","","","","","","","","","","","","","","","","","","","","","","",""
"3890","1752052913472","<p style='font-size:1.1em;line-height:1.25'>In the following, we will ask you a few questions relating to your experiences over the past month.<br></p><p style='font-size:1.1em;line-height:1.25'>Press the <strong>Next</strong> button to continue.</p>","0","custom-html-button-response","14","561221","0.0-7.0-4.0","175","1","2025-07-09 09:12:24","7701e855f2ef39aa3fd6c71abdc6918a","41.115.21.160","Mozilla/5.0 (Windows NT 10.0; Win64; x64) AppleWebKit/537.36 (KHTML, like Gecko) Chrome/137.0.0.0 Safari/537.36","WebKit","Chrome","137.0.0.0","Windows","10.0","https://app.prolific.com/","en-GB,en-US;q=0.9,en;q=0.8","66797151cf3b1921be1c405a","686d226cabeef709c732f8e1","686e312650ea66747cf01bb5","66797151cf3b1921be1c405a","2025-07-09T09:21:53.473Z","","","","","","","","","","","","","","","","","","","","","","","","","","","","","","","","","","","","","","","","","","","","",""
"78907.29999995232","","","","survey-template","15","640132","0.0-7.0-5.0","175","1","2025-07-09 09:12:24","7701e855f2ef39aa3fd6c71abdc6918a","41.115.21.160","Mozilla/5.0 (Windows NT 10.0; Win64; x64) AppleWebKit/537.36 (KHTML, like Gecko) Chrome/137.0.0.0 Safari/537.36","WebKit","Chrome","137.0.0.0","Windows","10.0","https://app.prolific.com/","en-GB,en-US;q=0.9,en;q=0.8","66797151cf3b1921be1c405a","686d226cabeef709c732f8e1","686e312650ea66747cf01bb5","66797151cf3b1921be1c405a","2025-07-09T09:23:12.384Z","","","","","","pss","{""Q01"":""2"",""Q02"":""0"",""Q03"":""1"",""Q04"":""1"",""Q05"":""0"",""Q06"":""0"",""Q07"":""2"",""Q08"":""1"",""Q09"":""2"",""Q10"":""1""}","[0,1,2,3,4,5,6,7,8,9]","[""Q01"",""Q02"",""Q03"",""Q04"",""Q05"",""Q06"",""Q07"",""Q08"",""Q09"",""Q09"",""Q09"",""Q10""]","[7051.799999952316,11989.399999976158,16849.299999952316,26721.299999952316,40681.699999928474,46449.199999928474,56969.799999952316,62776.59999990463,67440.69999992847,69013.19999992847,71135.69999992847,77635.39999997616]","[]","[0,5184.399999976158,5907.399999976158,7051.799999952316,11989.399999976158,16849.299999952316,26721.299999952316,39877.5,40681.699999928474,45770.59999990463,46449.199999928474,56969.799999952316,62060.89999997616,62776.59999990463,67440.69999992847,69013.19999992847,71135.69999992847,77635.39999997616,78901.89999997616]","0.3","0.6666666666666666","0","","","","","","","","","","","","","","","","","","","","","","","","","","","","","",""
"4705","1752052997091","<p style='font-size:1.1em;line-height:1.25'>Thank you for your answers! Now we will ask you a few more questions relating to your feelings in the last 24 hours.<br></p><p style='font-size:1.1em;line-height:1.25'>Press the <strong>Next</strong> button to continue.</p>","0","custom-html-button-response","16","644840","0.0-7.0-6.0","175","1","2025-07-09 09:12:24","7701e855f2ef39aa3fd6c71abdc6918a","41.115.21.160","Mozilla/5.0 (Windows NT 10.0; Win64; x64) AppleWebKit/537.36 (KHTML, like Gecko) Chrome/137.0.0.0 Safari/537.36","WebKit","Chrome","137.0.0.0","Windows","10.0","https://app.prolific.com/","en-GB,en-US;q=0.9,en;q=0.8","66797151cf3b1921be1c405a","686d226cabeef709c732f8e1","686e312650ea66747cf01bb5","66797151cf3b1921be1c405a","2025-07-09T09:23:17.092Z","","","","","","","","","","","","","","","","","","","","","","","","","","","","","","","","","","","","","","","","","","","","",""
"90427.39999997616","","","","survey-template","17","735279","0.0-7.0-7.0","175","1","2025-07-09 09:12:24","7701e855f2ef39aa3fd6c71abdc6918a","41.115.21.160","Mozilla/5.0 (Windows NT 10.0; Win64; x64) AppleWebKit/537.36 (KHTML, like Gecko) Chrome/137.0.0.0 Safari/537.36","WebKit","Chrome","137.0.0.0","Windows","10.0","https://app.prolific.com/","en-GB,en-US;q=0.9,en;q=0.8","66797151cf3b1921be1c405a","686d226cabeef709c732f8e1","686e312650ea66747cf01bb5","66797151cf3b1921be1c405a","2025-07-09T09:24:47.531Z","","","","","","drsp","{""Q01"":""0"",""Q02"":""0"",""Q03"":""0"",""Q04"":""0"",""Q05"":""1"",""Q06"":""2"",""Q07"":""0"",""Q08"":""0"",""Q09"":""1"",""Q10"":""0"",""Q11"":""1"",""Q12"":""0"",""Q13"":""3"",""Q14"":""1"",""Q15"":""0"",""Q16"":""0"",""Q17"":""0"",""Q18"":""0"",""Q19"":""0"",""Q20"":""0"",""Q21"":""0""}","[0,1,2,3,4,5,6,7,8,9,10,11,12,13,14,15,16,17,18,19,20]","[""Q02"",""Q01"",""Q03"",""Q04"",""Q05"",""Q06"",""Q07"",""Q08"",""Q09"",""Q10"",""Q11"",""Q12"",""Q13"",""Q14"",""Q15"",""Q16"",""Q17"",""Q18"",""Q19"",""Q20"",""Q21""]","[4413.5,5086.200000047684,9379.399999976158,10405.100000023842,20702.799999952316,27180.600000023842,29443.200000047684,31216.600000023842,34002.700000047684,38794.5,39556.5,43634.799999952316,46768.700000047684,49314.5,53961.10000002384,57410,73004.39999997616,77366.39999997616,83268.89999997616,85280.29999995232,88494.39999997616]","[]","[0.10000002384185791,2379.5,3696,4413.5,5086.200000047684,8834.899999976158,9379.399999976158,10405.100000023842,20702.799999952316,27180.600000023842,29443.200000047684,31216.600000023842,34002.700000047684,36649.299999952316,38794.5,39556.5,43634.799999952316,46768.700000047684,49314.5,53961.10000002384,55705.700000047684,56364.5,57410,72255.29999995232,73004.39999997616,77366.39999997616,83268.89999997616,85280.29999995232,88494.39999997616,90410.60000002384]","0.7142857142857143","0.35","0","","","","","","","","","","","","","","","","","","","","","","","","","","","","","",""
"14165.699999928474","","","","survey-template","18","749448","0.0-7.0-8.0","175","1","2025-07-09 09:12:24","7701e855f2ef39aa3fd6c71abdc6918a","41.115.21.160","Mozilla/5.0 (Windows NT 10.0; Win64; x64) AppleWebKit/537.36 (KHTML, like Gecko) Chrome/137.0.0.0 Safari/537.36","WebKit","Chrome","137.0.0.0","Windows","10.0","https://app.prolific.com/","en-GB,en-US;q=0.9,en;q=0.8","66797151cf3b1921be1c405a","686d226cabeef709c732f8e1","686e312650ea66747cf01bb5","66797151cf3b1921be1c405a","2025-07-09T09:25:01.700Z","","","","","","stress","{""Q01"":""2"",""Q02"":""0"",""Q03"":""1""}","[0,1,2]","[""Q01"",""Q02"",""Q03""]","[3527,6463,12848.899999976158]","[]","[2697.5999999046326,3135.2999999523163,3527,6463,12177.199999928474,12848.899999976158,14164.099999904633]","0.3333333333333333","0","0","","","","","","","","","","","","","","","","","","","","","","","","","","","","","",""
"118269","","","","instructions","19","867718","0.0-8.0-0.0","175","1","2025-07-09 09:12:24","7701e855f2ef39aa3fd6c71abdc6918a","41.115.21.160","Mozilla/5.0 (Windows NT 10.0; Win64; x64) AppleWebKit/537.36 (KHTML, like Gecko) Chrome/137.0.0.0 Safari/537.36","WebKit","Chrome","137.0.0.0","Windows","10.0","https://app.prolific.com/","en-GB,en-US;q=0.9,en;q=0.8","66797151cf3b1921be1c405a","686d226cabeef709c732f8e1","686e312650ea66747cf01bb5","66797151cf3b1921be1c405a","","[{""page_index"":0,""viewing_time"":8680},{""page_index"":1,""viewing_time"":3062},{""page_index"":2,""viewing_time"":75368},{""page_index"":3,""viewing_time"":1807},{""page_index"":2,""viewing_time"":1180},{""page_index"":1,""viewing_time"":1324},{""page_index"":0,""viewing_time"":21218},{""page_index"":1,""viewing_time"":1479},{""page_index"":2,""viewing_time"":2552},{""page_index"":3,""viewing_time"":1600}]","","","","","","","","","","","","","","","","","","","","","","","","","","","","","","","","","","","","","","","","","","","",""
"","","","","ctl-task-cpt","20","888084","0.0-8.0-1.0","175","1","2025-07-09 09:12:24","7701e855f2ef39aa3fd6c71abdc6918a","41.115.21.160","Mozilla/5.0 (Windows NT 10.0; Win64; x64) AppleWebKit/537.36 (KHTML, like Gecko) Chrome/137.0.0.0 Safari/537.36","WebKit","Chrome","137.0.0.0","Windows","10.0","https://app.prolific.com/","en-GB,en-US;q=0.9,en;q=0.8","66797151cf3b1921be1c405a","686d226cabeef709c732f8e1","686e312650ea66747cf01bb5","66797151cf3b1921be1c405a","","","","","","","","","","","","","","","","","win-only","1","g1:NE,g2:SW","1","0","1","873755.8","6818.5","10833","17348","2","4","4","6","1","-2","-2","0","0","0","3698.8","4000","-2295","[""up"",""right""]","{""num_key_presses"":0,""num_perfect"":0,""num_errors"":0,""num_randdir"":0,""num_randdir_good_moves"":0,""num_whilered"":0,""num_whileblue"":0,""num_blue"":0,""num_good_moves"":0}","[274.7142857142857,273.6205357142857,0.7,274.7142857142857,274.6205357142857,101.2,274.7142857142857,274.6205357142857,205.7,274.7142857142857,274.6205357142857,307.8,274.7142857142857,274.6205357142857,413.7,274.7142857142857,274.6205357142857,522.7,274.7142857142857,274.6205357142857,629.5,274.7142857142857,274.6205357142857,729.9,280.7142857142857,282.6205357142857,835.1,289.7142857142857,294.6205357142857,939.5,293.7142857142857,300.6205357142857,1044.4,293.7142857142857,300.6205357142857,1145.3,293.7142857142857,300.6205357142857,1245.9,293.7142857142857,300.6205357142857,1347.8,304.7142857142857,293.6205357142857,1448.3,310.7142857142857,289.6205357142857,1549.5,318.7142857142857,284.6205357142857,1656,333.7142857142857,273.6205357142857,1766.5,340.7142857142857,269.6205357142857,1868.2,344.7142857142857,267.6205357142857,1968.9,348.7142857142857,264.6205357142857,2070.3,349.7142857142857,261.6205357142857,2171.3,349.7142857142857,261.6205357142857,2275.5,349.7142857142857,261.6205357142857,2378.2,349.7142857142857,261.6205357142857,2478.3,349.7142857142857,261.6205357142857,2578.8,349.7142857142857,261.6205357142857,2683.9,349.7142857142857,261.6205357142857,2784.4,393.7142857142857,183.62053571428572,2890.8,427.7142857142857,68.62053571428572,2997.4,448.7142857142857,60.620535714285715,3099.9,585.7142857142857,63.620535714285715,3206.3,585.7142857142857,63.620535714285715,3312.8,585.7142857142857,64.62053571428572,3413.5,544.7142857142857,55.620535714285715,3516,521.7142857142857,51.620535714285715,3621,521.7142857142857,51.620535714285715,3725.2,521.7142857142857,51.620535714285715,3828.7,521.7142857142857,51.620535714285715,3935.5]","[]","","",""
"119763","","","","instructions","21","1007848","0.0-8.0-2.0","175","1","2025-07-09 09:12:24","7701e855f2ef39aa3fd6c71abdc6918a","41.115.21.160","Mozilla/5.0 (Windows NT 10.0; Win64; x64) AppleWebKit/537.36 (KHTML, like Gecko) Chrome/137.0.0.0 Safari/537.36","WebKit","Chrome","137.0.0.0","Windows","10.0","https://app.prolific.com/","en-GB,en-US;q=0.9,en;q=0.8","66797151cf3b1921be1c405a","686d226cabeef709c732f8e1","686e312650ea66747cf01bb5","66797151cf3b1921be1c405a","","[{""page_index"":0,""viewing_time"":119762}]","","","","","","","","","","","","","","","","","","","","","","","","","","","","","","","","","","","","","","","","","","","",""
"","","","","ctl-task-cpt","22","1023060","0.0-8.0-3.0","175","1","2025-07-09 09:12:24","7701e855f2ef39aa3fd6c71abdc6918a","41.115.21.160","Mozilla/5.0 (Windows NT 10.0; Win64; x64) AppleWebKit/537.36 (KHTML, like Gecko) Chrome/137.0.0.0 Safari/537.36","WebKit","Chrome","137.0.0.0","Windows","10.0","https://app.prolific.com/","en-GB,en-US;q=0.9,en;q=0.8","66797151cf3b1921be1c405a","686d226cabeef709c732f8e1","686e312650ea66747cf01bb5","66797151cf3b1921be1c405a","","","","","","","","","","","","","","","","","win-only","1","g1:NE,g2:SW","0.35","0","3","1013878.6","1866.4","5868","12187.9","2","4","8","6","2","-8","-8","0","0","0","857.1","4000","-2240","[""down"",""left""]","{""num_key_presses"":0,""num_perfect"":0,""num_errors"":0,""num_randdir"":0,""num_randdir_good_moves"":0,""num_whilered"":0,""num_whileblue"":0,""num_blue"":0,""num_good_moves"":0}","[275.7142857142857,286.6205357142857,0.9,275.7142857142857,286.6205357142857,100.7,275.7142857142857,286.6205357142857,202.2,275.7142857142857,286.6205357142857,304.6,275.7142857142857,287.6205357142857,407,242.71428571428572,407.6205357142857,509.9,74.71428571428572,477.6205357142857,610.5,43.714285714285715,485.6205357142857,710.7,43.714285714285715,485.6205357142857,815.5,34.714285714285715,523.6205357142857,922.9,34.714285714285715,507.6205357142857,1026,37.714285714285715,489.6205357142857,1138.9,38.714285714285715,486.6205357142857,1240.3,41.714285714285715,484.6205357142857,1341,58.714285714285715,476.6205357142857,1442.8,98.71428571428572,457.6205357142857,1554.9,233.71428571428572,404.6205357142857,1657.5,321.7142857142857,384.6205357142857,1762.9,326.7142857142857,384.6205357142857,1866.6,364.7142857142857,369.6205357142857,1974.3,365.7142857142857,368.6205357142857,2075.3,365.7142857142857,368.6205357142857,2180.3,365.7142857142857,368.6205357142857,2288.9,365.7142857142857,368.6205357142857,2393,365.7142857142857,368.6205357142857,2494.7,365.7142857142857,368.6205357142857,2603.8,365.7142857142857,368.6205357142857,2705,365.7142857142857,368.6205357142857,2807.7,365.7142857142857,368.6205357142857,2909.1,365.7142857142857,368.6205357142857,3011,365.7142857142857,368.6205357142857,3112.1,365.7142857142857,368.6205357142857,3221.8,365.7142857142857,368.6205357142857,3324.7,365.7142857142857,368.6205357142857,3426.6,365.7142857142857,368.6205357142857,3538.9,365.7142857142857,368.6205357142857,3639.8,365.7142857142857,368.6205357142857,3747.3,365.7142857142857,368.6205357142857,3849.8,365.7142857142857,368.6205357142857,3950.7]","[]","","",""
"125810","","","","instructions","23","1148872","0.0-8.0-4.0","175","1","2025-07-09 09:12:24","7701e855f2ef39aa3fd6c71abdc6918a","41.115.21.160","Mozilla/5.0 (Windows NT 10.0; Win64; x64) AppleWebKit/537.36 (KHTML, like Gecko) Chrome/137.0.0.0 Safari/537.36","WebKit","Chrome","137.0.0.0","Windows","10.0","https://app.prolific.com/","en-GB,en-US;q=0.9,en;q=0.8","66797151cf3b1921be1c405a","686d226cabeef709c732f8e1","686e312650ea66747cf01bb5","66797151cf3b1921be1c405a","","[{""page_index"":0,""viewing_time"":16620},{""page_index"":1,""viewing_time"":109190}]","","","","","","","","","","","","","","","","","","","","","","","","","","","","","","","","","","","","","","","","","","","",""
"10936","","","{""green_ball"":[""Ball doesn‘t move and I get -1 penalty point""]}","survey-multi-select","24","1159826","0.0-8.0-5.0-0.0","175","1","2025-07-09 09:12:24","7701e855f2ef39aa3fd6c71abdc6918a","41.115.21.160","Mozilla/5.0 (Windows NT 10.0; Win64; x64) AppleWebKit/537.36 (KHTML, like Gecko) Chrome/137.0.0.0 Safari/537.36","WebKit","Chrome","137.0.0.0","Windows","10.0","https://app.prolific.com/","en-GB,en-US;q=0.9,en;q=0.8","66797151cf3b1921be1c405a","686d226cabeef709c732f8e1","686e312650ea66747cf01bb5","66797151cf3b1921be1c405a","","","[0]","","","","quiz","","","","","","","","","","","","","","","","","","","","","","","","","","","","","","","","","","","","","false","",""
"6516","","<p align='center'><b>INCORRECT.</b> Usually the green ball moves in the indicated direction, but sometimes it shakes and moves randomly. </p>","0","html-button-response","25","1166362","0.0-8.0-5.0-1.0","175","1","2025-07-09 09:12:24","7701e855f2ef39aa3fd6c71abdc6918a","41.115.21.160","Mozilla/5.0 (Windows NT 10.0; Win64; x64) AppleWebKit/537.36 (KHTML, like Gecko) Chrome/137.0.0.0 Safari/537.36","WebKit","Chrome","137.0.0.0","Windows","10.0","https://app.prolific.com/","en-GB,en-US;q=0.9,en;q=0.8","66797151cf3b1921be1c405a","686d226cabeef709c732f8e1","686e312650ea66747cf01bb5","66797151cf3b1921be1c405a","","","","","","","","","","","","","","","","","","","","","","","","","","","","","","","","","","","","","","","","","","","","","",""
"12973","","","{""green_ball"":[""Ball sometimes shakes and moves in a random direction""]}","survey-multi-select","26","1179345","0.0-8.0-5.1-0.1","175","1","2025-07-09 09:12:24","7701e855f2ef39aa3fd6c71abdc6918a","41.115.21.160","Mozilla/5.0 (Windows NT 10.0; Win64; x64) AppleWebKit/537.36 (KHTML, like Gecko) Chrome/137.0.0.0 Safari/537.36","WebKit","Chrome","137.0.0.0","Windows","10.0","https://app.prolific.com/","en-GB,en-US;q=0.9,en;q=0.8","66797151cf3b1921be1c405a","686d226cabeef709c732f8e1","686e312650ea66747cf01bb5","66797151cf3b1921be1c405a","","","[0]","","","","quiz","","","","","","","","","","","","","","","","","","","","","","","","","","","","","","","","","","","","","true","",""
"2843","","<p align='center'><b>CORRECT!</b> Indeed, the green ball may sometimes shake and move in a random direction.</p>","0","html-button-response","27","1182195","0.0-8.0-5.1-1.1","175","1","2025-07-09 09:12:24","7701e855f2ef39aa3fd6c71abdc6918a","41.115.21.160","Mozilla/5.0 (Windows NT 10.0; Win64; x64) AppleWebKit/537.36 (KHTML, like Gecko) Chrome/137.0.0.0 Safari/537.36","WebKit","Chrome","137.0.0.0","Windows","10.0","https://app.prolific.com/","en-GB,en-US;q=0.9,en;q=0.8","66797151cf3b1921be1c405a","686d226cabeef709c732f8e1","686e312650ea66747cf01bb5","66797151cf3b1921be1c405a","","","","","","","","","","","","","","","","","","","","","","","","","","","","","","","","","","","","","","","","","","","","","",""
"7852","","","{""yellow_ball"":[""Ball always moves in the direction I press""]}","survey-multi-select","28","1190054","0.0-8.0-6.0-0.0","175","1","2025-07-09 09:12:24","7701e855f2ef39aa3fd6c71abdc6918a","41.115.21.160","Mozilla/5.0 (Windows NT 10.0; Win64; x64) AppleWebKit/537.36 (KHTML, like Gecko) Chrome/137.0.0.0 Safari/537.36","WebKit","Chrome","137.0.0.0","Windows","10.0","https://app.prolific.com/","en-GB,en-US;q=0.9,en;q=0.8","66797151cf3b1921be1c405a","686d226cabeef709c732f8e1","686e312650ea66747cf01bb5","66797151cf3b1921be1c405a","","","[0]","","","","quiz","","","","","","","","","","","","","","","","","","","","","","","","","","","","","","","","","","","","","false","",""
"5262","","<p align='center'><b>INCORRECT.</b> The yellow ball never moves and you reveice a penalty if you press anyways. </p>","0","html-button-response","29","1195318","0.0-8.0-6.0-1.0","175","1","2025-07-09 09:12:24","7701e855f2ef39aa3fd6c71abdc6918a","41.115.21.160","Mozilla/5.0 (Windows NT 10.0; Win64; x64) AppleWebKit/537.36 (KHTML, like Gecko) Chrome/137.0.0.0 Safari/537.36","WebKit","Chrome","137.0.0.0","Windows","10.0","https://app.prolific.com/","en-GB,en-US;q=0.9,en;q=0.8","66797151cf3b1921be1c405a","686d226cabeef709c732f8e1","686e312650ea66747cf01bb5","66797151cf3b1921be1c405a","","","","","","","","","","","","","","","","","","","","","","","","","","","","","","","","","","","","","","","","","","","","","",""
"8399","","","{""yellow_ball"":[""Ball doesn‘t move and I get -1 penalty point""]}","survey-multi-select","30","1203722","0.0-8.0-6.1-0.1","175","1","2025-07-09 09:12:24","7701e855f2ef39aa3fd6c71abdc6918a","41.115.21.160","Mozilla/5.0 (Windows NT 10.0; Win64; x64) AppleWebKit/537.36 (KHTML, like Gecko) Chrome/137.0.0.0 Safari/537.36","WebKit","Chrome","137.0.0.0","Windows","10.0","https://app.prolific.com/","en-GB,en-US;q=0.9,en;q=0.8","66797151cf3b1921be1c405a","686d226cabeef709c732f8e1","686e312650ea66747cf01bb5","66797151cf3b1921be1c405a","","","[0]","","","","quiz","","","","","","","","","","","","","","","","","","","","","","","","","","","","","","","","","","","","","true","",""
"1693","","<p align='center'><b>CORRECT!</b> Indeed, the yellow ball never moves and you receive a penalty.</p>","0","html-button-response","31","1205418","0.0-8.0-6.1-1.1","175","1","2025-07-09 09:12:24","7701e855f2ef39aa3fd6c71abdc6918a","41.115.21.160","Mozilla/5.0 (Windows NT 10.0; Win64; x64) AppleWebKit/537.36 (KHTML, like Gecko) Chrome/137.0.0.0 Safari/537.36","WebKit","Chrome","137.0.0.0","Windows","10.0","https://app.prolific.com/","en-GB,en-US;q=0.9,en;q=0.8","66797151cf3b1921be1c405a","686d226cabeef709c732f8e1","686e312650ea66747cf01bb5","66797151cf3b1921be1c405a","","","","","","","","","","","","","","","","","","","","","","","","","","","","","","","","","","","","","","","","","","","","","",""
"8221","","","{""blue_ball"":[""Ball always shakes and moves in a random direction""]}","survey-multi-select","32","1213643","0.0-8.0-7.0-0.0","175","1","2025-07-09 09:12:24","7701e855f2ef39aa3fd6c71abdc6918a","41.115.21.160","Mozilla/5.0 (Windows NT 10.0; Win64; x64) AppleWebKit/537.36 (KHTML, like Gecko) Chrome/137.0.0.0 Safari/537.36","WebKit","Chrome","137.0.0.0","Windows","10.0","https://app.prolific.com/","en-GB,en-US;q=0.9,en;q=0.8","66797151cf3b1921be1c405a","686d226cabeef709c732f8e1","686e312650ea66747cf01bb5","66797151cf3b1921be1c405a","","","[0]","","","","quiz","","","","","","","","","","","","","","","","","","","","","","","","","","","","","","","","","","","","","true","",""
"1893","","<p align='center'><b>CORRECT!</b> Indeed, the blue ball always shakes and moves in a random direction. Also there is a penalty of -1 point.</p>","0","html-button-response","33","1215538","0.0-8.0-7.0-1.0","175","1","2025-07-09 09:12:24","7701e855f2ef39aa3fd6c71abdc6918a","41.115.21.160","Mozilla/5.0 (Windows NT 10.0; Win64; x64) AppleWebKit/537.36 (KHTML, like Gecko) Chrome/137.0.0.0 Safari/537.36","WebKit","Chrome","137.0.0.0","Windows","10.0","https://app.prolific.com/","en-GB,en-US;q=0.9,en;q=0.8","66797151cf3b1921be1c405a","686d226cabeef709c732f8e1","686e312650ea66747cf01bb5","66797151cf3b1921be1c405a","","","","","","","","","","","","","","","","","","","","","","","","","","","","","","","","","","","","","","","","","","","","","",""
"4616","","","{""bonus"":[""When I reach 50% of points""]}","survey-multi-select","34","1220157","0.0-8.0-8.0-0.0","175","1","2025-07-09 09:12:24","7701e855f2ef39aa3fd6c71abdc6918a","41.115.21.160","Mozilla/5.0 (Windows NT 10.0; Win64; x64) AppleWebKit/537.36 (KHTML, like Gecko) Chrome/137.0.0.0 Safari/537.36","WebKit","Chrome","137.0.0.0","Windows","10.0","https://app.prolific.com/","en-GB,en-US;q=0.9,en;q=0.8","66797151cf3b1921be1c405a","686d226cabeef709c732f8e1","686e312650ea66747cf01bb5","66797151cf3b1921be1c405a","","","[0]","","","","quiz","","","","","","","","","","","","","","","","","","","","","","","","","","","","","","","","","","","","","true","",""
"2807","","<p align='center'><b>CORRECT!</b> Indeed, you receive 2 pounds extra when you reach 50% of points.</p>","0","html-button-response","35","1222969","0.0-8.0-8.0-1.0","175","1","2025-07-09 09:12:24","7701e855f2ef39aa3fd6c71abdc6918a","41.115.21.160","Mozilla/5.0 (Windows NT 10.0; Win64; x64) AppleWebKit/537.36 (KHTML, like Gecko) Chrome/137.0.0.0 Safari/537.36","WebKit","Chrome","137.0.0.0","Windows","10.0","https://app.prolific.com/","en-GB,en-US;q=0.9,en;q=0.8","66797151cf3b1921be1c405a","686d226cabeef709c732f8e1","686e312650ea66747cf01bb5","66797151cf3b1921be1c405a","","","","","","","","","","","","","","","","","","","","","","","","","","","","","","","","","","","","","","","","","","","","","",""
"57432","","","","instructions","36","1280402","0.0-8.0-9.0","175","1","2025-07-09 09:12:24","7701e855f2ef39aa3fd6c71abdc6918a","41.115.21.160","Mozilla/5.0 (Windows NT 10.0; Win64; x64) AppleWebKit/537.36 (KHTML, like Gecko) Chrome/137.0.0.0 Safari/537.36","WebKit","Chrome","137.0.0.0","Windows","10.0","https://app.prolific.com/","en-GB,en-US;q=0.9,en;q=0.8","66797151cf3b1921be1c405a","686d226cabeef709c732f8e1","686e312650ea66747cf01bb5","66797151cf3b1921be1c405a","","[{""page_index"":0,""viewing_time"":57431}]","","","","","","","","","","","","","","","","","","","","","","","","","","","","","","","","","","","","","","","","","","","",""
"11639","","<p>Before you start with this game please answer the following three questions yourself. </p>
  <p>Through this game, we measure several aspects of your cognitive performance, such as reaction times, multi-tasking capabilities </p>
  <p>and the ability to assess the situation you are in.</p>
  <p></p>
  <p><b>How good do you usually are in such tasks?</b></p>","88","html-slider-response","37","1292053","0.0-9.0-0.0","175","1","2025-07-09 09:12:24","7701e855f2ef39aa3fd6c71abdc6918a","41.115.21.160","Mozilla/5.0 (Windows NT 10.0; Win64; x64) AppleWebKit/537.36 (KHTML, like Gecko) Chrome/137.0.0.0 Safari/537.36","WebKit","Chrome","137.0.0.0","Windows","10.0","https://app.prolific.com/","en-GB,en-US;q=0.9,en;q=0.8","66797151cf3b1921be1c405a","686d226cabeef709c732f8e1","686e312650ea66747cf01bb5","66797151cf3b1921be1c405a","2025-07-09T09:34:04.305Z","","","","","","PreSkillQ","","","","","","","","","","","","","","","","","","","","","","","","","","","","","","","","","","","","","","50",""
"8358","","<div style=""width:500px;"">
  <p>How well do you think you will perform in this task compared to other participants?</p>
  </div>","50","html-slider-response","38","1300413","0.0-9.0-1.0","175","1","2025-07-09 09:12:24","7701e855f2ef39aa3fd6c71abdc6918a","41.115.21.160","Mozilla/5.0 (Windows NT 10.0; Win64; x64) AppleWebKit/537.36 (KHTML, like Gecko) Chrome/137.0.0.0 Safari/537.36","WebKit","Chrome","137.0.0.0","Windows","10.0","https://app.prolific.com/","en-GB,en-US;q=0.9,en;q=0.8","66797151cf3b1921be1c405a","686d226cabeef709c732f8e1","686e312650ea66747cf01bb5","66797151cf3b1921be1c405a","2025-07-09T09:34:12.665Z","","","","","","PrePerfQ","","","","","","","","","","","","","","","","","","","","","","","","","","","","","","","","","","","","","","50",""
"7326","","<div style=""width:500px;"">
  <p>What best describes how you currently feel?</p>
  </div>","78","html-slider-response","39","1307742","0.0-9.0-2.0","175","1","2025-07-09 09:12:24","7701e855f2ef39aa3fd6c71abdc6918a","41.115.21.160","Mozilla/5.0 (Windows NT 10.0; Win64; x64) AppleWebKit/537.36 (KHTML, like Gecko) Chrome/137.0.0.0 Safari/537.36","WebKit","Chrome","137.0.0.0","Windows","10.0","https://app.prolific.com/","en-GB,en-US;q=0.9,en;q=0.8","66797151cf3b1921be1c405a","686d226cabeef709c732f8e1","686e312650ea66747cf01bb5","66797151cf3b1921be1c405a","2025-07-09T09:34:19.994Z","","","","","","PreMotivationQ","","","","","","","","","","","","","","","","","","","","","","","","","","","","","","","","","","","","","","50",""
"","","","","ctl-task-cpt","40","1343714","0.0-10.0-0.0","175","1","2025-07-09 09:12:24","7701e855f2ef39aa3fd6c71abdc6918a","41.115.21.160","Mozilla/5.0 (Windows NT 10.0; Win64; x64) AppleWebKit/537.36 (KHTML, like Gecko) Chrome/137.0.0.0 Safari/537.36","WebKit","Chrome","137.0.0.0","Windows","10.0","https://app.prolific.com/","en-GB,en-US;q=0.9,en;q=0.8","66797151cf3b1921be1c405a","686d226cabeef709c732f8e1","686e312650ea66747cf01bb5","66797151cf3b1921be1c405a","2025-07-09T09:34:55.966Z","","","","","","","","","","","","","","","","win-only","3","g1:SW,g2:NE","1","1","0","1313772","2517.6","7520.2","32946.7","1","4","8","6","2","-8","-11","0","0","0","5002.6","3000","-2255","[""up"",""right""]","{""num_key_presses"":8,""num_perfect"":5,""num_errors"":3,""num_randdir"":0,""num_randdir_good_moves"":0,""num_whilered"":0,""num_whileblue"":1,""num_blue"":1,""num_good_moves"":5}","[269.7142857142857,273.6205357142857,0.9,269.7142857142857,273.6205357142857,100.5,269.7142857142857,273.6205357142857,212.6,260.7142857142857,335.6205357142857,323.6,249.71428571428572,496.6205357142857,432,242.71428571428572,592.6205357142857,535.4,220.71428571428572,621.6205357142857,643.8,220.71428571428572,621.6205357142857,744.1,220.71428571428572,621.6205357142857,845.3,220.71428571428572,621.6205357142857,954.6,220.71428571428572,621.6205357142857,1055.7,220.71428571428572,621.6205357142857,1162.7,220.71428571428572,621.6205357142857,1264.5,220.71428571428572,621.6205357142857,1367.2,220.71428571428572,621.6205357142857,1470.1,220.71428571428572,621.6205357142857,1581.8,220.71428571428572,621.6205357142857,1682,220.71428571428572,621.6205357142857,1783.9,220.71428571428572,621.6205357142857,1885,220.71428571428572,621.6205357142857,1989.3,220.71428571428572,621.6205357142857,2096,220.71428571428572,621.6205357142857,2198.8,220.71428571428572,621.6205357142857,2306.6,220.71428571428572,621.6205357142857,2411.2,220.71428571428572,621.6205357142857,2520.3,220.71428571428572,621.6205357142857,2623.2,220.71428571428572,621.6205357142857,2727.6,220.71428571428572,621.6205357142857,2827.8,220.71428571428572,621.6205357142857,2929.2,220.71428571428572,621.6205357142857,3038.2,220.71428571428572,621.6205357142857,3145,220.71428571428572,621.6205357142857,3249.9,220.71428571428572,621.6205357142857,3361.6,220.71428571428572,621.6205357142857,3468.1,220.71428571428572,621.6205357142857,3568.5,220.71428571428572,621.6205357142857,3677.9,220.71428571428572,621.6205357142857,3785.7,220.71428571428572,621.6205357142857,3894.3,220.71428571428572,621.6205357142857,3994.8,220.71428571428572,621.6205357142857,4100.3,220.71428571428572,621.6205357142857,4200.8,220.71428571428572,621.6205357142857,4305.7,220.71428571428572,621.6205357142857,4411.1,220.71428571428572,621.6205357142857,4512,220.71428571428572,621.6205357142857,4613.3,220.71428571428572,621.6205357142857,4719.2,220.71428571428572,621.6205357142857,4826,220.71428571428572,621.6205357142857,4927.9]","[632.3,632.3,1000,0,-367.7,""error"",""-"",""-"",""no_move"",3562.1,2929,1740.8,1636.9,184.4,""smooth"",""right"",""right"",""good_move"",4164.2,601,2497.1,3563.2,-1896.1,""error"",""-"",""-"",""no_move"",8482.7,4317.2,2488.5,5165.6,828.6,""smooth"",""up"",""up"",""good_move"",12090.7,3606.8,2985.8,8484,620.9,""smooth"",""up"",""up"",""good_move"",14901.2,2809.5,2436.1,12091.7,373.4,""smooth"",""right"",""right"",""good_move"",17981.8,3079.7,2685.5,14902.1,394.2,""smooth"",""right"",""right"",""good_move"",20675,2692.3,2390.9,17982.8,301.3,""while_blue"",""up"",""left"",""bad_move""]","","",""
"18548","","<div style=""width:500px;"">
  <p>What determined the result of this run?</p>
  </div>","93","html-slider-response","41","1362265","0.0-10.0-1.0","175","1","2025-07-09 09:12:24","7701e855f2ef39aa3fd6c71abdc6918a","41.115.21.160","Mozilla/5.0 (Windows NT 10.0; Win64; x64) AppleWebKit/537.36 (KHTML, like Gecko) Chrome/137.0.0.0 Safari/537.36","WebKit","Chrome","137.0.0.0","Windows","10.0","https://app.prolific.com/","en-GB,en-US;q=0.9,en;q=0.8","66797151cf3b1921be1c405a","686d226cabeef709c732f8e1","686e312650ea66747cf01bb5","66797151cf3b1921be1c405a","2025-07-09T09:35:14.517Z","","","","","","AttribQ","","","","","","","","","","","","","","","","","","","","","","","","","","","","","","","","","","","","","","50",""
"7108","","<div style=""width:500px;"">
  <p>How much control did you have over the ball?</p>
  </div>","59","html-slider-response","42","1369375","0.0-10.0-2.0","175","1","2025-07-09 09:12:24","7701e855f2ef39aa3fd6c71abdc6918a","41.115.21.160","Mozilla/5.0 (Windows NT 10.0; Win64; x64) AppleWebKit/537.36 (KHTML, like Gecko) Chrome/137.0.0.0 Safari/537.36","WebKit","Chrome","137.0.0.0","Windows","10.0","https://app.prolific.com/","en-GB,en-US;q=0.9,en;q=0.8","66797151cf3b1921be1c405a","686d226cabeef709c732f8e1","686e312650ea66747cf01bb5","66797151cf3b1921be1c405a","2025-07-09T09:35:21.627Z","","","","","","ControlQ","","","","","","","","","","","","","","","","","","","","","","","","","","","","","","","","","","","","","","50",""
"5111","","<div style=""width:500px;"">
  <p>How would you describe your current emotional state?</p>
  </div>","1","html-slider-response","43","1374492","0.0-10.0-3.0","175","1","2025-07-09 09:12:24","7701e855f2ef39aa3fd6c71abdc6918a","41.115.21.160","Mozilla/5.0 (Windows NT 10.0; Win64; x64) AppleWebKit/537.36 (KHTML, like Gecko) Chrome/137.0.0.0 Safari/537.36","WebKit","Chrome","137.0.0.0","Windows","10.0","https://app.prolific.com/","en-GB,en-US;q=0.9,en;q=0.8","66797151cf3b1921be1c405a","686d226cabeef709c732f8e1","686e312650ea66747cf01bb5","66797151cf3b1921be1c405a","2025-07-09T09:35:26.745Z","","","","","","StressQ","","","","","","","","","","","","","","","","","","","","","","","","","","","","","","","","","","","","","","50",""
"13007","","<div style=""width:500px;"">
  <p>What best describes how you currently feel?</p>
  </div>","85","html-slider-response","44","1387502","0.0-10.0-4.0","175","1","2025-07-09 09:12:24","7701e855f2ef39aa3fd6c71abdc6918a","41.115.21.160","Mozilla/5.0 (Windows NT 10.0; Win64; x64) AppleWebKit/537.36 (KHTML, like Gecko) Chrome/137.0.0.0 Safari/537.36","WebKit","Chrome","137.0.0.0","Windows","10.0","https://app.prolific.com/","en-GB,en-US;q=0.9,en;q=0.8","66797151cf3b1921be1c405a","686d226cabeef709c732f8e1","686e312650ea66747cf01bb5","66797151cf3b1921be1c405a","2025-07-09T09:35:39.755Z","","","","","","MotivationQ","","","","","","","","","","","","","","","","","","","","","","","","","","","","","","","","","","","","","","50",""
"","","","","ctl-task-cpt","45","1449429","0.0-10.0-0.1","175","1","2025-07-09 09:12:24","7701e855f2ef39aa3fd6c71abdc6918a","41.115.21.160","Mozilla/5.0 (Windows NT 10.0; Win64; x64) AppleWebKit/537.36 (KHTML, like Gecko) Chrome/137.0.0.0 Safari/537.36","WebKit","Chrome","137.0.0.0","Windows","10.0","https://app.prolific.com/","en-GB,en-US;q=0.9,en;q=0.8","66797151cf3b1921be1c405a","686d226cabeef709c732f8e1","686e312650ea66747cf01bb5","66797151cf3b1921be1c405a","2025-07-09T09:36:41.681Z","","","","","","","","","","","","","","","","win-only","1","g1:NE,g2:SW","0.9","2","0","1393528.3","13737.4","18739.1","58903.6","1","4","4","6","2","-4","-6","0","0","0","5001.7","3000","-2435","[""down"",""left""]","{""num_key_presses"":9,""num_perfect"":6,""num_errors"":2,""num_randdir"":1,""num_randdir_good_moves"":0,""num_whilered"":0,""num_whileblue"":1,""num_blue"":4,""num_good_moves"":6}","[274.7142857142857,274.6205357142857,0.9,274.7142857142857,274.6205357142857,103.1,275.7142857142857,274.6205357142857,204.4,268.7142857142857,274.6205357142857,310,265.7142857142857,269.6205357142857,418.6,278.7142857142857,114.62053571428572,524.6,283.7142857142857,-57.379464285714285,626.9,283.7142857142857,-57.379464285714285,740.2,283.7142857142857,-57.379464285714285,841.5,283.7142857142857,-57.379464285714285,951.5,283.7142857142857,-57.379464285714285,1054.7,283.7142857142857,-57.379464285714285,1158.4,283.7142857142857,-57.379464285714285,1262.4,-288.2857142857143,-60.379464285714285,1368,-343.2857142857143,40.620535714285715,1471.8,-351.2857142857143,54.620535714285715,1584.6,-351.2857142857143,54.620535714285715,1685.2,-351.2857142857143,54.620535714285715,1789.6,-351.2857142857143,54.620535714285715,1901,-351.2857142857143,54.620535714285715,2016.9,-351.2857142857143,54.620535714285715,2119.4,-351.2857142857143,54.620535714285715,2224.4,-351.2857142857143,54.620535714285715,2324.6,-351.2857142857143,54.620535714285715,2432.3,-351.2857142857143,54.620535714285715,2536.1,-351.2857142857143,54.620535714285715,2646.5,-351.2857142857143,54.620535714285715,2750.6,-351.2857142857143,54.620535714285715,2853.7,-351.2857142857143,54.620535714285715,2954.6,-351.2857142857143,54.620535714285715,3057.1,-351.2857142857143,54.620535714285715,3164.4,-351.2857142857143,54.620535714285715,3269.9,-351.2857142857143,54.620535714285715,3375.5,-351.2857142857143,54.620535714285715,3475.8,-351.2857142857143,54.620535714285715,3580,-351.2857142857143,54.620535714285715,3681.6,-351.2857142857143,54.620535714285715,3785.1,-351.2857142857143,54.620535714285715,3896.6,-351.2857142857143,54.620535714285715,4000.6,-351.2857142857143,54.620535714285715,4104,-351.2857142857143,54.620535714285715,4207.4,-351.2857142857143,54.620535714285715,4308.4,-351.2857142857143,54.620535714285715,4414.3,-351.2857142857143,54.620535714285715,4519,-351.2857142857143,54.620535714285715,4620.8,-351.2857142857143,54.620535714285715,4729,-351.2857142857143,54.620535714285715,4835.7,-351.2857142857143,54.620535714285715,4939]","[2016,2016,1000,0,1016,""smooth"",""down"",""down"",""good_move"",8697.2,6680.1,2560.7,6199.6,-63.1,""error"",""-"",""-"",""no_move"",12372.1,3674,2209.7,9700.6,461.8,""smooth"",""down"",""down"",""good_move"",16152.5,3779.8,3019.3,12372.7,760.5,""smooth"",""left"",""left"",""good_move"",23139.5,6985.3,2818,19978.4,343.1,""smooth"",""left"",""left"",""good_move"",26490,3349.9,2913.2,23140.1,436.7,""smooth"",""down"",""down"",""good_move"",29684.7,3189.5,2834,26495.2,355.5,""while_blue"",""left"",""up"",""bad_move"",34852.2,5166.3,2122.9,32298.8,430.6,""smooth"",""down"",""down"",""good_move"",37687.6,2834.1,2259.5,34853.5,574.6,""oops"",""left"",""right"",""bad_move""]","","",""
"19770","","<div style=""width:500px;"">
  <p>What determined the result of this run?</p>
  </div>","9","html-slider-response","46","1469204","0.0-10.0-1.1","175","1","2025-07-09 09:12:24","7701e855f2ef39aa3fd6c71abdc6918a","41.115.21.160","Mozilla/5.0 (Windows NT 10.0; Win64; x64) AppleWebKit/537.36 (KHTML, like Gecko) Chrome/137.0.0.0 Safari/537.36","WebKit","Chrome","137.0.0.0","Windows","10.0","https://app.prolific.com/","en-GB,en-US;q=0.9,en;q=0.8","66797151cf3b1921be1c405a","686d226cabeef709c732f8e1","686e312650ea66747cf01bb5","66797151cf3b1921be1c405a","2025-07-09T09:37:01.457Z","","","","","","AttribQ","","","","","","","","","","","","","","","","","","","","","","","","","","","","","","","","","","","","","","50",""
"4339","","<div style=""width:500px;"">
  <p>How much control did you have over the ball?</p>
  </div>","96","html-slider-response","47","1473546","0.0-10.0-2.1","175","1","2025-07-09 09:12:24","7701e855f2ef39aa3fd6c71abdc6918a","41.115.21.160","Mozilla/5.0 (Windows NT 10.0; Win64; x64) AppleWebKit/537.36 (KHTML, like Gecko) Chrome/137.0.0.0 Safari/537.36","WebKit","Chrome","137.0.0.0","Windows","10.0","https://app.prolific.com/","en-GB,en-US;q=0.9,en;q=0.8","66797151cf3b1921be1c405a","686d226cabeef709c732f8e1","686e312650ea66747cf01bb5","66797151cf3b1921be1c405a","2025-07-09T09:37:05.798Z","","","","","","ControlQ","","","","","","","","","","","","","","","","","","","","","","","","","","","","","","","","","","","","","","50",""
"8416","","<div style=""width:500px;"">
  <p>How would you describe your current emotional state?</p>
  </div>","16","html-slider-response","48","1481964","0.0-10.0-3.1","175","1","2025-07-09 09:12:24","7701e855f2ef39aa3fd6c71abdc6918a","41.115.21.160","Mozilla/5.0 (Windows NT 10.0; Win64; x64) AppleWebKit/537.36 (KHTML, like Gecko) Chrome/137.0.0.0 Safari/537.36","WebKit","Chrome","137.0.0.0","Windows","10.0","https://app.prolific.com/","en-GB,en-US;q=0.9,en;q=0.8","66797151cf3b1921be1c405a","686d226cabeef709c732f8e1","686e312650ea66747cf01bb5","66797151cf3b1921be1c405a","2025-07-09T09:37:14.216Z","","","","","","StressQ","","","","","","","","","","","","","","","","","","","","","","","","","","","","","","","","","","","","","","50",""
"6541","","<div style=""width:500px;"">
  <p>What best describes how you currently feel?</p>
  </div>","80","html-slider-response","49","1488507","0.0-10.0-4.1","175","1","2025-07-09 09:12:24","7701e855f2ef39aa3fd6c71abdc6918a","41.115.21.160","Mozilla/5.0 (Windows NT 10.0; Win64; x64) AppleWebKit/537.36 (KHTML, like Gecko) Chrome/137.0.0.0 Safari/537.36","WebKit","Chrome","137.0.0.0","Windows","10.0","https://app.prolific.com/","en-GB,en-US;q=0.9,en;q=0.8","66797151cf3b1921be1c405a","686d226cabeef709c732f8e1","686e312650ea66747cf01bb5","66797151cf3b1921be1c405a","2025-07-09T09:37:20.759Z","","","","","","MotivationQ","","","","","","","","","","","","","","","","","","","","","","","","","","","","","","","","","","","","","","50",""
"","","","","ctl-task-cpt","50","1514637","0.0-10.0-0.2","175","1","2025-07-09 09:12:24","7701e855f2ef39aa3fd6c71abdc6918a","41.115.21.160","Mozilla/5.0 (Windows NT 10.0; Win64; x64) AppleWebKit/537.36 (KHTML, like Gecko) Chrome/137.0.0.0 Safari/537.36","WebKit","Chrome","137.0.0.0","Windows","10.0","https://app.prolific.com/","en-GB,en-US;q=0.9,en;q=0.8","66797151cf3b1921be1c405a","686d226cabeef709c732f8e1","686e312650ea66747cf01bb5","66797151cf3b1921be1c405a","2025-07-09T09:37:46.889Z","","","","","","","","","","","","","","","","win-only","3","g1:SW,g2:NE","0.8","3","0","1494531.8","2429.1","7430.5","23103.3","1","4","8","6","2","-8","-9","0","0","0","5001.4","3000","-2140","[""up"",""right""]","{""num_key_presses"":5,""num_perfect"":4,""num_errors"":1,""num_randdir"":0,""num_randdir_good_moves"":0,""num_whilered"":0,""num_whileblue"":0,""num_blue"":0,""num_good_moves"":4}","[272.7142857142857,276.6205357142857,0.6,272.7142857142857,276.6205357142857,103,272.7142857142857,276.6205357142857,213.4,272.7142857142857,276.6205357142857,324.1,274.7142857142857,282.6205357142857,437.5,276.7142857142857,299.6205357142857,543.7,278.7142857142857,310.6205357142857,648.4,315.7142857142857,326.6205357142857,756.3,335.7142857142857,331.6205357142857,856.5,339.7142857142857,332.6205357142857,956.5,343.7142857142857,332.6205357142857,1056.5,343.7142857142857,332.6205357142857,1157,343.7142857142857,332.6205357142857,1258.3,343.7142857142857,332.6205357142857,1364.9,343.7142857142857,332.6205357142857,1469,343.7142857142857,332.6205357142857,1576.4,344.7142857142857,332.6205357142857,1681.1,344.7142857142857,332.6205357142857,1787.6,344.7142857142857,332.6205357142857,1892.6,344.7142857142857,332.6205357142857,1997.3,344.7142857142857,332.6205357142857,2102.3,344.7142857142857,332.6205357142857,2207.5,344.7142857142857,332.6205357142857,2315.7,344.7142857142857,332.6205357142857,2423.9,344.7142857142857,332.6205357142857,2532.7,344.7142857142857,332.6205357142857,2633.5,344.7142857142857,332.6205357142857,2735.8,344.7142857142857,332.6205357142857,2836.9,344.7142857142857,332.6205357142857,2937.4,344.7142857142857,332.6205357142857,3039.7,344.7142857142857,332.6205357142857,3147.4,344.7142857142857,332.6205357142857,3250.7,344.7142857142857,332.6205357142857,3352.4,344.7142857142857,332.6205357142857,3462.3,344.7142857142857,332.6205357142857,3564.5,344.7142857142857,332.6205357142857,3666,344.7142857142857,332.6205357142857,3768.3,344.7142857142857,332.6205357142857,3872,344.7142857142857,332.6205357142857,3973.1,344.7142857142857,332.6205357142857,4080.7,344.7142857142857,332.6205357142857,4187.7,344.7142857142857,332.6205357142857,4288.3,344.7142857142857,332.6205357142857,4393.5,344.7142857142857,332.6205357142857,4498.9,344.7142857142857,332.6205357142857,4600.3,344.7142857142857,332.6205357142857,4704.1,344.7142857142857,332.6205357142857,4806.7,344.7142857142857,332.6205357142857,4907.5]","[3652,3652,1000,0,2652,""smooth"",""up"",""up"",""good_move"",3981.7,327.5,2806,3654.3,-2478.6,""error"",""-"",""-"",""no_move"",8108,4125.2,2449.1,4983.2,675.7,""smooth"",""up"",""up"",""good_move"",11500,3386.3,2780.5,8113.7,605.8,""smooth"",""right"",""right"",""good_move"",14037.1,2535.6,1983.9,11501.5,551.7,""smooth"",""right"",""right"",""good_move""]","","",""
"3219","","<div style=""width:500px;"">
  <p>What determined the result of this run?</p>
  </div>","85","html-slider-response","51","1517858","0.0-10.0-1.2","175","1","2025-07-09 09:12:24","7701e855f2ef39aa3fd6c71abdc6918a","41.115.21.160","Mozilla/5.0 (Windows NT 10.0; Win64; x64) AppleWebKit/537.36 (KHTML, like Gecko) Chrome/137.0.0.0 Safari/537.36","WebKit","Chrome","137.0.0.0","Windows","10.0","https://app.prolific.com/","en-GB,en-US;q=0.9,en;q=0.8","66797151cf3b1921be1c405a","686d226cabeef709c732f8e1","686e312650ea66747cf01bb5","66797151cf3b1921be1c405a","2025-07-09T09:37:50.110Z","","","","","","AttribQ","","","","","","","","","","","","","","","","","","","","","","","","","","","","","","","","","","","","","","50",""
"4200","","<div style=""width:500px;"">
  <p>How much control did you have over the ball?</p>
  </div>","20","html-slider-response","52","1522060","0.0-10.0-2.2","175","1","2025-07-09 09:12:24","7701e855f2ef39aa3fd6c71abdc6918a","41.115.21.160","Mozilla/5.0 (Windows NT 10.0; Win64; x64) AppleWebKit/537.36 (KHTML, like Gecko) Chrome/137.0.0.0 Safari/537.36","WebKit","Chrome","137.0.0.0","Windows","10.0","https://app.prolific.com/","en-GB,en-US;q=0.9,en;q=0.8","66797151cf3b1921be1c405a","686d226cabeef709c732f8e1","686e312650ea66747cf01bb5","66797151cf3b1921be1c405a","2025-07-09T09:37:54.312Z","","","","","","ControlQ","","","","","","","","","","","","","","","","","","","","","","","","","","","","","","","","","","","","","","50",""
"18814","","<div style=""width:500px;"">
  <p>How would you describe your current emotional state?</p>
  </div>","46","html-slider-response","53","1540876","0.0-10.0-3.2","175","1","2025-07-09 09:12:24","7701e855f2ef39aa3fd6c71abdc6918a","41.115.21.160","Mozilla/5.0 (Windows NT 10.0; Win64; x64) AppleWebKit/537.36 (KHTML, like Gecko) Chrome/137.0.0.0 Safari/537.36","WebKit","Chrome","137.0.0.0","Windows","10.0","https://app.prolific.com/","en-GB,en-US;q=0.9,en;q=0.8","66797151cf3b1921be1c405a","686d226cabeef709c732f8e1","686e312650ea66747cf01bb5","66797151cf3b1921be1c405a","2025-07-09T09:38:13.128Z","","","","","","StressQ","","","","","","","","","","","","","","","","","","","","","","","","","","","","","","","","","","","","","","50",""
"9981","","<div style=""width:500px;"">
  <p>What best describes how you currently feel?</p>
  </div>","83","html-slider-response","54","1550860","0.0-10.0-4.2","175","1","2025-07-09 09:12:24","7701e855f2ef39aa3fd6c71abdc6918a","41.115.21.160","Mozilla/5.0 (Windows NT 10.0; Win64; x64) AppleWebKit/537.36 (KHTML, like Gecko) Chrome/137.0.0.0 Safari/537.36","WebKit","Chrome","137.0.0.0","Windows","10.0","https://app.prolific.com/","en-GB,en-US;q=0.9,en;q=0.8","66797151cf3b1921be1c405a","686d226cabeef709c732f8e1","686e312650ea66747cf01bb5","66797151cf3b1921be1c405a","2025-07-09T09:38:23.112Z","","","","","","MotivationQ","","","","","","","","","","","","","","","","","","","","","","","","","","","","","","","","","","","","","","50",""
"","","","","ctl-task-cpt","55","1596173","0.0-10.0-0.3","175","1","2025-07-09 09:12:24","7701e855f2ef39aa3fd6c71abdc6918a","41.115.21.160","Mozilla/5.0 (Windows NT 10.0; Win64; x64) AppleWebKit/537.36 (KHTML, like Gecko) Chrome/137.0.0.0 Safari/537.36","WebKit","Chrome","137.0.0.0","Windows","10.0","https://app.prolific.com/","en-GB,en-US;q=0.9,en;q=0.8","66797151cf3b1921be1c405a","686d226cabeef709c732f8e1","686e312650ea66747cf01bb5","66797151cf3b1921be1c405a","2025-07-09T09:39:08.425Z","","","","","","","","","","","","","","","","win-only","0","g1:NW,g2:SE","0.7","4","0","1556884.9","3365.4","8378.5","42286.4","1","4","4","6","2","-4","-6","0","0","0","1405.9","3000","-2045","[""down"",""right""]","{""num_key_presses"":9,""num_perfect"":5,""num_errors"":2,""num_randdir"":2,""num_randdir_good_moves"":0,""num_whilered"":0,""num_whileblue"":1,""num_blue"":2,""num_good_moves"":3}","[275.7142857142857,275.6205357142857,0.8,275.7142857142857,275.6205357142857,104.2,275.7142857142857,275.6205357142857,204.7,275.7142857142857,275.6205357142857,305.7,275.7142857142857,275.6205357142857,409.9,275.7142857142857,275.6205357142857,511,275.7142857142857,275.6205357142857,611.6,283.7142857142857,326.6205357142857,712.3,382.7142857142857,443.6205357142857,814.3,405.7142857142857,471.6205357142857,915.8,445.7142857142857,505.6205357142857,1015.9,485.7142857142857,521.6205357142857,1124.2,491.7142857142857,518.6205357142857,1229.2,492.7142857142857,517.6205357142857,1331.5,492.7142857142857,517.6205357142857,1431.6,492.7142857142857,517.6205357142857,1543.1,492.7142857142857,517.6205357142857,1646.2,492.7142857142857,517.6205357142857,1749.2,492.7142857142857,517.6205357142857,1851.8,492.7142857142857,518.6205357142857,1962.3,481.7142857142857,521.6205357142857,2063.2,450.7142857142857,516.6205357142857,2163.2,414.7142857142857,504.6205357142857,2268.1,373.7142857142857,495.6205357142857,2379.7,355.7142857142857,491.6205357142857,2480.4,341.7142857142857,487.6205357142857,2590.4,341.7142857142857,487.6205357142857,2693.3,341.7142857142857,487.6205357142857,2798.4,341.7142857142857,487.6205357142857,2899.3,341.7142857142857,487.6205357142857,3006.6,341.7142857142857,487.6205357142857,3113.9,341.7142857142857,487.6205357142857,3215.1,341.7142857142857,487.6205357142857,3323.4,348.7142857142857,473.6205357142857,3430.2,347.7142857142857,461.6205357142857,3538.1,340.7142857142857,450.6205357142857,3640.9,336.7142857142857,445.6205357142857,3742.1,336.7142857142857,445.6205357142857,3849.3,336.7142857142857,445.6205357142857,3956.6,342.7142857142857,444.6205357142857,4058.5,488.7142857142857,427.6205357142857,4161.7,572.7142857142857,354.6205357142857,4263.2,590.7142857142857,228.62053571428572,4365.8,604.7142857142857,200.62053571428572,4473.4,691.7142857142857,200.62053571428572,4576.9,772.7142857142857,211.62053571428572,4678.9,772.7142857142857,211.62053571428572,4790.1,773.7142857142857,220.62053571428572,4926.3]","[2186.7,2186.7,1000,0,1186.7,""smooth"",""right"",""right"",""good_move"",5003.2,2815.3,2295.5,2187.9,519.8,""smooth"",""right"",""right"",""good_move"",8404.3,3399.4,3001.7,5004.9,397.7,""oops"",""down"",""left"",""bad_move"",9403.2,994.3,2886.4,8408.9,-1892.1,""error"",""-"",""-"",""no_move"",12902.8,3498.8,2054.8,10410.4,437.6,""smooth"",""right"",""right"",""good_move"",15749.9,2842.8,2374,12907.2,468.7,""oops"",""right"",""up"",""bad_move"",19577,3826.2,3391,15750.8,435.2,""smooth"",""left"",""left"",""bad_move"",23451.8,3873.9,2889.3,19577.9,984.6,""while_blue"",""left"",""left"",""bad_move"",26927.6,3475.2,2816,23452.4,659.2,""smooth"",""left"",""left"",""bad_move""]","","",""
"39990","","<div style=""width:500px;"">
  <p>What determined the result of this run?</p>
  </div>","99","html-slider-response","56","1636167","0.0-10.0-1.3","175","1","2025-07-09 09:12:24","7701e855f2ef39aa3fd6c71abdc6918a","41.115.21.160","Mozilla/5.0 (Windows NT 10.0; Win64; x64) AppleWebKit/537.36 (KHTML, like Gecko) Chrome/137.0.0.0 Safari/537.36","WebKit","Chrome","137.0.0.0","Windows","10.0","https://app.prolific.com/","en-GB,en-US;q=0.9,en;q=0.8","66797151cf3b1921be1c405a","686d226cabeef709c732f8e1","686e312650ea66747cf01bb5","66797151cf3b1921be1c405a","2025-07-09T09:39:48.419Z","","","","","","AttribQ","","","","","","","","","","","","","","","","","","","","","","","","","","","","","","","","","","","","","","50",""
"15647","","<div style=""width:500px;"">
  <p>How much control did you have over the ball?</p>
  </div>","17","html-slider-response","57","1651820","0.0-10.0-2.3","175","1","2025-07-09 09:12:24","7701e855f2ef39aa3fd6c71abdc6918a","41.115.21.160","Mozilla/5.0 (Windows NT 10.0; Win64; x64) AppleWebKit/537.36 (KHTML, like Gecko) Chrome/137.0.0.0 Safari/537.36","WebKit","Chrome","137.0.0.0","Windows","10.0","https://app.prolific.com/","en-GB,en-US;q=0.9,en;q=0.8","66797151cf3b1921be1c405a","686d226cabeef709c732f8e1","686e312650ea66747cf01bb5","66797151cf3b1921be1c405a","2025-07-09T09:40:04.073Z","","","","","","ControlQ","","","","","","","","","","","","","","","","","","","","","","","","","","","","","","","","","","","","","","50",""
"4501","","<div style=""width:500px;"">
  <p>How would you describe your current emotional state?</p>
  </div>","79","html-slider-response","58","1656324","0.0-10.0-3.3","175","1","2025-07-09 09:12:24","7701e855f2ef39aa3fd6c71abdc6918a","41.115.21.160","Mozilla/5.0 (Windows NT 10.0; Win64; x64) AppleWebKit/537.36 (KHTML, like Gecko) Chrome/137.0.0.0 Safari/537.36","WebKit","Chrome","137.0.0.0","Windows","10.0","https://app.prolific.com/","en-GB,en-US;q=0.9,en;q=0.8","66797151cf3b1921be1c405a","686d226cabeef709c732f8e1","686e312650ea66747cf01bb5","66797151cf3b1921be1c405a","2025-07-09T09:40:08.576Z","","","","","","StressQ","","","","","","","","","","","","","","","","","","","","","","","","","","","","","","","","","","","","","","50",""
"4644","","<div style=""width:500px;"">
  <p>What best describes how you currently feel?</p>
  </div>","69","html-slider-response","59","1660971","0.0-10.0-4.3","175","1","2025-07-09 09:12:24","7701e855f2ef39aa3fd6c71abdc6918a","41.115.21.160","Mozilla/5.0 (Windows NT 10.0; Win64; x64) AppleWebKit/537.36 (KHTML, like Gecko) Chrome/137.0.0.0 Safari/537.36","WebKit","Chrome","137.0.0.0","Windows","10.0","https://app.prolific.com/","en-GB,en-US;q=0.9,en;q=0.8","66797151cf3b1921be1c405a","686d226cabeef709c732f8e1","686e312650ea66747cf01bb5","66797151cf3b1921be1c405a","2025-07-09T09:40:13.223Z","","","","","","MotivationQ","","","","","","","","","","","","","","","","","","","","","","","","","","","","","","","","","","","","","","50",""
"","","","","ctl-task-cpt","60","1693754","0.0-10.0-0.4","175","1","2025-07-09 09:12:24","7701e855f2ef39aa3fd6c71abdc6918a","41.115.21.160","Mozilla/5.0 (Windows NT 10.0; Win64; x64) AppleWebKit/537.36 (KHTML, like Gecko) Chrome/137.0.0.0 Safari/537.36","WebKit","Chrome","137.0.0.0","Windows","10.0","https://app.prolific.com/","en-GB,en-US;q=0.9,en;q=0.8","66797151cf3b1921be1c405a","686d226cabeef709c732f8e1","686e312650ea66747cf01bb5","66797151cf3b1921be1c405a","2025-07-09T09:40:46.006Z","","","","","","","","","","","","","","","","win-only","3","g1:SW,g2:NE","0.6","5","0","1666995.3","4511.1","9523.6","29775.3","1","4","4","6","1","-1","-1","0","0","0","4614","3000","-2000","[""down"",""left""]","{""num_key_presses"":5,""num_perfect"":2,""num_errors"":0,""num_randdir"":3,""num_randdir_good_moves"":0,""num_whilered"":0,""num_whileblue"":0,""num_blue"":1,""num_good_moves"":1}","[273.7142857142857,274.6205357142857,1.4,273.7142857142857,274.6205357142857,104,273.7142857142857,274.6205357142857,206,273.7142857142857,274.6205357142857,311.6,228.71428571428572,335.6205357142857,422.8,190.71428571428572,474.6205357142857,530.3,289.7142857142857,636.6205357142857,638.8,333.7142857142857,640.6205357142857,747.6,-164.28571428571428,640.6205357142857,847.8,-362.2857142857143,640.6205357142857,954.2,-362.2857142857143,640.6205357142857,1064.4,-362.2857142857143,640.6205357142857,1167.4,-362.2857142857143,640.6205357142857,1269.2,-360.2857142857143,640.6205357142857,1384.2,-329.2857142857143,640.6205357142857,1485.4,-325.2857142857143,640.6205357142857,1589.9,-325.2857142857143,640.6205357142857,1690.1,-325.2857142857143,640.6205357142857,1797.7,-325.2857142857143,640.6205357142857,1899.9,-325.2857142857143,640.6205357142857,2026.6,-362.2857142857143,640.6205357142857,2130.1,-362.2857142857143,640.6205357142857,2239.7,-362.2857142857143,640.6205357142857,2346.9,-362.2857142857143,567.6205357142857,2457.4,-325.2857142857143,610.6205357142857,2578.3,-123.28571428571428,443.6205357142857,2683,155.71428571428572,-52.379464285714285,2795.2,155.71428571428572,-52.379464285714285,2907.5,155.71428571428572,-52.379464285714285,3038.7,102.71428571428572,2.6205357142857153,3140.1,239.71428571428572,21.620535714285715,3246.4,249.71428571428572,14.620535714285715,3355.2,245.71428571428572,-14.379464285714285,3464.4,238.71428571428572,34.620535714285715,3570.3,83.71428571428572,226.62053571428572,3673,1.7142857142857153,434.6205357142857,3778.6,-26.285714285714285,486.6205357142857,3888.5,-28.285714285714285,488.6205357142857,3994.8,-8.285714285714285,484.6205357142857,4096.5,122.71428571428572,490.6205357142857,4199.5,121.71428571428572,500.6205357142857,4307.5,108.71428571428572,512.6205357142857,4417.6,52.714285714285715,515.6205357142857,4518.1,52.714285714285715,515.6205357142857,4619.4,52.714285714285715,515.6205357142857,4728.1,52.714285714285715,515.6205357142857,4828.7,52.714285714285715,515.6205357142857,4928.8]","[2741.3,2741.3,1000,0,1741.3,""smooth"",""down"",""down"",""good_move"",8808.4,6065.9,2588.6,5515.2,704.6,""oops"",""left"",""right"",""bad_move"",11214.9,2404.7,1824.5,8810.2,580.2,""oops"",""down"",""right"",""bad_move"",14683.4,3467.5,2931.9,11215.9,535.6,""oops"",""up"",""up"",""bad_move"",18210,3525.5,2497.5,14684.6,1028,""smooth"",""up"",""up"",""bad_move""]","","",""
"164797","","<div style=""width:500px;"">
  <p>What determined the result of this run?</p>
  </div>","24","html-slider-response","61","1858554","0.0-10.0-1.4","175","1","2025-07-09 09:12:24","7701e855f2ef39aa3fd6c71abdc6918a","41.115.21.160","Mozilla/5.0 (Windows NT 10.0; Win64; x64) AppleWebKit/537.36 (KHTML, like Gecko) Chrome/137.0.0.0 Safari/537.36","WebKit","Chrome","137.0.0.0","Windows","10.0","https://app.prolific.com/","en-GB,en-US;q=0.9,en;q=0.8","66797151cf3b1921be1c405a","686d226cabeef709c732f8e1","686e312650ea66747cf01bb5","66797151cf3b1921be1c405a","2025-07-09T09:43:30.806Z","","","","","","AttribQ","","","","","","","","","","","","","","","","","","","","","","","","","","","","","","","","","","","","","","50",""
"4966","","<div style=""width:500px;"">
  <p>How much control did you have over the ball?</p>
  </div>","94","html-slider-response","62","1863522","0.0-10.0-2.4","175","1","2025-07-09 09:12:24","7701e855f2ef39aa3fd6c71abdc6918a","41.115.21.160","Mozilla/5.0 (Windows NT 10.0; Win64; x64) AppleWebKit/537.36 (KHTML, like Gecko) Chrome/137.0.0.0 Safari/537.36","WebKit","Chrome","137.0.0.0","Windows","10.0","https://app.prolific.com/","en-GB,en-US;q=0.9,en;q=0.8","66797151cf3b1921be1c405a","686d226cabeef709c732f8e1","686e312650ea66747cf01bb5","66797151cf3b1921be1c405a","2025-07-09T09:43:35.774Z","","","","","","ControlQ","","","","","","","","","","","","","","","","","","","","","","","","","","","","","","","","","","","","","","50",""
"7134","","<div style=""width:500px;"">
  <p>How would you describe your current emotional state?</p>
  </div>","26","html-slider-response","63","1870658","0.0-10.0-3.4","175","1","2025-07-09 09:12:24","7701e855f2ef39aa3fd6c71abdc6918a","41.115.21.160","Mozilla/5.0 (Windows NT 10.0; Win64; x64) AppleWebKit/537.36 (KHTML, like Gecko) Chrome/137.0.0.0 Safari/537.36","WebKit","Chrome","137.0.0.0","Windows","10.0","https://app.prolific.com/","en-GB,en-US;q=0.9,en;q=0.8","66797151cf3b1921be1c405a","686d226cabeef709c732f8e1","686e312650ea66747cf01bb5","66797151cf3b1921be1c405a","2025-07-09T09:43:42.911Z","","","","","","StressQ","","","","","","","","","","","","","","","","","","","","","","","","","","","","","","","","","","","","","","50",""
"12466","","<div style=""width:500px;"">
  <p>What best describes how you currently feel?</p>
  </div>","60","html-slider-response","64","1883126","0.0-10.0-4.4","175","1","2025-07-09 09:12:24","7701e855f2ef39aa3fd6c71abdc6918a","41.115.21.160","Mozilla/5.0 (Windows NT 10.0; Win64; x64) AppleWebKit/537.36 (KHTML, like Gecko) Chrome/137.0.0.0 Safari/537.36","WebKit","Chrome","137.0.0.0","Windows","10.0","https://app.prolific.com/","en-GB,en-US;q=0.9,en;q=0.8","66797151cf3b1921be1c405a","686d226cabeef709c732f8e1","686e312650ea66747cf01bb5","66797151cf3b1921be1c405a","2025-07-09T09:43:55.378Z","","","","","","MotivationQ","","","","","","","","","","","","","","","","","","","","","","","","","","","","","","","","","","","","","","50",""
"","","","","ctl-task-cpt","65","1910561","0.0-10.0-0.5","175","1","2025-07-09 09:12:24","7701e855f2ef39aa3fd6c71abdc6918a","41.115.21.160","Mozilla/5.0 (Windows NT 10.0; Win64; x64) AppleWebKit/537.36 (KHTML, like Gecko) Chrome/137.0.0.0 Safari/537.36","WebKit","Chrome","137.0.0.0","Windows","10.0","https://app.prolific.com/","en-GB,en-US;q=0.9,en;q=0.8","66797151cf3b1921be1c405a","686d226cabeef709c732f8e1","686e312650ea66747cf01bb5","66797151cf3b1921be1c405a","2025-07-09T09:44:22.813Z","","","","","","","","","","","","","","","","win-only","3","g1:SW,g2:NE","0.5","6","0","1889150.9","3692.4","8701.5","24418.2","1","4","8","6","2","-8","-8","0","0","0","2954.9","3000","-1745","[""up"",""right""]","{""num_key_presses"":1,""num_perfect"":0,""num_errors"":0,""num_randdir"":1,""num_randdir_good_moves"":1,""num_whilered"":0,""num_whileblue"":0,""num_blue"":2,""num_good_moves"":1}","[279.7142857142857,276.6205357142857,2.3,279.7142857142857,276.6205357142857,102.1,279.7142857142857,276.6205357142857,207.4,279.7142857142857,276.6205357142857,309.8,279.7142857142857,276.6205357142857,422,279.7142857142857,276.6205357142857,522.8,279.7142857142857,261.6205357142857,624.4,279.7142857142857,254.62053571428572,726.8,279.7142857142857,254.62053571428572,830.9,290.7142857142857,236.62053571428572,933.9,331.7142857142857,182.62053571428572,1040.3,368.7142857142857,151.62053571428572,1142.4,368.7142857142857,151.62053571428572,1247.6,376.7142857142857,142.62053571428572,1348.1,435.7142857142857,90.62053571428572,1450.1,434.7142857142857,91.62053571428572,1557.3,402.7142857142857,126.62053571428572,1674.2,402.7142857142857,126.62053571428572,1774.6,402.7142857142857,126.62053571428572,1875.7,402.7142857142857,126.62053571428572,1986.9,402.7142857142857,126.62053571428572,2088.2,400.7142857142857,128.62053571428572,2198.3,337.7142857142857,234.62053571428572,2302,337.7142857142857,234.62053571428572,2406.1,346.7142857142857,224.62053571428572,2520.8,446.7142857142857,85.62053571428572,2631.7,472.7142857142857,55.620535714285715,2737.5,480.7142857142857,44.620535714285715,2843.3,481.7142857142857,43.620535714285715,2947,481.7142857142857,43.620535714285715,3048,481.7142857142857,43.620535714285715,3154.8,481.7142857142857,43.620535714285715,3258.6,481.7142857142857,47.620535714285715,3359.4,480.7142857142857,50.620535714285715,3468.5,476.7142857142857,55.620535714285715,3571.7,475.7142857142857,55.620535714285715,3674.8,475.7142857142857,55.620535714285715,3784.4,475.7142857142857,55.620535714285715,3888,475.7142857142857,55.620535714285715,3989.6,475.7142857142857,55.620535714285715,4091,475.7142857142857,55.620535714285715,4193.9,475.7142857142857,55.620535714285715,4299.5,475.7142857142857,55.620535714285715,4400.8,475.7142857142857,55.620535714285715,4504.3,475.7142857142857,57.620535714285715,4606,463.7142857142857,94.62053571428572,4716.2,459.7142857142857,103.62053571428572,4819.3,459.7142857142857,103.62053571428572,4922.1]","[9804.9,9804.9,2134.6,5297,2373.3,""oops"",""right"",""up"",""good_move""]","","",""
"23383","","<div style=""width:500px;"">
  <p>What determined the result of this run?</p>
  </div>","68","html-slider-response","66","1933948","0.0-10.0-1.5","175","1","2025-07-09 09:12:24","7701e855f2ef39aa3fd6c71abdc6918a","41.115.21.160","Mozilla/5.0 (Windows NT 10.0; Win64; x64) AppleWebKit/537.36 (KHTML, like Gecko) Chrome/137.0.0.0 Safari/537.36","WebKit","Chrome","137.0.0.0","Windows","10.0","https://app.prolific.com/","en-GB,en-US;q=0.9,en;q=0.8","66797151cf3b1921be1c405a","686d226cabeef709c732f8e1","686e312650ea66747cf01bb5","66797151cf3b1921be1c405a","2025-07-09T09:44:46.200Z","","","","","","AttribQ","","","","","","","","","","","","","","","","","","","","","","","","","","","","","","","","","","","","","","50",""
"3396","","<div style=""width:500px;"">
  <p>How much control did you have over the ball?</p>
  </div>","76","html-slider-response","67","1937347","0.0-10.0-2.5","175","1","2025-07-09 09:12:24","7701e855f2ef39aa3fd6c71abdc6918a","41.115.21.160","Mozilla/5.0 (Windows NT 10.0; Win64; x64) AppleWebKit/537.36 (KHTML, like Gecko) Chrome/137.0.0.0 Safari/537.36","WebKit","Chrome","137.0.0.0","Windows","10.0","https://app.prolific.com/","en-GB,en-US;q=0.9,en;q=0.8","66797151cf3b1921be1c405a","686d226cabeef709c732f8e1","686e312650ea66747cf01bb5","66797151cf3b1921be1c405a","2025-07-09T09:44:49.599Z","","","","","","ControlQ","","","","","","","","","","","","","","","","","","","","","","","","","","","","","","","","","","","","","","50",""
"2335","","<div style=""width:500px;"">
  <p>How would you describe your current emotional state?</p>
  </div>","61","html-slider-response","68","1939686","0.0-10.0-3.5","175","1","2025-07-09 09:12:24","7701e855f2ef39aa3fd6c71abdc6918a","41.115.21.160","Mozilla/5.0 (Windows NT 10.0; Win64; x64) AppleWebKit/537.36 (KHTML, like Gecko) Chrome/137.0.0.0 Safari/537.36","WebKit","Chrome","137.0.0.0","Windows","10.0","https://app.prolific.com/","en-GB,en-US;q=0.9,en;q=0.8","66797151cf3b1921be1c405a","686d226cabeef709c732f8e1","686e312650ea66747cf01bb5","66797151cf3b1921be1c405a","2025-07-09T09:44:51.938Z","","","","","","StressQ","","","","","","","","","","","","","","","","","","","","","","","","","","","","","","","","","","","","","","50",""
"37188","","<div style=""width:500px;"">
  <p>What best describes how you currently feel?</p>
  </div>","63","html-slider-response","69","1976877","0.0-10.0-4.5","175","1","2025-07-09 09:12:24","7701e855f2ef39aa3fd6c71abdc6918a","41.115.21.160","Mozilla/5.0 (Windows NT 10.0; Win64; x64) AppleWebKit/537.36 (KHTML, like Gecko) Chrome/137.0.0.0 Safari/537.36","WebKit","Chrome","137.0.0.0","Windows","10.0","https://app.prolific.com/","en-GB,en-US;q=0.9,en;q=0.8","66797151cf3b1921be1c405a","686d226cabeef709c732f8e1","686e312650ea66747cf01bb5","66797151cf3b1921be1c405a","2025-07-09T09:45:29.129Z","","","","","","MotivationQ","","","","","","","","","","","","","","","","","","","","","","","","","","","","","","","","","","","","","","50",""
"","","","","ctl-task-cpt","70","2161013","0.0-10.0-0.6","175","1","2025-07-09 09:12:24","7701e855f2ef39aa3fd6c71abdc6918a","41.115.21.160","Mozilla/5.0 (Windows NT 10.0; Win64; x64) AppleWebKit/537.36 (KHTML, like Gecko) Chrome/137.0.0.0 Safari/537.36","WebKit","Chrome","137.0.0.0","Windows","10.0","https://app.prolific.com/","en-GB,en-US;q=0.9,en;q=0.8","66797151cf3b1921be1c405a","686d226cabeef709c732f8e1","686e312650ea66747cf01bb5","66797151cf3b1921be1c405a","2025-07-09T09:48:33.265Z","","","","","","","","","","","","","","","","win-only","3","g1:SW,g2:NE","0.4","7","0","1982903","3769.5","8775.6","181031.5","1","4","8","6","1","1","-1","0","0","0","2380.3","3000","810","[""down"",""left""]","{""num_key_presses"":27,""num_perfect"":9,""num_errors"":2,""num_randdir"":16,""num_randdir_good_moves"":6,""num_whilered"":0,""num_whileblue"":0,""num_blue"":7,""num_good_moves"":14}","[275.7142857142857,270.6205357142857,0.9,275.7142857142857,270.6205357142857,117.5,276.7142857142857,270.6205357142857,218.4,284.7142857142857,265.6205357142857,331.2,383.7142857142857,181.62053571428572,435.8,455.7142857142857,64.62053571428572,535.9,464.7142857142857,-11.379464285714285,643.5,464.7142857142857,-13.379464285714285,747.5,464.7142857142857,-13.379464285714285,855.8,487.7142857142857,16.620535714285715,967.8,487.7142857142857,64.62053571428572,1068.2,449.7142857142857,81.62053571428572,1201.7,-95.28571428571428,537.6205357142857,1322.4,-362.2857142857143,640.6205357142857,1434.2,-359.2857142857143,637.6205357142857,1546.3,-338.2857142857143,596.6205357142857,1651.4,-268.2857142857143,572.6205357142857,1760.7,-217.28571428571428,546.6205357142857,1866.1,5.714285714285715,498.6205357142857,1984.9,94.71428571428572,484.6205357142857,2096.9,82.71428571428572,489.6205357142857,2206.8,68.71428571428572,500.6205357142857,2306.8,59.714285714285715,505.6205357142857,2407.4,59.714285714285715,505.6205357142857,2514,59.714285714285715,505.6205357142857,2623.6,59.714285714285715,505.6205357142857,2724.3,59.714285714285715,505.6205357142857,2825.2,59.714285714285715,505.6205357142857,2931.8,59.714285714285715,505.6205357142857,3041.9,59.714285714285715,505.6205357142857,3142.1,59.714285714285715,505.6205357142857,3243.8,59.714285714285715,505.6205357142857,3354.1,59.714285714285715,505.6205357142857,3458.9,59.714285714285715,505.6205357142857,3576.9,59.714285714285715,505.6205357142857,3677.4,59.714285714285715,505.6205357142857,3796.3,59.714285714285715,505.6205357142857,3906.7,59.714285714285715,505.6205357142857,4008.6,59.714285714285715,505.6205357142857,4114.3,59.714285714285715,505.6205357142857,4219.9,59.714285714285715,505.6205357142857,4324.1,59.714285714285715,505.6205357142857,4425.1,59.714285714285715,505.6205357142857,4531,59.714285714285715,505.6205357142857,4642.7,59.714285714285715,505.6205357142857,4755.5,59.714285714285715,505.6205357142857,4855.6,59.714285714285715,505.6205357142857,4957.8]","[1678.7,1678.7,1000,0,678.7,""oops"",""left"",""up"",""bad_move"",8159.3,6479.4,3232.1,7818.2,-2891,""error"",""-"",""-"",""no_move"",12430.5,4270.3,2711,9166.1,553.4,""oops"",""down"",""left"",""good_move"",17275.3,4843.6,1721.1,12431.8,3122.5,""oops"",""left"",""right"",""bad_move"",21449,4172.4,3441.8,17276.6,730.6,""smooth"",""right"",""right"",""bad_move"",28364.6,6914.1,1856.7,26096.3,411.6,""oops"",""down"",""left"",""good_move"",34326.6,5961.1,2619.6,28365.5,3341.5,""smooth"",""down"",""down"",""good_move"",37500.7,3173.1,2448.7,34327.6,724.4,""smooth"",""down"",""down"",""good_move"",40826.2,3324.3,2811.6,37501.9,512.7,""smooth"",""down"",""down"",""good_move"",44318.3,3491.4,3035,40827.1,456.3,""oops"",""left"",""up"",""bad_move"",51337.6,7016.3,2989,44321.3,4027.3,""oops"",""left"",""down"",""good_move"",55906.5,4568.1,2340.8,51338.4,2227.3,""smooth"",""left"",""left"",""good_move"",64739.4,8831.8,2988.7,55907.6,5843.2,""oops"",""left"",""up"",""bad_move"",80291.1,15551.1,1876.3,77841.1,573.7,""smooth"",""left"",""left"",""good_move"",89760.6,9468.8,2480.1,80291.9,6988.6,""oops"",""down"",""right"",""bad_move"",96066.8,6305.4,2462.6,92904.6,699.6,""oops"",""left"",""right"",""bad_move"",99889.7,3819.6,3029.4,96070.1,790.2,""smooth"",""down"",""down"",""good_move"",103987.4,4094.3,2332.7,99893.2,1761.5,""oops"",""left"",""right"",""bad_move"",106330.6,2341.8,2834.9,103988.8,-493.1,""error"",""-"",""-"",""no_move"",109994.7,3663.3,1930.3,107375.2,689.2,""smooth"",""left"",""left"",""good_move"",120060.5,10064.9,2188.3,109995.6,7876.6,""oops"",""left"",""right"",""bad_move"",123546.1,3482.1,2435.1,120064.1,1046.9,""oops"",""up"",""right"",""bad_move"",126986.6,3438.7,1972.4,123548,1466.2,""oops"",""up"",""left"",""good_move"",140718.2,13730,2415.7,137759.6,542.9,""oops"",""left"",""left"",""good_move"",151244.6,10525.7,2802.3,140719,7723.4,""smooth"",""left"",""left"",""good_move"",161871.8,10626.4,2162.5,151245.4,8463.9,""oops"",""left"",""right"",""bad_move"",164676.7,2803.9,1997.5,161872.8,806.4,""oops"",""left"",""left"",""good_move""]","","",""
"5141","","<div style=""width:500px;"">
  <p>What determined the result of this run?</p>
  </div>","3","html-slider-response","71","2166164","0.0-10.0-1.6","175","1","2025-07-09 09:12:24","7701e855f2ef39aa3fd6c71abdc6918a","41.115.21.160","Mozilla/5.0 (Windows NT 10.0; Win64; x64) AppleWebKit/537.36 (KHTML, like Gecko) Chrome/137.0.0.0 Safari/537.36","WebKit","Chrome","137.0.0.0","Windows","10.0","https://app.prolific.com/","en-GB,en-US;q=0.9,en;q=0.8","66797151cf3b1921be1c405a","686d226cabeef709c732f8e1","686e312650ea66747cf01bb5","66797151cf3b1921be1c405a","2025-07-09T09:48:38.416Z","","","","","","AttribQ","","","","","","","","","","","","","","","","","","","","","","","","","","","","","","","","","","","","","","50",""
"31999","","<div style=""width:500px;"">
  <p>How much control did you have over the ball?</p>
  </div>","92","html-slider-response","72","2198173","0.0-10.0-2.6","175","1","2025-07-09 09:12:24","7701e855f2ef39aa3fd6c71abdc6918a","41.115.21.160","Mozilla/5.0 (Windows NT 10.0; Win64; x64) AppleWebKit/537.36 (KHTML, like Gecko) Chrome/137.0.0.0 Safari/537.36","WebKit","Chrome","137.0.0.0","Windows","10.0","https://app.prolific.com/","en-GB,en-US;q=0.9,en;q=0.8","66797151cf3b1921be1c405a","686d226cabeef709c732f8e1","686e312650ea66747cf01bb5","66797151cf3b1921be1c405a","2025-07-09T09:49:10.425Z","","","","","","ControlQ","","","","","","","","","","","","","","","","","","","","","","","","","","","","","","","","","","","","","","50",""
"6612","","<div style=""width:500px;"">
  <p>How would you describe your current emotional state?</p>
  </div>","75","html-slider-response","73","2204790","0.0-10.0-3.6","175","1","2025-07-09 09:12:24","7701e855f2ef39aa3fd6c71abdc6918a","41.115.21.160","Mozilla/5.0 (Windows NT 10.0; Win64; x64) AppleWebKit/537.36 (KHTML, like Gecko) Chrome/137.0.0.0 Safari/537.36","WebKit","Chrome","137.0.0.0","Windows","10.0","https://app.prolific.com/","en-GB,en-US;q=0.9,en;q=0.8","66797151cf3b1921be1c405a","686d226cabeef709c732f8e1","686e312650ea66747cf01bb5","66797151cf3b1921be1c405a","2025-07-09T09:49:17.042Z","","","","","","StressQ","","","","","","","","","","","","","","","","","","","","","","","","","","","","","","","","","","","","","","50",""
"4098","","<div style=""width:500px;"">
  <p>What best describes how you currently feel?</p>
  </div>","1","html-slider-response","74","2208892","0.0-10.0-4.6","175","1","2025-07-09 09:12:24","7701e855f2ef39aa3fd6c71abdc6918a","41.115.21.160","Mozilla/5.0 (Windows NT 10.0; Win64; x64) AppleWebKit/537.36 (KHTML, like Gecko) Chrome/137.0.0.0 Safari/537.36","WebKit","Chrome","137.0.0.0","Windows","10.0","https://app.prolific.com/","en-GB,en-US;q=0.9,en;q=0.8","66797151cf3b1921be1c405a","686d226cabeef709c732f8e1","686e312650ea66747cf01bb5","66797151cf3b1921be1c405a","2025-07-09T09:49:21.144Z","","","","","","MotivationQ","","","","","","","","","","","","","","","","","","","","","","","","","","","","","","","","","","","","","","50",""
"","","","","ctl-task-cpt","75","2242823","0.0-10.0-0.7","175","1","2025-07-09 09:12:24","7701e855f2ef39aa3fd6c71abdc6918a","41.115.21.160","Mozilla/5.0 (Windows NT 10.0; Win64; x64) AppleWebKit/537.36 (KHTML, like Gecko) Chrome/137.0.0.0 Safari/537.36","WebKit","Chrome","137.0.0.0","Windows","10.0","https://app.prolific.com/","en-GB,en-US;q=0.9,en;q=0.8","66797151cf3b1921be1c405a","686d226cabeef709c732f8e1","686e312650ea66747cf01bb5","66797151cf3b1921be1c405a","2025-07-09T09:49:55.075Z","","","","","","","","","","","","","","","","win-only","1","g1:NE,g2:SW","0.3","8","0","2214919.2","1223.7","6274.6","30908.8","1","4","4","6","1","1","1","1","0","0.007575757575757576","2455.8","3000","2450","[""up"",""right""]","{""num_key_presses"":6,""num_perfect"":2,""num_errors"":0,""num_randdir"":4,""num_randdir_good_moves"":3,""num_whilered"":0,""num_whileblue"":0,""num_blue"":2,""num_good_moves"":5}","[275.7142857142857,282.6205357142857,0.8,275.7142857142857,282.6205357142857,110.7,275.7142857142857,282.6205357142857,221,275.7142857142857,282.6205357142857,336,275.7142857142857,282.6205357142857,454.5,283.7142857142857,306.6205357142857,586.5,288.7142857142857,348.6205357142857,717.9,288.7142857142857,346.6205357142857,838.8,375.7142857142857,227.62053571428572,941.4,698.7142857142857,117.62053571428572,1067.8,684.7142857142857,107.62053571428572,1186,456.7142857142857,140.62053571428572,1321.8,219.71428571428572,327.6205357142857,1428.1,282.7142857142857,257.6205357142857,1569.6,465.7142857142857,118.62053571428572,1708.1,490.7142857142857,87.62053571428572,1834.5,493.7142857142857,65.62053571428572,1969.4,495.7142857142857,57.620535714285715,2085.8,495.7142857142857,57.620535714285715,2198.1,495.7142857142857,57.620535714285715,2314.7,495.7142857142857,57.620535714285715,2425.9,495.7142857142857,57.620535714285715,2547.6,495.7142857142857,57.620535714285715,2658.4,497.7142857142857,67.62053571428572,2815.8,500.7142857142857,101.62053571428572,2940.6,504.7142857142857,125.62053571428572,3064.5,499.7142857142857,249.62053571428572,3200.1,497.7142857142857,311.6205357142857,3338.9,497.7142857142857,312.6205357142857,3444.8,497.7142857142857,312.6205357142857,3552.3,497.7142857142857,312.6205357142857,3657.5,497.7142857142857,312.6205357142857,3757.7,497.7142857142857,312.6205357142857,3869.7,497.7142857142857,312.6205357142857,3970.8,497.7142857142857,312.6205357142857,4081.3,497.7142857142857,312.6205357142857,4199.7,497.7142857142857,312.6205357142857,4307.6,497.7142857142857,312.6205357142857,4416.2,497.7142857142857,312.6205357142857,4526,497.7142857142857,312.6205357142857,4634.6,497.7142857142857,312.6205357142857,4739,497.7142857142857,312.6205357142857,4842.3,497.7142857142857,312.6205357142857,4945.8]","[5337.1,5337.1,2861.7,2043.8,431.6,""oops"",""right"",""down"",""bad_move"",8173.8,2835.5,2075.7,5338.3,759.8,""smooth"",""up"",""up"",""good_move"",11921.7,3746.8,2233.3,8175,1513.4,""smooth"",""up"",""up"",""good_move"",15282.8,3359.6,2421.4,11923.2,938.2,""oops"",""up"",""right"",""good_move"",18057.4,2773,2264.8,15284.4,508.2,""oops"",""up"",""right"",""good_move"",24374.7,6316.1,2706.1,21293.2,375.4,""oops"",""up"",""up"",""good_move""]","","",""
"3941","","<div style=""width:500px;"">
  <p>What determined the result of this run?</p>
  </div>","98","html-slider-response","76","2246767","0.0-10.0-1.7","175","1","2025-07-09 09:12:24","7701e855f2ef39aa3fd6c71abdc6918a","41.115.21.160","Mozilla/5.0 (Windows NT 10.0; Win64; x64) AppleWebKit/537.36 (KHTML, like Gecko) Chrome/137.0.0.0 Safari/537.36","WebKit","Chrome","137.0.0.0","Windows","10.0","https://app.prolific.com/","en-GB,en-US;q=0.9,en;q=0.8","66797151cf3b1921be1c405a","686d226cabeef709c732f8e1","686e312650ea66747cf01bb5","66797151cf3b1921be1c405a","2025-07-09T09:49:59.019Z","","","","","","AttribQ","","","","","","","","","","","","","","","","","","","","","","","","","","","","","","","","","","","","","","50",""
"4765","","<div style=""width:500px;"">
  <p>How much control did you have over the ball?</p>
  </div>","100","html-slider-response","77","2251535","0.0-10.0-2.7","175","1","2025-07-09 09:12:24","7701e855f2ef39aa3fd6c71abdc6918a","41.115.21.160","Mozilla/5.0 (Windows NT 10.0; Win64; x64) AppleWebKit/537.36 (KHTML, like Gecko) Chrome/137.0.0.0 Safari/537.36","WebKit","Chrome","137.0.0.0","Windows","10.0","https://app.prolific.com/","en-GB,en-US;q=0.9,en;q=0.8","66797151cf3b1921be1c405a","686d226cabeef709c732f8e1","686e312650ea66747cf01bb5","66797151cf3b1921be1c405a","2025-07-09T09:50:03.787Z","","","","","","ControlQ","","","","","","","","","","","","","","","","","","","","","","","","","","","","","","","","","","","","","","50",""
"5142","","<div style=""width:500px;"">
  <p>How would you describe your current emotional state?</p>
  </div>","100","html-slider-response","78","2256681","0.0-10.0-3.7","175","1","2025-07-09 09:12:24","7701e855f2ef39aa3fd6c71abdc6918a","41.115.21.160","Mozilla/5.0 (Windows NT 10.0; Win64; x64) AppleWebKit/537.36 (KHTML, like Gecko) Chrome/137.0.0.0 Safari/537.36","WebKit","Chrome","137.0.0.0","Windows","10.0","https://app.prolific.com/","en-GB,en-US;q=0.9,en;q=0.8","66797151cf3b1921be1c405a","686d226cabeef709c732f8e1","686e312650ea66747cf01bb5","66797151cf3b1921be1c405a","2025-07-09T09:50:08.933Z","","","","","","StressQ","","","","","","","","","","","","","","","","","","","","","","","","","","","","","","","","","","","","","","50",""
"2725","","<div style=""width:500px;"">
  <p>What best describes how you currently feel?</p>
  </div>","95","html-slider-response","79","2259410","0.0-10.0-4.7","175","1","2025-07-09 09:12:24","7701e855f2ef39aa3fd6c71abdc6918a","41.115.21.160","Mozilla/5.0 (Windows NT 10.0; Win64; x64) AppleWebKit/537.36 (KHTML, like Gecko) Chrome/137.0.0.0 Safari/537.36","WebKit","Chrome","137.0.0.0","Windows","10.0","https://app.prolific.com/","en-GB,en-US;q=0.9,en;q=0.8","66797151cf3b1921be1c405a","686d226cabeef709c732f8e1","686e312650ea66747cf01bb5","66797151cf3b1921be1c405a","2025-07-09T09:50:11.662Z","","","","","","MotivationQ","","","","","","","","","","","","","","","","","","","","","","","","","","","","","","","","","","","","","","50",""
"","","","","ctl-task-cpt","80","2351491","0.0-10.0-0.8","175","1","2025-07-09 09:12:24","7701e855f2ef39aa3fd6c71abdc6918a","41.115.21.160","Mozilla/5.0 (Windows NT 10.0; Win64; x64) AppleWebKit/537.36 (KHTML, like Gecko) Chrome/137.0.0.0 Safari/537.36","WebKit","Chrome","137.0.0.0","Windows","10.0","https://app.prolific.com/","en-GB,en-US;q=0.9,en;q=0.8","66797151cf3b1921be1c405a","686d226cabeef709c732f8e1","686e312650ea66747cf01bb5","66797151cf3b1921be1c405a","2025-07-09T09:51:43.743Z","","","","","","","","","","","","","","","","win-only","0","g1:NW,g2:SE","0.2","9","0","2265435.4","1937.5","6944.5","89027.4","1","4","4","6","2","4","3","4","1","0.030303030303030304","1376.3","3000","1695","[""down"",""right""]","{""num_key_presses"":19,""num_perfect"":4,""num_errors"":1,""num_randdir"":14,""num_randdir_good_moves"":8,""num_whilered"":0,""num_whileblue"":0,""num_blue"":1,""num_good_moves"":12}","[275.7142857142857,279.6205357142857,9.5,275.7142857142857,279.6205357142857,111.2,275.7142857142857,278.6205357142857,219.7,275.7142857142857,283.6205357142857,333.9,246.71428571428572,307.6205357142857,434.3,237.71428571428572,295.6205357142857,537.7,234.71428571428572,267.6205357142857,652,237.71428571428572,250.62053571428572,764.2,239.71428571428572,239.62053571428572,880.6,240.71428571428572,236.62053571428572,981,418.7142857142857,446.6205357142857,1087.6,530.7142857142857,546.6205357142857,1198.7,530.7142857142857,546.6205357142857,1299.9,530.7142857142857,546.6205357142857,1405.2,530.7142857142857,546.6205357142857,1517.2,530.7142857142857,543.6205357142857,1619.5,530.7142857142857,543.6205357142857,1729.1,525.7142857142857,544.6205357142857,1838.4,451.7142857142857,563.6205357142857,1976.5,112.71428571428572,558.6205357142857,2089.6,-43.285714285714285,517.6205357142857,2203,79.71428571428572,452.6205357142857,2303.5,542.7142857142857,388.6205357142857,2418.9,582.7142857142857,388.6205357142857,2536.2,591.7142857142857,388.6205357142857,2643,592.7142857142857,401.6205357142857,2751.6,593.7142857142857,401.6205357142857,2856.4,593.7142857142857,401.6205357142857,2959.6,593.7142857142857,401.6205357142857,3060.2,593.7142857142857,401.6205357142857,3160.8,593.7142857142857,401.6205357142857,3260.8,593.7142857142857,401.6205357142857,3373.2,593.7142857142857,401.6205357142857,3477.3,593.7142857142857,401.6205357142857,3593.7,593.7142857142857,401.6205357142857,3705,593.7142857142857,401.6205357142857,3821.6,593.7142857142857,401.6205357142857,3935.9,593.7142857142857,401.6205357142857,4044.5,593.7142857142857,401.6205357142857,4153.8,593.7142857142857,401.6205357142857,4254.7,593.7142857142857,401.6205357142857,4358.4,593.7142857142857,401.6205357142857,4466.6,593.7142857142857,401.6205357142857,4576.4,593.7142857142857,401.6205357142857,4690.8,593.7142857142857,401.6205357142857,4802,593.7142857142857,401.6205357142857,4913.8]","[1501.3,1501.4,1000,0,501.4,""oops"",""right"",""right"",""good_move"",4473.3,2968.8,2478.4,1504.5,490.4,""oops"",""down"",""up"",""bad_move"",9079.9,4603.8,1868.4,4476.1,2735.4,""smooth"",""right"",""right"",""good_move"",12222.3,3141.3,2363,9081,778.3,""oops"",""right"",""left"",""bad_move"",13205.1,979.7,2787.3,12225.4,-1807.6,""error"",""-"",""-"",""no_move"",19387.1,6181.1,2376.6,14215,2795.5,""oops"",""down"",""left"",""bad_move"",26389.2,7001.4,2536,19388,4465.3,""oops"",""down"",""right"",""good_move"",29442.8,3051.9,2533,26391,518.9,""oops"",""right"",""left"",""bad_move"",36781.8,7338,3045.4,29443.9,4292.5,""oops"",""left"",""left"",""bad_move"",45644.5,8862,2892.8,36782.5,5969.2,""smooth"",""down"",""down"",""good_move"",49273.9,3628.1,3006.7,45645.8,621.4,""oops"",""down"",""right"",""good_move"",52650.3,3375,2711.3,49275.3,663.7,""oops"",""down"",""down"",""good_move"",56413.3,3761.9,2901.3,52651.4,860.6,""smooth"",""down"",""down"",""good_move"",59264.6,2850.1,2124.7,56414.5,725.4,""smooth"",""down"",""down"",""good_move"",65838.4,6570.4,2779.7,62747.1,311.7,""oops"",""right"",""right"",""good_move"",68790.3,2950.1,2381.5,65840.2,568.6,""oops"",""down"",""right"",""good_move"",72203.4,3412,3036.4,68791.4,375.6,""oops"",""right"",""up"",""bad_move"",77748.9,5542.6,2723.7,72206.4,2818.8,""oops"",""down"",""right"",""good_move"",80527.9,2777.8,2286,77750.1,491.8,""oops"",""down"",""down"",""good_move""]","","",""
"3957","","<div style=""width:500px;"">
  <p>What determined the result of this run?</p>
  </div>","90","html-slider-response","81","2355452","0.0-10.0-1.8","175","1","2025-07-09 09:12:24","7701e855f2ef39aa3fd6c71abdc6918a","41.115.21.160","Mozilla/5.0 (Windows NT 10.0; Win64; x64) AppleWebKit/537.36 (KHTML, like Gecko) Chrome/137.0.0.0 Safari/537.36","WebKit","Chrome","137.0.0.0","Windows","10.0","https://app.prolific.com/","en-GB,en-US;q=0.9,en;q=0.8","66797151cf3b1921be1c405a","686d226cabeef709c732f8e1","686e312650ea66747cf01bb5","66797151cf3b1921be1c405a","2025-07-09T09:51:47.704Z","","","","","","AttribQ","","","","","","","","","","","","","","","","","","","","","","","","","","","","","","","","","","","","","","50",""
"7386","","<div style=""width:500px;"">
  <p>How much control did you have over the ball?</p>
  </div>","95","html-slider-response","82","2362842","0.0-10.0-2.8","175","1","2025-07-09 09:12:24","7701e855f2ef39aa3fd6c71abdc6918a","41.115.21.160","Mozilla/5.0 (Windows NT 10.0; Win64; x64) AppleWebKit/537.36 (KHTML, like Gecko) Chrome/137.0.0.0 Safari/537.36","WebKit","Chrome","137.0.0.0","Windows","10.0","https://app.prolific.com/","en-GB,en-US;q=0.9,en;q=0.8","66797151cf3b1921be1c405a","686d226cabeef709c732f8e1","686e312650ea66747cf01bb5","66797151cf3b1921be1c405a","2025-07-09T09:51:55.095Z","","","","","","ControlQ","","","","","","","","","","","","","","","","","","","","","","","","","","","","","","","","","","","","","","50",""
"5596","","<div style=""width:500px;"">
  <p>How would you describe your current emotional state?</p>
  </div>","0","html-slider-response","83","2368444","0.0-10.0-3.8","175","1","2025-07-09 09:12:24","7701e855f2ef39aa3fd6c71abdc6918a","41.115.21.160","Mozilla/5.0 (Windows NT 10.0; Win64; x64) AppleWebKit/537.36 (KHTML, like Gecko) Chrome/137.0.0.0 Safari/537.36","WebKit","Chrome","137.0.0.0","Windows","10.0","https://app.prolific.com/","en-GB,en-US;q=0.9,en;q=0.8","66797151cf3b1921be1c405a","686d226cabeef709c732f8e1","686e312650ea66747cf01bb5","66797151cf3b1921be1c405a","2025-07-09T09:52:00.696Z","","","","","","StressQ","","","","","","","","","","","","","","","","","","","","","","","","","","","","","","","","","","","","","","50",""
"2957","","<div style=""width:500px;"">
  <p>What best describes how you currently feel?</p>
  </div>","97","html-slider-response","84","2371405","0.0-10.0-4.8","175","1","2025-07-09 09:12:24","7701e855f2ef39aa3fd6c71abdc6918a","41.115.21.160","Mozilla/5.0 (Windows NT 10.0; Win64; x64) AppleWebKit/537.36 (KHTML, like Gecko) Chrome/137.0.0.0 Safari/537.36","WebKit","Chrome","137.0.0.0","Windows","10.0","https://app.prolific.com/","en-GB,en-US;q=0.9,en;q=0.8","66797151cf3b1921be1c405a","686d226cabeef709c732f8e1","686e312650ea66747cf01bb5","66797151cf3b1921be1c405a","2025-07-09T09:52:03.657Z","","","","","","MotivationQ","","","","","","","","","","","","","","","","","","","","","","","","","","","","","","","","","","","","","","50",""
