"rt","response_timestamp","stimulus","response","trial_type","trial_index","time_elapsed","internal_node_id","run_id","condition","recorded_at","source_code_version","ip","user_agent","device","browser","browser_version","platform","platform_version","referer","accept_language","PROLIFIC_PID","STUDY_ID","SESSION_ID","prolific_id","realtime","view_history","question_order","consent","success","question_id","eventType","responses","item_order","radio_event_ids","radio_event_times","key_event_times","mouse_event_times","straightlining","zigzagging","honeypot","which_type","canvas_config","goals_layout","control_level","trial_number","tutorial_trial_number","trial_start_time","phase1_start_time","phase2_start_time","phase3_start_time","goal_1_value","goal_1_distance","goal_2_value","goal_2_distance","goal_selected","outcome","outcome_total","participant_final_score","participant_initial_score","participant_final_score_prop","goal_choice_rt","allocated_time","allocated_time_remaining","goal_direction","counts","mouse_movements","key_presses","correct","slider_start"
"3195","1752052072724","<p style='font-size:40px;line-height:1.25'><strong>Welcome to the experiment!</strong></p><p style='font-size:1.1em;line-height:1.25'>Thank you for your interest in our experiment! Before you begin, it is important that we obtain your informed consent to participate in the study.</p><p style='font-size:1.1em;line-height:1.25'>On the next screen will be an <strong>information sheet</strong> for you to read. To participate in the study we need you to read this information sheet and the following consent form carefully. If you agree with all the statements, please click the <strong>I agree</strong> button.</p><p style='font-size:1.1em;line-height:1.25'>Press <strong>Next</strong> to read the information sheet.</p>","0","custom-html-button-response","0","3197","0.0-0.0","92","1","2025-07-09 09:07:46","7701e855f2ef39aa3fd6c71abdc6918a","92.239.244.139","Mozilla/5.0 (Windows NT 10.0; Win64; x64) AppleWebKit/537.36 (KHTML, like Gecko) Chrome/137.0.0.0 Safari/537.36","WebKit","Chrome","137.0.0.0","Windows","10.0","https://app.prolific.com/","en-GB,en;q=0.9,en-US;q=0.8","67d160272a11ce5155437ddf","686d226cabeef709c732f8e1","686e3143d251d99f750c8334","67d160272a11ce5155437ddf","2025-07-09T09:07:52.725Z","","","","","","","","","","","","","","","","","","","","","","","","","","","","","","","","","","","","","","","","","","","",""
"6198","","","","instructions","1","9396","0.0-1.0","92","1","2025-07-09 09:07:46","7701e855f2ef39aa3fd6c71abdc6918a","92.239.244.139","Mozilla/5.0 (Windows NT 10.0; Win64; x64) AppleWebKit/537.36 (KHTML, like Gecko) Chrome/137.0.0.0 Safari/537.36","WebKit","Chrome","137.0.0.0","Windows","10.0","https://app.prolific.com/","en-GB,en;q=0.9,en-US;q=0.8","67d160272a11ce5155437ddf","686d226cabeef709c732f8e1","686e3143d251d99f750c8334","67d160272a11ce5155437ddf","","[{""page_index"":0,""viewing_time"":3870},{""page_index"":1,""viewing_time"":2328}]","","","","","","","","","","","","","","","","","","","","","","","","","","","","","","","","","","","","","","","","","","",""
"11879","","","{""Q0"":"""",""Q1"":"""",""Q2"":"""",""Q3"":"""",""Q4"":"""",""Q5"":"""",""Q6"":""I agree""}","survey-multi-choice","2","21276","0.0-2.0","92","1","2025-07-09 09:07:46","7701e855f2ef39aa3fd6c71abdc6918a","92.239.244.139","Mozilla/5.0 (Windows NT 10.0; Win64; x64) AppleWebKit/537.36 (KHTML, like Gecko) Chrome/137.0.0.0 Safari/537.36","WebKit","Chrome","137.0.0.0","Windows","10.0","https://app.prolific.com/","en-GB,en;q=0.9,en-US;q=0.8","67d160272a11ce5155437ddf","686d226cabeef709c732f8e1","686e3143d251d99f750c8334","67d160272a11ce5155437ddf","","","[0,1,2,3,4,5,6]","true","","","","","","","","","","","","","","","","","","","","","","","","","","","","","","","","","","","","","","","","",""
"5670","","","","fullscreen","3","27949","0.0-4.0","92","1","2025-07-09 09:07:46","7701e855f2ef39aa3fd6c71abdc6918a","92.239.244.139","Mozilla/5.0 (Windows NT 10.0; Win64; x64) AppleWebKit/537.36 (KHTML, like Gecko) Chrome/137.0.0.0 Safari/537.36","WebKit","Chrome","137.0.0.0","Windows","10.0","https://app.prolific.com/","en-GB,en;q=0.9,en-US;q=0.8","67d160272a11ce5155437ddf","686d226cabeef709c732f8e1","686e3143d251d99f750c8334","67d160272a11ce5155437ddf","","","","","true","","","","","","","","","","","","","","","","","","","","","","","","","","","","","","","","","","","","","","","",""
"30837","1752052128315"," <p style='font-size:1.1em;line-height:1.25'>Thank you for completing the consent form and closing all other tabs.</p><p style='font-size:1.1em;line-height:1.25'>We will now invite you to fill in some demographic information and questionnaires, before starting the game.<br>This will take about 5 minutes.<br></p><p style='font-size:1.1em;line-height:1.25'>Press the <strong>Next</strong> button to continue.</p>","0","custom-html-button-response","4","58788","0.0-5.0","92","1","2025-07-09 09:07:46","7701e855f2ef39aa3fd6c71abdc6918a","92.239.244.139","Mozilla/5.0 (Windows NT 10.0; Win64; x64) AppleWebKit/537.36 (KHTML, like Gecko) Chrome/137.0.0.0 Safari/537.36","WebKit","Chrome","137.0.0.0","Windows","10.0","https://app.prolific.com/","en-GB,en;q=0.9,en-US;q=0.8","67d160272a11ce5155437ddf","686d226cabeef709c732f8e1","686e3143d251d99f750c8334","67d160272a11ce5155437ddf","2025-07-09T09:08:48.316Z","","","","","","","","","","","","","","","","","","","","","","","","","","","","","","","","","","","","","","","","","","","",""
"3614","","","{""age"":""26""}","survey-text","5","62404","0.0-6.0-0.0","92","1","2025-07-09 09:07:46","7701e855f2ef39aa3fd6c71abdc6918a","92.239.244.139","Mozilla/5.0 (Windows NT 10.0; Win64; x64) AppleWebKit/537.36 (KHTML, like Gecko) Chrome/137.0.0.0 Safari/537.36","WebKit","Chrome","137.0.0.0","Windows","10.0","https://app.prolific.com/","en-GB,en;q=0.9,en-US;q=0.8","67d160272a11ce5155437ddf","686d226cabeef709c732f8e1","686e3143d251d99f750c8334","67d160272a11ce5155437ddf","","","","","","0","demographics","","","","","","","","","","","","","","","","","","","","","","","","","","","","","","","","","","","","","",""
"2327","","","{""gender_identity"":""female/woman""}","survey-multi-choice","6","64732","0.0-6.0-1.0","92","1","2025-07-09 09:07:46","7701e855f2ef39aa3fd6c71abdc6918a","92.239.244.139","Mozilla/5.0 (Windows NT 10.0; Win64; x64) AppleWebKit/537.36 (KHTML, like Gecko) Chrome/137.0.0.0 Safari/537.36","WebKit","Chrome","137.0.0.0","Windows","10.0","https://app.prolific.com/","en-GB,en;q=0.9,en-US;q=0.8","67d160272a11ce5155437ddf","686d226cabeef709c732f8e1","686e3143d251d99f750c8334","67d160272a11ce5155437ddf","","","[0]","","","1","demographics","","","","","","","","","","","","","","","","","","","","","","","","","","","","","","","","","","","","","",""
"2175","","","{""assigned_sex"":""female""}","survey-multi-choice","7","66908","0.0-6.0-2.0","92","1","2025-07-09 09:07:46","7701e855f2ef39aa3fd6c71abdc6918a","92.239.244.139","Mozilla/5.0 (Windows NT 10.0; Win64; x64) AppleWebKit/537.36 (KHTML, like Gecko) Chrome/137.0.0.0 Safari/537.36","WebKit","Chrome","137.0.0.0","Windows","10.0","https://app.prolific.com/","en-GB,en;q=0.9,en-US;q=0.8","67d160272a11ce5155437ddf","686d226cabeef709c732f8e1","686e3143d251d99f750c8334","67d160272a11ce5155437ddf","","","[0]","","","2","demographics","","","","","","","","","","","","","","","","","","","","","","","","","","","","","","","","","","","","","",""
"4135","","","{""menstrual_cycle"":""Yes""}","survey-multi-choice","8","71044","0.0-6.0-3.0","92","1","2025-07-09 09:07:46","7701e855f2ef39aa3fd6c71abdc6918a","92.239.244.139","Mozilla/5.0 (Windows NT 10.0; Win64; x64) AppleWebKit/537.36 (KHTML, like Gecko) Chrome/137.0.0.0 Safari/537.36","WebKit","Chrome","137.0.0.0","Windows","10.0","https://app.prolific.com/","en-GB,en;q=0.9,en-US;q=0.8","67d160272a11ce5155437ddf","686d226cabeef709c732f8e1","686e3143d251d99f750c8334","67d160272a11ce5155437ddf","","","[0]","","","4","demographics","","","","","","","","","","","","","","","","","","","","","","","","","","","","","","","","","","","","","",""
"3271","","","{""education"":""Bachelor's Degree (e.g., BA)""}","survey-multi-choice","9","74316","0.0-6.0-4.0","92","1","2025-07-09 09:07:46","7701e855f2ef39aa3fd6c71abdc6918a","92.239.244.139","Mozilla/5.0 (Windows NT 10.0; Win64; x64) AppleWebKit/537.36 (KHTML, like Gecko) Chrome/137.0.0.0 Safari/537.36","WebKit","Chrome","137.0.0.0","Windows","10.0","https://app.prolific.com/","en-GB,en;q=0.9,en-US;q=0.8","67d160272a11ce5155437ddf","686d226cabeef709c732f8e1","686e3143d251d99f750c8334","67d160272a11ce5155437ddf","","","[0]","","","5","demographics","","","","","","","","","","","","","","","","","","","","","","","","","","","","","","","","","","","","","",""
"3199","","","{""education"":""Bachelor's Degree (e.g., BA)""}","survey-multi-choice","10","77516","0.0-6.0-5.0","92","1","2025-07-09 09:07:46","7701e855f2ef39aa3fd6c71abdc6918a","92.239.244.139","Mozilla/5.0 (Windows NT 10.0; Win64; x64) AppleWebKit/537.36 (KHTML, like Gecko) Chrome/137.0.0.0 Safari/537.36","WebKit","Chrome","137.0.0.0","Windows","10.0","https://app.prolific.com/","en-GB,en;q=0.9,en-US;q=0.8","67d160272a11ce5155437ddf","686d226cabeef709c732f8e1","686e3143d251d99f750c8334","67d160272a11ce5155437ddf","2025-07-09T09:09:07.044Z","","[0]","","","6","demographics","","","","","","","","","","","","","","","","","","","","","","","","","","","","","","","","","","","","","",""
"18598","","","{""mental_health_condition"":""ADHS"",""mental_health_treatment"":""Therapy"",""psychiatric_medication"":""""}","survey-text","11","96116","0.0-7.0-0.0","92","1","2025-07-09 09:07:46","7701e855f2ef39aa3fd6c71abdc6918a","92.239.244.139","Mozilla/5.0 (Windows NT 10.0; Win64; x64) AppleWebKit/537.36 (KHTML, like Gecko) Chrome/137.0.0.0 Safari/537.36","WebKit","Chrome","137.0.0.0","Windows","10.0","https://app.prolific.com/","en-GB,en;q=0.9,en-US;q=0.8","67d160272a11ce5155437ddf","686d226cabeef709c732f8e1","686e3143d251d99f750c8334","67d160272a11ce5155437ddf","2025-07-09T09:09:25.644Z","","","","","1","mental_health","","","","","","","","","","","","","","","","","","","","","","","","","","","","","","","","","","","","","",""
"6974","","","{""depression_history"":[""Yes""]}","survey-multi-select","12","103092","0.0-7.0-1.0","92","1","2025-07-09 09:07:46","7701e855f2ef39aa3fd6c71abdc6918a","92.239.244.139","Mozilla/5.0 (Windows NT 10.0; Win64; x64) AppleWebKit/537.36 (KHTML, like Gecko) Chrome/137.0.0.0 Safari/537.36","WebKit","Chrome","137.0.0.0","Windows","10.0","https://app.prolific.com/","en-GB,en;q=0.9,en-US;q=0.8","67d160272a11ce5155437ddf","686d226cabeef709c732f8e1","686e3143d251d99f750c8334","67d160272a11ce5155437ddf","","","[0]","","","","mental_health","","","","","","","","","","","","","","","","","","","","","","","","","","","","","","","","","","","","","",""
"7359","","","{""depression_episodes"":""1-2"",""depression_recent"":""Within the past year""}","survey-multi-choice","13","110452","0.0-7.0-2.0-0.0","92","1","2025-07-09 09:07:46","7701e855f2ef39aa3fd6c71abdc6918a","92.239.244.139","Mozilla/5.0 (Windows NT 10.0; Win64; x64) AppleWebKit/537.36 (KHTML, like Gecko) Chrome/137.0.0.0 Safari/537.36","WebKit","Chrome","137.0.0.0","Windows","10.0","https://app.prolific.com/","en-GB,en;q=0.9,en-US;q=0.8","67d160272a11ce5155437ddf","686d226cabeef709c732f8e1","686e3143d251d99f750c8334","67d160272a11ce5155437ddf","2025-07-09T09:09:39.980Z","","[0,1]","","","3","mental_health","","","","","","","","","","","","","","","","","","","","","","","","","","","","","","","","","","","","","",""
"37287.20000000298","","","","survey-template","14","147742","0.0-7.0-3.0","92","1","2025-07-09 09:07:46","7701e855f2ef39aa3fd6c71abdc6918a","92.239.244.139","Mozilla/5.0 (Windows NT 10.0; Win64; x64) AppleWebKit/537.36 (KHTML, like Gecko) Chrome/137.0.0.0 Safari/537.36","WebKit","Chrome","137.0.0.0","Windows","10.0","https://app.prolific.com/","en-GB,en;q=0.9,en-US;q=0.8","67d160272a11ce5155437ddf","686d226cabeef709c732f8e1","686e3143d251d99f750c8334","67d160272a11ce5155437ddf","2025-07-09T09:10:17.270Z","","","","","","ius","{""Q01"":""2"",""Q02"":""2"",""Q03"":""1"",""Q04"":""2"",""Q05"":""2"",""Q06"":""0"",""Q07"":""0"",""Q08"":""0"",""Q09"":""1"",""Q10"":""1"",""Q11"":""0"",""Q12"":""0"",""Q13"":""0""}","[0,1,2,3,4,5,6,7,8,9,10,11,12]","[""Q01"",""Q02"",""Q03"",""Q04"",""Q05"",""Q06"",""Q07"",""Q08"",""Q09"",""Q10"",""Q11"",""Q12"",""Q13""]","[5333.5,7493.399999991059,10325.29999999702,13773.09999999404,16821.29999999702,18749.29999999702,21125.29999999702,23909.29999999702,27189.29999999702,29101.29999999702,33213.20000000298,34037.29999999702,35749.29999999702]","[]","[5333.5,7493.399999991059,10325.29999999702,13773.09999999404,16821.29999999702,18749.29999999702,21125.29999999702,23909.29999999702,27189.29999999702,29101.29999999702,31709.39999999106,33213.20000000298,34037.29999999702,35749.29999999702,37285.39999999106]","0.46153846153846156","0.3333333333333333","0","","","","","","","","","","","","","","","","","","","","","","","","","","","","",""
"2204","1752052219475","<p style='font-size:1.1em;line-height:1.25'>In the following, we will ask you a few questions relating to your experiences over the past month.<br></p><p style='font-size:1.1em;line-height:1.25'>Press the <strong>Next</strong> button to continue.</p>","0","custom-html-button-response","15","149948","0.0-7.0-4.0","92","1","2025-07-09 09:07:46","7701e855f2ef39aa3fd6c71abdc6918a","92.239.244.139","Mozilla/5.0 (Windows NT 10.0; Win64; x64) AppleWebKit/537.36 (KHTML, like Gecko) Chrome/137.0.0.0 Safari/537.36","WebKit","Chrome","137.0.0.0","Windows","10.0","https://app.prolific.com/","en-GB,en;q=0.9,en-US;q=0.8","67d160272a11ce5155437ddf","686d226cabeef709c732f8e1","686e3143d251d99f750c8334","67d160272a11ce5155437ddf","2025-07-09T09:10:19.476Z","","","","","","","","","","","","","","","","","","","","","","","","","","","","","","","","","","","","","","","","","","","",""
"44055.79999999702","","","","survey-template","16","194005","0.0-7.0-5.0","92","1","2025-07-09 09:07:46","7701e855f2ef39aa3fd6c71abdc6918a","92.239.244.139","Mozilla/5.0 (Windows NT 10.0; Win64; x64) AppleWebKit/537.36 (KHTML, like Gecko) Chrome/137.0.0.0 Safari/537.36","WebKit","Chrome","137.0.0.0","Windows","10.0","https://app.prolific.com/","en-GB,en;q=0.9,en-US;q=0.8","67d160272a11ce5155437ddf","686d226cabeef709c732f8e1","686e3143d251d99f750c8334","67d160272a11ce5155437ddf","2025-07-09T09:11:03.533Z","","","","","","pss","{""Q01"":""1"",""Q02"":""2"",""Q03"":""2"",""Q04"":""0"",""Q05"":""0"",""Q06"":""2"",""Q07"":""2"",""Q08"":""1"",""Q09"":""2"",""Q10"":""2""}","[0,1,2,3,4,5,6,7,8,9]","[""Q01"",""Q02"",""Q03"",""Q04"",""Q05"",""Q06"",""Q07"",""Q08"",""Q09"",""Q10""]","[8174.5,10822.5,13230.59999999404,22414.5,25414.5,28710.5,32926.5,39038.40000000596,39718.40000000596,42919.20000000298]","[]","[0,8174.5,10822.5,13230.59999999404,20966.70000000298,22414.5,23286.59999999404,24622.5,25414.5,28710.5,32926.5,34958.09999999404,38102.70000000298,39038.40000000596,39718.40000000596,42919.20000000298,44054.40000000596]","0.6","0.3333333333333333","0","","","","","","","","","","","","","","","","","","","","","","","","","","","","",""
"2597","1752052266131","<p style='font-size:1.1em;line-height:1.25'>Thank you for your answers! Now we will ask you a few more questions relating to your feelings in the last 24 hours.<br></p><p style='font-size:1.1em;line-height:1.25'>Press the <strong>Next</strong> button to continue.</p>","0","custom-html-button-response","17","196603","0.0-7.0-6.0","92","1","2025-07-09 09:07:46","7701e855f2ef39aa3fd6c71abdc6918a","92.239.244.139","Mozilla/5.0 (Windows NT 10.0; Win64; x64) AppleWebKit/537.36 (KHTML, like Gecko) Chrome/137.0.0.0 Safari/537.36","WebKit","Chrome","137.0.0.0","Windows","10.0","https://app.prolific.com/","en-GB,en;q=0.9,en-US;q=0.8","67d160272a11ce5155437ddf","686d226cabeef709c732f8e1","686e3143d251d99f750c8334","67d160272a11ce5155437ddf","2025-07-09T09:11:06.131Z","","","","","","","","","","","","","","","","","","","","","","","","","","","","","","","","","","","","","","","","","","","",""
"51113.09999999404","","","","survey-template","18","247720","0.0-7.0-7.0","92","1","2025-07-09 09:07:46","7701e855f2ef39aa3fd6c71abdc6918a","92.239.244.139","Mozilla/5.0 (Windows NT 10.0; Win64; x64) AppleWebKit/537.36 (KHTML, like Gecko) Chrome/137.0.0.0 Safari/537.36","WebKit","Chrome","137.0.0.0","Windows","10.0","https://app.prolific.com/","en-GB,en;q=0.9,en-US;q=0.8","67d160272a11ce5155437ddf","686d226cabeef709c732f8e1","686e3143d251d99f750c8334","67d160272a11ce5155437ddf","2025-07-09T09:11:57.248Z","","","","","","drsp","{""Q01"":""0"",""Q02"":""0"",""Q03"":""0"",""Q04"":""1"",""Q05"":""0"",""Q06"":""0"",""Q07"":""1"",""Q08"":""0"",""Q09"":""0"",""Q10"":""0"",""Q11"":""0"",""Q12"":""2"",""Q13"":""2"",""Q14"":""1"",""Q15"":""2"",""Q16"":""1"",""Q17"":""1"",""Q18"":""0"",""Q19"":""1"",""Q20"":""0"",""Q21"":""0""}","[0,1,2,3,4,5,6,7,8,9,10,11,12,13,14,15,16,17,18,19,20]","[""Q01"",""Q02"",""Q03"",""Q05"",""Q06"",""Q07"",""Q08"",""Q09"",""Q10"",""Q11"",""Q12"",""Q13"",""Q14"",""Q15"",""Q16"",""Q17"",""Q18"",""Q19"",""Q20"",""Q21"",""Q04""]","[2798.0999999940395,4078.2999999970198,4838.20000000298,6590.20000000298,8302.09999999404,10070.09999999404,11077.59999999404,13270.20000000298,15478.20000000298,16093.90000000596,19326.20000000298,21350.09999999404,23854,26478,29398,30126.09999999404,34966,38494.09999999404,41070,43389.90000000596,49254.20000000298]","[]","[0,2798.0999999940395,4078.2999999970198,4838.20000000298,5582.29999999702,6590.20000000298,8302.09999999404,10070.09999999404,11077.59999999404,13270.20000000298,14550.29999999702,15478.20000000298,16093.90000000596,17766.29999999702,18877.70000000298,19326.20000000298,21350.09999999404,23854,26478,29398,30126.09999999404,32941.90000000596,34253.90000000596,34966,38494.09999999404,40454.09999999404,41070,43389.90000000596,44342.09999999404,49254.20000000298,51110.20000000298]","0.5714285714285714","0.5","0","","","","","","","","","","","","","","","","","","","","","","","","","","","","",""
"10899.29999999702","","","","survey-template","19","258620","0.0-7.0-8.0","92","1","2025-07-09 09:07:46","7701e855f2ef39aa3fd6c71abdc6918a","92.239.244.139","Mozilla/5.0 (Windows NT 10.0; Win64; x64) AppleWebKit/537.36 (KHTML, like Gecko) Chrome/137.0.0.0 Safari/537.36","WebKit","Chrome","137.0.0.0","Windows","10.0","https://app.prolific.com/","en-GB,en;q=0.9,en-US;q=0.8","67d160272a11ce5155437ddf","686d226cabeef709c732f8e1","686e3143d251d99f750c8334","67d160272a11ce5155437ddf","2025-07-09T09:12:08.148Z","","","","","","stress","{""Q01"":""1"",""Q02"":""1"",""Q03"":""1""}","[0,1,2]","[""Q01"",""Q02"",""Q03""]","[2866.5,6562.699999988079,9282.39999999106]","[]","[2866.5,6562.699999988079,9282.39999999106,10898.59999999404]","0.6666666666666666","0","0","","","","","","","","","","","","","","","","","","","","","","","","","","","","",""
"73646","","","","instructions","20","332268","0.0-8.0-0.0","92","1","2025-07-09 09:07:46","7701e855f2ef39aa3fd6c71abdc6918a","92.239.244.139","Mozilla/5.0 (Windows NT 10.0; Win64; x64) AppleWebKit/537.36 (KHTML, like Gecko) Chrome/137.0.0.0 Safari/537.36","WebKit","Chrome","137.0.0.0","Windows","10.0","https://app.prolific.com/","en-GB,en;q=0.9,en-US;q=0.8","67d160272a11ce5155437ddf","686d226cabeef709c732f8e1","686e3143d251d99f750c8334","67d160272a11ce5155437ddf","","[{""page_index"":0,""viewing_time"":54598},{""page_index"":1,""viewing_time"":6888},{""page_index"":2,""viewing_time"":9872},{""page_index"":3,""viewing_time"":2288}]","","","","","","","","","","","","","","","","","","","","","","","","","","","","","","","","","","","","","","","","","","",""
"","","","","ctl-task-cpt","21","379117","0.0-8.0-1.0","92","1","2025-07-09 09:07:46","7701e855f2ef39aa3fd6c71abdc6918a","92.239.244.139","Mozilla/5.0 (Windows NT 10.0; Win64; x64) AppleWebKit/537.36 (KHTML, like Gecko) Chrome/137.0.0.0 Safari/537.36","WebKit","Chrome","137.0.0.0","Windows","10.0","https://app.prolific.com/","en-GB,en;q=0.9,en-US;q=0.8","67d160272a11ce5155437ddf","686d226cabeef709c732f8e1","686e3143d251d99f750c8334","67d160272a11ce5155437ddf","","","","","","","","","","","","","","","","","win-only","1","g1:NE,g2:SW","1","0","1","336628.2","1878.1","5882.7","43845.5","2","4","4","6","2","-4","-7","0","0","0","3673.5","4000","-3000","[""down"",""left""]","{""num_key_presses"":8,""num_perfect"":5,""num_errors"":3,""num_randdir"":0,""num_randdir_good_moves"":0,""num_whilered"":0,""num_whileblue"":0,""num_blue"":4,""num_good_moves"":5}","[296.22232142857143,293.12857142857143,0.1,296.22232142857143,293.12857142857143,104,296.22232142857143,293.12857142857143,203.9,296.22232142857143,293.12857142857143,307.6,296.22232142857143,293.12857142857143,407.8,296.22232142857143,293.12857142857143,513.7,332.22232142857143,260.12857142857143,618.1,341.22232142857143,251.12857142857143,718.4,341.22232142857143,251.12857142857143,826.7,341.22232142857143,251.12857142857143,927.4,341.22232142857143,251.12857142857143,1027.3,297.22232142857143,293.12857142857143,1128,202.22232142857143,340.12857142857143,1228.3,171.22232142857143,360.12857142857143,1328.4,170.22232142857143,365.12857142857143,1429.2,168.22232142857143,371.12857142857143,1534.5,168.22232142857143,371.12857142857143,1638.3,168.22232142857143,371.12857142857143,1738.3,168.22232142857143,371.12857142857143,1843.2,168.22232142857143,371.12857142857143,1943.2,168.22232142857143,371.12857142857143,2047.5,168.22232142857143,371.12857142857143,2148.2,168.22232142857143,371.12857142857143,2248.2,168.22232142857143,371.12857142857143,2348.4,156.22232142857143,379.12857142857143,2452.9,154.22232142857143,387.12857142857143,2553.7,154.22232142857143,389.12857142857143,2653.9,152.22232142857143,419.12857142857143,2758.3,151.22232142857143,422.12857142857143,2863,151.22232142857143,423.12857142857143,2963.1,151.22232142857143,426.12857142857143,3067.5,144.22232142857143,445.12857142857143,3167.8,106.22232142857143,474.12857142857143,3268.2,79.22232142857143,494.12857142857143,3368.6,47.222321428571426,522.1285714285714,3473,41.222321428571426,541.1285714285714,3577.7,41.222321428571426,541.1285714285714,3691,41.222321428571426,541.1285714285714,3793.4,41.222321428571426,541.1285714285714,3898.2,41.222321428571426,541.1285714285714,3998.5]","[570.4,570.3,1000,0.1,-429.7,""error"",""-"",""-"",""no_move"",1772.8,1202.3,2567.4,1573,-2367.6,""error"",""-"",""-"",""no_move"",6693.2,4919.9,3331.1,2773.9,588.2,""smooth"",""left"",""left"",""good_move"",7050.4,356.5,2729.6,6694,-2373.1,""error"",""-"",""-"",""no_move"",14603.2,7552.6,2624.7,11268.3,710.3,""smooth"",""left"",""left"",""good_move"",16899.2,2295.5,1851.1,14603.7,444.4,""smooth"",""left"",""left"",""good_move"",20379,3479.6,2962.2,16899.5,517.4,""smooth"",""down"",""down"",""good_move"",27867.1,7487.5,2643.1,24548.4,675.6,""smooth"",""down"",""down"",""good_move""]","",""
"9294","","","","instructions","22","388412","0.0-8.0-2.0","92","1","2025-07-09 09:07:46","7701e855f2ef39aa3fd6c71abdc6918a","92.239.244.139","Mozilla/5.0 (Windows NT 10.0; Win64; x64) AppleWebKit/537.36 (KHTML, like Gecko) Chrome/137.0.0.0 Safari/537.36","WebKit","Chrome","137.0.0.0","Windows","10.0","https://app.prolific.com/","en-GB,en;q=0.9,en-US;q=0.8","67d160272a11ce5155437ddf","686d226cabeef709c732f8e1","686e3143d251d99f750c8334","67d160272a11ce5155437ddf","","[{""page_index"":0,""viewing_time"":9294}]","","","","","","","","","","","","","","","","","","","","","","","","","","","","","","","","","","","","","","","","","","",""
"","","","","ctl-task-cpt","23","422222","0.0-8.0-3.0","92","1","2025-07-09 09:07:46","7701e855f2ef39aa3fd6c71abdc6918a","92.239.244.139","Mozilla/5.0 (Windows NT 10.0; Win64; x64) AppleWebKit/537.36 (KHTML, like Gecko) Chrome/137.0.0.0 Safari/537.36","WebKit","Chrome","137.0.0.0","Windows","10.0","https://app.prolific.com/","en-GB,en;q=0.9,en-US;q=0.8","67d160272a11ce5155437ddf","686d226cabeef709c732f8e1","686e3143d251d99f750c8334","67d160272a11ce5155437ddf","","","","","","","","","","","","","","","","","win-only","1","g1:NE,g2:SW","0.35","0","3","392770.8","3232.1","7236.1","30791.8","2","4","8","6","2","8","7","7","0","0.05303030303030303","1200.3","4000","1020","[""down"",""left""]","{""num_key_presses"":7,""num_perfect"":2,""num_errors"":1,""num_randdir"":4,""num_randdir_good_moves"":4,""num_whilered"":0,""num_whileblue"":0,""num_blue"":1,""num_good_moves"":6}","[296.22232142857143,294.12857142857143,0.1,296.22232142857143,294.12857142857143,100.4,296.22232142857143,294.12857142857143,204.9,296.22232142857143,294.12857142857143,309,276.22232142857143,320.12857142857143,409.9,235.22232142857143,363.12857142857143,513.7,201.22232142857143,406.12857142857143,614.2,112.22232142857143,513.1285714285714,719.1,108.22232142857143,526.1285714285714,819.6,105.22232142857143,530.1285714285714,923.6,77.22232142857143,536.1285714285714,1024.5,54.222321428571426,538.1285714285714,1124.9,54.222321428571426,538.1285714285714,1229.6,54.222321428571426,538.1285714285714,1333.5,54.222321428571426,538.1285714285714,1434.4,54.222321428571426,538.1285714285714,1539.4,54.222321428571426,537.1285714285714,1639.4,54.222321428571426,535.1285714285714,1740.3,57.222321428571426,533.1285714285714,1843.3,100.22232142857143,516.1285714285714,1944.4,137.22232142857143,493.12857142857143,2044.6,152.22232142857143,481.12857142857143,2144.9,154.22232142857143,479.12857142857143,2245.2,154.22232142857143,479.12857142857143,2349.2,154.22232142857143,478.12857142857143,2454.2,155.22232142857143,476.12857142857143,2554.4,155.22232142857143,476.12857142857143,2659.4,155.22232142857143,476.12857142857143,2763.8,155.22232142857143,476.12857142857143,2864.2,155.22232142857143,476.12857142857143,2964.9,193.22232142857143,479.12857142857143,3068.6,210.22232142857143,487.12857142857143,3169.4,213.22232142857143,487.12857142857143,3269.6,213.22232142857143,487.12857142857143,3373.9,213.22232142857143,487.12857142857143,3479.2,213.22232142857143,487.12857142857143,3584.8,213.22232142857143,487.12857142857143,3685.1,213.22232142857143,487.12857142857143,3789.4,213.22232142857143,487.12857142857143,3889.8,213.22232142857143,487.12857142857143,3993.4]","[387,387,1000,0.1,-613.1,""error"",""-"",""-"",""no_move"",4690.7,4303.6,2784,1389.9,516.8,""oops"",""left"",""down"",""good_move"",8690.3,3999.4,3314.4,4690.9,685,""smooth"",""left"",""left"",""good_move"",11570.3,2879.8,2394.5,8690.5,485.3,""smooth"",""down"",""down"",""good_move"",14290.2,2719.7,2235.1,11570.5,484.6,""oops"",""left"",""down"",""good_move"",17434.6,3144.2,2817.1,14290.4,327.1,""oops"",""left"",""left"",""good_move"",23458.4,6023.7,2141.4,20809.8,507.2,""oops"",""left"",""left"",""good_move""]","",""
"18829","","","","instructions","24","441052","0.0-8.0-4.0","92","1","2025-07-09 09:07:46","7701e855f2ef39aa3fd6c71abdc6918a","92.239.244.139","Mozilla/5.0 (Windows NT 10.0; Win64; x64) AppleWebKit/537.36 (KHTML, like Gecko) Chrome/137.0.0.0 Safari/537.36","WebKit","Chrome","137.0.0.0","Windows","10.0","https://app.prolific.com/","en-GB,en;q=0.9,en-US;q=0.8","67d160272a11ce5155437ddf","686d226cabeef709c732f8e1","686e3143d251d99f750c8334","67d160272a11ce5155437ddf","","[{""page_index"":0,""viewing_time"":11493},{""page_index"":1,""viewing_time"":7336}]","","","","","","","","","","","","","","","","","","","","","","","","","","","","","","","","","","","","","","","","","","",""
"15279","","","{""green_ball"":[""Ball always moves in the direction I press""]}","survey-multi-select","25","456332","0.0-8.0-5.0-0.0","92","1","2025-07-09 09:07:46","7701e855f2ef39aa3fd6c71abdc6918a","92.239.244.139","Mozilla/5.0 (Windows NT 10.0; Win64; x64) AppleWebKit/537.36 (KHTML, like Gecko) Chrome/137.0.0.0 Safari/537.36","WebKit","Chrome","137.0.0.0","Windows","10.0","https://app.prolific.com/","en-GB,en;q=0.9,en-US;q=0.8","67d160272a11ce5155437ddf","686d226cabeef709c732f8e1","686e3143d251d99f750c8334","67d160272a11ce5155437ddf","","","[0]","","","","quiz","","","","","","","","","","","","","","","","","","","","","","","","","","","","","","","","","","","","","false",""
"3982","","<p align='center'><b>INCORRECT.</b> Usually the green ball moves in the indicated direction, but sometimes it shakes and moves randomly. </p>","0","html-button-response","26","460316","0.0-8.0-5.0-1.0","92","1","2025-07-09 09:07:46","7701e855f2ef39aa3fd6c71abdc6918a","92.239.244.139","Mozilla/5.0 (Windows NT 10.0; Win64; x64) AppleWebKit/537.36 (KHTML, like Gecko) Chrome/137.0.0.0 Safari/537.36","WebKit","Chrome","137.0.0.0","Windows","10.0","https://app.prolific.com/","en-GB,en;q=0.9,en-US;q=0.8","67d160272a11ce5155437ddf","686d226cabeef709c732f8e1","686e3143d251d99f750c8334","67d160272a11ce5155437ddf","","","","","","","","","","","","","","","","","","","","","","","","","","","","","","","","","","","","","","","","","","","","",""
"15998","","","{""green_ball"":[""Ball sometimes shakes and moves in a random direction""]}","survey-multi-select","27","476316","0.0-8.0-5.1-0.1","92","1","2025-07-09 09:07:46","7701e855f2ef39aa3fd6c71abdc6918a","92.239.244.139","Mozilla/5.0 (Windows NT 10.0; Win64; x64) AppleWebKit/537.36 (KHTML, like Gecko) Chrome/137.0.0.0 Safari/537.36","WebKit","Chrome","137.0.0.0","Windows","10.0","https://app.prolific.com/","en-GB,en;q=0.9,en-US;q=0.8","67d160272a11ce5155437ddf","686d226cabeef709c732f8e1","686e3143d251d99f750c8334","67d160272a11ce5155437ddf","","","[0]","","","","quiz","","","","","","","","","","","","","","","","","","","","","","","","","","","","","","","","","","","","","true",""
"1319","","<p align='center'><b>CORRECT!</b> Indeed, the green ball may sometimes shake and move in a random direction.</p>","0","html-button-response","28","477636","0.0-8.0-5.1-1.1","92","1","2025-07-09 09:07:46","7701e855f2ef39aa3fd6c71abdc6918a","92.239.244.139","Mozilla/5.0 (Windows NT 10.0; Win64; x64) AppleWebKit/537.36 (KHTML, like Gecko) Chrome/137.0.0.0 Safari/537.36","WebKit","Chrome","137.0.0.0","Windows","10.0","https://app.prolific.com/","en-GB,en;q=0.9,en-US;q=0.8","67d160272a11ce5155437ddf","686d226cabeef709c732f8e1","686e3143d251d99f750c8334","67d160272a11ce5155437ddf","","","","","","","","","","","","","","","","","","","","","","","","","","","","","","","","","","","","","","","","","","","","",""
"16191","","","{""yellow_ball"":[""Ball doesn‘t move and I get -1 penalty point""]}","survey-multi-select","29","493828","0.0-8.0-6.0-0.0","92","1","2025-07-09 09:07:46","7701e855f2ef39aa3fd6c71abdc6918a","92.239.244.139","Mozilla/5.0 (Windows NT 10.0; Win64; x64) AppleWebKit/537.36 (KHTML, like Gecko) Chrome/137.0.0.0 Safari/537.36","WebKit","Chrome","137.0.0.0","Windows","10.0","https://app.prolific.com/","en-GB,en;q=0.9,en-US;q=0.8","67d160272a11ce5155437ddf","686d226cabeef709c732f8e1","686e3143d251d99f750c8334","67d160272a11ce5155437ddf","","","[0]","","","","quiz","","","","","","","","","","","","","","","","","","","","","","","","","","","","","","","","","","","","","true",""
"895","","<p align='center'><b>CORRECT!</b> Indeed, the yellow ball never moves and you receive a penalty.</p>","0","html-button-response","30","494724","0.0-8.0-6.0-1.0","92","1","2025-07-09 09:07:46","7701e855f2ef39aa3fd6c71abdc6918a","92.239.244.139","Mozilla/5.0 (Windows NT 10.0; Win64; x64) AppleWebKit/537.36 (KHTML, like Gecko) Chrome/137.0.0.0 Safari/537.36","WebKit","Chrome","137.0.0.0","Windows","10.0","https://app.prolific.com/","en-GB,en;q=0.9,en-US;q=0.8","67d160272a11ce5155437ddf","686d226cabeef709c732f8e1","686e3143d251d99f750c8334","67d160272a11ce5155437ddf","","","","","","","","","","","","","","","","","","","","","","","","","","","","","","","","","","","","","","","","","","","","",""
"10087","","","{""blue_ball"":[""Ball doesn‘t move and I get -1 penalty point""]}","survey-multi-select","31","504812","0.0-8.0-7.0-0.0","92","1","2025-07-09 09:07:46","7701e855f2ef39aa3fd6c71abdc6918a","92.239.244.139","Mozilla/5.0 (Windows NT 10.0; Win64; x64) AppleWebKit/537.36 (KHTML, like Gecko) Chrome/137.0.0.0 Safari/537.36","WebKit","Chrome","137.0.0.0","Windows","10.0","https://app.prolific.com/","en-GB,en;q=0.9,en-US;q=0.8","67d160272a11ce5155437ddf","686d226cabeef709c732f8e1","686e3143d251d99f750c8334","67d160272a11ce5155437ddf","","","[0]","","","","quiz","","","","","","","","","","","","","","","","","","","","","","","","","","","","","","","","","","","","","false",""
"2102","","<p align='center'><b>INCORRECT.</b> The blue ball always shakes and moves randomly.</p>","0","html-button-response","32","506915","0.0-8.0-7.0-1.0","92","1","2025-07-09 09:07:46","7701e855f2ef39aa3fd6c71abdc6918a","92.239.244.139","Mozilla/5.0 (Windows NT 10.0; Win64; x64) AppleWebKit/537.36 (KHTML, like Gecko) Chrome/137.0.0.0 Safari/537.36","WebKit","Chrome","137.0.0.0","Windows","10.0","https://app.prolific.com/","en-GB,en;q=0.9,en-US;q=0.8","67d160272a11ce5155437ddf","686d226cabeef709c732f8e1","686e3143d251d99f750c8334","67d160272a11ce5155437ddf","","","","","","","","","","","","","","","","","","","","","","","","","","","","","","","","","","","","","","","","","","","","",""
"7303","","","{""blue_ball"":[""Ball always shakes and moves in a random direction""]}","survey-multi-select","33","514220","0.0-8.0-7.1-0.1","92","1","2025-07-09 09:07:46","7701e855f2ef39aa3fd6c71abdc6918a","92.239.244.139","Mozilla/5.0 (Windows NT 10.0; Win64; x64) AppleWebKit/537.36 (KHTML, like Gecko) Chrome/137.0.0.0 Safari/537.36","WebKit","Chrome","137.0.0.0","Windows","10.0","https://app.prolific.com/","en-GB,en;q=0.9,en-US;q=0.8","67d160272a11ce5155437ddf","686d226cabeef709c732f8e1","686e3143d251d99f750c8334","67d160272a11ce5155437ddf","","","[0]","","","","quiz","","","","","","","","","","","","","","","","","","","","","","","","","","","","","","","","","","","","","true",""
"1399","","<p align='center'><b>CORRECT!</b> Indeed, the blue ball always shakes and moves in a random direction. Also there is a penalty of -1 point.</p>","0","html-button-response","34","515620","0.0-8.0-7.1-1.1","92","1","2025-07-09 09:07:46","7701e855f2ef39aa3fd6c71abdc6918a","92.239.244.139","Mozilla/5.0 (Windows NT 10.0; Win64; x64) AppleWebKit/537.36 (KHTML, like Gecko) Chrome/137.0.0.0 Safari/537.36","WebKit","Chrome","137.0.0.0","Windows","10.0","https://app.prolific.com/","en-GB,en;q=0.9,en-US;q=0.8","67d160272a11ce5155437ddf","686d226cabeef709c732f8e1","686e3143d251d99f750c8334","67d160272a11ce5155437ddf","","","","","","","","","","","","","","","","","","","","","","","","","","","","","","","","","","","","","","","","","","","","",""
"8327","","","{""bonus"":[""When I reach 50% of points""]}","survey-multi-select","35","523948","0.0-8.0-8.0-0.0","92","1","2025-07-09 09:07:46","7701e855f2ef39aa3fd6c71abdc6918a","92.239.244.139","Mozilla/5.0 (Windows NT 10.0; Win64; x64) AppleWebKit/537.36 (KHTML, like Gecko) Chrome/137.0.0.0 Safari/537.36","WebKit","Chrome","137.0.0.0","Windows","10.0","https://app.prolific.com/","en-GB,en;q=0.9,en-US;q=0.8","67d160272a11ce5155437ddf","686d226cabeef709c732f8e1","686e3143d251d99f750c8334","67d160272a11ce5155437ddf","","","[0]","","","","quiz","","","","","","","","","","","","","","","","","","","","","","","","","","","","","","","","","","","","","true",""
"1455","","<p align='center'><b>CORRECT!</b> Indeed, you receive 2 pounds extra when you reach 50% of points.</p>","0","html-button-response","36","525404","0.0-8.0-8.0-1.0","92","1","2025-07-09 09:07:46","7701e855f2ef39aa3fd6c71abdc6918a","92.239.244.139","Mozilla/5.0 (Windows NT 10.0; Win64; x64) AppleWebKit/537.36 (KHTML, like Gecko) Chrome/137.0.0.0 Safari/537.36","WebKit","Chrome","137.0.0.0","Windows","10.0","https://app.prolific.com/","en-GB,en;q=0.9,en-US;q=0.8","67d160272a11ce5155437ddf","686d226cabeef709c732f8e1","686e3143d251d99f750c8334","67d160272a11ce5155437ddf","","","","","","","","","","","","","","","","","","","","","","","","","","","","","","","","","","","","","","","","","","","","",""
"3703","","","","instructions","37","529107","0.0-8.0-9.0","92","1","2025-07-09 09:07:46","7701e855f2ef39aa3fd6c71abdc6918a","92.239.244.139","Mozilla/5.0 (Windows NT 10.0; Win64; x64) AppleWebKit/537.36 (KHTML, like Gecko) Chrome/137.0.0.0 Safari/537.36","WebKit","Chrome","137.0.0.0","Windows","10.0","https://app.prolific.com/","en-GB,en;q=0.9,en-US;q=0.8","67d160272a11ce5155437ddf","686d226cabeef709c732f8e1","686e3143d251d99f750c8334","67d160272a11ce5155437ddf","","[{""page_index"":0,""viewing_time"":3703}]","","","","","","","","","","","","","","","","","","","","","","","","","","","","","","","","","","","","","","","","","","",""
"8039","","<p>Before you start with this game please answer the following three questions yourself. </p>
  <p>Through this game, we measure several aspects of your cognitive performance, such as reaction times, multi-tasking capabilities </p>
  <p>and the ability to assess the situation you are in.</p>
  <p></p>
  <p><b>How good do you usually are in such tasks?</b></p>","66","html-slider-response","38","537147","0.0-9.0-0.0","92","1","2025-07-09 09:07:46","7701e855f2ef39aa3fd6c71abdc6918a","92.239.244.139","Mozilla/5.0 (Windows NT 10.0; Win64; x64) AppleWebKit/537.36 (KHTML, like Gecko) Chrome/137.0.0.0 Safari/537.36","WebKit","Chrome","137.0.0.0","Windows","10.0","https://app.prolific.com/","en-GB,en;q=0.9,en-US;q=0.8","67d160272a11ce5155437ddf","686d226cabeef709c732f8e1","686e3143d251d99f750c8334","67d160272a11ce5155437ddf","2025-07-09T09:16:46.676Z","","","","","","PreSkillQ","","","","","","","","","","","","","","","","","","","","","","","","","","","","","","","","","","","","","","50"
"3047","","<div style=""width:500px;"">
  <p>How well do you think you will perform in this task compared to other participants?</p>
  </div>","87","html-slider-response","39","540196","0.0-9.0-1.0","92","1","2025-07-09 09:07:46","7701e855f2ef39aa3fd6c71abdc6918a","92.239.244.139","Mozilla/5.0 (Windows NT 10.0; Win64; x64) AppleWebKit/537.36 (KHTML, like Gecko) Chrome/137.0.0.0 Safari/537.36","WebKit","Chrome","137.0.0.0","Windows","10.0","https://app.prolific.com/","en-GB,en;q=0.9,en-US;q=0.8","67d160272a11ce5155437ddf","686d226cabeef709c732f8e1","686e3143d251d99f750c8334","67d160272a11ce5155437ddf","2025-07-09T09:16:49.724Z","","","","","","PrePerfQ","","","","","","","","","","","","","","","","","","","","","","","","","","","","","","","","","","","","","","50"
"11399","","<div style=""width:500px;"">
  <p>What best describes how you currently feel?</p>
  </div>","70","html-slider-response","40","551595","0.0-9.0-2.0","92","1","2025-07-09 09:07:46","7701e855f2ef39aa3fd6c71abdc6918a","92.239.244.139","Mozilla/5.0 (Windows NT 10.0; Win64; x64) AppleWebKit/537.36 (KHTML, like Gecko) Chrome/137.0.0.0 Safari/537.36","WebKit","Chrome","137.0.0.0","Windows","10.0","https://app.prolific.com/","en-GB,en;q=0.9,en-US;q=0.8","67d160272a11ce5155437ddf","686d226cabeef709c732f8e1","686e3143d251d99f750c8334","67d160272a11ce5155437ddf","2025-07-09T09:17:01.123Z","","","","","","PreMotivationQ","","","","","","","","","","","","","","","","","","","","","","","","","","","","","","","","","","","","","","50"
"","","","","ctl-task-cpt","41","582869","0.0-10.0-0.0","92","1","2025-07-09 09:07:46","7701e855f2ef39aa3fd6c71abdc6918a","92.239.244.139","Mozilla/5.0 (Windows NT 10.0; Win64; x64) AppleWebKit/537.36 (KHTML, like Gecko) Chrome/137.0.0.0 Safari/537.36","WebKit","Chrome","137.0.0.0","Windows","10.0","https://app.prolific.com/","en-GB,en;q=0.9,en-US;q=0.8","67d160272a11ce5155437ddf","686d226cabeef709c732f8e1","686e3143d251d99f750c8334","67d160272a11ce5155437ddf","2025-07-09T09:17:32.397Z","","","","","","","","","","","","","","","","win-only","1","g1:NE,g2:SW","1","1","0","555955.3","3631.3","8635.7","28256.5","1","4","8","6","2","8","8","8","0","0.06060606060606061","840.2","3000","175","[""down"",""left""]","{""num_key_presses"":6,""num_perfect"":6,""num_errors"":0,""num_randdir"":0,""num_randdir_good_moves"":0,""num_whilered"":0,""num_whileblue"":0,""num_blue"":1,""num_good_moves"":6}","[290.22232142857143,291.12857142857143,0.2,290.22232142857143,291.12857142857143,105,290.22232142857143,291.12857142857143,209.6,269.22232142857143,340.12857142857143,315.3,188.22232142857143,436.12857142857143,419.9,85.22232142857143,517.1285714285714,519.9,67.22232142857143,528.1285714285714,625.3,57.222321428571426,533.1285714285714,730.9,56.222321428571426,533.1285714285714,834.8,56.222321428571426,533.1285714285714,939.5,56.222321428571426,533.1285714285714,1040.1,156.22232142857143,482.12857142857143,1144.2,412.22232142857143,419.12857142857143,1244.5,436.22232142857143,409.12857142857143,1344.9,443.22232142857143,407.12857142857143,1449.8,445.22232142857143,406.12857142857143,1554.9,445.22232142857143,406.12857142857143,1655.1,445.22232142857143,406.12857142857143,1759.1,445.22232142857143,406.12857142857143,1859.4,540.2223214285714,426.12857142857143,1959.8,620.2223214285714,437.12857142857143,2059.8,627.2223214285714,435.12857142857143,2165,639.2223214285714,426.12857142857143,2270.4,639.2223214285714,426.12857142857143,2374.8,639.2223214285714,426.12857142857143,2475.1,639.2223214285714,426.12857142857143,2575.3,639.2223214285714,426.12857142857143,2678.9,639.2223214285714,426.12857142857143,2779.2,639.2223214285714,426.12857142857143,2879.4,639.2223214285714,426.12857142857143,2979.5,639.2223214285714,426.12857142857143,3084.7,639.2223214285714,426.12857142857143,3190.1,639.2223214285714,426.12857142857143,3290.2,639.2223214285714,426.12857142857143,3394.4,639.2223214285714,426.12857142857143,3495.3,639.2223214285714,426.12857142857143,3599.3,639.2223214285714,426.12857142857143,3705.2,639.2223214285714,426.12857142857143,3809.3,639.2223214285714,426.12857142857143,3910,639.2223214285714,426.12857142857143,4010.2,639.2223214285714,426.12857142857143,4114.6,640.2223214285714,426.12857142857143,4215.2,640.2223214285714,425.12857142857143,4320.8,640.2223214285714,425.12857142857143,4424.5,639.2223214285714,424.12857142857143,4524.7,639.2223214285714,424.12857142857143,4630.2,637.2223214285714,423.12857142857143,4734.1,637.2223214285714,423.12857142857143,4835,637.2223214285714,423.12857142857143,4939.8]","[1467.4,1467.4,1000,0,467.4,""smooth"",""left"",""left"",""good_move"",4098.3,2630.6,2037.6,1467.7,593,""smooth"",""down"",""down"",""good_move"",7170.3,3071.7,2615.4,4098.6,456.3,""smooth"",""left"",""left"",""good_move"",14426.2,7255.7,3194,10830.5,401.7,""smooth"",""down"",""down"",""good_move"",17426.2,2999.8,2431.4,14426.4,568.4,""smooth"",""down"",""down"",""good_move"",19530.3,2103.9,1734.8,17426.4,369.1,""smooth"",""left"",""left"",""good_move""]","",""
"10821","","<div style=""width:500px;"">
  <p>What determined the result of this run?</p>
  </div>","99","html-slider-response","42","593692","0.0-10.0-1.0","92","1","2025-07-09 09:07:46","7701e855f2ef39aa3fd6c71abdc6918a","92.239.244.139","Mozilla/5.0 (Windows NT 10.0; Win64; x64) AppleWebKit/537.36 (KHTML, like Gecko) Chrome/137.0.0.0 Safari/537.36","WebKit","Chrome","137.0.0.0","Windows","10.0","https://app.prolific.com/","en-GB,en;q=0.9,en-US;q=0.8","67d160272a11ce5155437ddf","686d226cabeef709c732f8e1","686e3143d251d99f750c8334","67d160272a11ce5155437ddf","2025-07-09T09:17:43.220Z","","","","","","AttribQ","","","","","","","","","","","","","","","","","","","","","","","","","","","","","","","","","","","","","","50"
"3527","","<div style=""width:500px;"">
  <p>How much control did you have over the ball?</p>
  </div>","100","html-slider-response","43","597219","0.0-10.0-2.0","92","1","2025-07-09 09:07:46","7701e855f2ef39aa3fd6c71abdc6918a","92.239.244.139","Mozilla/5.0 (Windows NT 10.0; Win64; x64) AppleWebKit/537.36 (KHTML, like Gecko) Chrome/137.0.0.0 Safari/537.36","WebKit","Chrome","137.0.0.0","Windows","10.0","https://app.prolific.com/","en-GB,en;q=0.9,en-US;q=0.8","67d160272a11ce5155437ddf","686d226cabeef709c732f8e1","686e3143d251d99f750c8334","67d160272a11ce5155437ddf","2025-07-09T09:17:46.747Z","","","","","","ControlQ","","","","","","","","","","","","","","","","","","","","","","","","","","","","","","","","","","","","","","50"
"2759","","<div style=""width:500px;"">
  <p>How would you describe your current emotional state?</p>
  </div>","15","html-slider-response","44","599979","0.0-10.0-3.0","92","1","2025-07-09 09:07:46","7701e855f2ef39aa3fd6c71abdc6918a","92.239.244.139","Mozilla/5.0 (Windows NT 10.0; Win64; x64) AppleWebKit/537.36 (KHTML, like Gecko) Chrome/137.0.0.0 Safari/537.36","WebKit","Chrome","137.0.0.0","Windows","10.0","https://app.prolific.com/","en-GB,en;q=0.9,en-US;q=0.8","67d160272a11ce5155437ddf","686d226cabeef709c732f8e1","686e3143d251d99f750c8334","67d160272a11ce5155437ddf","2025-07-09T09:17:49.507Z","","","","","","StressQ","","","","","","","","","","","","","","","","","","","","","","","","","","","","","","","","","","","","","","50"
"4039","","<div style=""width:500px;"">
  <p>What best describes how you currently feel?</p>
  </div>","84","html-slider-response","45","604019","0.0-10.0-4.0","92","1","2025-07-09 09:07:46","7701e855f2ef39aa3fd6c71abdc6918a","92.239.244.139","Mozilla/5.0 (Windows NT 10.0; Win64; x64) AppleWebKit/537.36 (KHTML, like Gecko) Chrome/137.0.0.0 Safari/537.36","WebKit","Chrome","137.0.0.0","Windows","10.0","https://app.prolific.com/","en-GB,en;q=0.9,en-US;q=0.8","67d160272a11ce5155437ddf","686d226cabeef709c732f8e1","686e3143d251d99f750c8334","67d160272a11ce5155437ddf","2025-07-09T09:17:53.547Z","","","","","","MotivationQ","","","","","","","","","","","","","","","","","","","","","","","","","","","","","","","","","","","","","","50"
"","","","","ctl-task-cpt","46","641563","0.0-10.0-0.1","92","1","2025-07-09 09:07:46","7701e855f2ef39aa3fd6c71abdc6918a","92.239.244.139","Mozilla/5.0 (Windows NT 10.0; Win64; x64) AppleWebKit/537.36 (KHTML, like Gecko) Chrome/137.0.0.0 Safari/537.36","WebKit","Chrome","137.0.0.0","Windows","10.0","https://app.prolific.com/","en-GB,en;q=0.9,en-US;q=0.8","67d160272a11ce5155437ddf","686d226cabeef709c732f8e1","686e3143d251d99f750c8334","67d160272a11ce5155437ddf","2025-07-09T09:18:31.091Z","","","","","","","","","","","","","","","","win-only","3","g1:SW,g2:NE","0.9","2","0","608379.1","2032.3","7035.5","34526.6","1","4","4","6","1","1","1","9","8","0.06818181818181818","1183.6","3000","365","[""down"",""left""]","{""num_key_presses"":6,""num_perfect"":5,""num_errors"":0,""num_randdir"":1,""num_randdir_good_moves"":0,""num_whilered"":0,""num_whileblue"":0,""num_blue"":3,""num_good_moves"":5}","[293.22232142857143,301.12857142857143,0.2,293.22232142857143,301.12857142857143,108.1,293.22232142857143,301.12857142857143,210.2,293.22232142857143,301.12857142857143,313.9,267.22232142857143,351.12857142857143,418.4,223.22232142857143,411.12857142857143,523.8,168.22232142857143,459.12857142857143,628.1,113.22232142857143,498.12857142857143,734.3,92.22232142857143,516.1285714285714,838.2,86.22232142857143,521.1285714285714,943.4,66.22232142857143,529.1285714285714,1043.8,64.22232142857143,530.1285714285714,1143.8,64.22232142857143,530.1285714285714,1244.6,64.22232142857143,530.1285714285714,1348.9,64.22232142857143,530.1285714285714,1453.4,64.22232142857143,530.1285714285714,1558.2,64.22232142857143,530.1285714285714,1658.2,64.22232142857143,530.1285714285714,1758.5,64.22232142857143,530.1285714285714,1858.6,198.22232142857143,541.1285714285714,1964,367.22232142857143,526.1285714285714,2064.4,410.22232142857143,511.12857142857143,2170.1,500.22232142857143,495.12857142857143,2273.7,548.2223214285714,485.12857142857143,2375.2,565.2223214285714,483.12857142857143,2478.3,565.2223214285714,483.12857142857143,2578.3,565.2223214285714,483.12857142857143,2679.5,565.2223214285714,483.12857142857143,2783.4,565.2223214285714,483.12857142857143,2883.5,565.2223214285714,483.12857142857143,2983.5,565.2223214285714,483.12857142857143,3089.2,565.2223214285714,483.12857142857143,3194.1,565.2223214285714,483.12857142857143,3298.9,565.2223214285714,483.12857142857143,3404.5,565.2223214285714,483.12857142857143,3508.4,565.2223214285714,483.12857142857143,3608.4,565.2223214285714,483.12857142857143,3714.1,565.2223214285714,483.12857142857143,3818.1,565.2223214285714,483.12857142857143,3924.1,565.2223214285714,483.12857142857143,4024.3,565.2223214285714,483.12857142857143,4124.5,565.2223214285714,483.12857142857143,4228.1,565.2223214285714,483.12857142857143,4328.1,565.2223214285714,483.12857142857143,4429,565.2223214285714,483.12857142857143,4533.2,565.2223214285714,483.12857142857143,4638.4,565.2223214285714,483.12857142857143,4738.4,565.2223214285714,483.12857142857143,4843,565.2223214285714,483.12857142857143,4945.1]","[1436.8,1436.8,1000,0,436.8,""smooth"",""left"",""left"",""good_move"",4330.6,2893.6,2379.1,1437,514.5,""smooth"",""left"",""left"",""good_move"",15374.4,11043.6,3026.5,11889.9,458,""oops"",""down"",""right"",""bad_move"",18482.6,3107.9,2654.7,15374.7,453.2,""smooth"",""down"",""down"",""good_move"",21162.6,2679.8,2245.3,18482.8,434.5,""smooth"",""down"",""down"",""good_move"",27402.6,6239.9,2558.1,24477,367.6,""smooth"",""left"",""left"",""good_move""]","",""
"30783","","<div style=""width:500px;"">
  <p>What determined the result of this run?</p>
  </div>","95","html-slider-response","47","672348","0.0-10.0-1.1","92","1","2025-07-09 09:07:46","7701e855f2ef39aa3fd6c71abdc6918a","92.239.244.139","Mozilla/5.0 (Windows NT 10.0; Win64; x64) AppleWebKit/537.36 (KHTML, like Gecko) Chrome/137.0.0.0 Safari/537.36","WebKit","Chrome","137.0.0.0","Windows","10.0","https://app.prolific.com/","en-GB,en;q=0.9,en-US;q=0.8","67d160272a11ce5155437ddf","686d226cabeef709c732f8e1","686e3143d251d99f750c8334","67d160272a11ce5155437ddf","2025-07-09T09:19:01.876Z","","","","","","AttribQ","","","","","","","","","","","","","","","","","","","","","","","","","","","","","","","","","","","","","","50"
"4167","","<div style=""width:500px;"">
  <p>How much control did you have over the ball?</p>
  </div>","81","html-slider-response","48","676516","0.0-10.0-2.1","92","1","2025-07-09 09:07:46","7701e855f2ef39aa3fd6c71abdc6918a","92.239.244.139","Mozilla/5.0 (Windows NT 10.0; Win64; x64) AppleWebKit/537.36 (KHTML, like Gecko) Chrome/137.0.0.0 Safari/537.36","WebKit","Chrome","137.0.0.0","Windows","10.0","https://app.prolific.com/","en-GB,en;q=0.9,en-US;q=0.8","67d160272a11ce5155437ddf","686d226cabeef709c732f8e1","686e3143d251d99f750c8334","67d160272a11ce5155437ddf","2025-07-09T09:19:06.044Z","","","","","","ControlQ","","","","","","","","","","","","","","","","","","","","","","","","","","","","","","","","","","","","","","50"
"2831","","<div style=""width:500px;"">
  <p>How would you describe your current emotional state?</p>
  </div>","16","html-slider-response","49","679347","0.0-10.0-3.1","92","1","2025-07-09 09:07:46","7701e855f2ef39aa3fd6c71abdc6918a","92.239.244.139","Mozilla/5.0 (Windows NT 10.0; Win64; x64) AppleWebKit/537.36 (KHTML, like Gecko) Chrome/137.0.0.0 Safari/537.36","WebKit","Chrome","137.0.0.0","Windows","10.0","https://app.prolific.com/","en-GB,en;q=0.9,en-US;q=0.8","67d160272a11ce5155437ddf","686d226cabeef709c732f8e1","686e3143d251d99f750c8334","67d160272a11ce5155437ddf","2025-07-09T09:19:08.875Z","","","","","","StressQ","","","","","","","","","","","","","","","","","","","","","","","","","","","","","","","","","","","","","","50"
"2951","","<div style=""width:500px;"">
  <p>What best describes how you currently feel?</p>
  </div>","72","html-slider-response","50","682299","0.0-10.0-4.1","92","1","2025-07-09 09:07:46","7701e855f2ef39aa3fd6c71abdc6918a","92.239.244.139","Mozilla/5.0 (Windows NT 10.0; Win64; x64) AppleWebKit/537.36 (KHTML, like Gecko) Chrome/137.0.0.0 Safari/537.36","WebKit","Chrome","137.0.0.0","Windows","10.0","https://app.prolific.com/","en-GB,en;q=0.9,en-US;q=0.8","67d160272a11ce5155437ddf","686d226cabeef709c732f8e1","686e3143d251d99f750c8334","67d160272a11ce5155437ddf","2025-07-09T09:19:11.828Z","","","","","","MotivationQ","","","","","","","","","","","","","","","","","","","","","","","","","","","","","","","","","","","","","","50"
"","","","","ctl-task-cpt","51","719263","0.0-10.0-0.2","92","1","2025-07-09 09:07:46","7701e855f2ef39aa3fd6c71abdc6918a","92.239.244.139","Mozilla/5.0 (Windows NT 10.0; Win64; x64) AppleWebKit/537.36 (KHTML, like Gecko) Chrome/137.0.0.0 Safari/537.36","WebKit","Chrome","137.0.0.0","Windows","10.0","https://app.prolific.com/","en-GB,en;q=0.9,en-US;q=0.8","67d160272a11ce5155437ddf","686d226cabeef709c732f8e1","686e3143d251d99f750c8334","67d160272a11ce5155437ddf","2025-07-09T09:19:48.791Z","","","","","","","","","","","","","","","","win-only","0","g1:NW,g2:SE","0.8","3","0","686659.5","3238.4","8240.6","33945.5","1","4","8","6","2","8","7","16","9","0.12121212121212122","1233.2","3000","15","[""down"",""right""]","{""num_key_presses"":8,""num_perfect"":5,""num_errors"":1,""num_randdir"":2,""num_randdir_good_moves"":2,""num_whilered"":0,""num_whileblue"":1,""num_blue"":2,""num_good_moves"":7}","[290.22232142857143,299.12857142857143,0.1,290.22232142857143,299.12857142857143,104.9,273.22232142857143,314.12857142857143,206.8,214.22232142857143,380.12857142857143,308.7,196.22232142857143,408.12857142857143,412.1,208.22232142857143,443.12857142857143,512.1,373.22232142857143,500.12857142857143,612.5,446.22232142857143,506.12857142857143,717.3,450.22232142857143,506.12857142857143,817.3,477.22232142857143,514.1285714285714,918.1,509.22232142857143,524.1285714285714,1022.8,518.2223214285714,527.1285714285714,1124.4,518.2223214285714,527.1285714285714,1228.1,518.2223214285714,527.1285714285714,1328.2,518.2223214285714,527.1285714285714,1433.1,518.2223214285714,527.1285714285714,1537.8,518.2223214285714,527.1285714285714,1638,518.2223214285714,527.1285714285714,1742.6,518.2223214285714,527.1285714285714,1843.6,518.2223214285714,527.1285714285714,1944,518.2223214285714,527.1285714285714,2047.2,600.2223214285714,530.1285714285714,2147.2,718.2223214285714,520.1285714285714,2247.3,732.2223214285714,503.12857142857143,2347.5,732.2223214285714,500.12857142857143,2448.3,732.2223214285714,500.12857142857143,2552.7,732.2223214285714,498.12857142857143,2652.7,732.2223214285714,498.12857142857143,2752.7,732.2223214285714,498.12857142857143,2852.9,732.2223214285714,498.12857142857143,2958,732.2223214285714,498.12857142857143,3063.9,732.2223214285714,498.12857142857143,3164.9,732.2223214285714,498.12857142857143,3267,732.2223214285714,498.12857142857143,3367.4,732.2223214285714,498.12857142857143,3467.8,732.2223214285714,498.12857142857143,3572.6,732.2223214285714,498.12857142857143,3672.6,732.2223214285714,498.12857142857143,3779.3,732.2223214285714,498.12857142857143,3883.8,732.2223214285714,498.12857142857143,3986.9,732.2223214285714,498.12857142857143,4087.4,732.2223214285714,497.12857142857143,4188,732.2223214285714,497.12857142857143,4292.8,732.2223214285714,497.12857142857143,4397.8,732.2223214285714,497.12857142857143,4498.1,732.2223214285714,497.12857142857143,4598.1,732.2223214285714,497.12857142857143,4702.3,732.2223214285714,497.12857142857143,4804.7,732.2223214285714,497.12857142857143,4908.1]","[1421.1,1421.1,1000,0,421.1,""smooth"",""right"",""right"",""good_move"",4213.1,2791.7,2308.4,1421.4,483.3,""smooth"",""right"",""right"",""good_move"",11365,7151.7,2609.5,8385.2,370.3,""smooth"",""down"",""down"",""good_move"",14725.4,3360.2,2971,11365.2,389.2,""oops"",""down"",""down"",""good_move"",17210.2,2484.6,2054.2,14725.6,430.4,""while_blue"",""down"",""up"",""bad_move"",20469.8,3259.3,2637.6,17210.5,621.7,""smooth"",""down"",""down"",""good_move"",23045.1,2575.1,2212.7,20470,362.4,""oops"",""down"",""down"",""good_move"",25613.2,2568,2195.7,23045.2,372.3,""smooth"",""right"",""right"",""good_move""]","",""
"2924","","<div style=""width:500px;"">
  <p>What determined the result of this run?</p>
  </div>","67","html-slider-response","52","722188","0.0-10.0-1.2","92","1","2025-07-09 09:07:46","7701e855f2ef39aa3fd6c71abdc6918a","92.239.244.139","Mozilla/5.0 (Windows NT 10.0; Win64; x64) AppleWebKit/537.36 (KHTML, like Gecko) Chrome/137.0.0.0 Safari/537.36","WebKit","Chrome","137.0.0.0","Windows","10.0","https://app.prolific.com/","en-GB,en;q=0.9,en-US;q=0.8","67d160272a11ce5155437ddf","686d226cabeef709c732f8e1","686e3143d251d99f750c8334","67d160272a11ce5155437ddf","2025-07-09T09:19:51.716Z","","","","","","AttribQ","","","","","","","","","","","","","","","","","","","","","","","","","","","","","","","","","","","","","","50"
"29447","","<div style=""width:500px;"">
  <p>How much control did you have over the ball?</p>
  </div>","71","html-slider-response","53","751636","0.0-10.0-2.2","92","1","2025-07-09 09:07:46","7701e855f2ef39aa3fd6c71abdc6918a","92.239.244.139","Mozilla/5.0 (Windows NT 10.0; Win64; x64) AppleWebKit/537.36 (KHTML, like Gecko) Chrome/137.0.0.0 Safari/537.36","WebKit","Chrome","137.0.0.0","Windows","10.0","https://app.prolific.com/","en-GB,en;q=0.9,en-US;q=0.8","67d160272a11ce5155437ddf","686d226cabeef709c732f8e1","686e3143d251d99f750c8334","67d160272a11ce5155437ddf","2025-07-09T09:20:21.164Z","","","","","","ControlQ","","","","","","","","","","","","","","","","","","","","","","","","","","","","","","","","","","","","","","50"
"2991","","<div style=""width:500px;"">
  <p>How would you describe your current emotional state?</p>
  </div>","15","html-slider-response","54","754627","0.0-10.0-3.2","92","1","2025-07-09 09:07:46","7701e855f2ef39aa3fd6c71abdc6918a","92.239.244.139","Mozilla/5.0 (Windows NT 10.0; Win64; x64) AppleWebKit/537.36 (KHTML, like Gecko) Chrome/137.0.0.0 Safari/537.36","WebKit","Chrome","137.0.0.0","Windows","10.0","https://app.prolific.com/","en-GB,en;q=0.9,en-US;q=0.8","67d160272a11ce5155437ddf","686d226cabeef709c732f8e1","686e3143d251d99f750c8334","67d160272a11ce5155437ddf","2025-07-09T09:20:24.156Z","","","","","","StressQ","","","","","","","","","","","","","","","","","","","","","","","","","","","","","","","","","","","","","","50"
"2471","","<div style=""width:500px;"">
  <p>What best describes how you currently feel?</p>
  </div>","69","html-slider-response","55","757099","0.0-10.0-4.2","92","1","2025-07-09 09:07:46","7701e855f2ef39aa3fd6c71abdc6918a","92.239.244.139","Mozilla/5.0 (Windows NT 10.0; Win64; x64) AppleWebKit/537.36 (KHTML, like Gecko) Chrome/137.0.0.0 Safari/537.36","WebKit","Chrome","137.0.0.0","Windows","10.0","https://app.prolific.com/","en-GB,en;q=0.9,en-US;q=0.8","67d160272a11ce5155437ddf","686d226cabeef709c732f8e1","686e3143d251d99f750c8334","67d160272a11ce5155437ddf","2025-07-09T09:20:26.627Z","","","","","","MotivationQ","","","","","","","","","","","","","","","","","","","","","","","","","","","","","","","","","","","","","","50"
"","","","","ctl-task-cpt","56","787084","0.0-10.0-0.3","92","1","2025-07-09 09:07:46","7701e855f2ef39aa3fd6c71abdc6918a","92.239.244.139","Mozilla/5.0 (Windows NT 10.0; Win64; x64) AppleWebKit/537.36 (KHTML, like Gecko) Chrome/137.0.0.0 Safari/537.36","WebKit","Chrome","137.0.0.0","Windows","10.0","https://app.prolific.com/","en-GB,en;q=0.9,en-US;q=0.8","67d160272a11ce5155437ddf","686d226cabeef709c732f8e1","686e3143d251d99f750c8334","67d160272a11ce5155437ddf","2025-07-09T09:20:56.612Z","","","","","","","","","","","","","","","","win-only","2","g1:SE,g2:NW","0.7","4","0","761459.2","2807.5","7810.7","26965.5","1","4","4","6","1","-1","-2","14","16","0.10606060606060606","1224.2","3000","-3005","[""down"",""right""]","{""num_key_presses"":7,""num_perfect"":3,""num_errors"":1,""num_randdir"":3,""num_randdir_good_moves"":0,""num_whilered"":0,""num_whileblue"":0,""num_blue"":0,""num_good_moves"":3}","[298.22232142857143,294.12857142857143,0.2,298.22232142857143,294.12857142857143,103.4,298.22232142857143,294.12857142857143,204.1,298.22232142857143,294.12857142857143,308.6,298.22232142857143,294.12857142857143,414,311.22232142857143,335.12857142857143,516.4,340.22232142857143,376.12857142857143,618.2,436.22232142857143,476.12857142857143,718.5,479.22232142857143,504.12857142857143,822.9,482.22232142857143,505.12857142857143,928.3,510.22232142857143,521.1285714285714,1032.8,533.2223214285714,526.1285714285714,1133.8,533.2223214285714,526.1285714285714,1238.7,533.2223214285714,526.1285714285714,1339.1,533.2223214285714,526.1285714285714,1444.4,533.2223214285714,526.1285714285714,1548,536.2223214285714,526.1285714285714,1648,643.2223214285714,496.12857142857143,1749,676.2223214285714,481.12857142857143,1853.4,676.2223214285714,481.12857142857143,1954.2,676.2223214285714,481.12857142857143,2058.5,676.2223214285714,481.12857142857143,2163.1,676.2223214285714,481.12857142857143,2263.6,676.2223214285714,481.12857142857143,2363.8,676.2223214285714,479.12857142857143,2468.1,676.2223214285714,479.12857142857143,2568.2,676.2223214285714,479.12857142857143,2668.2,676.2223214285714,479.12857142857143,2771.7,676.2223214285714,479.12857142857143,2874.2,676.2223214285714,479.12857142857143,2975.8,676.2223214285714,479.12857142857143,3079,676.2223214285714,477.12857142857143,3179.2,675.2223214285714,477.12857142857143,3279.6,675.2223214285714,477.12857142857143,3379.8,675.2223214285714,477.12857142857143,3484.1,675.2223214285714,477.12857142857143,3587.9,675.2223214285714,476.12857142857143,3688.2,675.2223214285714,476.12857142857143,3789.1,675.2223214285714,476.12857142857143,3893.4,675.2223214285714,476.12857142857143,3993.6,675.2223214285714,476.12857142857143,4094.2,673.2223214285714,476.12857142857143,4195.4,673.2223214285714,476.12857142857143,4297.9,673.2223214285714,476.12857142857143,4398.4,673.2223214285714,476.12857142857143,4499.3,673.2223214285714,476.12857142857143,4604,673.2223214285714,476.12857142857143,4710.6,673.2223214285714,476.12857142857143,4814.7,673.2223214285714,476.12857142857143,4918.9]","[1467.5,1467.5,1000,0,467.5,""smooth"",""right"",""right"",""good_move"",3891.4,2423.7,2011.8,1467.7,411.9,""oops"",""down"",""up"",""bad_move"",6747.3,2855.7,2356.6,3891.6,499.1,""smooth"",""right"",""right"",""good_move"",9099.3,2351.8,1986.6,6747.5,365.2,""oops"",""down"",""left"",""bad_move"",12171.2,3071.5,2712.1,9099.7,359.4,""oops"",""down"",""up"",""bad_move"",14747.6,2576.3,1945.9,12171.3,630.4,""smooth"",""down"",""down"",""good_move"",15235.5,487.6,2243.4,14747.9,-1755.8,""error"",""-"",""-"",""no_move""]","",""
"58919","","<div style=""width:500px;"">
  <p>What determined the result of this run?</p>
  </div>","86","html-slider-response","57","846004","0.0-10.0-1.3","92","1","2025-07-09 09:07:46","7701e855f2ef39aa3fd6c71abdc6918a","92.239.244.139","Mozilla/5.0 (Windows NT 10.0; Win64; x64) AppleWebKit/537.36 (KHTML, like Gecko) Chrome/137.0.0.0 Safari/537.36","WebKit","Chrome","137.0.0.0","Windows","10.0","https://app.prolific.com/","en-GB,en;q=0.9,en-US;q=0.8","67d160272a11ce5155437ddf","686d226cabeef709c732f8e1","686e3143d251d99f750c8334","67d160272a11ce5155437ddf","2025-07-09T09:21:55.532Z","","","","","","AttribQ","","","","","","","","","","","","","","","","","","","","","","","","","","","","","","","","","","","","","","50"
"3319","","<div style=""width:500px;"">
  <p>How much control did you have over the ball?</p>
  </div>","26","html-slider-response","58","849323","0.0-10.0-2.3","92","1","2025-07-09 09:07:46","7701e855f2ef39aa3fd6c71abdc6918a","92.239.244.139","Mozilla/5.0 (Windows NT 10.0; Win64; x64) AppleWebKit/537.36 (KHTML, like Gecko) Chrome/137.0.0.0 Safari/537.36","WebKit","Chrome","137.0.0.0","Windows","10.0","https://app.prolific.com/","en-GB,en;q=0.9,en-US;q=0.8","67d160272a11ce5155437ddf","686d226cabeef709c732f8e1","686e3143d251d99f750c8334","67d160272a11ce5155437ddf","2025-07-09T09:21:58.852Z","","","","","","ControlQ","","","","","","","","","","","","","","","","","","","","","","","","","","","","","","","","","","","","","","50"
"32488","","<div style=""width:500px;"">
  <p>How would you describe your current emotional state?</p>
  </div>","61","html-slider-response","59","881812","0.0-10.0-3.3","92","1","2025-07-09 09:07:46","7701e855f2ef39aa3fd6c71abdc6918a","92.239.244.139","Mozilla/5.0 (Windows NT 10.0; Win64; x64) AppleWebKit/537.36 (KHTML, like Gecko) Chrome/137.0.0.0 Safari/537.36","WebKit","Chrome","137.0.0.0","Windows","10.0","https://app.prolific.com/","en-GB,en;q=0.9,en-US;q=0.8","67d160272a11ce5155437ddf","686d226cabeef709c732f8e1","686e3143d251d99f750c8334","67d160272a11ce5155437ddf","2025-07-09T09:22:31.340Z","","","","","","StressQ","","","","","","","","","","","","","","","","","","","","","","","","","","","","","","","","","","","","","","50"
"2726","","<div style=""width:500px;"">
  <p>What best describes how you currently feel?</p>
  </div>","36","html-slider-response","60","884539","0.0-10.0-4.3","92","1","2025-07-09 09:07:46","7701e855f2ef39aa3fd6c71abdc6918a","92.239.244.139","Mozilla/5.0 (Windows NT 10.0; Win64; x64) AppleWebKit/537.36 (KHTML, like Gecko) Chrome/137.0.0.0 Safari/537.36","WebKit","Chrome","137.0.0.0","Windows","10.0","https://app.prolific.com/","en-GB,en;q=0.9,en-US;q=0.8","67d160272a11ce5155437ddf","686d226cabeef709c732f8e1","686e3143d251d99f750c8334","67d160272a11ce5155437ddf","2025-07-09T09:22:34.067Z","","","","","","MotivationQ","","","","","","","","","","","","","","","","","","","","","","","","","","","","","","","","","","","","","","50"
"","","","","ctl-task-cpt","61","908482","0.0-10.0-0.4","92","1","2025-07-09 09:07:46","7701e855f2ef39aa3fd6c71abdc6918a","92.239.244.139","Mozilla/5.0 (Windows NT 10.0; Win64; x64) AppleWebKit/537.36 (KHTML, like Gecko) Chrome/137.0.0.0 Safari/537.36","WebKit","Chrome","137.0.0.0","Windows","10.0","https://app.prolific.com/","en-GB,en;q=0.9,en-US;q=0.8","67d160272a11ce5155437ddf","686d226cabeef709c732f8e1","686e3143d251d99f750c8334","67d160272a11ce5155437ddf","2025-07-09T09:22:58.010Z","","","","","","","","","","","","","","","","win-only","2","g1:SE,g2:NW","0.6","5","0","888899.1","1424.2","6425.3","20924","1","4","4","6","2","4","4","18","14","0.13636363636363635","1472.4","3000","625","[""left"",""up""]","{""num_key_presses"":6,""num_perfect"":3,""num_errors"":0,""num_randdir"":3,""num_randdir_good_moves"":3,""num_whilered"":0,""num_whileblue"":0,""num_blue"":0,""num_good_moves"":6}","[287.22232142857143,295.12857142857143,0.2,287.22232142857143,295.12857142857143,100.9,287.22232142857143,295.12857142857143,201.8,287.22232142857143,295.12857142857143,306.2,287.22232142857143,305.12857142857143,407.7,296.22232142857143,335.12857142857143,511.6,320.22232142857143,364.12857142857143,617,337.22232142857143,381.12857142857143,717.5,341.22232142857143,385.12857142857143,821.3,243.22232142857143,237.12857142857143,921.9,128.22232142857143,125.12857142857143,1021.9,101.22232142857143,87.12857142857143,1125.8,99.22232142857143,86.12857142857143,1227.5,61.222321428571426,73.12857142857143,1332.5,55.222321428571426,70.12857142857143,1433.7,55.222321428571426,70.12857142857143,1537.3,55.222321428571426,70.12857142857143,1641.6,55.222321428571426,70.12857142857143,1742.1,55.222321428571426,70.12857142857143,1846.6,55.222321428571426,70.12857142857143,1947.5,55.222321428571426,70.12857142857143,2051.5,55.222321428571426,70.12857142857143,2151.5,55.222321428571426,70.12857142857143,2251.9,92.22232142857143,148.12857142857143,2357.5,305.22232142857143,174.12857142857143,2462,573.2223214285714,188.12857142857143,2562.2,693.2223214285714,193.12857142857143,2666.5,698.2223214285714,193.12857142857143,2771.2,698.2223214285714,193.12857142857143,2871.3,698.2223214285714,193.12857142857143,2971.9,698.2223214285714,193.12857142857143,3077.1,698.2223214285714,193.12857142857143,3177.4,698.2223214285714,193.12857142857143,3282.4,698.2223214285714,193.12857142857143,3382.7,698.2223214285714,193.12857142857143,3486,698.2223214285714,193.12857142857143,3586.1,698.2223214285714,193.12857142857143,3686.3,698.2223214285714,193.12857142857143,3786.3,698.2223214285714,193.12857142857143,3887,698.2223214285714,193.12857142857143,3987,698.2223214285714,193.12857142857143,4087.1,698.2223214285714,193.12857142857143,4191.3,698.2223214285714,193.12857142857143,4292.1,698.2223214285714,193.12857142857143,4392.5,698.2223214285714,193.12857142857143,4496.3,698.2223214285714,193.12857142857143,4596.3,698.2223214285714,193.12857142857143,4701.3,697.2223214285714,193.12857142857143,4806.5,697.2223214285714,193.12857142857143,4906.5]","[1420.9,1420.9,1000,0,420.9,""smooth"",""up"",""up"",""good_move"",3661,2239.8,1799.5,1421.2,440.3,""oops"",""up"",""up"",""good_move"",5828.9,2167.8,1779.7,3661.1,388.1,""oops"",""left"",""up"",""good_move"",9348.8,3519.6,3154.7,5829.2,364.9,""smooth"",""left"",""left"",""good_move"",11957,2608,2251.9,9349.1,356,""oops"",""left"",""left"",""good_move"",14396.7,2439.5,2014.7,11957.2,424.8,""smooth"",""left"",""left"",""good_move""]","",""
"6785","","<div style=""width:500px;"">
  <p>What determined the result of this run?</p>
  </div>","77","html-slider-response","62","915268","0.0-10.0-1.4","92","1","2025-07-09 09:07:46","7701e855f2ef39aa3fd6c71abdc6918a","92.239.244.139","Mozilla/5.0 (Windows NT 10.0; Win64; x64) AppleWebKit/537.36 (KHTML, like Gecko) Chrome/137.0.0.0 Safari/537.36","WebKit","Chrome","137.0.0.0","Windows","10.0","https://app.prolific.com/","en-GB,en;q=0.9,en-US;q=0.8","67d160272a11ce5155437ddf","686d226cabeef709c732f8e1","686e3143d251d99f750c8334","67d160272a11ce5155437ddf","2025-07-09T09:23:04.796Z","","","","","","AttribQ","","","","","","","","","","","","","","","","","","","","","","","","","","","","","","","","","","","","","","50"
"3247","","<div style=""width:500px;"">
  <p>How much control did you have over the ball?</p>
  </div>","72","html-slider-response","63","918515","0.0-10.0-2.4","92","1","2025-07-09 09:07:46","7701e855f2ef39aa3fd6c71abdc6918a","92.239.244.139","Mozilla/5.0 (Windows NT 10.0; Win64; x64) AppleWebKit/537.36 (KHTML, like Gecko) Chrome/137.0.0.0 Safari/537.36","WebKit","Chrome","137.0.0.0","Windows","10.0","https://app.prolific.com/","en-GB,en;q=0.9,en-US;q=0.8","67d160272a11ce5155437ddf","686d226cabeef709c732f8e1","686e3143d251d99f750c8334","67d160272a11ce5155437ddf","2025-07-09T09:23:08.043Z","","","","","","ControlQ","","","","","","","","","","","","","","","","","","","","","","","","","","","","","","","","","","","","","","50"
"2303","","<div style=""width:500px;"">
  <p>How would you describe your current emotional state?</p>
  </div>","23","html-slider-response","64","920819","0.0-10.0-3.4","92","1","2025-07-09 09:07:46","7701e855f2ef39aa3fd6c71abdc6918a","92.239.244.139","Mozilla/5.0 (Windows NT 10.0; Win64; x64) AppleWebKit/537.36 (KHTML, like Gecko) Chrome/137.0.0.0 Safari/537.36","WebKit","Chrome","137.0.0.0","Windows","10.0","https://app.prolific.com/","en-GB,en;q=0.9,en-US;q=0.8","67d160272a11ce5155437ddf","686d226cabeef709c732f8e1","686e3143d251d99f750c8334","67d160272a11ce5155437ddf","2025-07-09T09:23:10.347Z","","","","","","StressQ","","","","","","","","","","","","","","","","","","","","","","","","","","","","","","","","","","","","","","50"
"1695","","<div style=""width:500px;"">
  <p>What best describes how you currently feel?</p>
  </div>","64","html-slider-response","65","922516","0.0-10.0-4.4","92","1","2025-07-09 09:07:46","7701e855f2ef39aa3fd6c71abdc6918a","92.239.244.139","Mozilla/5.0 (Windows NT 10.0; Win64; x64) AppleWebKit/537.36 (KHTML, like Gecko) Chrome/137.0.0.0 Safari/537.36","WebKit","Chrome","137.0.0.0","Windows","10.0","https://app.prolific.com/","en-GB,en;q=0.9,en-US;q=0.8","67d160272a11ce5155437ddf","686d226cabeef709c732f8e1","686e3143d251d99f750c8334","67d160272a11ce5155437ddf","2025-07-09T09:23:12.044Z","","","","","","MotivationQ","","","","","","","","","","","","","","","","","","","","","","","","","","","","","","","","","","","","","","50"
"","","","","ctl-task-cpt","66","962601","0.0-10.0-0.5","92","1","2025-07-09 09:07:46","7701e855f2ef39aa3fd6c71abdc6918a","92.239.244.139","Mozilla/5.0 (Windows NT 10.0; Win64; x64) AppleWebKit/537.36 (KHTML, like Gecko) Chrome/137.0.0.0 Safari/537.36","WebKit","Chrome","137.0.0.0","Windows","10.0","https://app.prolific.com/","en-GB,en;q=0.9,en-US;q=0.8","67d160272a11ce5155437ddf","686d226cabeef709c732f8e1","686e3143d251d99f750c8334","67d160272a11ce5155437ddf","2025-07-09T09:23:52.129Z","","","","","","","","","","","","","","","","win-only","2","g1:SE,g2:NW","0.5","6","0","926875.5","1383.3","6386","37073.7","1","4","8","6","1","-1","-3","15","18","0.11363636363636363","1008.7","3000","-2450","[""down"",""right""]","{""num_key_presses"":8,""num_perfect"":5,""num_errors"":2,""num_randdir"":1,""num_randdir_good_moves"":0,""num_whilered"":0,""num_whileblue"":0,""num_blue"":2,""num_good_moves"":4}","[300.22232142857143,300.12857142857143,0.1,300.22232142857143,300.12857142857143,110.2,300.22232142857143,300.12857142857143,212.2,293.22232142857143,338.12857142857143,316.3,306.22232142857143,359.12857142857143,416.8,506.22232142857143,509.12857142857143,517.8,532.2223214285714,526.1285714285714,618.3,546.2223214285714,585.1285714285714,723.8,558.2223214285714,584.1285714285714,827.2,558.2223214285714,558.1285714285714,935.8,558.2223214285714,556.1285714285714,1037.7,558.2223214285714,556.1285714285714,1138.2,633.2223214285714,537.1285714285714,1243.1,773.2223214285714,484.12857142857143,1352.5,776.2223214285714,482.12857142857143,1453.3,776.2223214285714,481.12857142857143,1558,776.2223214285714,481.12857142857143,1658.7,776.2223214285714,481.12857142857143,1762.6,776.2223214285714,477.12857142857143,1862.9,776.2223214285714,472.12857142857143,1972.7,734.2223214285714,521.1285714285714,2073.2,730.2223214285714,523.1285714285714,2177.5,754.2223214285714,476.12857142857143,2277.9,755.2223214285714,475.12857142857143,2389.6,690.2223214285714,513.1285714285714,2490.3,690.2223214285714,513.1285714285714,2592.7,690.2223214285714,513.1285714285714,2698.1,690.2223214285714,513.1285714285714,2798.1,690.2223214285714,513.1285714285714,2902.3,690.2223214285714,513.1285714285714,3002.7,690.2223214285714,513.1285714285714,3102.7,690.2223214285714,513.1285714285714,3203.7,690.2223214285714,513.1285714285714,3309.7,690.2223214285714,513.1285714285714,3410,690.2223214285714,513.1285714285714,3510.3,690.2223214285714,513.1285714285714,3611.5,690.2223214285714,513.1285714285714,3711.8,690.2223214285714,513.1285714285714,3812.2,690.2223214285714,513.1285714285714,3912.6,690.2223214285714,513.1285714285714,4017.2,690.2223214285714,513.1285714285714,4117.8,690.2223214285714,513.1285714285714,4221.9,690.2223214285714,513.1285714285714,4330.1,690.2223214285714,513.1285714285714,4430.4,690.2223214285714,513.1285714285714,4532.7,690.2223214285714,513.1285714285714,4638.6,690.2223214285714,513.1285714285714,4742.7,690.2223214285714,513.1285714285714,4847.2,690.2223214285714,513.1285714285714,4948]","[313.6,313.6,1000,0,-686.4,""error"",""-"",""-"",""no_move"",11084,10770.3,2044.9,8575.1,464,""smooth"",""right"",""right"",""good_move"",14388.1,3303.9,1921.4,11084.2,1382.5,""smooth"",""down"",""down"",""good_move"",17204.3,2816,2371,14388.3,445,""smooth"",""right"",""right"",""good_move"",19899.7,2695.2,2348.9,17204.5,346.3,""oops"",""down"",""up"",""bad_move"",23108,3208.1,2811.4,19899.9,396.7,""smooth"",""left"",""left"",""bad_move"",23610.7,502.5,2371.2,23108.2,-1868.7,""error"",""-"",""-"",""no_move"",27963.8,4352.9,2942.5,24614.5,406.8,""smooth"",""down"",""down"",""good_move""]","",""
"33073","","<div style=""width:500px;"">
  <p>What determined the result of this run?</p>
  </div>","70","html-slider-response","67","995676","0.0-10.0-1.5","92","1","2025-07-09 09:07:46","7701e855f2ef39aa3fd6c71abdc6918a","92.239.244.139","Mozilla/5.0 (Windows NT 10.0; Win64; x64) AppleWebKit/537.36 (KHTML, like Gecko) Chrome/137.0.0.0 Safari/537.36","WebKit","Chrome","137.0.0.0","Windows","10.0","https://app.prolific.com/","en-GB,en;q=0.9,en-US;q=0.8","67d160272a11ce5155437ddf","686d226cabeef709c732f8e1","686e3143d251d99f750c8334","67d160272a11ce5155437ddf","2025-07-09T09:24:25.204Z","","","","","","AttribQ","","","","","","","","","","","","","","","","","","","","","","","","","","","","","","","","","","","","","","50"
"2719","","<div style=""width:500px;"">
  <p>How much control did you have over the ball?</p>
  </div>","42","html-slider-response","68","998395","0.0-10.0-2.5","92","1","2025-07-09 09:07:46","7701e855f2ef39aa3fd6c71abdc6918a","92.239.244.139","Mozilla/5.0 (Windows NT 10.0; Win64; x64) AppleWebKit/537.36 (KHTML, like Gecko) Chrome/137.0.0.0 Safari/537.36","WebKit","Chrome","137.0.0.0","Windows","10.0","https://app.prolific.com/","en-GB,en;q=0.9,en-US;q=0.8","67d160272a11ce5155437ddf","686d226cabeef709c732f8e1","686e3143d251d99f750c8334","67d160272a11ce5155437ddf","2025-07-09T09:24:27.924Z","","","","","","ControlQ","","","","","","","","","","","","","","","","","","","","","","","","","","","","","","","","","","","","","","50"
"2343","","<div style=""width:500px;"">
  <p>How would you describe your current emotional state?</p>
  </div>","54","html-slider-response","69","1000739","0.0-10.0-3.5","92","1","2025-07-09 09:07:46","7701e855f2ef39aa3fd6c71abdc6918a","92.239.244.139","Mozilla/5.0 (Windows NT 10.0; Win64; x64) AppleWebKit/537.36 (KHTML, like Gecko) Chrome/137.0.0.0 Safari/537.36","WebKit","Chrome","137.0.0.0","Windows","10.0","https://app.prolific.com/","en-GB,en;q=0.9,en-US;q=0.8","67d160272a11ce5155437ddf","686d226cabeef709c732f8e1","686e3143d251d99f750c8334","67d160272a11ce5155437ddf","2025-07-09T09:24:30.267Z","","","","","","StressQ","","","","","","","","","","","","","","","","","","","","","","","","","","","","","","","","","","","","","","50"
"2479","","<div style=""width:500px;"">
  <p>What best describes how you currently feel?</p>
  </div>","44","html-slider-response","70","1003219","0.0-10.0-4.5","92","1","2025-07-09 09:07:46","7701e855f2ef39aa3fd6c71abdc6918a","92.239.244.139","Mozilla/5.0 (Windows NT 10.0; Win64; x64) AppleWebKit/537.36 (KHTML, like Gecko) Chrome/137.0.0.0 Safari/537.36","WebKit","Chrome","137.0.0.0","Windows","10.0","https://app.prolific.com/","en-GB,en;q=0.9,en-US;q=0.8","67d160272a11ce5155437ddf","686d226cabeef709c732f8e1","686e3143d251d99f750c8334","67d160272a11ce5155437ddf","2025-07-09T09:24:32.748Z","","","","","","MotivationQ","","","","","","","","","","","","","","","","","","","","","","","","","","","","","","","","","","","","","","50"
"","","","","ctl-task-cpt","71","1052666","0.0-10.0-0.6","92","1","2025-07-09 09:07:46","7701e855f2ef39aa3fd6c71abdc6918a","92.239.244.139","Mozilla/5.0 (Windows NT 10.0; Win64; x64) AppleWebKit/537.36 (KHTML, like Gecko) Chrome/137.0.0.0 Safari/537.36","WebKit","Chrome","137.0.0.0","Windows","10.0","https://app.prolific.com/","en-GB,en;q=0.9,en-US;q=0.8","67d160272a11ce5155437ddf","686d226cabeef709c732f8e1","686e3143d251d99f750c8334","67d160272a11ce5155437ddf","2025-07-09T09:25:22.194Z","","","","","","","","","","","","","","","","win-only","0","g1:NW,g2:SE","0.4","7","0","1007579.4","1071.1","6071.6","46432.3","1","4","4","6","2","-4","-6","9","15","0.06818181818181818","1344.5","3000","-2860","[""down"",""right""]","{""num_key_presses"":8,""num_perfect"":3,""num_errors"":2,""num_randdir"":3,""num_randdir_good_moves"":1,""num_whilered"":0,""num_whileblue"":0,""num_blue"":5,""num_good_moves"":4}","[292.22232142857143,299.12857142857143,0.1,292.22232142857143,299.12857142857143,100.8,292.22232142857143,301.12857142857143,203.7,298.22232142857143,338.12857142857143,305.7,346.22232142857143,400.12857142857143,409.6,352.22232142857143,413.12857142857143,514.6,364.22232142857143,431.12857142857143,615.9,429.22232142857143,488.12857142857143,719.4,486.22232142857143,509.12857142857143,819.4,494.22232142857143,509.12857142857143,920,499.22232142857143,509.12857142857143,1024.2,506.22232142857143,512.1285714285714,1124.4,517.2223214285714,517.1285714285714,1229.7,518.2223214285714,517.1285714285714,1330.7,518.2223214285714,517.1285714285714,1435.3,518.2223214285714,517.1285714285714,1535.5,518.2223214285714,517.1285714285714,1641.8,518.2223214285714,517.1285714285714,1745.8,518.2223214285714,518.1285714285714,1849.9,518.2223214285714,527.1285714285714,1951.2,518.2223214285714,532.1285714285714,2055,525.2223214285714,532.1285714285714,2155.9,551.2223214285714,532.1285714285714,2259.4,596.2223214285714,532.1285714285714,2364.9,642.2223214285714,532.1285714285714,2466,653.2223214285714,532.1285714285714,2569.7,720.2223214285714,532.1285714285714,2670.7,799.2223214285714,526.1285714285714,2775,821.2223214285714,519.1285714285714,2875.3,822.2223214285714,516.1285714285714,2979.3,822.2223214285714,510.12857142857143,3080.8,822.2223214285714,509.12857142857143,3185.6,822.2223214285714,507.12857142857143,3291,822.2223214285714,507.12857142857143,3399.5,822.2223214285714,506.12857142857143,3500.4,822.2223214285714,506.12857142857143,3604.9,822.2223214285714,506.12857142857143,3705.1,822.2223214285714,506.12857142857143,3810,822.2223214285714,506.12857142857143,3915.8,822.2223214285714,506.12857142857143,4019.5,822.2223214285714,506.12857142857143,4120.3,822.2223214285714,506.12857142857143,4220.7,822.2223214285714,506.12857142857143,4324.9,822.2223214285714,506.12857142857143,4425.1,822.2223214285714,506.12857142857143,4529.5,822.2223214285714,506.12857142857143,4634.9,822.2223214285714,506.12857142857143,4739.7,822.2223214285714,506.12857142857143,4844.8,822.2223214285714,506.12857142857143,4950.3]","[310.4,310.4,1000,0,-689.6,""error"",""-"",""-"",""no_move"",7182.4,6871.9,2243.8,4464.6,474,""oops"",""right"",""left"",""bad_move"",14358.3,7175.6,2622.6,10929.5,806.2,""smooth"",""down"",""down"",""good_move"",17782.6,3424.1,2994.7,14358.5,429.4,""oops"",""down"",""down"",""good_move"",18358.6,575.9,2582.1,17782.7,-2006.2,""error"",""-"",""-"",""no_move"",21782.5,3423.7,1979.2,19364.3,439,""smooth"",""down"",""down"",""good_move"",27782.1,5999.5,2564.5,24776.1,441.5,""smooth"",""right"",""right"",""good_move"",31630.9,3848.6,3449.2,27782.4,399.4,""oops"",""right"",""left"",""bad_move""]","",""
"78424","","<div style=""width:500px;"">
  <p>What determined the result of this run?</p>
  </div>","26","html-slider-response","72","1131092","0.0-10.0-1.6","92","1","2025-07-09 09:07:46","7701e855f2ef39aa3fd6c71abdc6918a","92.239.244.139","Mozilla/5.0 (Windows NT 10.0; Win64; x64) AppleWebKit/537.36 (KHTML, like Gecko) Chrome/137.0.0.0 Safari/537.36","WebKit","Chrome","137.0.0.0","Windows","10.0","https://app.prolific.com/","en-GB,en;q=0.9,en-US;q=0.8","67d160272a11ce5155437ddf","686d226cabeef709c732f8e1","686e3143d251d99f750c8334","67d160272a11ce5155437ddf","2025-07-09T09:26:40.620Z","","","","","","AttribQ","","","","","","","","","","","","","","","","","","","","","","","","","","","","","","","","","","","","","","50"
"3486","","<div style=""width:500px;"">
  <p>How much control did you have over the ball?</p>
  </div>","43","html-slider-response","73","1134579","0.0-10.0-2.6","92","1","2025-07-09 09:07:46","7701e855f2ef39aa3fd6c71abdc6918a","92.239.244.139","Mozilla/5.0 (Windows NT 10.0; Win64; x64) AppleWebKit/537.36 (KHTML, like Gecko) Chrome/137.0.0.0 Safari/537.36","WebKit","Chrome","137.0.0.0","Windows","10.0","https://app.prolific.com/","en-GB,en;q=0.9,en-US;q=0.8","67d160272a11ce5155437ddf","686d226cabeef709c732f8e1","686e3143d251d99f750c8334","67d160272a11ce5155437ddf","2025-07-09T09:26:44.107Z","","","","","","ControlQ","","","","","","","","","","","","","","","","","","","","","","","","","","","","","","","","","","","","","","50"
"2471","","<div style=""width:500px;"">
  <p>How would you describe your current emotional state?</p>
  </div>","68","html-slider-response","74","1137051","0.0-10.0-3.6","92","1","2025-07-09 09:07:46","7701e855f2ef39aa3fd6c71abdc6918a","92.239.244.139","Mozilla/5.0 (Windows NT 10.0; Win64; x64) AppleWebKit/537.36 (KHTML, like Gecko) Chrome/137.0.0.0 Safari/537.36","WebKit","Chrome","137.0.0.0","Windows","10.0","https://app.prolific.com/","en-GB,en;q=0.9,en-US;q=0.8","67d160272a11ce5155437ddf","686d226cabeef709c732f8e1","686e3143d251d99f750c8334","67d160272a11ce5155437ddf","2025-07-09T09:26:46.579Z","","","","","","StressQ","","","","","","","","","","","","","","","","","","","","","","","","","","","","","","","","","","","","","","50"
"2367","","<div style=""width:500px;"">
  <p>What best describes how you currently feel?</p>
  </div>","38","html-slider-response","75","1139419","0.0-10.0-4.6","92","1","2025-07-09 09:07:46","7701e855f2ef39aa3fd6c71abdc6918a","92.239.244.139","Mozilla/5.0 (Windows NT 10.0; Win64; x64) AppleWebKit/537.36 (KHTML, like Gecko) Chrome/137.0.0.0 Safari/537.36","WebKit","Chrome","137.0.0.0","Windows","10.0","https://app.prolific.com/","en-GB,en;q=0.9,en-US;q=0.8","67d160272a11ce5155437ddf","686d226cabeef709c732f8e1","686e3143d251d99f750c8334","67d160272a11ce5155437ddf","2025-07-09T09:26:48.948Z","","","","","","MotivationQ","","","","","","","","","","","","","","","","","","","","","","","","","","","","","","","","","","","","","","50"
"","","","","ctl-task-cpt","76","1176569","0.0-10.0-0.7","92","1","2025-07-09 09:07:46","7701e855f2ef39aa3fd6c71abdc6918a","92.239.244.139","Mozilla/5.0 (Windows NT 10.0; Win64; x64) AppleWebKit/537.36 (KHTML, like Gecko) Chrome/137.0.0.0 Safari/537.36","WebKit","Chrome","137.0.0.0","Windows","10.0","https://app.prolific.com/","en-GB,en;q=0.9,en-US;q=0.8","67d160272a11ce5155437ddf","686d226cabeef709c732f8e1","686e3143d251d99f750c8334","67d160272a11ce5155437ddf","2025-07-09T09:27:26.098Z","","","","","","","","","","","","","","","","win-only","1","g1:NE,g2:SW","0.3","8","0","1143779.3","2176.1","7181.1","34126.1","1","4","8","6","1","-1","-2","7","9","0.05303030303030303","3143.6","3000","-2895","[""up"",""right""]","{""num_key_presses"":6,""num_perfect"":3,""num_errors"":1,""num_randdir"":2,""num_randdir_good_moves"":1,""num_whilered"":0,""num_whileblue"":0,""num_blue"":2,""num_good_moves"":4}","[288.22232142857143,298.12857142857143,0.2,288.22232142857143,298.12857142857143,111,288.22232142857143,298.12857142857143,216.7,288.22232142857143,298.12857142857143,316.7,287.22232142857143,302.12857142857143,419.5,280.22232142857143,326.12857142857143,519.5,214.22232142857143,415.12857142857143,619.6,193.22232142857143,441.12857142857143,719.7,173.22232142857143,453.12857142857143,825.2,87.22232142857143,475.12857142857143,926.5,11.222321428571426,494.12857142857143,1030.7,11.222321428571426,494.12857142857143,1130.8,336.22232142857143,243.12857142857143,1233.2,364.22232142857143,137.12857142857143,1334.7,414.22232142857143,93.12857142857143,1434.8,471.22232142857143,79.12857142857143,1539.1,628.2223214285714,49.128571428571426,1639.5,660.2223214285714,43.128571428571426,1740.9,623.2223214285714,42.128571428571426,1844.5,600.2223214285714,42.128571428571426,1944.7,592.2223214285714,42.128571428571426,2045.3,568.2223214285714,42.128571428571426,2154.2,562.2223214285714,43.128571428571426,2254.4,561.2223214285714,43.128571428571426,2355.8,561.2223214285714,43.128571428571426,2457,561.2223214285714,43.128571428571426,2561.4,561.2223214285714,43.128571428571426,2664.7,561.2223214285714,43.128571428571426,2765.4,561.2223214285714,43.128571428571426,2866.4,561.2223214285714,43.128571428571426,2970.8,561.2223214285714,43.128571428571426,3076.7,561.2223214285714,43.128571428571426,3179.9,561.2223214285714,43.128571428571426,3285.3,561.2223214285714,43.128571428571426,3385.9,561.2223214285714,43.128571428571426,3492.2,560.2223214285714,64.12857142857143,3594.5,572.2223214285714,108.12857142857143,3695.3,587.2223214285714,118.12857142857143,3800.2,596.2223214285714,122.12857142857143,3904.7,596.2223214285714,122.12857142857143,4005.8,596.2223214285714,122.12857142857143,4110.3,596.2223214285714,122.12857142857143,4212.4,596.2223214285714,122.12857142857143,4315.9,596.2223214285714,122.12857142857143,4420.2,599.2223214285714,130.12857142857143,4525.3,751.2223214285714,143.12857142857143,4629.8,758.2223214285714,143.12857142857143,4730,759.2223214285714,143.12857142857143,4831.1,759.2223214285714,143.12857142857143,4935.5]","[441,441,1000,0,-559,""error"",""-"",""-"",""no_move"",4896.8,4455.6,2968.2,1445,483.6,""oops"",""up"",""left"",""bad_move"",7777.4,2880.3,2379,4897.2,501.2,""smooth"",""up"",""up"",""good_move"",14280.9,6503.1,2336.4,11316.3,628.2,""smooth"",""up"",""up"",""good_move"",18057.1,3775.9,2898.2,14281.2,877.7,""smooth"",""right"",""right"",""good_move"",21152.9,3095.5,2665.9,18057.4,429.6,""oops"",""right"",""right"",""good_move""]","",""
"6009","","<div style=""width:500px;"">
  <p>What determined the result of this run?</p>
  </div>","53","html-slider-response","77","1182580","0.0-10.0-1.7","92","1","2025-07-09 09:07:46","7701e855f2ef39aa3fd6c71abdc6918a","92.239.244.139","Mozilla/5.0 (Windows NT 10.0; Win64; x64) AppleWebKit/537.36 (KHTML, like Gecko) Chrome/137.0.0.0 Safari/537.36","WebKit","Chrome","137.0.0.0","Windows","10.0","https://app.prolific.com/","en-GB,en;q=0.9,en-US;q=0.8","67d160272a11ce5155437ddf","686d226cabeef709c732f8e1","686e3143d251d99f750c8334","67d160272a11ce5155437ddf","2025-07-09T09:27:32.108Z","","","","","","AttribQ","","","","","","","","","","","","","","","","","","","","","","","","","","","","","","","","","","","","","","50"
"4335","","<div style=""width:500px;"">
  <p>How much control did you have over the ball?</p>
  </div>","40","html-slider-response","78","1186915","0.0-10.0-2.7","92","1","2025-07-09 09:07:46","7701e855f2ef39aa3fd6c71abdc6918a","92.239.244.139","Mozilla/5.0 (Windows NT 10.0; Win64; x64) AppleWebKit/537.36 (KHTML, like Gecko) Chrome/137.0.0.0 Safari/537.36","WebKit","Chrome","137.0.0.0","Windows","10.0","https://app.prolific.com/","en-GB,en;q=0.9,en-US;q=0.8","67d160272a11ce5155437ddf","686d226cabeef709c732f8e1","686e3143d251d99f750c8334","67d160272a11ce5155437ddf","2025-07-09T09:27:36.444Z","","","","","","ControlQ","","","","","","","","","","","","","","","","","","","","","","","","","","","","","","","","","","","","","","50"
"2367","","<div style=""width:500px;"">
  <p>How would you describe your current emotional state?</p>
  </div>","52","html-slider-response","79","1189284","0.0-10.0-3.7","92","1","2025-07-09 09:07:46","7701e855f2ef39aa3fd6c71abdc6918a","92.239.244.139","Mozilla/5.0 (Windows NT 10.0; Win64; x64) AppleWebKit/537.36 (KHTML, like Gecko) Chrome/137.0.0.0 Safari/537.36","WebKit","Chrome","137.0.0.0","Windows","10.0","https://app.prolific.com/","en-GB,en;q=0.9,en-US;q=0.8","67d160272a11ce5155437ddf","686d226cabeef709c732f8e1","686e3143d251d99f750c8334","67d160272a11ce5155437ddf","2025-07-09T09:27:38.812Z","","","","","","StressQ","","","","","","","","","","","","","","","","","","","","","","","","","","","","","","","","","","","","","","50"
"3791","","<div style=""width:500px;"">
  <p>What best describes how you currently feel?</p>
  </div>","41","html-slider-response","80","1193075","0.0-10.0-4.7","92","1","2025-07-09 09:07:46","7701e855f2ef39aa3fd6c71abdc6918a","92.239.244.139","Mozilla/5.0 (Windows NT 10.0; Win64; x64) AppleWebKit/537.36 (KHTML, like Gecko) Chrome/137.0.0.0 Safari/537.36","WebKit","Chrome","137.0.0.0","Windows","10.0","https://app.prolific.com/","en-GB,en;q=0.9,en-US;q=0.8","67d160272a11ce5155437ddf","686d226cabeef709c732f8e1","686e3143d251d99f750c8334","67d160272a11ce5155437ddf","2025-07-09T09:27:42.604Z","","","","","","MotivationQ","","","","","","","","","","","","","","","","","","","","","","","","","","","","","","","","","","","","","","50"
"","","","","ctl-task-cpt","81","1214237","0.0-10.0-0.8","92","1","2025-07-09 09:07:46","7701e855f2ef39aa3fd6c71abdc6918a","92.239.244.139","Mozilla/5.0 (Windows NT 10.0; Win64; x64) AppleWebKit/537.36 (KHTML, like Gecko) Chrome/137.0.0.0 Safari/537.36","WebKit","Chrome","137.0.0.0","Windows","10.0","https://app.prolific.com/","en-GB,en;q=0.9,en-US;q=0.8","67d160272a11ce5155437ddf","686d226cabeef709c732f8e1","686e3143d251d99f750c8334","67d160272a11ce5155437ddf","2025-07-09T09:28:03.765Z","","","","","","","","","","","","","","","","win-only","0","g1:NW,g2:SE","0.2","9","0","1197435.5","1895.7","6896.4","18145.6","1","4","4","6","1","1","1","8","7","0.06060606060606061","1855.7","3000","1235","[""left"",""up""]","{""num_key_presses"":4,""num_perfect"":2,""num_errors"":0,""num_randdir"":2,""num_randdir_good_moves"":2,""num_whilered"":0,""num_whileblue"":0,""num_blue"":0,""num_good_moves"":4}","[295.22232142857143,296.12857142857143,0.1,295.22232142857143,296.12857142857143,100.1,295.22232142857143,296.12857142857143,204.6,295.22232142857143,296.12857142857143,309.5,301.22232142857143,320.12857142857143,410.6,302.22232142857143,331.12857142857143,515,272.22232142857143,332.12857142857143,621.7,244.22232142857143,320.12857142857143,725.2,152.22232142857143,233.12857142857143,831.3,12.222321428571426,97.12857142857143,931.5,13.222321428571426,85.12857142857143,1034.9,34.222321428571426,76.12857142857143,1136,34.222321428571426,76.12857142857143,1242.2,57.222321428571426,85.12857142857143,1344.9,59.222321428571426,84.12857142857143,1450.6,38.222321428571426,67.12857142857143,1555.5,22.222321428571426,58.128571428571426,1655.5,22.222321428571426,58.128571428571426,1760.8,22.222321428571426,58.128571428571426,1863.3,22.222321428571426,58.128571428571426,1963.8,24.222321428571426,61.128571428571426,2065.7,42.222321428571426,116.12857142857143,2169.8,128.22232142857143,309.12857142857143,2271.2,283.22232142857143,381.12857142857143,2375.1,349.22232142857143,373.12857142857143,2484.7,354.22232142857143,364.12857142857143,2590.4,354.22232142857143,364.12857142857143,2690.6,354.22232142857143,364.12857142857143,2794.8,354.22232142857143,364.12857142857143,2899.5,354.22232142857143,364.12857142857143,2999.6,354.22232142857143,364.12857142857143,3100.2,354.22232142857143,364.12857142857143,3200.5,354.22232142857143,364.12857142857143,3301.2,354.22232142857143,364.12857142857143,3405.4,354.22232142857143,364.12857142857143,3510.2,354.22232142857143,364.12857142857143,3610.3,354.22232142857143,364.12857142857143,3715.2,354.22232142857143,364.12857142857143,3815.7,354.22232142857143,364.12857142857143,3921.6,354.22232142857143,364.12857142857143,4024.5,354.22232142857143,364.12857142857143,4130.2,354.22232142857143,364.12857142857143,4236.7,354.22232142857143,364.12857142857143,4342,354.22232142857143,364.12857142857143,4444.8,354.22232142857143,364.12857142857143,4545.1,354.22232142857143,364.12857142857143,4650.3,354.22232142857143,364.12857142857143,4759.7,354.22232142857143,364.12857142857143,4865.9,354.22232142857143,364.12857142857143,4972.2]","[1453.5,1453.5,1000,0,453.5,""smooth"",""left"",""left"",""good_move"",4493.4,3039.7,2548.2,1453.8,491.4,""smooth"",""left"",""left"",""good_move"",8133.7,3640.2,3182.2,4493.5,458,""oops"",""up"",""up"",""good_move"",11149.5,3015.5,2532.2,8134,483.3,""oops"",""up"",""up"",""good_move""]","",""
"14678","","<div style=""width:500px;"">
  <p>What determined the result of this run?</p>
  </div>","39","html-slider-response","82","1228915","0.0-10.0-1.8","92","1","2025-07-09 09:07:46","7701e855f2ef39aa3fd6c71abdc6918a","92.239.244.139","Mozilla/5.0 (Windows NT 10.0; Win64; x64) AppleWebKit/537.36 (KHTML, like Gecko) Chrome/137.0.0.0 Safari/537.36","WebKit","Chrome","137.0.0.0","Windows","10.0","https://app.prolific.com/","en-GB,en;q=0.9,en-US;q=0.8","67d160272a11ce5155437ddf","686d226cabeef709c732f8e1","686e3143d251d99f750c8334","67d160272a11ce5155437ddf","2025-07-09T09:28:18.443Z","","","","","","AttribQ","","","","","","","","","","","","","","","","","","","","","","","","","","","","","","","","","","","","","","50"
"2455","","<div style=""width:500px;"">
  <p>How much control did you have over the ball?</p>
  </div>","57","html-slider-response","83","1231372","0.0-10.0-2.8","92","1","2025-07-09 09:07:46","7701e855f2ef39aa3fd6c71abdc6918a","92.239.244.139","Mozilla/5.0 (Windows NT 10.0; Win64; x64) AppleWebKit/537.36 (KHTML, like Gecko) Chrome/137.0.0.0 Safari/537.36","WebKit","Chrome","137.0.0.0","Windows","10.0","https://app.prolific.com/","en-GB,en;q=0.9,en-US;q=0.8","67d160272a11ce5155437ddf","686d226cabeef709c732f8e1","686e3143d251d99f750c8334","67d160272a11ce5155437ddf","2025-07-09T09:28:20.900Z","","","","","","ControlQ","","","","","","","","","","","","","","","","","","","","","","","","","","","","","","","","","","","","","","50"
"1527","","<div style=""width:500px;"">
  <p>How would you describe your current emotional state?</p>
  </div>","61","html-slider-response","84","1232899","0.0-10.0-3.8","92","1","2025-07-09 09:07:46","7701e855f2ef39aa3fd6c71abdc6918a","92.239.244.139","Mozilla/5.0 (Windows NT 10.0; Win64; x64) AppleWebKit/537.36 (KHTML, like Gecko) Chrome/137.0.0.0 Safari/537.36","WebKit","Chrome","137.0.0.0","Windows","10.0","https://app.prolific.com/","en-GB,en;q=0.9,en-US;q=0.8","67d160272a11ce5155437ddf","686d226cabeef709c732f8e1","686e3143d251d99f750c8334","67d160272a11ce5155437ddf","2025-07-09T09:28:22.428Z","","","","","","StressQ","","","","","","","","","","","","","","","","","","","","","","","","","","","","","","","","","","","","","","50"
"3623","","<div style=""width:500px;"">
  <p>What best describes how you currently feel?</p>
  </div>","43","html-slider-response","85","1236524","0.0-10.0-4.8","92","1","2025-07-09 09:07:46","7701e855f2ef39aa3fd6c71abdc6918a","92.239.244.139","Mozilla/5.0 (Windows NT 10.0; Win64; x64) AppleWebKit/537.36 (KHTML, like Gecko) Chrome/137.0.0.0 Safari/537.36","WebKit","Chrome","137.0.0.0","Windows","10.0","https://app.prolific.com/","en-GB,en;q=0.9,en-US;q=0.8","67d160272a11ce5155437ddf","686d226cabeef709c732f8e1","686e3143d251d99f750c8334","67d160272a11ce5155437ddf","2025-07-09T09:28:26.052Z","","","","","","MotivationQ","","","","","","","","","","","","","","","","","","","","","","","","","","","","","","","","","","","","","","50"
