"rt","response_timestamp","stimulus","response","trial_type","trial_index","time_elapsed","internal_node_id","run_id","condition","recorded_at","source_code_version","ip","user_agent","device","browser","browser_version","platform","platform_version","referer","accept_language","PROLIFIC_PID","STUDY_ID","SESSION_ID","prolific_id","realtime","view_history","question_order","consent","success","question_id","eventType","responses","item_order","radio_event_ids","radio_event_times","key_event_times","mouse_event_times","straightlining","zigzagging","honeypot","which_type","canvas_config","goals_layout","control_level","trial_number","tutorial_trial_number","trial_start_time","phase1_start_time","phase2_start_time","phase3_start_time","goal_1_value","goal_1_distance","goal_2_value","goal_2_distance","goal_selected","outcome","outcome_total","participant_final_score","participant_initial_score","participant_final_score_prop","goal_choice_rt","allocated_time","allocated_time_remaining","goal_direction","counts","mouse_movements","key_presses","correct","slider_start"
"15082","1752052148645","<p style='font-size:40px;line-height:1.25'><strong>Welcome to the experiment!</strong></p><p style='font-size:1.1em;line-height:1.25'>Thank you for your interest in our experiment! Before you begin, it is important that we obtain your informed consent to participate in the study.</p><p style='font-size:1.1em;line-height:1.25'>On the next screen will be an <strong>information sheet</strong> for you to read. To participate in the study we need you to read this information sheet and the following consent form carefully. If you agree with all the statements, please click the <strong>I agree</strong> button.</p><p style='font-size:1.1em;line-height:1.25'>Press <strong>Next</strong> to read the information sheet.</p>","0","custom-html-button-response","0","15089","0.0-0.0","128","1","2025-07-09 09:08:47","7701e855f2ef39aa3fd6c71abdc6918a","216.120.189.233","Mozilla/5.0 (Windows NT 10.0; Win64; x64) AppleWebKit/537.36 (KHTML, like Gecko) Chrome/137.0.0.0 Safari/537.36","WebKit","Chrome","137.0.0.0","Windows","10.0","https://app.prolific.com/","en-US,en;q=0.9","6669f64ecd7e3ec30632f607","686d226cabeef709c732f8e1","686e310bb33df44bf20e9718","6669f64ecd7e3ec30632f607","2025-07-09T09:09:08.649Z","","","","","","","","","","","","","","","","","","","","","","","","","","","","","","","","","","","","","","","","","","","",""
"44067","","","","instructions","1","59161","0.0-1.0","128","1","2025-07-09 09:08:47","7701e855f2ef39aa3fd6c71abdc6918a","216.120.189.233","Mozilla/5.0 (Windows NT 10.0; Win64; x64) AppleWebKit/537.36 (KHTML, like Gecko) Chrome/137.0.0.0 Safari/537.36","WebKit","Chrome","137.0.0.0","Windows","10.0","https://app.prolific.com/","en-US,en;q=0.9","6669f64ecd7e3ec30632f607","686d226cabeef709c732f8e1","686e310bb33df44bf20e9718","6669f64ecd7e3ec30632f607","","[{""page_index"":0,""viewing_time"":9483},{""page_index"":1,""viewing_time"":34583}]","","","","","","","","","","","","","","","","","","","","","","","","","","","","","","","","","","","","","","","","","","",""
"33313","","","{""Q0"":"""",""Q1"":"""",""Q2"":"""",""Q3"":"""",""Q4"":"""",""Q5"":"""",""Q6"":""I agree""}","survey-multi-choice","2","92486","0.0-2.0","128","1","2025-07-09 09:08:47","7701e855f2ef39aa3fd6c71abdc6918a","216.120.189.233","Mozilla/5.0 (Windows NT 10.0; Win64; x64) AppleWebKit/537.36 (KHTML, like Gecko) Chrome/137.0.0.0 Safari/537.36","WebKit","Chrome","137.0.0.0","Windows","10.0","https://app.prolific.com/","en-US,en;q=0.9","6669f64ecd7e3ec30632f607","686d226cabeef709c732f8e1","686e310bb33df44bf20e9718","6669f64ecd7e3ec30632f607","","","[0,1,2,3,4,5,6]","true","","","","","","","","","","","","","","","","","","","","","","","","","","","","","","","","","","","","","","","","",""
"26024","","","","fullscreen","3","119592","0.0-4.0","128","1","2025-07-09 09:08:47","7701e855f2ef39aa3fd6c71abdc6918a","216.120.189.233","Mozilla/5.0 (Windows NT 10.0; Win64; x64) AppleWebKit/537.36 (KHTML, like Gecko) Chrome/137.0.0.0 Safari/537.36","WebKit","Chrome","137.0.0.0","Windows","10.0","https://app.prolific.com/","en-US,en;q=0.9","6669f64ecd7e3ec30632f607","686d226cabeef709c732f8e1","686e310bb33df44bf20e9718","6669f64ecd7e3ec30632f607","","","","","true","","","","","","","","","","","","","","","","","","","","","","","","","","","","","","","","","","","","","","","",""
"7567","1752052260725"," <p style='font-size:1.1em;line-height:1.25'>Thank you for completing the consent form and closing all other tabs.</p><p style='font-size:1.1em;line-height:1.25'>We will now invite you to fill in some demographic information and questionnaires, before starting the game.<br>This will take about 5 minutes.<br></p><p style='font-size:1.1em;line-height:1.25'>Press the <strong>Next</strong> button to continue.</p>","0","custom-html-button-response","4","127167","0.0-5.0","128","1","2025-07-09 09:08:47","7701e855f2ef39aa3fd6c71abdc6918a","216.120.189.233","Mozilla/5.0 (Windows NT 10.0; Win64; x64) AppleWebKit/537.36 (KHTML, like Gecko) Chrome/137.0.0.0 Safari/537.36","WebKit","Chrome","137.0.0.0","Windows","10.0","https://app.prolific.com/","en-US,en;q=0.9","6669f64ecd7e3ec30632f607","686d226cabeef709c732f8e1","686e310bb33df44bf20e9718","6669f64ecd7e3ec30632f607","2025-07-09T09:11:00.726Z","","","","","","","","","","","","","","","","","","","","","","","","","","","","","","","","","","","","","","","","","","","",""
"4185","","","{""age"":""25""}","survey-text","5","131370","0.0-6.0-0.0","128","1","2025-07-09 09:08:47","7701e855f2ef39aa3fd6c71abdc6918a","216.120.189.233","Mozilla/5.0 (Windows NT 10.0; Win64; x64) AppleWebKit/537.36 (KHTML, like Gecko) Chrome/137.0.0.0 Safari/537.36","WebKit","Chrome","137.0.0.0","Windows","10.0","https://app.prolific.com/","en-US,en;q=0.9","6669f64ecd7e3ec30632f607","686d226cabeef709c732f8e1","686e310bb33df44bf20e9718","6669f64ecd7e3ec30632f607","","","","","","0","demographics","","","","","","","","","","","","","","","","","","","","","","","","","","","","","","","","","","","","","",""
"3934","","","{""gender_identity"":""female/woman""}","survey-multi-choice","6","135307","0.0-6.0-1.0","128","1","2025-07-09 09:08:47","7701e855f2ef39aa3fd6c71abdc6918a","216.120.189.233","Mozilla/5.0 (Windows NT 10.0; Win64; x64) AppleWebKit/537.36 (KHTML, like Gecko) Chrome/137.0.0.0 Safari/537.36","WebKit","Chrome","137.0.0.0","Windows","10.0","https://app.prolific.com/","en-US,en;q=0.9","6669f64ecd7e3ec30632f607","686d226cabeef709c732f8e1","686e310bb33df44bf20e9718","6669f64ecd7e3ec30632f607","","","[0]","","","1","demographics","","","","","","","","","","","","","","","","","","","","","","","","","","","","","","","","","","","","","",""
"3750","","","{""assigned_sex"":""female""}","survey-multi-choice","7","139060","0.0-6.0-2.0","128","1","2025-07-09 09:08:47","7701e855f2ef39aa3fd6c71abdc6918a","216.120.189.233","Mozilla/5.0 (Windows NT 10.0; Win64; x64) AppleWebKit/537.36 (KHTML, like Gecko) Chrome/137.0.0.0 Safari/537.36","WebKit","Chrome","137.0.0.0","Windows","10.0","https://app.prolific.com/","en-US,en;q=0.9","6669f64ecd7e3ec30632f607","686d226cabeef709c732f8e1","686e310bb33df44bf20e9718","6669f64ecd7e3ec30632f607","","","[0]","","","2","demographics","","","","","","","","","","","","","","","","","","","","","","","","","","","","","","","","","","","","","",""
"4833","","","{""menstrual_cycle"":""Yes""}","survey-multi-choice","8","143897","0.0-6.0-3.0","128","1","2025-07-09 09:08:47","7701e855f2ef39aa3fd6c71abdc6918a","216.120.189.233","Mozilla/5.0 (Windows NT 10.0; Win64; x64) AppleWebKit/537.36 (KHTML, like Gecko) Chrome/137.0.0.0 Safari/537.36","WebKit","Chrome","137.0.0.0","Windows","10.0","https://app.prolific.com/","en-US,en;q=0.9","6669f64ecd7e3ec30632f607","686d226cabeef709c732f8e1","686e310bb33df44bf20e9718","6669f64ecd7e3ec30632f607","","","[0]","","","4","demographics","","","","","","","","","","","","","","","","","","","","","","","","","","","","","","","","","","","","","",""
"4676","","","{""education"":""Bachelor's Degree (e.g., BA)""}","survey-multi-choice","9","148577","0.0-6.0-4.0","128","1","2025-07-09 09:08:47","7701e855f2ef39aa3fd6c71abdc6918a","216.120.189.233","Mozilla/5.0 (Windows NT 10.0; Win64; x64) AppleWebKit/537.36 (KHTML, like Gecko) Chrome/137.0.0.0 Safari/537.36","WebKit","Chrome","137.0.0.0","Windows","10.0","https://app.prolific.com/","en-US,en;q=0.9","6669f64ecd7e3ec30632f607","686d226cabeef709c732f8e1","686e310bb33df44bf20e9718","6669f64ecd7e3ec30632f607","","","[0]","","","5","demographics","","","","","","","","","","","","","","","","","","","","","","","","","","","","","","","","","","","","","",""
"13100","","","{""education"":""Master's Degree (e.g., MSc)""}","survey-multi-choice","10","161680","0.0-6.0-5.0","128","1","2025-07-09 09:08:47","7701e855f2ef39aa3fd6c71abdc6918a","216.120.189.233","Mozilla/5.0 (Windows NT 10.0; Win64; x64) AppleWebKit/537.36 (KHTML, like Gecko) Chrome/137.0.0.0 Safari/537.36","WebKit","Chrome","137.0.0.0","Windows","10.0","https://app.prolific.com/","en-US,en;q=0.9","6669f64ecd7e3ec30632f607","686d226cabeef709c732f8e1","686e310bb33df44bf20e9718","6669f64ecd7e3ec30632f607","2025-07-09T09:11:35.240Z","","[0]","","","6","demographics","","","","","","","","","","","","","","","","","","","","","","","","","","","","","","","","","","","","","",""
"14097","","","{""mental_health_condition"":""NO"",""mental_health_treatment"":""NO"",""psychiatric_medication"":""NO""}","survey-text","11","175797","0.0-7.0-0.0","128","1","2025-07-09 09:08:47","7701e855f2ef39aa3fd6c71abdc6918a","216.120.189.233","Mozilla/5.0 (Windows NT 10.0; Win64; x64) AppleWebKit/537.36 (KHTML, like Gecko) Chrome/137.0.0.0 Safari/537.36","WebKit","Chrome","137.0.0.0","Windows","10.0","https://app.prolific.com/","en-US,en;q=0.9","6669f64ecd7e3ec30632f607","686d226cabeef709c732f8e1","686e310bb33df44bf20e9718","6669f64ecd7e3ec30632f607","2025-07-09T09:11:49.356Z","","","","","1","mental_health","","","","","","","","","","","","","","","","","","","","","","","","","","","","","","","","","","","","","",""
"10658","","","{""depression_history"":[""Yes""]}","survey-multi-select","12","186480","0.0-7.0-1.0","128","1","2025-07-09 09:08:47","7701e855f2ef39aa3fd6c71abdc6918a","216.120.189.233","Mozilla/5.0 (Windows NT 10.0; Win64; x64) AppleWebKit/537.36 (KHTML, like Gecko) Chrome/137.0.0.0 Safari/537.36","WebKit","Chrome","137.0.0.0","Windows","10.0","https://app.prolific.com/","en-US,en;q=0.9","6669f64ecd7e3ec30632f607","686d226cabeef709c732f8e1","686e310bb33df44bf20e9718","6669f64ecd7e3ec30632f607","","","[0]","","","","mental_health","","","","","","","","","","","","","","","","","","","","","","","","","","","","","","","","","","","","","",""
"13563","","","{""depression_episodes"":""more than 5"",""depression_recent"":""Currently experiencing an episode""}","survey-multi-choice","13","200047","0.0-7.0-2.0-0.0","128","1","2025-07-09 09:08:47","7701e855f2ef39aa3fd6c71abdc6918a","216.120.189.233","Mozilla/5.0 (Windows NT 10.0; Win64; x64) AppleWebKit/537.36 (KHTML, like Gecko) Chrome/137.0.0.0 Safari/537.36","WebKit","Chrome","137.0.0.0","Windows","10.0","https://app.prolific.com/","en-US,en;q=0.9","6669f64ecd7e3ec30632f607","686d226cabeef709c732f8e1","686e310bb33df44bf20e9718","6669f64ecd7e3ec30632f607","2025-07-09T09:12:13.607Z","","[0,1]","","","3","mental_health","","","","","","","","","","","","","","","","","","","","","","","","","","","","","","","","","","","","","",""
"71241.19999998808","","","","survey-template","14","271404","0.0-7.0-3.0","128","1","2025-07-09 09:08:47","7701e855f2ef39aa3fd6c71abdc6918a","216.120.189.233","Mozilla/5.0 (Windows NT 10.0; Win64; x64) AppleWebKit/537.36 (KHTML, like Gecko) Chrome/137.0.0.0 Safari/537.36","WebKit","Chrome","137.0.0.0","Windows","10.0","https://app.prolific.com/","en-US,en;q=0.9","6669f64ecd7e3ec30632f607","686d226cabeef709c732f8e1","686e310bb33df44bf20e9718","6669f64ecd7e3ec30632f607","2025-07-09T09:13:24.963Z","","","","","","ius","{""Q01"":""2"",""Q02"":""3"",""Q03"":""2"",""Q04"":""3"",""Q05"":""3"",""Q06"":""2"",""Q07"":""3"",""Q08"":""0"",""Q09"":""3"",""Q10"":""3"",""Q11"":""2"",""Q12"":""2"",""Q13"":""2""}","[0,1,2,3,4,5,6,7,8,9,10,11,12]","[""Q01"",""Q02"",""Q03"",""Q04"",""Q05"",""Q06"",""Q07"",""Q08"",""Q09"",""Q10"",""Q11"",""Q12"",""Q13""]","[8729.199999988079,17138.69999998808,19659.69999998808,24573.40000000596,29924.79999998212,40383.5,44078.09999999404,47077.69999998808,51948.09999999404,57210.40000000596,59968.09999999404,65178.40000000596,69663.90000000596]","[]","[7718.0999999940395,8729.199999988079,15460,17138.69999998808,19659.69999998808,24573.40000000596,27903.69999998808,29039.90000000596,29924.79999998212,40383.5,44078.09999999404,47077.69999998808,51948.09999999404,57210.40000000596,59968.09999999404,65178.40000000596,68790.19999998808,69663.90000000596,71235.09999999404]","0.46153846153846156","0.5","0","","","","","","","","","","","","","","","","","","","","","","","","","","","","",""
"3635","1752052408604","<p style='font-size:1.1em;line-height:1.25'>In the following, we will ask you a few questions relating to your experiences over the past month.<br></p><p style='font-size:1.1em;line-height:1.25'>Press the <strong>Next</strong> button to continue.</p>","0","custom-html-button-response","15","275046","0.0-7.0-4.0","128","1","2025-07-09 09:08:47","7701e855f2ef39aa3fd6c71abdc6918a","216.120.189.233","Mozilla/5.0 (Windows NT 10.0; Win64; x64) AppleWebKit/537.36 (KHTML, like Gecko) Chrome/137.0.0.0 Safari/537.36","WebKit","Chrome","137.0.0.0","Windows","10.0","https://app.prolific.com/","en-US,en;q=0.9","6669f64ecd7e3ec30632f607","686d226cabeef709c732f8e1","686e310bb33df44bf20e9718","6669f64ecd7e3ec30632f607","2025-07-09T09:13:28.605Z","","","","","","","","","","","","","","","","","","","","","","","","","","","","","","","","","","","","","","","","","","","",""
"74707.60000002384","","","","survey-template","16","349760","0.0-7.0-5.0","128","1","2025-07-09 09:08:47","7701e855f2ef39aa3fd6c71abdc6918a","216.120.189.233","Mozilla/5.0 (Windows NT 10.0; Win64; x64) AppleWebKit/537.36 (KHTML, like Gecko) Chrome/137.0.0.0 Safari/537.36","WebKit","Chrome","137.0.0.0","Windows","10.0","https://app.prolific.com/","en-US,en;q=0.9","6669f64ecd7e3ec30632f607","686d226cabeef709c732f8e1","686e310bb33df44bf20e9718","6669f64ecd7e3ec30632f607","2025-07-09T09:14:43.320Z","","","","","","pss","{""Q01"":""3"",""Q02"":""2"",""Q03"":""3"",""Q04"":""1"",""Q05"":""2"",""Q06"":""1"",""Q07"":""3"",""Q08"":""2"",""Q09"":""2"",""Q10"":""2""}","[0,1,2,3,4,5,6,7,8,9]","[""Q01"",""Q01"",""Q02"",""Q03"",""Q04"",""Q05"",""Q06"",""Q06"",""Q08"",""Q07"",""Q09"",""Q10""]","[5508.300000011921,9692.700000017881,13723.40000000596,20489.100000023842,28275.70000001788,33735.90000000596,41533.70000001788,48904.70000001788,57198.70000001788,59517.70000001788,67894.20000001788,73136.40000000596]","[]","[0.10000002384185791,5508.300000011921,9692.700000017881,13723.40000000596,16184.200000017881,17236.30000001192,17903.100000023842,20489.100000023842,27112.30000001192,28275.70000001788,33735.90000000596,41533.70000001788,48904.70000001788,57198.70000001788,59517.70000001788,67894.20000001788,73136.40000000596,74702.60000002384]","0.5","0.5555555555555556","0","","","","","","","","","","","","","","","","","","","","","","","","","","","","",""
"7626","1752052490948","<p style='font-size:1.1em;line-height:1.25'>Thank you for your answers! Now we will ask you a few more questions relating to your feelings in the last 24 hours.<br></p><p style='font-size:1.1em;line-height:1.25'>Press the <strong>Next</strong> button to continue.</p>","0","custom-html-button-response","17","357390","0.0-7.0-6.0","128","1","2025-07-09 09:08:47","7701e855f2ef39aa3fd6c71abdc6918a","216.120.189.233","Mozilla/5.0 (Windows NT 10.0; Win64; x64) AppleWebKit/537.36 (KHTML, like Gecko) Chrome/137.0.0.0 Safari/537.36","WebKit","Chrome","137.0.0.0","Windows","10.0","https://app.prolific.com/","en-US,en;q=0.9","6669f64ecd7e3ec30632f607","686d226cabeef709c732f8e1","686e310bb33df44bf20e9718","6669f64ecd7e3ec30632f607","2025-07-09T09:14:50.949Z","","","","","","","","","","","","","","","","","","","","","","","","","","","","","","","","","","","","","","","","","","","",""
"116143.80000001192","","","","survey-template","18","473547","0.0-7.0-7.0","128","1","2025-07-09 09:08:47","7701e855f2ef39aa3fd6c71abdc6918a","216.120.189.233","Mozilla/5.0 (Windows NT 10.0; Win64; x64) AppleWebKit/537.36 (KHTML, like Gecko) Chrome/137.0.0.0 Safari/537.36","WebKit","Chrome","137.0.0.0","Windows","10.0","https://app.prolific.com/","en-US,en;q=0.9","6669f64ecd7e3ec30632f607","686d226cabeef709c732f8e1","686e310bb33df44bf20e9718","6669f64ecd7e3ec30632f607","2025-07-09T09:16:47.106Z","","","","","","drsp","{""Q01"":""3"",""Q02"":""2"",""Q03"":""3"",""Q04"":""3"",""Q05"":""3"",""Q06"":""3"",""Q07"":""2"",""Q08"":""2"",""Q09"":""4"",""Q10"":""4"",""Q11"":""4"",""Q12"":""3"",""Q13"":""3"",""Q14"":""2"",""Q15"":""4"",""Q16"":""3"",""Q17"":""3"",""Q18"":""2"",""Q19"":""3"",""Q20"":""3"",""Q21"":""3""}","[0,1,2,3,4,5,6,7,8,9,10,11,12,13,14,15,16,17,18,19,20]","[""Q01"",""Q02"",""Q03"",""Q04"",""Q06"",""Q07"",""Q08"",""Q09"",""Q10"",""Q11"",""Q12"",""Q13"",""Q14"",""Q15"",""Q16"",""Q17"",""Q18"",""Q18"",""Q19"",""Q20"",""Q21"",""Q05""]","[10482.09999999404,13375.40000000596,15134.90000000596,18855.90000000596,27800,30347.80000001192,32744.80000001192,38371.90000000596,41142.59999999404,43077.5,44928.90000000596,46279.19999998808,50278.09999999404,54126.5,65441.30000001192,67817,73234.30000001192,73236.69999998808,88311.80000001192,91205,93624.80000001192,110888.69999998808]","[]","[0.09999999403953552,7861,10482.09999999404,12510.59999999404,13375.40000000596,15134.90000000596,18855.90000000596,27800,30347.80000001192,32744.80000001192,38371.90000000596,39950.90000000596,41142.59999999404,43077.5,44928.90000000596,46279.19999998808,50278.09999999404,54126.5,65441.30000001192,67817,73234.30000001192,73236.69999998808,82499.90000000596,88311.80000001192,91205,93624.80000001192,95254.19999998808,109161.30000001192,109608.90000000596,110888.69999998808,116129.90000000596]","0.5714285714285714","0.4","0","","","","","","","","","","","","","","","","","","","","","","","","","","","","",""
"23504.69999998808","","","","survey-template","19","497057","0.0-7.0-8.0","128","1","2025-07-09 09:08:47","7701e855f2ef39aa3fd6c71abdc6918a","216.120.189.233","Mozilla/5.0 (Windows NT 10.0; Win64; x64) AppleWebKit/537.36 (KHTML, like Gecko) Chrome/137.0.0.0 Safari/537.36","WebKit","Chrome","137.0.0.0","Windows","10.0","https://app.prolific.com/","en-US,en;q=0.9","6669f64ecd7e3ec30632f607","686d226cabeef709c732f8e1","686e310bb33df44bf20e9718","6669f64ecd7e3ec30632f607","2025-07-09T09:17:10.616Z","","","","","","stress","{""Q01"":""3"",""Q02"":""5"",""Q03"":""2""}","[0,1,2]","[""Q01"",""Q02"",""Q03""]","[11006.5,17189.19999998808,21282.90000000596]","[]","[7351.5999999940395,11006.5,17189.19999998808,21282.90000000596,23502.59999999404]","0.3333333333333333","0","0","","","","","","","","","","","","","","","","","","","","","","","","","","","","",""
"96554","","","","instructions","20","593614","0.0-8.0-0.0","128","1","2025-07-09 09:08:47","7701e855f2ef39aa3fd6c71abdc6918a","216.120.189.233","Mozilla/5.0 (Windows NT 10.0; Win64; x64) AppleWebKit/537.36 (KHTML, like Gecko) Chrome/137.0.0.0 Safari/537.36","WebKit","Chrome","137.0.0.0","Windows","10.0","https://app.prolific.com/","en-US,en;q=0.9","6669f64ecd7e3ec30632f607","686d226cabeef709c732f8e1","686e310bb33df44bf20e9718","6669f64ecd7e3ec30632f607","","[{""page_index"":0,""viewing_time"":44618},{""page_index"":1,""viewing_time"":18637},{""page_index"":2,""viewing_time"":13238},{""page_index"":3,""viewing_time"":20060}]","","","","","","","","","","","","","","","","","","","","","","","","","","","","","","","","","","","","","","","","","","",""
"","","","","ctl-task-cpt","21","635260","0.0-8.0-1.0","128","1","2025-07-09 09:08:47","7701e855f2ef39aa3fd6c71abdc6918a","216.120.189.233","Mozilla/5.0 (Windows NT 10.0; Win64; x64) AppleWebKit/537.36 (KHTML, like Gecko) Chrome/137.0.0.0 Safari/537.36","WebKit","Chrome","137.0.0.0","Windows","10.0","https://app.prolific.com/","en-US,en;q=0.9","6669f64ecd7e3ec30632f607","686d226cabeef709c732f8e1","686e310bb33df44bf20e9718","6669f64ecd7e3ec30632f607","","","","","","","","","","","","","","","","","win-only","2","g1:SE,g2:NW","1","0","1","600680.8","7627.5","11631.8","38525.2","2","4","4","6","1","2","-1","0","0","0","4004.2","4000","1140","[""down"",""right""]","{""num_key_presses"":11,""num_perfect"":6,""num_errors"":3,""num_randdir"":0,""num_randdir_good_moves"":0,""num_whilered"":2,""num_whileblue"":0,""num_blue"":1,""num_good_moves"":5}","[297.22232142857143,295.12857142857143,2.5,297.22232142857143,295.12857142857143,109.5,297.22232142857143,295.12857142857143,220.6,297.22232142857143,295.12857142857143,333,297.22232142857143,295.12857142857143,440.5,297.22232142857143,295.12857142857143,540.9,297.22232142857143,295.12857142857143,644,297.22232142857143,295.12857142857143,749,297.22232142857143,295.12857142857143,855.7,297.22232142857143,295.12857142857143,968.3,297.22232142857143,295.12857142857143,1084.3,297.22232142857143,295.12857142857143,1191,297.22232142857143,295.12857142857143,1299.6,297.22232142857143,295.12857142857143,1400.4,297.22232142857143,295.12857142857143,1507.7,297.22232142857143,295.12857142857143,1608.3,297.22232142857143,295.12857142857143,3877.2,297.22232142857143,295.12857142857143,3994.4]","[2736,2736,1000,0,1736,""smooth"",""left"",""left"",""bad_move"",3883.7,1146,2219.5,2737.8,-1073.5,""error"",""-"",""-"",""no_move"",4215.8,330.7,2219.5,2737.8,-741.5,""while_red"",""-"",""-"",""no_move"",4738.2,853.2,2219.5,2737.8,-219,""while_red"",""-"",""-"",""no_move"",8179.1,4294,2586.6,4893.3,699.2,""smooth"",""down"",""down"",""good_move"",8600.8,420.6,2683.9,8180.3,-2263.3,""error"",""-"",""-"",""no_move"",12848,4245.7,2313.8,9608,926.2,""smooth"",""down"",""down"",""good_move"",19225.4,6376.1,2708.2,16041.1,476.1,""smooth"",""right"",""right"",""good_move"",22544.9,3318.2,2675,19226.7,643.3,""smooth"",""right"",""right"",""good_move"",22820.1,273.5,2786.4,22546.6,-2512.9,""error"",""-"",""-"",""no_move"",26728.4,3907.5,2472.1,23823.3,433,""smooth"",""right"",""right"",""good_move""]","",""
"14039","","","","instructions","22","649303","0.0-8.0-2.0","128","1","2025-07-09 09:08:47","7701e855f2ef39aa3fd6c71abdc6918a","216.120.189.233","Mozilla/5.0 (Windows NT 10.0; Win64; x64) AppleWebKit/537.36 (KHTML, like Gecko) Chrome/137.0.0.0 Safari/537.36","WebKit","Chrome","137.0.0.0","Windows","10.0","https://app.prolific.com/","en-US,en;q=0.9","6669f64ecd7e3ec30632f607","686d226cabeef709c732f8e1","686e310bb33df44bf20e9718","6669f64ecd7e3ec30632f607","","[{""page_index"":0,""viewing_time"":14038}]","","","","","","","","","","","","","","","","","","","","","","","","","","","","","","","","","","","","","","","","","","",""
"","","","","ctl-task-cpt","23","710049","0.0-8.0-3.0","128","1","2025-07-09 09:08:47","7701e855f2ef39aa3fd6c71abdc6918a","216.120.189.233","Mozilla/5.0 (Windows NT 10.0; Win64; x64) AppleWebKit/537.36 (KHTML, like Gecko) Chrome/137.0.0.0 Safari/537.36","WebKit","Chrome","137.0.0.0","Windows","10.0","https://app.prolific.com/","en-US,en;q=0.9","6669f64ecd7e3ec30632f607","686d226cabeef709c732f8e1","686e310bb33df44bf20e9718","6669f64ecd7e3ec30632f607","","","","","","","","","","","","","","","","","win-only","2","g1:SE,g2:NW","0.35","0","3","656261.1","3677.7","7681.8","57722.6","2","4","8","6","2","-8","-10","0","0","0","4004.1","4000","-1670","[""left"",""up""]","{""num_key_presses"":12,""num_perfect"":4,""num_errors"":2,""num_randdir"":6,""num_randdir_good_moves"":3,""num_whilered"":0,""num_whileblue"":0,""num_blue"":4,""num_good_moves"":7}","[293.22232142857143,298.12857142857143,2,293.22232142857143,298.12857142857143,102.7,293.22232142857143,298.12857142857143,211,293.22232142857143,298.12857142857143,317.8,293.22232142857143,298.12857142857143,422.6,293.22232142857143,298.12857142857143,522.6,293.22232142857143,298.12857142857143,622.9,293.22232142857143,298.12857142857143,725.7,293.22232142857143,298.12857142857143,835.2,293.22232142857143,298.12857142857143,939,293.22232142857143,298.12857142857143,1046.5,293.22232142857143,298.12857142857143,1152.5,293.22232142857143,298.12857142857143,1252.9,293.22232142857143,298.12857142857143,1353.2,293.22232142857143,298.12857142857143,1454,293.22232142857143,298.12857142857143,1554.6,293.22232142857143,298.12857142857143,1655.5,293.22232142857143,298.12857142857143,1755.7,293.22232142857143,298.12857142857143,1858.3,293.22232142857143,298.12857142857143,1959.4,293.22232142857143,298.12857142857143,2069.1,293.22232142857143,298.12857142857143,2172.6,293.22232142857143,298.12857142857143,2272.6,293.22232142857143,298.12857142857143,2382.9,293.22232142857143,298.12857142857143,2484.7,293.22232142857143,298.12857142857143,2586.2,293.22232142857143,298.12857142857143,2687,293.22232142857143,298.12857142857143,2789,293.22232142857143,298.12857142857143,2902.3,293.22232142857143,298.12857142857143,3007.2,293.22232142857143,298.12857142857143,3110.9,293.22232142857143,298.12857142857143,3222.1,293.22232142857143,298.12857142857143,3323,293.22232142857143,298.12857142857143,3432,293.22232142857143,298.12857142857143,3532,293.22232142857143,298.12857142857143,3634.5,293.22232142857143,298.12857142857143,3740.2,293.22232142857143,298.12857142857143,3840.9,293.22232142857143,298.12857142857143,3942.9]","[5115.4,5115.4,2696.1,2008.6,410.7,""oops"",""left"",""left"",""good_move"",9097.5,3980.6,3347,5116.9,633.6,""smooth"",""left"",""left"",""good_move"",15388.3,6289.2,2567.2,12391.3,429.8,""smooth"",""left"",""left"",""good_move"",18676.1,3286.3,2815.5,15389.8,470.8,""smooth"",""up"",""up"",""good_move"",27458.1,8780.2,1915.7,25059.1,483.4,""oops"",""up"",""down"",""bad_move"",30102.6,2643,1996.7,27459.6,646.3,""oops"",""up"",""up"",""good_move"",32619.2,2515.2,1999.8,30104,515.4,""smooth"",""up"",""up"",""good_move"",35804.9,3181.9,2205,32623,976.9,""oops"",""up"",""right"",""bad_move"",38938.4,3132.2,2751.3,35806.4,380.7,""oops"",""up"",""down"",""bad_move"",40637.7,1696,2473.3,38941.9,-777.4,""error"",""-"",""-"",""no_move"",42128.5,1487.9,2956.2,41643.2,-2470.8,""error"",""-"",""-"",""no_move"",46522.3,4391.7,2903.9,43137.5,480.9,""oops"",""up"",""up"",""good_move""]","",""
"41225","","","","instructions","24","751276","0.0-8.0-4.0","128","1","2025-07-09 09:08:47","7701e855f2ef39aa3fd6c71abdc6918a","216.120.189.233","Mozilla/5.0 (Windows NT 10.0; Win64; x64) AppleWebKit/537.36 (KHTML, like Gecko) Chrome/137.0.0.0 Safari/537.36","WebKit","Chrome","137.0.0.0","Windows","10.0","https://app.prolific.com/","en-US,en;q=0.9","6669f64ecd7e3ec30632f607","686d226cabeef709c732f8e1","686e310bb33df44bf20e9718","6669f64ecd7e3ec30632f607","","[{""page_index"":0,""viewing_time"":7154},{""page_index"":1,""viewing_time"":34071}]","","","","","","","","","","","","","","","","","","","","","","","","","","","","","","","","","","","","","","","","","","",""
"14205","","","{""green_ball"":[""Ball always moves in the direction I press""]}","survey-multi-select","25","765488","0.0-8.0-5.0-0.0","128","1","2025-07-09 09:08:47","7701e855f2ef39aa3fd6c71abdc6918a","216.120.189.233","Mozilla/5.0 (Windows NT 10.0; Win64; x64) AppleWebKit/537.36 (KHTML, like Gecko) Chrome/137.0.0.0 Safari/537.36","WebKit","Chrome","137.0.0.0","Windows","10.0","https://app.prolific.com/","en-US,en;q=0.9","6669f64ecd7e3ec30632f607","686d226cabeef709c732f8e1","686e310bb33df44bf20e9718","6669f64ecd7e3ec30632f607","","","[0]","","","","quiz","","","","","","","","","","","","","","","","","","","","","","","","","","","","","","","","","","","","","false",""
"6534","","<p align='center'><b>INCORRECT.</b> Usually the green ball moves in the indicated direction, but sometimes it shakes and moves randomly. </p>","0","html-button-response","26","772027","0.0-8.0-5.0-1.0","128","1","2025-07-09 09:08:47","7701e855f2ef39aa3fd6c71abdc6918a","216.120.189.233","Mozilla/5.0 (Windows NT 10.0; Win64; x64) AppleWebKit/537.36 (KHTML, like Gecko) Chrome/137.0.0.0 Safari/537.36","WebKit","Chrome","137.0.0.0","Windows","10.0","https://app.prolific.com/","en-US,en;q=0.9","6669f64ecd7e3ec30632f607","686d226cabeef709c732f8e1","686e310bb33df44bf20e9718","6669f64ecd7e3ec30632f607","","","","","","","","","","","","","","","","","","","","","","","","","","","","","","","","","","","","","","","","","","","","",""
"9915","","","{""green_ball"":[""Ball always shakes and moves in a random direction""]}","survey-multi-select","27","781947","0.0-8.0-5.1-0.1","128","1","2025-07-09 09:08:47","7701e855f2ef39aa3fd6c71abdc6918a","216.120.189.233","Mozilla/5.0 (Windows NT 10.0; Win64; x64) AppleWebKit/537.36 (KHTML, like Gecko) Chrome/137.0.0.0 Safari/537.36","WebKit","Chrome","137.0.0.0","Windows","10.0","https://app.prolific.com/","en-US,en;q=0.9","6669f64ecd7e3ec30632f607","686d226cabeef709c732f8e1","686e310bb33df44bf20e9718","6669f64ecd7e3ec30632f607","","","[0]","","","","quiz","","","","","","","","","","","","","","","","","","","","","","","","","","","","","","","","","","","","","false",""
"3920","","<p align='center'><b>INCORRECT.</b> Usually the green ball moves in the indicated direction, but sometimes it shakes and moves randomly. </p>","0","html-button-response","28","785871","0.0-8.0-5.1-1.1","128","1","2025-07-09 09:08:47","7701e855f2ef39aa3fd6c71abdc6918a","216.120.189.233","Mozilla/5.0 (Windows NT 10.0; Win64; x64) AppleWebKit/537.36 (KHTML, like Gecko) Chrome/137.0.0.0 Safari/537.36","WebKit","Chrome","137.0.0.0","Windows","10.0","https://app.prolific.com/","en-US,en;q=0.9","6669f64ecd7e3ec30632f607","686d226cabeef709c732f8e1","686e310bb33df44bf20e9718","6669f64ecd7e3ec30632f607","","","","","","","","","","","","","","","","","","","","","","","","","","","","","","","","","","","","","","","","","","","","",""
"3101","","","{""green_ball"":[""Ball sometimes shakes and moves in a random direction""]}","survey-multi-select","29","788977","0.0-8.0-5.2-0.2","128","1","2025-07-09 09:08:47","7701e855f2ef39aa3fd6c71abdc6918a","216.120.189.233","Mozilla/5.0 (Windows NT 10.0; Win64; x64) AppleWebKit/537.36 (KHTML, like Gecko) Chrome/137.0.0.0 Safari/537.36","WebKit","Chrome","137.0.0.0","Windows","10.0","https://app.prolific.com/","en-US,en;q=0.9","6669f64ecd7e3ec30632f607","686d226cabeef709c732f8e1","686e310bb33df44bf20e9718","6669f64ecd7e3ec30632f607","","","[0]","","","","quiz","","","","","","","","","","","","","","","","","","","","","","","","","","","","","","","","","","","","","true",""
"3109","","<p align='center'><b>CORRECT!</b> Indeed, the green ball may sometimes shake and move in a random direction.</p>","0","html-button-response","30","792090","0.0-8.0-5.2-1.2","128","1","2025-07-09 09:08:47","7701e855f2ef39aa3fd6c71abdc6918a","216.120.189.233","Mozilla/5.0 (Windows NT 10.0; Win64; x64) AppleWebKit/537.36 (KHTML, like Gecko) Chrome/137.0.0.0 Safari/537.36","WebKit","Chrome","137.0.0.0","Windows","10.0","https://app.prolific.com/","en-US,en;q=0.9","6669f64ecd7e3ec30632f607","686d226cabeef709c732f8e1","686e310bb33df44bf20e9718","6669f64ecd7e3ec30632f607","","","","","","","","","","","","","","","","","","","","","","","","","","","","","","","","","","","","","","","","","","","","",""
"16320","","","{""yellow_ball"":[""Ball always shakes and moves in a random direction""]}","survey-multi-select","31","808415","0.0-8.0-6.0-0.0","128","1","2025-07-09 09:08:47","7701e855f2ef39aa3fd6c71abdc6918a","216.120.189.233","Mozilla/5.0 (Windows NT 10.0; Win64; x64) AppleWebKit/537.36 (KHTML, like Gecko) Chrome/137.0.0.0 Safari/537.36","WebKit","Chrome","137.0.0.0","Windows","10.0","https://app.prolific.com/","en-US,en;q=0.9","6669f64ecd7e3ec30632f607","686d226cabeef709c732f8e1","686e310bb33df44bf20e9718","6669f64ecd7e3ec30632f607","","","[0]","","","","quiz","","","","","","","","","","","","","","","","","","","","","","","","","","","","","","","","","","","","","false",""
"2887","","<p align='center'><b>INCORRECT.</b> The yellow ball never moves and you reveice a penalty if you press anyways. </p>","0","html-button-response","32","811306","0.0-8.0-6.0-1.0","128","1","2025-07-09 09:08:47","7701e855f2ef39aa3fd6c71abdc6918a","216.120.189.233","Mozilla/5.0 (Windows NT 10.0; Win64; x64) AppleWebKit/537.36 (KHTML, like Gecko) Chrome/137.0.0.0 Safari/537.36","WebKit","Chrome","137.0.0.0","Windows","10.0","https://app.prolific.com/","en-US,en;q=0.9","6669f64ecd7e3ec30632f607","686d226cabeef709c732f8e1","686e310bb33df44bf20e9718","6669f64ecd7e3ec30632f607","","","","","","","","","","","","","","","","","","","","","","","","","","","","","","","","","","","","","","","","","","","","",""
"5993","","","{""yellow_ball"":[""Ball doesn‘t move and I get -1 penalty point""]}","survey-multi-select","33","817304","0.0-8.0-6.1-0.1","128","1","2025-07-09 09:08:47","7701e855f2ef39aa3fd6c71abdc6918a","216.120.189.233","Mozilla/5.0 (Windows NT 10.0; Win64; x64) AppleWebKit/537.36 (KHTML, like Gecko) Chrome/137.0.0.0 Safari/537.36","WebKit","Chrome","137.0.0.0","Windows","10.0","https://app.prolific.com/","en-US,en;q=0.9","6669f64ecd7e3ec30632f607","686d226cabeef709c732f8e1","686e310bb33df44bf20e9718","6669f64ecd7e3ec30632f607","","","[0]","","","","quiz","","","","","","","","","","","","","","","","","","","","","","","","","","","","","","","","","","","","","true",""
"1611","","<p align='center'><b>CORRECT!</b> Indeed, the yellow ball never moves and you receive a penalty.</p>","0","html-button-response","34","818917","0.0-8.0-6.1-1.1","128","1","2025-07-09 09:08:47","7701e855f2ef39aa3fd6c71abdc6918a","216.120.189.233","Mozilla/5.0 (Windows NT 10.0; Win64; x64) AppleWebKit/537.36 (KHTML, like Gecko) Chrome/137.0.0.0 Safari/537.36","WebKit","Chrome","137.0.0.0","Windows","10.0","https://app.prolific.com/","en-US,en;q=0.9","6669f64ecd7e3ec30632f607","686d226cabeef709c732f8e1","686e310bb33df44bf20e9718","6669f64ecd7e3ec30632f607","","","","","","","","","","","","","","","","","","","","","","","","","","","","","","","","","","","","","","","","","","","","",""
"12546","","","{""blue_ball"":[""Ball doesn‘t move and I get -1 penalty point""]}","survey-multi-select","35","831468","0.0-8.0-7.0-0.0","128","1","2025-07-09 09:08:47","7701e855f2ef39aa3fd6c71abdc6918a","216.120.189.233","Mozilla/5.0 (Windows NT 10.0; Win64; x64) AppleWebKit/537.36 (KHTML, like Gecko) Chrome/137.0.0.0 Safari/537.36","WebKit","Chrome","137.0.0.0","Windows","10.0","https://app.prolific.com/","en-US,en;q=0.9","6669f64ecd7e3ec30632f607","686d226cabeef709c732f8e1","686e310bb33df44bf20e9718","6669f64ecd7e3ec30632f607","","","[0]","","","","quiz","","","","","","","","","","","","","","","","","","","","","","","","","","","","","","","","","","","","","false",""
"1938","","<p align='center'><b>INCORRECT.</b> The blue ball always shakes and moves randomly.</p>","0","html-button-response","36","833410","0.0-8.0-7.0-1.0","128","1","2025-07-09 09:08:47","7701e855f2ef39aa3fd6c71abdc6918a","216.120.189.233","Mozilla/5.0 (Windows NT 10.0; Win64; x64) AppleWebKit/537.36 (KHTML, like Gecko) Chrome/137.0.0.0 Safari/537.36","WebKit","Chrome","137.0.0.0","Windows","10.0","https://app.prolific.com/","en-US,en;q=0.9","6669f64ecd7e3ec30632f607","686d226cabeef709c732f8e1","686e310bb33df44bf20e9718","6669f64ecd7e3ec30632f607","","","","","","","","","","","","","","","","","","","","","","","","","","","","","","","","","","","","","","","","","","","","",""
"5989","","","{""blue_ball"":[""Ball always shakes and moves in a random direction""]}","survey-multi-select","37","839404","0.0-8.0-7.1-0.1","128","1","2025-07-09 09:08:47","7701e855f2ef39aa3fd6c71abdc6918a","216.120.189.233","Mozilla/5.0 (Windows NT 10.0; Win64; x64) AppleWebKit/537.36 (KHTML, like Gecko) Chrome/137.0.0.0 Safari/537.36","WebKit","Chrome","137.0.0.0","Windows","10.0","https://app.prolific.com/","en-US,en;q=0.9","6669f64ecd7e3ec30632f607","686d226cabeef709c732f8e1","686e310bb33df44bf20e9718","6669f64ecd7e3ec30632f607","","","[0]","","","","quiz","","","","","","","","","","","","","","","","","","","","","","","","","","","","","","","","","","","","","true",""
"4008","","<p align='center'><b>CORRECT!</b> Indeed, the blue ball always shakes and moves in a random direction. Also there is a penalty of -1 point.</p>","0","html-button-response","38","843415","0.0-8.0-7.1-1.1","128","1","2025-07-09 09:08:47","7701e855f2ef39aa3fd6c71abdc6918a","216.120.189.233","Mozilla/5.0 (Windows NT 10.0; Win64; x64) AppleWebKit/537.36 (KHTML, like Gecko) Chrome/137.0.0.0 Safari/537.36","WebKit","Chrome","137.0.0.0","Windows","10.0","https://app.prolific.com/","en-US,en;q=0.9","6669f64ecd7e3ec30632f607","686d226cabeef709c732f8e1","686e310bb33df44bf20e9718","6669f64ecd7e3ec30632f607","","","","","","","","","","","","","","","","","","","","","","","","","","","","","","","","","","","","","","","","","","","","",""
"7256","","","{""bonus"":[""When I reach 50% of points""]}","survey-multi-select","39","850677","0.0-8.0-8.0-0.0","128","1","2025-07-09 09:08:47","7701e855f2ef39aa3fd6c71abdc6918a","216.120.189.233","Mozilla/5.0 (Windows NT 10.0; Win64; x64) AppleWebKit/537.36 (KHTML, like Gecko) Chrome/137.0.0.0 Safari/537.36","WebKit","Chrome","137.0.0.0","Windows","10.0","https://app.prolific.com/","en-US,en;q=0.9","6669f64ecd7e3ec30632f607","686d226cabeef709c732f8e1","686e310bb33df44bf20e9718","6669f64ecd7e3ec30632f607","","","[0]","","","","quiz","","","","","","","","","","","","","","","","","","","","","","","","","","","","","","","","","","","","","true",""
"2412","","<p align='center'><b>CORRECT!</b> Indeed, you receive 2 pounds extra when you reach 50% of points.</p>","0","html-button-response","40","853093","0.0-8.0-8.0-1.0","128","1","2025-07-09 09:08:47","7701e855f2ef39aa3fd6c71abdc6918a","216.120.189.233","Mozilla/5.0 (Windows NT 10.0; Win64; x64) AppleWebKit/537.36 (KHTML, like Gecko) Chrome/137.0.0.0 Safari/537.36","WebKit","Chrome","137.0.0.0","Windows","10.0","https://app.prolific.com/","en-US,en;q=0.9","6669f64ecd7e3ec30632f607","686d226cabeef709c732f8e1","686e310bb33df44bf20e9718","6669f64ecd7e3ec30632f607","","","","","","","","","","","","","","","","","","","","","","","","","","","","","","","","","","","","","","","","","","","","",""
"4737","","","","instructions","41","857831","0.0-8.0-9.0","128","1","2025-07-09 09:08:47","7701e855f2ef39aa3fd6c71abdc6918a","216.120.189.233","Mozilla/5.0 (Windows NT 10.0; Win64; x64) AppleWebKit/537.36 (KHTML, like Gecko) Chrome/137.0.0.0 Safari/537.36","WebKit","Chrome","137.0.0.0","Windows","10.0","https://app.prolific.com/","en-US,en;q=0.9","6669f64ecd7e3ec30632f607","686d226cabeef709c732f8e1","686e310bb33df44bf20e9718","6669f64ecd7e3ec30632f607","","[{""page_index"":0,""viewing_time"":4736}]","","","","","","","","","","","","","","","","","","","","","","","","","","","","","","","","","","","","","","","","","","",""
"18962","","<p>Before you start with this game please answer the following three questions yourself. </p>
  <p>Through this game, we measure several aspects of your cognitive performance, such as reaction times, multi-tasking capabilities </p>
  <p>and the ability to assess the situation you are in.</p>
  <p></p>
  <p><b>How good do you usually are in such tasks?</b></p>","74","html-slider-response","42","876797","0.0-9.0-0.0","128","1","2025-07-09 09:08:47","7701e855f2ef39aa3fd6c71abdc6918a","216.120.189.233","Mozilla/5.0 (Windows NT 10.0; Win64; x64) AppleWebKit/537.36 (KHTML, like Gecko) Chrome/137.0.0.0 Safari/537.36","WebKit","Chrome","137.0.0.0","Windows","10.0","https://app.prolific.com/","en-US,en;q=0.9","6669f64ecd7e3ec30632f607","686d226cabeef709c732f8e1","686e310bb33df44bf20e9718","6669f64ecd7e3ec30632f607","2025-07-09T09:23:30.357Z","","","","","","PreSkillQ","","","","","","","","","","","","","","","","","","","","","","","","","","","","","","","","","","","","","","50"
"10284","","<div style=""width:500px;"">
  <p>How well do you think you will perform in this task compared to other participants?</p>
  </div>","67","html-slider-response","43","887085","0.0-9.0-1.0","128","1","2025-07-09 09:08:47","7701e855f2ef39aa3fd6c71abdc6918a","216.120.189.233","Mozilla/5.0 (Windows NT 10.0; Win64; x64) AppleWebKit/537.36 (KHTML, like Gecko) Chrome/137.0.0.0 Safari/537.36","WebKit","Chrome","137.0.0.0","Windows","10.0","https://app.prolific.com/","en-US,en;q=0.9","6669f64ecd7e3ec30632f607","686d226cabeef709c732f8e1","686e310bb33df44bf20e9718","6669f64ecd7e3ec30632f607","2025-07-09T09:23:40.644Z","","","","","","PrePerfQ","","","","","","","","","","","","","","","","","","","","","","","","","","","","","","","","","","","","","","50"
"5372","","<div style=""width:500px;"">
  <p>What best describes how you currently feel?</p>
  </div>","75","html-slider-response","44","892460","0.0-9.0-2.0","128","1","2025-07-09 09:08:47","7701e855f2ef39aa3fd6c71abdc6918a","216.120.189.233","Mozilla/5.0 (Windows NT 10.0; Win64; x64) AppleWebKit/537.36 (KHTML, like Gecko) Chrome/137.0.0.0 Safari/537.36","WebKit","Chrome","137.0.0.0","Windows","10.0","https://app.prolific.com/","en-US,en;q=0.9","6669f64ecd7e3ec30632f607","686d226cabeef709c732f8e1","686e310bb33df44bf20e9718","6669f64ecd7e3ec30632f607","2025-07-09T09:23:46.019Z","","","","","","PreMotivationQ","","","","","","","","","","","","","","","","","","","","","","","","","","","","","","","","","","","","","","50"
"","","","","ctl-task-cpt","45","922100","0.0-10.0-0.0","128","1","2025-07-09 09:08:47","7701e855f2ef39aa3fd6c71abdc6918a","216.120.189.233","Mozilla/5.0 (Windows NT 10.0; Win64; x64) AppleWebKit/537.36 (KHTML, like Gecko) Chrome/137.0.0.0 Safari/537.36","WebKit","Chrome","137.0.0.0","Windows","10.0","https://app.prolific.com/","en-US,en;q=0.9","6669f64ecd7e3ec30632f607","686d226cabeef709c732f8e1","686e310bb33df44bf20e9718","6669f64ecd7e3ec30632f607","2025-07-09T09:24:15.659Z","","","","","","","","","","","","","","","","win-only","1","g1:NE,g2:SW","1","1","0","899422.6","3269.1","8281.5","26622.3","1","4","4","6","2","4","3","3","0","0.022727272727272728","1735.5","3000","980","[""down"",""left""]","{""num_key_presses"":7,""num_perfect"":6,""num_errors"":1,""num_randdir"":0,""num_randdir_good_moves"":0,""num_whilered"":0,""num_whileblue"":0,""num_blue"":0,""num_good_moves"":6}","[302.22232142857143,289.12857142857143,4,302.22232142857143,289.12857142857143,119.1,302.22232142857143,289.12857142857143,222.6,302.22232142857143,289.12857142857143,323.4,302.22232142857143,289.12857142857143,427.7,302.22232142857143,289.12857142857143,533.8,302.22232142857143,289.12857142857143,643.1,302.22232142857143,289.12857142857143,747.2,302.22232142857143,289.12857142857143,859.4,218.22232142857143,298.12857142857143,960.8,-23.777678571428574,531.1285714285714,1068.6,-16.777678571428574,551.1285714285714,1179,-16.777678571428574,551.1285714285714,1279.1,-11.777678571428574,552.1285714285714,1391.9,13.222321428571426,547.1285714285714,1499,20.222321428571426,538.1285714285714,1600.4,20.222321428571426,538.1285714285714,1725,20.222321428571426,538.1285714285714,1838.1,20.222321428571426,538.1285714285714,1939.3,20.222321428571426,538.1285714285714,2040,20.222321428571426,538.1285714285714,2147.6,20.222321428571426,538.1285714285714,2259.4,20.222321428571426,538.1285714285714,2365.3,20.222321428571426,538.1285714285714,2469.3,20.222321428571426,538.1285714285714,2573,20.222321428571426,538.1285714285714,2686,20.222321428571426,538.1285714285714,2786,20.222321428571426,538.1285714285714,2890,20.222321428571426,538.1285714285714,2994.2,20.222321428571426,538.1285714285714,3097.4,20.222321428571426,538.1285714285714,3202.6,20.222321428571426,538.1285714285714,3309.9,20.222321428571426,538.1285714285714,3413,20.222321428571426,538.1285714285714,3516.2,20.222321428571426,538.1285714285714,3617.3,20.222321428571426,538.1285714285714,3718.1,20.222321428571426,538.1285714285714,3819,20.222321428571426,538.1285714285714,3935.6,20.222321428571426,538.1285714285714,4036.1,20.222321428571426,538.1285714285714,4137.1,20.222321428571426,538.1285714285714,4244.1,20.222321428571426,538.1285714285714,4344.1,20.222321428571426,538.1285714285714,4446,20.222321428571426,538.1285714285714,4561.5,20.222321428571426,538.1285714285714,4664.2,20.222321428571426,538.1285714285714,4780,20.222321428571426,538.1285714285714,4880,20.222321428571426,538.1285714285714,4985.6]","[806.6,806.7,1000,0,-193.3,""error"",""-"",""-"",""no_move"",4692.3,3871.6,2323.6,1821.1,547.6,""smooth"",""down"",""down"",""good_move"",7170.5,2474.2,1878.9,4696.4,595.3,""smooth"",""left"",""left"",""good_move"",10144.4,2972.2,2448.2,7172.2,524,""smooth"",""down"",""down"",""good_move"",13383.4,3237.2,2171.6,10146.2,1065.6,""smooth"",""down"",""down"",""good_move"",15964.1,2578.5,2063.9,13385.7,514.5,""smooth"",""left"",""left"",""good_move"",18164.4,2198.5,1731.1,15965.9,467.4,""smooth"",""left"",""left"",""good_move""]","",""
"11189","","<div style=""width:500px;"">
  <p>What determined the result of this run?</p>
  </div>","73","html-slider-response","46","933294","0.0-10.0-1.0","128","1","2025-07-09 09:08:47","7701e855f2ef39aa3fd6c71abdc6918a","216.120.189.233","Mozilla/5.0 (Windows NT 10.0; Win64; x64) AppleWebKit/537.36 (KHTML, like Gecko) Chrome/137.0.0.0 Safari/537.36","WebKit","Chrome","137.0.0.0","Windows","10.0","https://app.prolific.com/","en-US,en;q=0.9","6669f64ecd7e3ec30632f607","686d226cabeef709c732f8e1","686e310bb33df44bf20e9718","6669f64ecd7e3ec30632f607","2025-07-09T09:24:26.853Z","","","","","","AttribQ","","","","","","","","","","","","","","","","","","","","","","","","","","","","","","","","","","","","","","50"
"45899","","<div style=""width:500px;"">
  <p>How much control did you have over the ball?</p>
  </div>","82","html-slider-response","47","979197","0.0-10.0-2.0","128","1","2025-07-09 09:08:47","7701e855f2ef39aa3fd6c71abdc6918a","216.120.189.233","Mozilla/5.0 (Windows NT 10.0; Win64; x64) AppleWebKit/537.36 (KHTML, like Gecko) Chrome/137.0.0.0 Safari/537.36","WebKit","Chrome","137.0.0.0","Windows","10.0","https://app.prolific.com/","en-US,en;q=0.9","6669f64ecd7e3ec30632f607","686d226cabeef709c732f8e1","686e310bb33df44bf20e9718","6669f64ecd7e3ec30632f607","2025-07-09T09:25:12.757Z","","","","","","ControlQ","","","","","","","","","","","","","","","","","","","","","","","","","","","","","","","","","","","","","","50"
"7442","","<div style=""width:500px;"">
  <p>How would you describe your current emotional state?</p>
  </div>","19","html-slider-response","48","986643","0.0-10.0-3.0","128","1","2025-07-09 09:08:47","7701e855f2ef39aa3fd6c71abdc6918a","216.120.189.233","Mozilla/5.0 (Windows NT 10.0; Win64; x64) AppleWebKit/537.36 (KHTML, like Gecko) Chrome/137.0.0.0 Safari/537.36","WebKit","Chrome","137.0.0.0","Windows","10.0","https://app.prolific.com/","en-US,en;q=0.9","6669f64ecd7e3ec30632f607","686d226cabeef709c732f8e1","686e310bb33df44bf20e9718","6669f64ecd7e3ec30632f607","2025-07-09T09:25:20.202Z","","","","","","StressQ","","","","","","","","","","","","","","","","","","","","","","","","","","","","","","","","","","","","","","50"
"4969","","<div style=""width:500px;"">
  <p>What best describes how you currently feel?</p>
  </div>","72","html-slider-response","49","991616","0.0-10.0-4.0","128","1","2025-07-09 09:08:47","7701e855f2ef39aa3fd6c71abdc6918a","216.120.189.233","Mozilla/5.0 (Windows NT 10.0; Win64; x64) AppleWebKit/537.36 (KHTML, like Gecko) Chrome/137.0.0.0 Safari/537.36","WebKit","Chrome","137.0.0.0","Windows","10.0","https://app.prolific.com/","en-US,en;q=0.9","6669f64ecd7e3ec30632f607","686d226cabeef709c732f8e1","686e310bb33df44bf20e9718","6669f64ecd7e3ec30632f607","2025-07-09T09:25:25.175Z","","","","","","MotivationQ","","","","","","","","","","","","","","","","","","","","","","","","","","","","","","","","","","","","","","50"
"","","","","ctl-task-cpt","50","1036172","0.0-10.0-0.1","128","1","2025-07-09 09:08:47","7701e855f2ef39aa3fd6c71abdc6918a","216.120.189.233","Mozilla/5.0 (Windows NT 10.0; Win64; x64) AppleWebKit/537.36 (KHTML, like Gecko) Chrome/137.0.0.0 Safari/537.36","WebKit","Chrome","137.0.0.0","Windows","10.0","https://app.prolific.com/","en-US,en;q=0.9","6669f64ecd7e3ec30632f607","686d226cabeef709c732f8e1","686e310bb33df44bf20e9718","6669f64ecd7e3ec30632f607","2025-07-09T09:26:09.732Z","","","","","","","","","","","","","","","","win-only","3","g1:SW,g2:NE","0.9","2","0","998575.9","3769.8","8788.2","41535","1","4","8","6","2","8","8","11","3","0.08333333333333333","2203.1","3000","1340","[""up"",""right""]","{""num_key_presses"":6,""num_perfect"":5,""num_errors"":0,""num_randdir"":1,""num_randdir_good_moves"":1,""num_whilered"":0,""num_whileblue"":0,""num_blue"":5,""num_good_moves"":6}","[297.22232142857143,299.12857142857143,1.5,297.22232142857143,299.12857142857143,118.1,297.22232142857143,299.12857142857143,222.3,297.22232142857143,299.12857142857143,324.3,297.22232142857143,299.12857142857143,430.5,297.22232142857143,299.12857142857143,544.6,297.22232142857143,299.12857142857143,649.7,297.22232142857143,299.12857142857143,753.3,297.22232142857143,299.12857142857143,856.8,297.22232142857143,299.12857142857143,969.3,297.22232142857143,299.12857142857143,1072.3,297.22232142857143,299.12857142857143,1175.8,297.22232142857143,299.12857142857143,1276.4,399.22232142857143,199.12857142857143,1380,575.2223214285714,-0.8714285714285737,1486.1,587.2223214285714,-9.871428571428574,1591.1,591.2223214285714,-10.871428571428574,1704.7,538.2223214285714,44.128571428571426,1807,533.2223214285714,49.128571428571426,1927.4,531.2223214285714,50.128571428571426,2028.8,531.2223214285714,50.128571428571426,2130.7,531.2223214285714,50.128571428571426,2243,531.2223214285714,50.128571428571426,2350.2,531.2223214285714,50.128571428571426,2454.3,531.2223214285714,50.128571428571426,2573.3,531.2223214285714,50.128571428571426,2676.3,531.2223214285714,50.128571428571426,2777.8,531.2223214285714,50.128571428571426,2893.6,531.2223214285714,50.128571428571426,2999.4,531.2223214285714,50.128571428571426,3100.8,531.2223214285714,50.128571428571426,3203.2,531.2223214285714,50.128571428571426,3320.9,531.2223214285714,50.128571428571426,3426.7,531.2223214285714,50.128571428571426,3527.5,531.2223214285714,50.128571428571426,3645.3,531.2223214285714,50.128571428571426,3747.3,531.2223214285714,50.128571428571426,3847.5,531.2223214285714,50.128571428571426,3950,531.2223214285714,50.128571428571426,4052.1,531.2223214285714,50.128571428571426,4166.4,531.2223214285714,50.128571428571426,4271.7,531.2223214285714,50.128571428571426,4371.8,531.2223214285714,50.128571428571426,4473.3,531.2223214285714,50.128571428571426,4592.5,531.2223214285714,50.128571428571426,4695.5,531.2223214285714,50.128571428571426,4800.1,531.2223214285714,50.128571428571426,4900.2]","[4574.2,4574.2,2008.4,2021.5,544.3,""oops"",""up"",""up"",""good_move"",10732.6,6156.4,2257.4,8025.4,449.8,""smooth"",""right"",""right"",""good_move"",20255.3,9521,2272.9,17560.5,421.9,""smooth"",""right"",""right"",""good_move"",23503.4,3242.6,2749.3,20260.8,493.3,""smooth"",""right"",""right"",""good_move"",26368,2863.1,2307.1,23505,555.9,""smooth"",""up"",""up"",""good_move"",32575,6203.9,2428.5,29566.4,580.1,""smooth"",""up"",""up"",""good_move""]","",""
"3716","","<div style=""width:500px;"">
  <p>What determined the result of this run?</p>
  </div>","82","html-slider-response","51","1039893","0.0-10.0-1.1","128","1","2025-07-09 09:08:47","7701e855f2ef39aa3fd6c71abdc6918a","216.120.189.233","Mozilla/5.0 (Windows NT 10.0; Win64; x64) AppleWebKit/537.36 (KHTML, like Gecko) Chrome/137.0.0.0 Safari/537.36","WebKit","Chrome","137.0.0.0","Windows","10.0","https://app.prolific.com/","en-US,en;q=0.9","6669f64ecd7e3ec30632f607","686d226cabeef709c732f8e1","686e310bb33df44bf20e9718","6669f64ecd7e3ec30632f607","2025-07-09T09:26:13.452Z","","","","","","AttribQ","","","","","","","","","","","","","","","","","","","","","","","","","","","","","","","","","","","","","","50"
"8775","","<div style=""width:500px;"">
  <p>How much control did you have over the ball?</p>
  </div>","66","html-slider-response","52","1048672","0.0-10.0-2.1","128","1","2025-07-09 09:08:47","7701e855f2ef39aa3fd6c71abdc6918a","216.120.189.233","Mozilla/5.0 (Windows NT 10.0; Win64; x64) AppleWebKit/537.36 (KHTML, like Gecko) Chrome/137.0.0.0 Safari/537.36","WebKit","Chrome","137.0.0.0","Windows","10.0","https://app.prolific.com/","en-US,en;q=0.9","6669f64ecd7e3ec30632f607","686d226cabeef709c732f8e1","686e310bb33df44bf20e9718","6669f64ecd7e3ec30632f607","2025-07-09T09:26:22.231Z","","","","","","ControlQ","","","","","","","","","","","","","","","","","","","","","","","","","","","","","","","","","","","","","","50"
"6016","","<div style=""width:500px;"">
  <p>How would you describe your current emotional state?</p>
  </div>","31","html-slider-response","53","1054692","0.0-10.0-3.1","128","1","2025-07-09 09:08:47","7701e855f2ef39aa3fd6c71abdc6918a","216.120.189.233","Mozilla/5.0 (Windows NT 10.0; Win64; x64) AppleWebKit/537.36 (KHTML, like Gecko) Chrome/137.0.0.0 Safari/537.36","WebKit","Chrome","137.0.0.0","Windows","10.0","https://app.prolific.com/","en-US,en;q=0.9","6669f64ecd7e3ec30632f607","686d226cabeef709c732f8e1","686e310bb33df44bf20e9718","6669f64ecd7e3ec30632f607","2025-07-09T09:26:28.252Z","","","","","","StressQ","","","","","","","","","","","","","","","","","","","","","","","","","","","","","","","","","","","","","","50"
"5705","","<div style=""width:500px;"">
  <p>What best describes how you currently feel?</p>
  </div>","71","html-slider-response","54","1060405","0.0-10.0-4.1","128","1","2025-07-09 09:08:47","7701e855f2ef39aa3fd6c71abdc6918a","216.120.189.233","Mozilla/5.0 (Windows NT 10.0; Win64; x64) AppleWebKit/537.36 (KHTML, like Gecko) Chrome/137.0.0.0 Safari/537.36","WebKit","Chrome","137.0.0.0","Windows","10.0","https://app.prolific.com/","en-US,en;q=0.9","6669f64ecd7e3ec30632f607","686d226cabeef709c732f8e1","686e310bb33df44bf20e9718","6669f64ecd7e3ec30632f607","2025-07-09T09:26:33.964Z","","","","","","MotivationQ","","","","","","","","","","","","","","","","","","","","","","","","","","","","","","","","","","","","","","50"
"","","","","ctl-task-cpt","55","1103657","0.0-10.0-0.2","128","1","2025-07-09 09:08:47","7701e855f2ef39aa3fd6c71abdc6918a","216.120.189.233","Mozilla/5.0 (Windows NT 10.0; Win64; x64) AppleWebKit/537.36 (KHTML, like Gecko) Chrome/137.0.0.0 Safari/537.36","WebKit","Chrome","137.0.0.0","Windows","10.0","https://app.prolific.com/","en-US,en;q=0.9","6669f64ecd7e3ec30632f607","686d226cabeef709c732f8e1","686e310bb33df44bf20e9718","6669f64ecd7e3ec30632f607","2025-07-09T09:27:17.216Z","","","","","","","","","","","","","","","","win-only","3","g1:SW,g2:NE","0.8","3","0","1067365.6","1539.7","6548","40222.6","1","4","4","6","2","4","4","15","11","0.11363636363636363","2890.3","3000","1330","[""up"",""right""]","{""num_key_presses"":8,""num_perfect"":6,""num_errors"":0,""num_randdir"":2,""num_randdir_good_moves"":1,""num_whilered"":0,""num_whileblue"":0,""num_blue"":3,""num_good_moves"":7}","[301.22232142857143,300.12857142857143,1,301.22232142857143,300.12857142857143,102.4,301.22232142857143,300.12857142857143,207.9,301.22232142857143,300.12857142857143,308.1,301.22232142857143,300.12857142857143,411.2,301.22232142857143,300.12857142857143,525.1,301.22232142857143,300.12857142857143,637.2,301.22232142857143,300.12857142857143,737.2,301.22232142857143,300.12857142857143,849.5,301.22232142857143,300.12857142857143,958.6,301.22232142857143,300.12857142857143,1064.2,301.22232142857143,300.12857142857143,1172.2,307.22232142857143,276.12857142857143,1277.5,426.22232142857143,194.12857142857143,1392.3,405.22232142857143,196.12857142857143,1496,151.22232142857143,407.12857142857143,1597.3,134.22232142857143,454.12857142857143,1706.5,134.22232142857143,454.12857142857143,1806.7,134.22232142857143,454.12857142857143,1906.8,286.22232142857143,293.12857142857143,2009.3,330.22232142857143,265.12857142857143,2122.7,330.22232142857143,265.12857142857143,2227.2,471.22232142857143,108.12857142857143,2342.6,505.22232142857143,80.12857142857143,2448.5,509.22232142857143,77.12857142857143,2556.6,522.2223214285714,68.12857142857143,2664.6,525.2223214285714,64.12857142857143,2771.3,525.2223214285714,64.12857142857143,2872.4,525.2223214285714,64.12857142857143,2981.8,525.2223214285714,64.12857142857143,3081.9,525.2223214285714,64.12857142857143,3182.1,525.2223214285714,64.12857142857143,3292.5,525.2223214285714,64.12857142857143,3405.8,525.2223214285714,64.12857142857143,3512.4,525.2223214285714,64.12857142857143,3613.7,525.2223214285714,64.12857142857143,3730.4,525.2223214285714,64.12857142857143,3830.8,525.2223214285714,64.12857142857143,3931.3,525.2223214285714,64.12857142857143,4039.7,525.2223214285714,64.12857142857143,4145.3,525.2223214285714,64.12857142857143,4250,525.2223214285714,64.12857142857143,4351,525.2223214285714,64.12857142857143,4457.5,525.2223214285714,64.12857142857143,4561.9,525.2223214285714,64.12857142857143,4677.7,525.2223214285714,64.12857142857143,4783.5,525.2223214285714,64.12857142857143,4884.4]","[1527.1,1527.1,1000,0,527.1,""smooth"",""up"",""up"",""good_move"",4514.1,2984.9,2416.8,1529.2,568.1,""oops"",""up"",""up"",""good_move"",10924.4,6408.8,2571.3,7915.7,437.5,""oops"",""right"",""left"",""bad_move"",14083.7,3158.1,2178.6,10925.7,979.5,""smooth"",""up"",""up"",""good_move"",16900,2814.1,2252,14085.9,562.1,""smooth"",""right"",""right"",""good_move"",20025.3,3118.4,2382.4,16906.9,736,""smooth"",""right"",""right"",""good_move"",30113.3,10086.6,2582.1,27055.2,476.1,""smooth"",""right"",""right"",""good_move"",33303.1,3188.9,2647.4,30114.3,541.4,""smooth"",""right"",""right"",""good_move""]","",""
"7569","","<div style=""width:500px;"">
  <p>What determined the result of this run?</p>
  </div>","80","html-slider-response","56","1111231","0.0-10.0-1.2","128","1","2025-07-09 09:08:47","7701e855f2ef39aa3fd6c71abdc6918a","216.120.189.233","Mozilla/5.0 (Windows NT 10.0; Win64; x64) AppleWebKit/537.36 (KHTML, like Gecko) Chrome/137.0.0.0 Safari/537.36","WebKit","Chrome","137.0.0.0","Windows","10.0","https://app.prolific.com/","en-US,en;q=0.9","6669f64ecd7e3ec30632f607","686d226cabeef709c732f8e1","686e310bb33df44bf20e9718","6669f64ecd7e3ec30632f607","2025-07-09T09:27:24.791Z","","","","","","AttribQ","","","","","","","","","","","","","","","","","","","","","","","","","","","","","","","","","","","","","","50"
"5100","","<div style=""width:500px;"">
  <p>How much control did you have over the ball?</p>
  </div>","72","html-slider-response","57","1116337","0.0-10.0-2.2","128","1","2025-07-09 09:08:47","7701e855f2ef39aa3fd6c71abdc6918a","216.120.189.233","Mozilla/5.0 (Windows NT 10.0; Win64; x64) AppleWebKit/537.36 (KHTML, like Gecko) Chrome/137.0.0.0 Safari/537.36","WebKit","Chrome","137.0.0.0","Windows","10.0","https://app.prolific.com/","en-US,en;q=0.9","6669f64ecd7e3ec30632f607","686d226cabeef709c732f8e1","686e310bb33df44bf20e9718","6669f64ecd7e3ec30632f607","2025-07-09T09:27:29.896Z","","","","","","ControlQ","","","","","","","","","","","","","","","","","","","","","","","","","","","","","","","","","","","","","","50"
"4963","","<div style=""width:500px;"">
  <p>How would you describe your current emotional state?</p>
  </div>","30","html-slider-response","58","1121306","0.0-10.0-3.2","128","1","2025-07-09 09:08:47","7701e855f2ef39aa3fd6c71abdc6918a","216.120.189.233","Mozilla/5.0 (Windows NT 10.0; Win64; x64) AppleWebKit/537.36 (KHTML, like Gecko) Chrome/137.0.0.0 Safari/537.36","WebKit","Chrome","137.0.0.0","Windows","10.0","https://app.prolific.com/","en-US,en;q=0.9","6669f64ecd7e3ec30632f607","686d226cabeef709c732f8e1","686e310bb33df44bf20e9718","6669f64ecd7e3ec30632f607","2025-07-09T09:27:34.865Z","","","","","","StressQ","","","","","","","","","","","","","","","","","","","","","","","","","","","","","","","","","","","","","","50"
"4123","","<div style=""width:500px;"">
  <p>What best describes how you currently feel?</p>
  </div>","71","html-slider-response","59","1125434","0.0-10.0-4.2","128","1","2025-07-09 09:08:47","7701e855f2ef39aa3fd6c71abdc6918a","216.120.189.233","Mozilla/5.0 (Windows NT 10.0; Win64; x64) AppleWebKit/537.36 (KHTML, like Gecko) Chrome/137.0.0.0 Safari/537.36","WebKit","Chrome","137.0.0.0","Windows","10.0","https://app.prolific.com/","en-US,en;q=0.9","6669f64ecd7e3ec30632f607","686d226cabeef709c732f8e1","686e310bb33df44bf20e9718","6669f64ecd7e3ec30632f607","2025-07-09T09:27:38.993Z","","","","","","MotivationQ","","","","","","","","","","","","","","","","","","","","","","","","","","","","","","","","","","","","","","50"
"","","","","ctl-task-cpt","60","1172441","0.0-10.0-0.3","128","1","2025-07-09 09:08:47","7701e855f2ef39aa3fd6c71abdc6918a","216.120.189.233","Mozilla/5.0 (Windows NT 10.0; Win64; x64) AppleWebKit/537.36 (KHTML, like Gecko) Chrome/137.0.0.0 Safari/537.36","WebKit","Chrome","137.0.0.0","Windows","10.0","https://app.prolific.com/","en-US,en;q=0.9","6669f64ecd7e3ec30632f607","686d226cabeef709c732f8e1","686e310bb33df44bf20e9718","6669f64ecd7e3ec30632f607","2025-07-09T09:28:26.000Z","","","","","","","","","","","","","","","","win-only","0","g1:NW,g2:SE","0.7","4","0","1132394.6","3704.7","8731.2","43976.6","1","4","8","6","2","8","8","23","15","0.17424242424242425","1924","3000","1100","[""down"",""right""]","{""num_key_presses"":12,""num_perfect"":9,""num_errors"":0,""num_randdir"":3,""num_randdir_good_moves"":0,""num_whilered"":0,""num_whileblue"":0,""num_blue"":0,""num_good_moves"":9}","[294.22232142857143,299.12857142857143,1.8,294.22232142857143,299.12857142857143,105.3,294.22232142857143,299.12857142857143,206.3,294.22232142857143,299.12857142857143,326.4,294.22232142857143,299.12857142857143,434.5,294.22232142857143,299.12857142857143,536.4,294.22232142857143,299.12857142857143,648.6,294.22232142857143,299.12857142857143,758,294.22232142857143,299.12857142857143,878.9,482.22232142857143,458.12857142857143,990.1,551.2223214285714,513.1285714285714,1098.7,551.2223214285714,513.1285714285714,1224.3,551.2223214285714,513.1285714285714,1328.4,562.2223214285714,517.1285714285714,1440.7,564.2223214285714,518.1285714285714,1559.7,565.2223214285714,518.1285714285714,1663.9,564.2223214285714,519.1285714285714,1767.5,564.2223214285714,519.1285714285714,1882.4,564.2223214285714,519.1285714285714,1988.5,564.2223214285714,519.1285714285714,2094.9,564.2223214285714,519.1285714285714,2208,564.2223214285714,519.1285714285714,2309.4,564.2223214285714,519.1285714285714,2411,564.2223214285714,519.1285714285714,2522.3,461.22232142857143,449.12857142857143,2635.9,409.22232142857143,421.12857142857143,2746.9,407.22232142857143,420.12857142857143,2859,407.22232142857143,420.12857142857143,2970.7,407.22232142857143,420.12857142857143,3086.4,407.22232142857143,420.12857142857143,3198.5,407.22232142857143,420.12857142857143,3298.8,407.22232142857143,420.12857142857143,3411.9,407.22232142857143,420.12857142857143,3527.6,407.22232142857143,420.12857142857143,3630.9,407.22232142857143,420.12857142857143,3732.3,407.22232142857143,420.12857142857143,3847.7,407.22232142857143,420.12857142857143,3955.9,407.22232142857143,420.12857142857143,4074.1,407.22232142857143,420.12857142857143,4184.9,407.22232142857143,420.12857142857143,4299.6,407.22232142857143,420.12857142857143,4400.1,407.22232142857143,420.12857142857143,4516.5,407.22232142857143,420.12857142857143,4630.7,407.22232142857143,420.12857142857143,4742,407.22232142857143,420.12857142857143,4858.3,407.22232142857143,420.12857142857143,4967.9]","[1804.8,1804.9,1000,0,804.9,""oops"",""down"",""up"",""bad_move"",5274.4,3467.9,2362.8,1806.5,1105.1,""smooth"",""down"",""down"",""good_move"",8746.9,3462.4,2972.9,5284.5,489.5,""smooth"",""down"",""down"",""good_move"",11219.5,2470.7,1983.4,8749,487.2,""smooth"",""down"",""down"",""good_move"",14325.9,3102.5,2605.2,11223.4,497.3,""smooth"",""down"",""down"",""good_move"",17030.1,2689.7,2303.8,14340.4,385.9,""smooth"",""right"",""right"",""good_move"",19827.7,2795.6,2384.6,17032.2,410.9,""smooth"",""right"",""right"",""good_move"",23275.2,3445.9,3012,19829.5,433.7,""oops"",""right"",""left"",""bad_move"",26471.1,3193,2796.9,23278.1,396.1,""smooth"",""right"",""right"",""good_move"",29821.4,3348.3,2942.9,26473.2,405.4,""oops"",""right"",""left"",""bad_move"",32781.9,2951.9,2415.8,29830.1,536,""smooth"",""right"",""right"",""good_move"",34925,2141.6,1804.6,32783.4,337,""smooth"",""right"",""right"",""good_move""]","",""
"3384","","<div style=""width:500px;"">
  <p>What determined the result of this run?</p>
  </div>","70","html-slider-response","61","1175831","0.0-10.0-1.3","128","1","2025-07-09 09:08:47","7701e855f2ef39aa3fd6c71abdc6918a","216.120.189.233","Mozilla/5.0 (Windows NT 10.0; Win64; x64) AppleWebKit/537.36 (KHTML, like Gecko) Chrome/137.0.0.0 Safari/537.36","WebKit","Chrome","137.0.0.0","Windows","10.0","https://app.prolific.com/","en-US,en;q=0.9","6669f64ecd7e3ec30632f607","686d226cabeef709c732f8e1","686e310bb33df44bf20e9718","6669f64ecd7e3ec30632f607","2025-07-09T09:28:29.390Z","","","","","","AttribQ","","","","","","","","","","","","","","","","","","","","","","","","","","","","","","","","","","","","","","50"
"3978","","<div style=""width:500px;"">
  <p>How much control did you have over the ball?</p>
  </div>","47","html-slider-response","62","1179820","0.0-10.0-2.3","128","1","2025-07-09 09:08:47","7701e855f2ef39aa3fd6c71abdc6918a","216.120.189.233","Mozilla/5.0 (Windows NT 10.0; Win64; x64) AppleWebKit/537.36 (KHTML, like Gecko) Chrome/137.0.0.0 Safari/537.36","WebKit","Chrome","137.0.0.0","Windows","10.0","https://app.prolific.com/","en-US,en;q=0.9","6669f64ecd7e3ec30632f607","686d226cabeef709c732f8e1","686e310bb33df44bf20e9718","6669f64ecd7e3ec30632f607","2025-07-09T09:28:33.380Z","","","","","","ControlQ","","","","","","","","","","","","","","","","","","","","","","","","","","","","","","","","","","","","","","50"
"4406","","<div style=""width:500px;"">
  <p>How would you describe your current emotional state?</p>
  </div>","33","html-slider-response","63","1184231","0.0-10.0-3.3","128","1","2025-07-09 09:08:47","7701e855f2ef39aa3fd6c71abdc6918a","216.120.189.233","Mozilla/5.0 (Windows NT 10.0; Win64; x64) AppleWebKit/537.36 (KHTML, like Gecko) Chrome/137.0.0.0 Safari/537.36","WebKit","Chrome","137.0.0.0","Windows","10.0","https://app.prolific.com/","en-US,en;q=0.9","6669f64ecd7e3ec30632f607","686d226cabeef709c732f8e1","686e310bb33df44bf20e9718","6669f64ecd7e3ec30632f607","2025-07-09T09:28:37.790Z","","","","","","StressQ","","","","","","","","","","","","","","","","","","","","","","","","","","","","","","","","","","","","","","50"
"3786","","<div style=""width:500px;"">
  <p>What best describes how you currently feel?</p>
  </div>","66","html-slider-response","64","1188023","0.0-10.0-4.3","128","1","2025-07-09 09:08:47","7701e855f2ef39aa3fd6c71abdc6918a","216.120.189.233","Mozilla/5.0 (Windows NT 10.0; Win64; x64) AppleWebKit/537.36 (KHTML, like Gecko) Chrome/137.0.0.0 Safari/537.36","WebKit","Chrome","137.0.0.0","Windows","10.0","https://app.prolific.com/","en-US,en;q=0.9","6669f64ecd7e3ec30632f607","686d226cabeef709c732f8e1","686e310bb33df44bf20e9718","6669f64ecd7e3ec30632f607","2025-07-09T09:28:41.582Z","","","","","","MotivationQ","","","","","","","","","","","","","","","","","","","","","","","","","","","","","","","","","","","","","","50"
"","","","","ctl-task-cpt","65","1212676","0.0-10.0-0.4","128","1","2025-07-09 09:08:47","7701e855f2ef39aa3fd6c71abdc6918a","216.120.189.233","Mozilla/5.0 (Windows NT 10.0; Win64; x64) AppleWebKit/537.36 (KHTML, like Gecko) Chrome/137.0.0.0 Safari/537.36","WebKit","Chrome","137.0.0.0","Windows","10.0","https://app.prolific.com/","en-US,en;q=0.9","6669f64ecd7e3ec30632f607","686d226cabeef709c732f8e1","686e310bb33df44bf20e9718","6669f64ecd7e3ec30632f607","2025-07-09T09:29:06.235Z","","","","","","","","","","","","","","","","win-only","3","g1:SW,g2:NE","0.6","5","0","1194985.1","3632.3","8639.4","21623.6","1","4","8","6","1","1","1","24","23","0.18181818181818182","1827.6","3000","2275","[""down"",""left""]","{""num_key_presses"":4,""num_perfect"":3,""num_errors"":0,""num_randdir"":1,""num_randdir_good_moves"":1,""num_whilered"":0,""num_whileblue"":0,""num_blue"":1,""num_good_moves"":4}","[293.22232142857143,298.12857142857143,8.5,293.22232142857143,298.12857142857143,121.4,293.22232142857143,298.12857142857143,241.5,293.22232142857143,298.12857142857143,348,293.22232142857143,298.12857142857143,472.4,293.22232142857143,298.12857142857143,587.5,293.22232142857143,298.12857142857143,698.5,293.22232142857143,298.12857142857143,803.2,293.22232142857143,298.12857142857143,919.6,291.22232142857143,300.12857142857143,1043.5,178.22232142857143,420.12857142857143,1167.2,100.22232142857143,574.1285714285714,1293.2,100.22232142857143,574.1285714285714,1410.7,88.22232142857143,565.1285714285714,1540.7,83.22232142857143,555.1285714285714,1648.4,83.22232142857143,555.1285714285714,1753,83.22232142857143,555.1285714285714,1866.1,83.22232142857143,555.1285714285714,1983.7,83.22232142857143,555.1285714285714,2103,83.22232142857143,555.1285714285714,2218.3,83.22232142857143,555.1285714285714,2345.8,83.22232142857143,555.1285714285714,2467.1,83.22232142857143,555.1285714285714,2580.9,83.22232142857143,555.1285714285714,2702,83.22232142857143,555.1285714285714,2817.1,83.22232142857143,555.1285714285714,2938.9,83.22232142857143,555.1285714285714,3058.9,83.22232142857143,555.1285714285714,3184.3,83.22232142857143,555.1285714285714,3300,83.22232142857143,555.1285714285714,3414.2,83.22232142857143,555.1285714285714,3517.1,83.22232142857143,555.1285714285714,3618.5,83.22232142857143,555.1285714285714,3722.2,83.22232142857143,555.1285714285714,3826.8,83.22232142857143,555.1285714285714,3940.7,83.22232142857143,555.1285714285714,4048.2,83.22232142857143,555.1285714285714,4155.8,83.22232142857143,555.1285714285714,4258.8,83.22232142857143,555.1285714285714,4359.3,83.22232142857143,555.1285714285714,4462.3,83.22232142857143,555.1285714285714,4572.5,83.22232142857143,555.1285714285714,4685.3,83.22232142857143,555.1285714285714,4789.6,83.22232142857143,555.1285714285714,4890.4]","[5232.1,5232.1,2653,2010.2,568.9,""smooth"",""down"",""down"",""good_move"",7721,2478.4,1911.8,5242.7,566.5,""smooth"",""down"",""down"",""good_move"",9506.1,1783.4,1233.6,7722.7,549.8,""oops"",""left"",""left"",""good_move"",12677.3,3168.8,2489.1,9508.5,679.7,""smooth"",""left"",""left"",""good_move""]","",""
"7669","","<div style=""width:500px;"">
  <p>What determined the result of this run?</p>
  </div>","67","html-slider-response","66","1220351","0.0-10.0-1.4","128","1","2025-07-09 09:08:47","7701e855f2ef39aa3fd6c71abdc6918a","216.120.189.233","Mozilla/5.0 (Windows NT 10.0; Win64; x64) AppleWebKit/537.36 (KHTML, like Gecko) Chrome/137.0.0.0 Safari/537.36","WebKit","Chrome","137.0.0.0","Windows","10.0","https://app.prolific.com/","en-US,en;q=0.9","6669f64ecd7e3ec30632f607","686d226cabeef709c732f8e1","686e310bb33df44bf20e9718","6669f64ecd7e3ec30632f607","2025-07-09T09:29:13.910Z","","","","","","AttribQ","","","","","","","","","","","","","","","","","","","","","","","","","","","","","","","","","","","","","","50"
"4730","","<div style=""width:500px;"">
  <p>How much control did you have over the ball?</p>
  </div>","67","html-slider-response","67","1225085","0.0-10.0-2.4","128","1","2025-07-09 09:08:47","7701e855f2ef39aa3fd6c71abdc6918a","216.120.189.233","Mozilla/5.0 (Windows NT 10.0; Win64; x64) AppleWebKit/537.36 (KHTML, like Gecko) Chrome/137.0.0.0 Safari/537.36","WebKit","Chrome","137.0.0.0","Windows","10.0","https://app.prolific.com/","en-US,en;q=0.9","6669f64ecd7e3ec30632f607","686d226cabeef709c732f8e1","686e310bb33df44bf20e9718","6669f64ecd7e3ec30632f607","2025-07-09T09:29:18.644Z","","","","","","ControlQ","","","","","","","","","","","","","","","","","","","","","","","","","","","","","","","","","","","","","","50"
"5276","","<div style=""width:500px;"">
  <p>How would you describe your current emotional state?</p>
  </div>","39","html-slider-response","68","1230368","0.0-10.0-3.4","128","1","2025-07-09 09:08:47","7701e855f2ef39aa3fd6c71abdc6918a","216.120.189.233","Mozilla/5.0 (Windows NT 10.0; Win64; x64) AppleWebKit/537.36 (KHTML, like Gecko) Chrome/137.0.0.0 Safari/537.36","WebKit","Chrome","137.0.0.0","Windows","10.0","https://app.prolific.com/","en-US,en;q=0.9","6669f64ecd7e3ec30632f607","686d226cabeef709c732f8e1","686e310bb33df44bf20e9718","6669f64ecd7e3ec30632f607","2025-07-09T09:29:23.927Z","","","","","","StressQ","","","","","","","","","","","","","","","","","","","","","","","","","","","","","","","","","","","","","","50"
"3611","","<div style=""width:500px;"">
  <p>What best describes how you currently feel?</p>
  </div>","60","html-slider-response","69","1233984","0.0-10.0-4.4","128","1","2025-07-09 09:08:47","7701e855f2ef39aa3fd6c71abdc6918a","216.120.189.233","Mozilla/5.0 (Windows NT 10.0; Win64; x64) AppleWebKit/537.36 (KHTML, like Gecko) Chrome/137.0.0.0 Safari/537.36","WebKit","Chrome","137.0.0.0","Windows","10.0","https://app.prolific.com/","en-US,en;q=0.9","6669f64ecd7e3ec30632f607","686d226cabeef709c732f8e1","686e310bb33df44bf20e9718","6669f64ecd7e3ec30632f607","2025-07-09T09:29:27.544Z","","","","","","MotivationQ","","","","","","","","","","","","","","","","","","","","","","","","","","","","","","","","","","","","","","50"
"","","","","ctl-task-cpt","70","1288915","0.0-10.0-0.5","128","1","2025-07-09 09:08:47","7701e855f2ef39aa3fd6c71abdc6918a","216.120.189.233","Mozilla/5.0 (Windows NT 10.0; Win64; x64) AppleWebKit/537.36 (KHTML, like Gecko) Chrome/137.0.0.0 Safari/537.36","WebKit","Chrome","137.0.0.0","Windows","10.0","https://app.prolific.com/","en-US,en;q=0.9","6669f64ecd7e3ec30632f607","686d226cabeef709c732f8e1","686e310bb33df44bf20e9718","6669f64ecd7e3ec30632f607","2025-07-09T09:30:22.474Z","","","","","","","","","","","","","","","","win-only","3","g1:SW,g2:NE","0.5","6","0","1240948.3","2593.1","7598.9","51867.8","1","4","4","6","2","4","4","28","24","0.21212121212121213","2800.2","3000","2260","[""up"",""right""]","{""num_key_presses"":8,""num_perfect"":4,""num_errors"":0,""num_randdir"":4,""num_randdir_good_moves"":3,""num_whilered"":0,""num_whileblue"":0,""num_blue"":3,""num_good_moves"":7}","[296.22232142857143,294.12857142857143,7.9,296.22232142857143,294.12857142857143,106.9,296.22232142857143,294.12857142857143,209.3,296.22232142857143,294.12857142857143,325.6,296.22232142857143,294.12857142857143,441.7,296.22232142857143,294.12857142857143,552.9,296.22232142857143,294.12857142857143,675.7,296.22232142857143,294.12857142857143,796.3,296.22232142857143,294.12857142857143,908.8,296.22232142857143,294.12857142857143,1024.2,296.22232142857143,294.12857142857143,1126.1,296.22232142857143,294.12857142857143,1236.2,296.22232142857143,294.12857142857143,1342.2,296.22232142857143,294.12857142857143,1452.9,296.22232142857143,294.12857142857143,1579.9,296.22232142857143,294.12857142857143,1693.5,296.22232142857143,294.12857142857143,1801.8,296.22232142857143,294.12857142857143,1912.8,475.22232142857143,167.12857142857143,2022.3,477.22232142857143,166.12857142857143,2133.9,477.22232142857143,166.12857142857143,2258.6,554.2223214285714,23.128571428571426,2372.6,558.2223214285714,17.128571428571426,2490.3,558.2223214285714,17.128571428571426,2600.7,558.2223214285714,17.128571428571426,2705.8,558.2223214285714,17.128571428571426,2830.3,558.2223214285714,17.128571428571426,2953.2,558.2223214285714,17.128571428571426,3071.2,558.2223214285714,17.128571428571426,3176.5,558.2223214285714,17.128571428571426,3283.4,558.2223214285714,17.128571428571426,3391.1,558.2223214285714,17.128571428571426,3502,558.2223214285714,17.128571428571426,3613,558.2223214285714,17.128571428571426,3715,558.2223214285714,17.128571428571426,3826.8,558.2223214285714,17.128571428571426,3931.3,558.2223214285714,17.128571428571426,4041.1,558.2223214285714,17.128571428571426,4142.2,558.2223214285714,17.128571428571426,4249.2,558.2223214285714,17.128571428571426,4360.8,558.2223214285714,17.128571428571426,4494.1,558.2223214285714,17.128571428571426,4597.5,558.2223214285714,17.128571428571426,4705.3,558.2223214285714,17.128571428571426,4813.1,558.2223214285714,17.128571428571426,4920.9]","[1600.8,1600.8,1000,0,600.8,""oops"",""up"",""down"",""bad_move"",8481.6,6876.2,2689.1,5235.8,556.7,""oops"",""right"",""up"",""good_move"",16729.5,8244,2102,14180.5,447,""oops"",""right"",""right"",""good_move"",19628.9,2897.3,2064.4,16731.6,832.9,""oops"",""right"",""up"",""good_move"",28792.6,9162.1,2557.5,25747.1,488.1,""smooth"",""up"",""up"",""good_move"",34715.7,5921.9,2829.8,28793.8,3092.1,""smooth"",""up"",""up"",""good_move"",40896.7,6178.3,2641.9,34718.4,3536.4,""smooth"",""right"",""right"",""good_move"",43455.9,2558.2,2021.6,40897.7,536.6,""smooth"",""right"",""right"",""good_move""]","",""
"11780","","<div style=""width:500px;"">
  <p>What determined the result of this run?</p>
  </div>","41","html-slider-response","71","1300702","0.0-10.0-1.5","128","1","2025-07-09 09:08:47","7701e855f2ef39aa3fd6c71abdc6918a","216.120.189.233","Mozilla/5.0 (Windows NT 10.0; Win64; x64) AppleWebKit/537.36 (KHTML, like Gecko) Chrome/137.0.0.0 Safari/537.36","WebKit","Chrome","137.0.0.0","Windows","10.0","https://app.prolific.com/","en-US,en;q=0.9","6669f64ecd7e3ec30632f607","686d226cabeef709c732f8e1","686e310bb33df44bf20e9718","6669f64ecd7e3ec30632f607","2025-07-09T09:30:34.261Z","","","","","","AttribQ","","","","","","","","","","","","","","","","","","","","","","","","","","","","","","","","","","","","","","50"
"5954","","<div style=""width:500px;"">
  <p>How much control did you have over the ball?</p>
  </div>","43","html-slider-response","72","1306662","0.0-10.0-2.5","128","1","2025-07-09 09:08:47","7701e855f2ef39aa3fd6c71abdc6918a","216.120.189.233","Mozilla/5.0 (Windows NT 10.0; Win64; x64) AppleWebKit/537.36 (KHTML, like Gecko) Chrome/137.0.0.0 Safari/537.36","WebKit","Chrome","137.0.0.0","Windows","10.0","https://app.prolific.com/","en-US,en;q=0.9","6669f64ecd7e3ec30632f607","686d226cabeef709c732f8e1","686e310bb33df44bf20e9718","6669f64ecd7e3ec30632f607","2025-07-09T09:30:40.222Z","","","","","","ControlQ","","","","","","","","","","","","","","","","","","","","","","","","","","","","","","","","","","","","","","50"
"4104","","<div style=""width:500px;"">
  <p>How would you describe your current emotional state?</p>
  </div>","42","html-slider-response","73","1310775","0.0-10.0-3.5","128","1","2025-07-09 09:08:47","7701e855f2ef39aa3fd6c71abdc6918a","216.120.189.233","Mozilla/5.0 (Windows NT 10.0; Win64; x64) AppleWebKit/537.36 (KHTML, like Gecko) Chrome/137.0.0.0 Safari/537.36","WebKit","Chrome","137.0.0.0","Windows","10.0","https://app.prolific.com/","en-US,en;q=0.9","6669f64ecd7e3ec30632f607","686d226cabeef709c732f8e1","686e310bb33df44bf20e9718","6669f64ecd7e3ec30632f607","2025-07-09T09:30:44.334Z","","","","","","StressQ","","","","","","","","","","","","","","","","","","","","","","","","","","","","","","","","","","","","","","50"
"3881","","<div style=""width:500px;"">
  <p>What best describes how you currently feel?</p>
  </div>","60","html-slider-response","74","1314659","0.0-10.0-4.5","128","1","2025-07-09 09:08:47","7701e855f2ef39aa3fd6c71abdc6918a","216.120.189.233","Mozilla/5.0 (Windows NT 10.0; Win64; x64) AppleWebKit/537.36 (KHTML, like Gecko) Chrome/137.0.0.0 Safari/537.36","WebKit","Chrome","137.0.0.0","Windows","10.0","https://app.prolific.com/","en-US,en;q=0.9","6669f64ecd7e3ec30632f607","686d226cabeef709c732f8e1","686e310bb33df44bf20e9718","6669f64ecd7e3ec30632f607","2025-07-09T09:30:48.219Z","","","","","","MotivationQ","","","","","","","","","","","","","","","","","","","","","","","","","","","","","","","","","","","","","","50"
"","","","","ctl-task-cpt","75","1425392","0.0-10.0-0.6","128","1","2025-07-09 09:08:47","7701e855f2ef39aa3fd6c71abdc6918a","216.120.189.233","Mozilla/5.0 (Windows NT 10.0; Win64; x64) AppleWebKit/537.36 (KHTML, like Gecko) Chrome/137.0.0.0 Safari/537.36","WebKit","Chrome","137.0.0.0","Windows","10.0","https://app.prolific.com/","en-US,en;q=0.9","6669f64ecd7e3ec30632f607","686d226cabeef709c732f8e1","686e310bb33df44bf20e9718","6669f64ecd7e3ec30632f607","2025-07-09T09:32:38.951Z","","","","","","","","","","","","","","","","win-only","3","g1:SW,g2:NE","0.4","7","0","1321622.1","65728.7","70765.1","107695.6","1","4","8","6","2","8","8","36","28","0.2727272727272727","3019.3","3000","1920","[""up"",""right""]","{""num_key_presses"":8,""num_perfect"":3,""num_errors"":0,""num_randdir"":5,""num_randdir_good_moves"":4,""num_whilered"":0,""num_whileblue"":0,""num_blue"":1,""num_good_moves"":7}","[297.22232142857143,296.12857142857143,2,297.22232142857143,296.12857142857143,115.4,297.22232142857143,296.12857142857143,233,297.22232142857143,296.12857142857143,335.4,297.22232142857143,296.12857142857143,445.5,297.22232142857143,296.12857142857143,561.7,297.22232142857143,296.12857142857143,679,297.22232142857143,296.12857142857143,793.4,297.22232142857143,296.12857142857143,913.6,294.22232142857143,302.12857142857143,1033.9,290.22232142857143,313.12857142857143,1148.4,286.22232142857143,318.12857142857143,1258.9,262.22232142857143,340.12857142857143,1368.6,164.22232142857143,427.12857142857143,1473.6,87.22232142857143,531.1285714285714,1578.8,87.22232142857143,531.1285714285714,1682.7,87.22232142857143,531.1285714285714,1798.8,121.22232142857143,488.12857142857143,1927,378.22232142857143,194.12857142857143,2027.7,449.22232142857143,141.12857142857143,2130.4,481.22232142857143,133.12857142857143,2241.9,550.2223214285714,116.12857142857143,2358.3,550.2223214285714,116.12857142857143,2485.1,557.2223214285714,104.12857142857143,2591.2,574.2223214285714,72.12857142857143,2695,574.2223214285714,66.12857142857143,2804.1,574.2223214285714,64.12857142857143,2912.2,574.2223214285714,64.12857142857143,3029.3,574.2223214285714,64.12857142857143,3150.1,574.2223214285714,64.12857142857143,3266,574.2223214285714,64.12857142857143,3375,574.2223214285714,64.12857142857143,3482.2,574.2223214285714,64.12857142857143,3589.1,574.2223214285714,64.12857142857143,3705.5,574.2223214285714,64.12857142857143,3821,574.2223214285714,64.12857142857143,3924.8,574.2223214285714,64.12857142857143,4040.4,574.2223214285714,64.12857142857143,4149,574.2223214285714,64.12857142857143,4258.2,574.2223214285714,64.12857142857143,4365.4,574.2223214285714,64.12857142857143,4480.9,574.2223214285714,64.12857142857143,4602.4,574.2223214285714,64.12857142857143,4715.8,574.2223214285714,64.12857142857143,4832.2,574.2223214285714,64.12857142857143,4949.8]","[1539,1539,1000,0,539,""smooth"",""up"",""up"",""good_move"",6521.3,4980.1,2893.9,1541.2,2086.3,""smooth"",""up"",""up"",""good_move"",11675.8,5152.7,3314.8,6523.1,1837.9,""oops"",""up"",""up"",""good_move"",17501.3,5817.2,2440.9,11684.1,3376.3,""oops"",""right"",""left"",""bad_move"",23430.1,5927.5,2461.4,17502.6,3466.1,""oops"",""right"",""right"",""good_move"",29822.9,6374.8,2633.4,26684.7,504.8,""oops"",""right"",""right"",""good_move"",33845,4020.6,2869.3,29824.4,1151.3,""smooth"",""right"",""right"",""good_move"",36503,2653.9,2069.8,33849.1,584.2,""oops"",""right"",""right"",""good_move""]","",""
"5306","","<div style=""width:500px;"">
  <p>What determined the result of this run?</p>
  </div>","74","html-slider-response","76","1430702","0.0-10.0-1.6","128","1","2025-07-09 09:08:47","7701e855f2ef39aa3fd6c71abdc6918a","216.120.189.233","Mozilla/5.0 (Windows NT 10.0; Win64; x64) AppleWebKit/537.36 (KHTML, like Gecko) Chrome/137.0.0.0 Safari/537.36","WebKit","Chrome","137.0.0.0","Windows","10.0","https://app.prolific.com/","en-US,en;q=0.9","6669f64ecd7e3ec30632f607","686d226cabeef709c732f8e1","686e310bb33df44bf20e9718","6669f64ecd7e3ec30632f607","2025-07-09T09:32:44.261Z","","","","","","AttribQ","","","","","","","","","","","","","","","","","","","","","","","","","","","","","","","","","","","","","","50"
"18751","","<div style=""width:500px;"">
  <p>How much control did you have over the ball?</p>
  </div>","44","html-slider-response","77","1449457","0.0-10.0-2.6","128","1","2025-07-09 09:08:47","7701e855f2ef39aa3fd6c71abdc6918a","216.120.189.233","Mozilla/5.0 (Windows NT 10.0; Win64; x64) AppleWebKit/537.36 (KHTML, like Gecko) Chrome/137.0.0.0 Safari/537.36","WebKit","Chrome","137.0.0.0","Windows","10.0","https://app.prolific.com/","en-US,en;q=0.9","6669f64ecd7e3ec30632f607","686d226cabeef709c732f8e1","686e310bb33df44bf20e9718","6669f64ecd7e3ec30632f607","2025-07-09T09:33:03.016Z","","","","","","ControlQ","","","","","","","","","","","","","","","","","","","","","","","","","","","","","","","","","","","","","","50"
"5716","","<div style=""width:500px;"">
  <p>How would you describe your current emotional state?</p>
  </div>","46","html-slider-response","78","1455177","0.0-10.0-3.6","128","1","2025-07-09 09:08:47","7701e855f2ef39aa3fd6c71abdc6918a","216.120.189.233","Mozilla/5.0 (Windows NT 10.0; Win64; x64) AppleWebKit/537.36 (KHTML, like Gecko) Chrome/137.0.0.0 Safari/537.36","WebKit","Chrome","137.0.0.0","Windows","10.0","https://app.prolific.com/","en-US,en;q=0.9","6669f64ecd7e3ec30632f607","686d226cabeef709c732f8e1","686e310bb33df44bf20e9718","6669f64ecd7e3ec30632f607","2025-07-09T09:33:08.736Z","","","","","","StressQ","","","","","","","","","","","","","","","","","","","","","","","","","","","","","","","","","","","","","","50"
"13095","","<div style=""width:500px;"">
  <p>What best describes how you currently feel?</p>
  </div>","57","html-slider-response","79","1468276","0.0-10.0-4.6","128","1","2025-07-09 09:08:47","7701e855f2ef39aa3fd6c71abdc6918a","216.120.189.233","Mozilla/5.0 (Windows NT 10.0; Win64; x64) AppleWebKit/537.36 (KHTML, like Gecko) Chrome/137.0.0.0 Safari/537.36","WebKit","Chrome","137.0.0.0","Windows","10.0","https://app.prolific.com/","en-US,en;q=0.9","6669f64ecd7e3ec30632f607","686d226cabeef709c732f8e1","686e310bb33df44bf20e9718","6669f64ecd7e3ec30632f607","2025-07-09T09:33:21.836Z","","","","","","MotivationQ","","","","","","","","","","","","","","","","","","","","","","","","","","","","","","","","","","","","","","50"
"","","","","ctl-task-cpt","80","1508077","0.0-10.0-0.7","128","1","2025-07-09 09:08:47","7701e855f2ef39aa3fd6c71abdc6918a","216.120.189.233","Mozilla/5.0 (Windows NT 10.0; Win64; x64) AppleWebKit/537.36 (KHTML, like Gecko) Chrome/137.0.0.0 Safari/537.36","WebKit","Chrome","137.0.0.0","Windows","10.0","https://app.prolific.com/","en-US,en;q=0.9","6669f64ecd7e3ec30632f607","686d226cabeef709c732f8e1","686e310bb33df44bf20e9718","6669f64ecd7e3ec30632f607","2025-07-09T09:34:01.636Z","","","","","","","","","","","","","","","","win-only","2","g1:SE,g2:NW","0.3","8","0","1475239","3245.5","8255.3","36746.1","1","4","4","6","1","1","1","37","36","0.2803030303030303","3170.2","3000","1960","[""down"",""right""]","{""num_key_presses"":8,""num_perfect"":3,""num_errors"":0,""num_randdir"":5,""num_randdir_good_moves"":3,""num_whilered"":0,""num_whileblue"":0,""num_blue"":1,""num_good_moves"":6}","[301.22232142857143,301.12857142857143,9.6,301.22232142857143,301.12857142857143,112,301.22232142857143,301.12857142857143,223.8,301.22232142857143,301.12857142857143,367.2,301.22232142857143,301.12857142857143,500,301.22232142857143,301.12857142857143,622.6,301.22232142857143,301.12857142857143,731,301.22232142857143,301.12857142857143,843.2,301.22232142857143,301.12857142857143,951.1,301.22232142857143,301.12857142857143,1061.3,301.22232142857143,301.12857142857143,1174.7,301.22232142857143,301.12857142857143,1284.5,301.22232142857143,301.12857142857143,1396.5,301.22232142857143,301.12857142857143,1504.6,301.22232142857143,301.12857142857143,1620.6,301.22232142857143,301.12857142857143,1740.3,301.22232142857143,301.12857142857143,1861.1,301.22232142857143,301.12857142857143,1979.6,301.22232142857143,301.12857142857143,2105.9,342.22232142857143,325.12857142857143,2251.6,576.2223214285714,460.12857142857143,2391.5,584.2223214285714,463.12857142857143,2538.8,586.2223214285714,526.1285714285714,2671.1,584.2223214285714,531.1285714285714,2797.3,574.2223214285714,536.1285714285714,2905.4,570.2223214285714,538.1285714285714,3025.9,570.2223214285714,538.1285714285714,3186.9,570.2223214285714,538.1285714285714,3293.6,570.2223214285714,538.1285714285714,3398.4,570.2223214285714,538.1285714285714,3513.1,570.2223214285714,538.1285714285714,3630.2,570.2223214285714,538.1285714285714,3733.3,570.2223214285714,538.1285714285714,3839,570.2223214285714,538.1285714285714,3958.4,570.2223214285714,538.1285714285714,4064.3,570.2223214285714,538.1285714285714,4168.1,570.2223214285714,538.1285714285714,4269.4,570.2223214285714,538.1285714285714,4374.7,570.2223214285714,538.1285714285714,4477.2,570.2223214285714,538.1285714285714,4585.3,570.2223214285714,538.1285714285714,4695.4,570.2223214285714,538.1285714285714,4796.2,570.2223214285714,538.1285714285714,4914.5]","[1737.8,1737.8,1000,0,737.8,""oops"",""right"",""up"",""bad_move"",6654.8,4911.4,2126.4,1743.4,2785,""smooth"",""down"",""down"",""good_move"",12613.9,5952.8,2226.4,9885.2,502.3,""oops"",""down"",""down"",""good_move"",15820.3,3204.9,2543.1,12615.4,661.8,""oops"",""down"",""up"",""bad_move"",19603.7,3780.1,2519.9,15823.7,1260.2,""oops"",""down"",""down"",""good_move"",22793.4,3187.4,2637.3,19606,550.1,""oops"",""down"",""right"",""good_move"",25307.2,2506.9,1926.5,22800.3,580.4,""smooth"",""right"",""right"",""good_move"",27958.3,2649,2157.9,25309.3,491.2,""smooth"",""down"",""down"",""good_move""]","",""
"13846","","<div style=""width:500px;"">
  <p>What determined the result of this run?</p>
  </div>","40","html-slider-response","81","1521927","0.0-10.0-1.7","128","1","2025-07-09 09:08:47","7701e855f2ef39aa3fd6c71abdc6918a","216.120.189.233","Mozilla/5.0 (Windows NT 10.0; Win64; x64) AppleWebKit/537.36 (KHTML, like Gecko) Chrome/137.0.0.0 Safari/537.36","WebKit","Chrome","137.0.0.0","Windows","10.0","https://app.prolific.com/","en-US,en;q=0.9","6669f64ecd7e3ec30632f607","686d226cabeef709c732f8e1","686e310bb33df44bf20e9718","6669f64ecd7e3ec30632f607","2025-07-09T09:34:15.486Z","","","","","","AttribQ","","","","","","","","","","","","","","","","","","","","","","","","","","","","","","","","","","","","","","50"
"4784","","<div style=""width:500px;"">
  <p>How much control did you have over the ball?</p>
  </div>","43","html-slider-response","82","1526716","0.0-10.0-2.7","128","1","2025-07-09 09:08:47","7701e855f2ef39aa3fd6c71abdc6918a","216.120.189.233","Mozilla/5.0 (Windows NT 10.0; Win64; x64) AppleWebKit/537.36 (KHTML, like Gecko) Chrome/137.0.0.0 Safari/537.36","WebKit","Chrome","137.0.0.0","Windows","10.0","https://app.prolific.com/","en-US,en;q=0.9","6669f64ecd7e3ec30632f607","686d226cabeef709c732f8e1","686e310bb33df44bf20e9718","6669f64ecd7e3ec30632f607","2025-07-09T09:34:20.275Z","","","","","","ControlQ","","","","","","","","","","","","","","","","","","","","","","","","","","","","","","","","","","","","","","50"
"3129","","<div style=""width:500px;"">
  <p>How would you describe your current emotional state?</p>
  </div>","40","html-slider-response","83","1529849","0.0-10.0-3.7","128","1","2025-07-09 09:08:47","7701e855f2ef39aa3fd6c71abdc6918a","216.120.189.233","Mozilla/5.0 (Windows NT 10.0; Win64; x64) AppleWebKit/537.36 (KHTML, like Gecko) Chrome/137.0.0.0 Safari/537.36","WebKit","Chrome","137.0.0.0","Windows","10.0","https://app.prolific.com/","en-US,en;q=0.9","6669f64ecd7e3ec30632f607","686d226cabeef709c732f8e1","686e310bb33df44bf20e9718","6669f64ecd7e3ec30632f607","2025-07-09T09:34:23.408Z","","","","","","StressQ","","","","","","","","","","","","","","","","","","","","","","","","","","","","","","","","","","","","","","50"
"14226","","<div style=""width:500px;"">
  <p>What best describes how you currently feel?</p>
  </div>","57","html-slider-response","84","1544080","0.0-10.0-4.7","128","1","2025-07-09 09:08:47","7701e855f2ef39aa3fd6c71abdc6918a","216.120.189.233","Mozilla/5.0 (Windows NT 10.0; Win64; x64) AppleWebKit/537.36 (KHTML, like Gecko) Chrome/137.0.0.0 Safari/537.36","WebKit","Chrome","137.0.0.0","Windows","10.0","https://app.prolific.com/","en-US,en;q=0.9","6669f64ecd7e3ec30632f607","686d226cabeef709c732f8e1","686e310bb33df44bf20e9718","6669f64ecd7e3ec30632f607","2025-07-09T09:34:37.640Z","","","","","","MotivationQ","","","","","","","","","","","","","","","","","","","","","","","","","","","","","","","","","","","","","","50"
"","","","","ctl-task-cpt","85","1637322","0.0-10.0-0.8","128","1","2025-07-09 09:08:47","7701e855f2ef39aa3fd6c71abdc6918a","216.120.189.233","Mozilla/5.0 (Windows NT 10.0; Win64; x64) AppleWebKit/537.36 (KHTML, like Gecko) Chrome/137.0.0.0 Safari/537.36","WebKit","Chrome","137.0.0.0","Windows","10.0","https://app.prolific.com/","en-US,en;q=0.9","6669f64ecd7e3ec30632f607","686d226cabeef709c732f8e1","686e310bb33df44bf20e9718","6669f64ecd7e3ec30632f607","2025-07-09T09:36:10.882Z","","","","","","","","","","","","","","","","win-only","2","g1:SE,g2:NW","0.2","9","0","1551043.8","12940.6","17963.8","90191.1","1","4","4","6","2","4","3","40","37","0.30303030303030304","1992.6","3000","1655","[""left"",""up""]","{""num_key_presses"":14,""num_perfect"":3,""num_errors"":1,""num_randdir"":10,""num_randdir_good_moves"":6,""num_whilered"":0,""num_whileblue"":1,""num_blue"":4,""num_good_moves"":10}","[302.22232142857143,296.12857142857143,2.9,302.22232142857143,296.12857142857143,112.6,302.22232142857143,296.12857142857143,215.7,302.22232142857143,296.12857142857143,330.9,302.22232142857143,296.12857142857143,431.5,302.22232142857143,296.12857142857143,536.7,302.22232142857143,296.12857142857143,663.8,302.22232142857143,296.12857142857143,778,302.22232142857143,296.12857142857143,884.9,302.22232142857143,296.12857142857143,998.2,302.22232142857143,296.12857142857143,1106.9,175.22232142857143,192.12857142857143,1218.3,167.22232142857143,176.12857142857143,1330.8,167.22232142857143,176.12857142857143,1445,61.222321428571426,77.12857142857143,1567,59.222321428571426,73.12857142857143,1670.5,58.222321428571426,71.12857142857143,1776.9,58.222321428571426,71.12857142857143,1884.5,58.222321428571426,71.12857142857143,2005.5,58.222321428571426,71.12857142857143,2108.3,58.222321428571426,71.12857142857143,2209.8,58.222321428571426,71.12857142857143,2316.4,58.222321428571426,71.12857142857143,2421.8,58.222321428571426,71.12857142857143,2525.2,58.222321428571426,71.12857142857143,2626,60.222321428571426,74.12857142857143,2746.8,159.22232142857143,177.12857142857143,2872.5,165.22232142857143,184.12857142857143,2982.2,166.22232142857143,185.12857142857143,3109,170.22232142857143,187.12857142857143,3221.8,171.22232142857143,187.12857142857143,3335.6,171.22232142857143,187.12857142857143,3442.4,171.22232142857143,187.12857142857143,3555.9,171.22232142857143,187.12857142857143,3669.5,171.22232142857143,187.12857142857143,3781.9,171.22232142857143,187.12857142857143,3896.5,171.22232142857143,187.12857142857143,4010.7,171.22232142857143,187.12857142857143,4113.3,171.22232142857143,187.12857142857143,4233.4,171.22232142857143,187.12857142857143,4344.5,171.22232142857143,187.12857142857143,4446.1,171.22232142857143,187.12857142857143,4571.1,171.22232142857143,187.12857142857143,4686.7,171.22232142857143,187.12857142857143,4793.6,171.22232142857143,187.12857142857143,4893.6]","[1621.9,1621.9,1000,0,621.9,""oops"",""left"",""down"",""bad_move"",4777.3,3153.8,2509.9,1623.5,643.9,""oops"",""left"",""down"",""bad_move"",7688,2907.7,2331.8,4780.3,575.9,""oops"",""left"",""right"",""bad_move"",10959.5,3269.6,2805.4,7689.9,464.2,""oops"",""up"",""left"",""good_move"",16587,5622.8,2436.6,10964.2,3186.2,""oops"",""up"",""up"",""good_move"",26927.1,10338.7,2881.5,23382.5,663.1,""oops"",""up"",""up"",""good_move"",31699.3,4771.2,2247.7,26928.2,2523.4,""oops"",""left"",""right"",""bad_move"",34943.1,3242,2673.6,31701.1,568.4,""oops"",""up"",""left"",""good_move"",40466.1,5521.6,4908.6,34944.6,612.9,""while_blue"",""up"",""left"",""good_move"",44970,4502,2793.6,40468,1708.4,""smooth"",""up"",""up"",""good_move"",49496.4,4525.1,2041.2,44971.4,2483.8,""smooth"",""up"",""up"",""good_move"",57116.2,7618.1,2795.4,53829.2,491.8,""oops"",""up"",""up"",""good_move"",66148.7,9031.1,2987.1,62615.6,546,""oops"",""left"",""left"",""good_move"",71634.1,5483.6,2443.9,66150.5,3039.7,""smooth"",""left"",""left"",""good_move""]","",""
"11838","","<div style=""width:500px;"">
  <p>What determined the result of this run?</p>
  </div>","35","html-slider-response","86","1649166","0.0-10.0-1.8","128","1","2025-07-09 09:08:47","7701e855f2ef39aa3fd6c71abdc6918a","216.120.189.233","Mozilla/5.0 (Windows NT 10.0; Win64; x64) AppleWebKit/537.36 (KHTML, like Gecko) Chrome/137.0.0.0 Safari/537.36","WebKit","Chrome","137.0.0.0","Windows","10.0","https://app.prolific.com/","en-US,en;q=0.9","6669f64ecd7e3ec30632f607","686d226cabeef709c732f8e1","686e310bb33df44bf20e9718","6669f64ecd7e3ec30632f607","2025-07-09T09:36:22.725Z","","","","","","AttribQ","","","","","","","","","","","","","","","","","","","","","","","","","","","","","","","","","","","","","","50"
"7572","","<div style=""width:500px;"">
  <p>How much control did you have over the ball?</p>
  </div>","40","html-slider-response","87","1656745","0.0-10.0-2.8","128","1","2025-07-09 09:08:47","7701e855f2ef39aa3fd6c71abdc6918a","216.120.189.233","Mozilla/5.0 (Windows NT 10.0; Win64; x64) AppleWebKit/537.36 (KHTML, like Gecko) Chrome/137.0.0.0 Safari/537.36","WebKit","Chrome","137.0.0.0","Windows","10.0","https://app.prolific.com/","en-US,en;q=0.9","6669f64ecd7e3ec30632f607","686d226cabeef709c732f8e1","686e310bb33df44bf20e9718","6669f64ecd7e3ec30632f607","2025-07-09T09:36:30.304Z","","","","","","ControlQ","","","","","","","","","","","","","","","","","","","","","","","","","","","","","","","","","","","","","","50"
"3814","","<div style=""width:500px;"">
  <p>How would you describe your current emotional state?</p>
  </div>","43","html-slider-response","88","1660562","0.0-10.0-3.8","128","1","2025-07-09 09:08:47","7701e855f2ef39aa3fd6c71abdc6918a","216.120.189.233","Mozilla/5.0 (Windows NT 10.0; Win64; x64) AppleWebKit/537.36 (KHTML, like Gecko) Chrome/137.0.0.0 Safari/537.36","WebKit","Chrome","137.0.0.0","Windows","10.0","https://app.prolific.com/","en-US,en;q=0.9","6669f64ecd7e3ec30632f607","686d226cabeef709c732f8e1","686e310bb33df44bf20e9718","6669f64ecd7e3ec30632f607","2025-07-09T09:36:34.121Z","","","","","","StressQ","","","","","","","","","","","","","","","","","","","","","","","","","","","","","","","","","","","","","","50"
"3662","","<div style=""width:500px;"">
  <p>What best describes how you currently feel?</p>
  </div>","57","html-slider-response","89","1664229","0.0-10.0-4.8","128","1","2025-07-09 09:08:47","7701e855f2ef39aa3fd6c71abdc6918a","216.120.189.233","Mozilla/5.0 (Windows NT 10.0; Win64; x64) AppleWebKit/537.36 (KHTML, like Gecko) Chrome/137.0.0.0 Safari/537.36","WebKit","Chrome","137.0.0.0","Windows","10.0","https://app.prolific.com/","en-US,en;q=0.9","6669f64ecd7e3ec30632f607","686d226cabeef709c732f8e1","686e310bb33df44bf20e9718","6669f64ecd7e3ec30632f607","2025-07-09T09:36:37.789Z","","","","","","MotivationQ","","","","","","","","","","","","","","","","","","","","","","","","","","","","","","","","","","","","","","50"
