"rt","response_timestamp","stimulus","response","trial_type","trial_index","time_elapsed","internal_node_id","run_id","condition","recorded_at","source_code_version","ip","user_agent","device","browser","browser_version","platform","platform_version","referer","accept_language","PROLIFIC_PID","STUDY_ID","SESSION_ID","prolific_id","realtime","view_history","question_order","consent","success","question_id","eventType","responses","item_order","radio_event_ids","radio_event_times","key_event_times","mouse_event_times","straightlining","zigzagging","honeypot","which_type","canvas_config","goals_layout","control_level","trial_number","tutorial_trial_number","trial_start_time","phase1_start_time","phase2_start_time","phase3_start_time","goal_1_value","goal_1_distance","goal_2_value","goal_2_distance","goal_selected","outcome","outcome_total","participant_final_score","participant_initial_score","participant_final_score_prop","goal_choice_rt","allocated_time","allocated_time_remaining","goal_direction","counts","mouse_movements","key_presses","correct","slider_start"
"3213","1752051862304","<p style='font-size:40px;line-height:1.25'><strong>Welcome to the experiment!</strong></p><p style='font-size:1.1em;line-height:1.25'>Thank you for your interest in our experiment! Before you begin, it is important that we obtain your informed consent to participate in the study.</p><p style='font-size:1.1em;line-height:1.25'>On the next screen will be an <strong>information sheet</strong> for you to read. To participate in the study we need you to read this information sheet and the following consent form carefully. If you agree with all the statements, please click the <strong>I agree</strong> button.</p><p style='font-size:1.1em;line-height:1.25'>Press <strong>Next</strong> to read the information sheet.</p>","0","custom-html-button-response","0","3216","0.0-0.0","6","1","2025-07-09 09:04:19","7701e855f2ef39aa3fd6c71abdc6918a","99.233.20.75","Mozilla/5.0 (Windows NT 10.0; Win64; x64; rv:140.0) Gecko/20100101 Firefox/140.0","","Firefox","140.0","Windows","10.0","https://app.prolific.com/","en-US,en;q=0.5","56ebadebcdfa81000d9e2b67","686d226cabeef709c732f8e1","686e3078d21f414e9f937e59","56ebadebcdfa81000d9e2b67","2025-07-09T09:04:22.304Z","","","","","","","","","","","","","","","","","","","","","","","","","","","","","","","","","","","","","","","","","","","",""
"5325","","","","instructions","1","8544","0.0-1.0","6","1","2025-07-09 09:04:19","7701e855f2ef39aa3fd6c71abdc6918a","99.233.20.75","Mozilla/5.0 (Windows NT 10.0; Win64; x64; rv:140.0) Gecko/20100101 Firefox/140.0","","Firefox","140.0","Windows","10.0","https://app.prolific.com/","en-US,en;q=0.5","56ebadebcdfa81000d9e2b67","686d226cabeef709c732f8e1","686e3078d21f414e9f937e59","56ebadebcdfa81000d9e2b67","","[{""page_index"":0,""viewing_time"":2253},{""page_index"":1,""viewing_time"":3072}]","","","","","","","","","","","","","","","","","","","","","","","","","","","","","","","","","","","","","","","","","","",""
"2526","","","{""Q0"":"""",""Q1"":"""",""Q2"":"""",""Q3"":"""",""Q4"":"""",""Q5"":"""",""Q6"":""I agree""}","survey-multi-choice","2","11073","0.0-2.0","6","1","2025-07-09 09:04:19","7701e855f2ef39aa3fd6c71abdc6918a","99.233.20.75","Mozilla/5.0 (Windows NT 10.0; Win64; x64; rv:140.0) Gecko/20100101 Firefox/140.0","","Firefox","140.0","Windows","10.0","https://app.prolific.com/","en-US,en;q=0.5","56ebadebcdfa81000d9e2b67","686d226cabeef709c732f8e1","686e3078d21f414e9f937e59","56ebadebcdfa81000d9e2b67","","","[0,1,2,3,4,5,6]","true","","","","","","","","","","","","","","","","","","","","","","","","","","","","","","","","","","","","","","","","",""
"79690","","","","fullscreen","3","91862","0.0-4.0","6","1","2025-07-09 09:04:19","7701e855f2ef39aa3fd6c71abdc6918a","99.233.20.75","Mozilla/5.0 (Windows NT 10.0; Win64; x64; rv:140.0) Gecko/20100101 Firefox/140.0","","Firefox","140.0","Windows","10.0","https://app.prolific.com/","en-US,en;q=0.5","56ebadebcdfa81000d9e2b67","686d226cabeef709c732f8e1","686e3078d21f414e9f937e59","56ebadebcdfa81000d9e2b67","","","","","true","","","","","","","","","","","","","","","","","","","","","","","","","","","","","","","","","","","","","","","",""
"2258","1752051953214"," <p style='font-size:1.1em;line-height:1.25'>Thank you for completing the consent form and closing all other tabs.</p><p style='font-size:1.1em;line-height:1.25'>We will now invite you to fill in some demographic information and questionnaires, before starting the game.<br>This will take about 5 minutes.<br></p><p style='font-size:1.1em;line-height:1.25'>Press the <strong>Next</strong> button to continue.</p>","0","custom-html-button-response","4","94126","0.0-5.0","6","1","2025-07-09 09:04:19","7701e855f2ef39aa3fd6c71abdc6918a","99.233.20.75","Mozilla/5.0 (Windows NT 10.0; Win64; x64; rv:140.0) Gecko/20100101 Firefox/140.0","","Firefox","140.0","Windows","10.0","https://app.prolific.com/","en-US,en;q=0.5","56ebadebcdfa81000d9e2b67","686d226cabeef709c732f8e1","686e3078d21f414e9f937e59","56ebadebcdfa81000d9e2b67","2025-07-09T09:05:53.214Z","","","","","","","","","","","","","","","","","","","","","","","","","","","","","","","","","","","","","","","","","","","",""
"2614","","","{""age"":""35""}","survey-text","5","96742","0.0-6.0-0.0","6","1","2025-07-09 09:04:19","7701e855f2ef39aa3fd6c71abdc6918a","99.233.20.75","Mozilla/5.0 (Windows NT 10.0; Win64; x64; rv:140.0) Gecko/20100101 Firefox/140.0","","Firefox","140.0","Windows","10.0","https://app.prolific.com/","en-US,en;q=0.5","56ebadebcdfa81000d9e2b67","686d226cabeef709c732f8e1","686e3078d21f414e9f937e59","56ebadebcdfa81000d9e2b67","","","","","","0","demographics","","","","","","","","","","","","","","","","","","","","","","","","","","","","","","","","","","","","","",""
"2086","","","{""gender_identity"":""female/woman""}","survey-multi-choice","6","98830","0.0-6.0-1.0","6","1","2025-07-09 09:04:19","7701e855f2ef39aa3fd6c71abdc6918a","99.233.20.75","Mozilla/5.0 (Windows NT 10.0; Win64; x64; rv:140.0) Gecko/20100101 Firefox/140.0","","Firefox","140.0","Windows","10.0","https://app.prolific.com/","en-US,en;q=0.5","56ebadebcdfa81000d9e2b67","686d226cabeef709c732f8e1","686e3078d21f414e9f937e59","56ebadebcdfa81000d9e2b67","","","[0]","","","1","demographics","","","","","","","","","","","","","","","","","","","","","","","","","","","","","","","","","","","","","",""
"1416","","","{""assigned_sex"":""female""}","survey-multi-choice","7","100246","0.0-6.0-2.0","6","1","2025-07-09 09:04:19","7701e855f2ef39aa3fd6c71abdc6918a","99.233.20.75","Mozilla/5.0 (Windows NT 10.0; Win64; x64; rv:140.0) Gecko/20100101 Firefox/140.0","","Firefox","140.0","Windows","10.0","https://app.prolific.com/","en-US,en;q=0.5","56ebadebcdfa81000d9e2b67","686d226cabeef709c732f8e1","686e3078d21f414e9f937e59","56ebadebcdfa81000d9e2b67","","","[0]","","","2","demographics","","","","","","","","","","","","","","","","","","","","","","","","","","","","","","","","","","","","","",""
"3238","","","{""menstrual_cycle"":""Yes""}","survey-multi-choice","8","103486","0.0-6.0-3.0","6","1","2025-07-09 09:04:19","7701e855f2ef39aa3fd6c71abdc6918a","99.233.20.75","Mozilla/5.0 (Windows NT 10.0; Win64; x64; rv:140.0) Gecko/20100101 Firefox/140.0","","Firefox","140.0","Windows","10.0","https://app.prolific.com/","en-US,en;q=0.5","56ebadebcdfa81000d9e2b67","686d226cabeef709c732f8e1","686e3078d21f414e9f937e59","56ebadebcdfa81000d9e2b67","","","[0]","","","4","demographics","","","","","","","","","","","","","","","","","","","","","","","","","","","","","","","","","","","","","",""
"2623","","","{""education"":""Bachelor's Degree (e.g., BA)""}","survey-multi-choice","9","106110","0.0-6.0-4.0","6","1","2025-07-09 09:04:19","7701e855f2ef39aa3fd6c71abdc6918a","99.233.20.75","Mozilla/5.0 (Windows NT 10.0; Win64; x64; rv:140.0) Gecko/20100101 Firefox/140.0","","Firefox","140.0","Windows","10.0","https://app.prolific.com/","en-US,en;q=0.5","56ebadebcdfa81000d9e2b67","686d226cabeef709c732f8e1","686e3078d21f414e9f937e59","56ebadebcdfa81000d9e2b67","","","[0]","","","5","demographics","","","","","","","","","","","","","","","","","","","","","","","","","","","","","","","","","","","","","",""
"5215","","","{""education"":""Bachelor's Degree (e.g., BA)""}","survey-multi-choice","10","111326","0.0-6.0-5.0","6","1","2025-07-09 09:04:19","7701e855f2ef39aa3fd6c71abdc6918a","99.233.20.75","Mozilla/5.0 (Windows NT 10.0; Win64; x64; rv:140.0) Gecko/20100101 Firefox/140.0","","Firefox","140.0","Windows","10.0","https://app.prolific.com/","en-US,en;q=0.5","56ebadebcdfa81000d9e2b67","686d226cabeef709c732f8e1","686e3078d21f414e9f937e59","56ebadebcdfa81000d9e2b67","2025-07-09T09:06:10.414Z","","[0]","","","6","demographics","","","","","","","","","","","","","","","","","","","","","","","","","","","","","","","","","","","","","",""
"17933","","","{""mental_health_condition"":""No"",""mental_health_treatment"":""No"",""psychiatric_medication"":""N/A""}","survey-text","11","129262","0.0-7.0-0.0","6","1","2025-07-09 09:04:19","7701e855f2ef39aa3fd6c71abdc6918a","99.233.20.75","Mozilla/5.0 (Windows NT 10.0; Win64; x64; rv:140.0) Gecko/20100101 Firefox/140.0","","Firefox","140.0","Windows","10.0","https://app.prolific.com/","en-US,en;q=0.5","56ebadebcdfa81000d9e2b67","686d226cabeef709c732f8e1","686e3078d21f414e9f937e59","56ebadebcdfa81000d9e2b67","2025-07-09T09:06:28.350Z","","","","","1","mental_health","","","","","","","","","","","","","","","","","","","","","","","","","","","","","","","","","","","","","",""
"6574","","","{""depression_history"":[""No""]}","survey-multi-select","12","135838","0.0-7.0-1.0","6","1","2025-07-09 09:04:19","7701e855f2ef39aa3fd6c71abdc6918a","99.233.20.75","Mozilla/5.0 (Windows NT 10.0; Win64; x64; rv:140.0) Gecko/20100101 Firefox/140.0","","Firefox","140.0","Windows","10.0","https://app.prolific.com/","en-US,en;q=0.5","56ebadebcdfa81000d9e2b67","686d226cabeef709c732f8e1","686e3078d21f414e9f937e59","56ebadebcdfa81000d9e2b67","","","[0]","","","","mental_health","","","","","","","","","","","","","","","","","","","","","","","","","","","","","","","","","","","","","",""
"51861","","","","survey-template","13","187702","0.0-7.0-3.0","6","1","2025-07-09 09:04:19","7701e855f2ef39aa3fd6c71abdc6918a","99.233.20.75","Mozilla/5.0 (Windows NT 10.0; Win64; x64; rv:140.0) Gecko/20100101 Firefox/140.0","","Firefox","140.0","Windows","10.0","https://app.prolific.com/","en-US,en;q=0.5","56ebadebcdfa81000d9e2b67","686d226cabeef709c732f8e1","686e3078d21f414e9f937e59","56ebadebcdfa81000d9e2b67","2025-07-09T09:07:26.791Z","","","","","","ius","{""Q01"":""1"",""Q02"":""3"",""Q03"":""1"",""Q04"":""4"",""Q05"":""1"",""Q06"":""0"",""Q07"":""0"",""Q08"":""0"",""Q09"":""4"",""Q10"":""3"",""Q11"":""1"",""Q12"":""4"",""Q13"":""3""}","[0,1,2,3,4,5,6,7,8,9,10,11,12]","[""Q01"",""Q02"",""Q03"",""Q04"",""Q05"",""Q06"",""Q07"",""Q08"",""Q09"",""Q10"",""Q11"",""Q12"",""Q13"",""Q13""]","[6357,10789,15212,17941,24917,28325,31756,33565,35644,38372,41517,44540,50204,51260]","[]","[6357,10789,15212,17941,24917,27364,28325,31756,33565,35644,38372,41517,44540,48420,50204,51260,51860]","0.3076923076923077","0.3333333333333333","0","","","","","","","","","","","","","","","","","","","","","","","","","","","","",""
"1638","1752052048429","<p style='font-size:1.1em;line-height:1.25'>In the following, we will ask you a few questions relating to your experiences over the past month.<br></p><p style='font-size:1.1em;line-height:1.25'>Press the <strong>Next</strong> button to continue.</p>","0","custom-html-button-response","14","189341","0.0-7.0-4.0","6","1","2025-07-09 09:04:19","7701e855f2ef39aa3fd6c71abdc6918a","99.233.20.75","Mozilla/5.0 (Windows NT 10.0; Win64; x64; rv:140.0) Gecko/20100101 Firefox/140.0","","Firefox","140.0","Windows","10.0","https://app.prolific.com/","en-US,en;q=0.5","56ebadebcdfa81000d9e2b67","686d226cabeef709c732f8e1","686e3078d21f414e9f937e59","56ebadebcdfa81000d9e2b67","2025-07-09T09:07:28.429Z","","","","","","","","","","","","","","","","","","","","","","","","","","","","","","","","","","","","","","","","","","","",""
"45430","","","","survey-template","15","234773","0.0-7.0-5.0","6","1","2025-07-09 09:04:19","7701e855f2ef39aa3fd6c71abdc6918a","99.233.20.75","Mozilla/5.0 (Windows NT 10.0; Win64; x64; rv:140.0) Gecko/20100101 Firefox/140.0","","Firefox","140.0","Windows","10.0","https://app.prolific.com/","en-US,en;q=0.5","56ebadebcdfa81000d9e2b67","686d226cabeef709c732f8e1","686e3078d21f414e9f937e59","56ebadebcdfa81000d9e2b67","2025-07-09T09:08:13.861Z","","","","","","pss","{""Q01"":""0"",""Q02"":""0"",""Q03"":""1"",""Q04"":""1"",""Q05"":""1"",""Q06"":""0"",""Q07"":""1"",""Q08"":""1"",""Q09"":""1"",""Q10"":""1""}","[0,1,2,3,4,5,6,7,8,9]","[""Q01"",""Q02"",""Q03"",""Q03"",""Q04"",""Q05"",""Q06"",""Q07"",""Q08"",""Q09"",""Q10""]","[7374,8174,9133,17502,23598,26590,30134,34277,37502,40901,44254]","[]","[1,7374,8174,9133,16406,17502,23598,26590,30134,34277,37502,40901,44254,45429]","0.4","0.1111111111111111","0","","","","","","","","","","","","","","","","","","","","","","","","","","","","",""
"1316","1752052095180","<p style='font-size:1.1em;line-height:1.25'>Thank you for your answers! Now we will ask you a few more questions relating to your feelings in the last 24 hours.<br></p><p style='font-size:1.1em;line-height:1.25'>Press the <strong>Next</strong> button to continue.</p>","0","custom-html-button-response","16","236092","0.0-7.0-6.0","6","1","2025-07-09 09:04:19","7701e855f2ef39aa3fd6c71abdc6918a","99.233.20.75","Mozilla/5.0 (Windows NT 10.0; Win64; x64; rv:140.0) Gecko/20100101 Firefox/140.0","","Firefox","140.0","Windows","10.0","https://app.prolific.com/","en-US,en;q=0.5","56ebadebcdfa81000d9e2b67","686d226cabeef709c732f8e1","686e3078d21f414e9f937e59","56ebadebcdfa81000d9e2b67","2025-07-09T09:08:15.180Z","","","","","","","","","","","","","","","","","","","","","","","","","","","","","","","","","","","","","","","","","","","",""
"44973","","","","survey-template","17","281069","0.0-7.0-7.0","6","1","2025-07-09 09:04:19","7701e855f2ef39aa3fd6c71abdc6918a","99.233.20.75","Mozilla/5.0 (Windows NT 10.0; Win64; x64; rv:140.0) Gecko/20100101 Firefox/140.0","","Firefox","140.0","Windows","10.0","https://app.prolific.com/","en-US,en;q=0.5","56ebadebcdfa81000d9e2b67","686d226cabeef709c732f8e1","686e3078d21f414e9f937e59","56ebadebcdfa81000d9e2b67","2025-07-09T09:09:00.157Z","","","","","","drsp","{""Q01"":""0"",""Q02"":""0"",""Q03"":""0"",""Q04"":""0"",""Q05"":""0"",""Q06"":""0"",""Q07"":""0"",""Q08"":""0"",""Q09"":""0"",""Q10"":""0"",""Q11"":""0"",""Q12"":""1"",""Q13"":""1"",""Q14"":""0"",""Q15"":""0"",""Q16"":""0"",""Q17"":""0"",""Q18"":""0"",""Q19"":""0"",""Q20"":""0"",""Q21"":""0""}","[0,1,2,3,4,5,6,7,8,9,10,11,12,13,14,15,16,17,18,19,20]","[""Q01"",""Q02"",""Q03"",""Q04"",""Q05"",""Q06"",""Q07"",""Q09"",""Q08"",""Q10"",""Q11"",""Q12"",""Q13"",""Q12"",""Q14"",""Q15"",""Q16"",""Q17"",""Q18"",""Q19"",""Q20"",""Q21""]","[3318,3981,6637,7309,8069,9405,12277,14174,15390,16373,17269,19565,20717,23069,27669,29685,30661,31541,36094,39397,41484,43261]","[]","[0,3318,3981,4421,4797,5157,5869,6374,6637,7309,8069,9405,10085,12277,13308,14174,15390,16373,17269,19565,20717,23069,27669,29685,30661,31541,36094,39397,41484,43261,44973]","0.9047619047619048","0.1","0","","","","","","","","","","","","","","","","","","","","","","","","","","","","",""
"16381","","","","survey-template","18","297452","0.0-7.0-8.0","6","1","2025-07-09 09:04:19","7701e855f2ef39aa3fd6c71abdc6918a","99.233.20.75","Mozilla/5.0 (Windows NT 10.0; Win64; x64; rv:140.0) Gecko/20100101 Firefox/140.0","","Firefox","140.0","Windows","10.0","https://app.prolific.com/","en-US,en;q=0.5","56ebadebcdfa81000d9e2b67","686d226cabeef709c732f8e1","686e3078d21f414e9f937e59","56ebadebcdfa81000d9e2b67","2025-07-09T09:09:16.540Z","","","","","","stress","{""Q01"":""0"",""Q02"":""3"",""Q03"":""0""}","[0,1,2]","[""Q01"",""Q02"",""Q03""]","[3308,11773,13685]","[]","[3308,11773,13685,16381]","0.6666666666666666","0","0","","","","","","","","","","","","","","","","","","","","","","","","","","","","",""
"78197","","","","instructions","19","375650","0.0-8.0-0.0","6","1","2025-07-09 09:04:19","7701e855f2ef39aa3fd6c71abdc6918a","99.233.20.75","Mozilla/5.0 (Windows NT 10.0; Win64; x64; rv:140.0) Gecko/20100101 Firefox/140.0","","Firefox","140.0","Windows","10.0","https://app.prolific.com/","en-US,en;q=0.5","56ebadebcdfa81000d9e2b67","686d226cabeef709c732f8e1","686e3078d21f414e9f937e59","56ebadebcdfa81000d9e2b67","","[{""page_index"":0,""viewing_time"":20054},{""page_index"":1,""viewing_time"":28551},{""page_index"":2,""viewing_time"":14832},{""page_index"":3,""viewing_time"":14760}]","","","","","","","","","","","","","","","","","","","","","","","","","","","","","","","","","","","","","","","","","","",""
"","","","","ctl-task-cpt","20","407629","0.0-8.0-1.0","6","1","2025-07-09 09:04:19","7701e855f2ef39aa3fd6c71abdc6918a","99.233.20.75","Mozilla/5.0 (Windows NT 10.0; Win64; x64; rv:140.0) Gecko/20100101 Firefox/140.0","","Firefox","140.0","Windows","10.0","https://app.prolific.com/","en-US,en;q=0.5","56ebadebcdfa81000d9e2b67","686d226cabeef709c732f8e1","686e3078d21f414e9f937e59","56ebadebcdfa81000d9e2b67","","","","","","","","","","","","","","","","","win-only","2","g1:SE,g2:NW","1","0","1","378259","3104","7108","28967","2","4","4","6","2","4","3","3","0","0.022727272727272728","2471","4000","3055","[""left"",""up""]","{""num_key_presses"":8,""num_perfect"":6,""num_errors"":1,""num_randdir"":0,""num_randdir_good_moves"":0,""num_whilered"":1,""num_whileblue"":0,""num_blue"":1,""num_good_moves"":6}","[422.57142857142856,414.27142551967074,0,422.57142857142856,414.27142551967074,103,422.57142857142856,414.27142551967074,213,422.57142857142856,414.27142551967074,322,422.57142857142856,414.27142551967074,430,422.57142857142856,414.27142551967074,540,422.57142857142856,414.27142551967074,648,422.57142857142856,414.27142551967074,757,422.57142857142856,414.27142551967074,866,422.57142857142856,414.27142551967074,975,422.57142857142856,414.27142551967074,1084,440.57142857142856,458.27142551967074,1192,441.57142857142856,461.27142551967074,1302,441.57142857142856,461.27142551967074,1412,442.57142857142856,432.27142551967074,1521,388.57142857142856,373.27142551967074,1631,175.57142857142856,171.27142551967074,1741,163.57142857142856,156.27142551967074,1848,72.57142857142857,63.27142551967076,1957,72.57142857142857,63.27142551967076,2067,72.57142857142857,63.27142551967076,2175,72.57142857142857,63.27142551967076,2284,72.57142857142857,63.27142551967076,2392,72.57142857142857,63.27142551967076,2500,72.57142857142857,63.27142551967076,2609,72.57142857142857,63.27142551967076,2717,72.57142857142857,63.27142551967076,2825,72.57142857142857,63.27142551967076,2934,72.57142857142857,63.27142551967076,3043,72.57142857142857,63.27142551967076,3152,72.57142857142857,63.27142551967076,3260,72.57142857142857,63.27142551967076,3368,72.57142857142857,63.27142551967076,3477,72.57142857142857,63.27142551967076,3585,72.57142857142857,63.27142551967076,3694,72.57142857142857,63.27142551967076,3803,72.57142857142857,63.27142551967076,3911]","[1633,1633,1000,0,633,""smooth"",""up"",""up"",""good_move"",2056,423,1712.5,1633,-1289.5,""error"",""-"",""-"",""no_move"",2408,352,1712.5,1633,-937.5,""while_red"",""-"",""-"",""no_move"",5929,3873,2348,3063,518,""smooth"",""up"",""up"",""good_move"",12041,6112,2072.6,9567,401.4,""smooth"",""left"",""left"",""good_move"",15201,3160,2427.1,12041,732.9,""smooth"",""left"",""left"",""good_move"",18368,3167,2002.9,15201,1164.1,""smooth"",""left"",""left"",""good_move"",21584,3215,2827.8,18369,387.2,""smooth"",""up"",""up"",""good_move""]","",""
"11908","","","","instructions","21","419538","0.0-8.0-2.0","6","1","2025-07-09 09:04:19","7701e855f2ef39aa3fd6c71abdc6918a","99.233.20.75","Mozilla/5.0 (Windows NT 10.0; Win64; x64; rv:140.0) Gecko/20100101 Firefox/140.0","","Firefox","140.0","Windows","10.0","https://app.prolific.com/","en-US,en;q=0.5","56ebadebcdfa81000d9e2b67","686d226cabeef709c732f8e1","686e3078d21f414e9f937e59","56ebadebcdfa81000d9e2b67","","[{""page_index"":0,""viewing_time"":11908}]","","","","","","","","","","","","","","","","","","","","","","","","","","","","","","","","","","","","","","","","","","",""
"","","","","ctl-task-cpt","22","438261","0.0-8.0-3.0","6","1","2025-07-09 09:04:19","7701e855f2ef39aa3fd6c71abdc6918a","99.233.20.75","Mozilla/5.0 (Windows NT 10.0; Win64; x64; rv:140.0) Gecko/20100101 Firefox/140.0","","Firefox","140.0","Windows","10.0","https://app.prolific.com/","en-US,en;q=0.5","56ebadebcdfa81000d9e2b67","686d226cabeef709c732f8e1","686e3078d21f414e9f937e59","56ebadebcdfa81000d9e2b67","","","","","","","","","","","","","","","","","win-only","2","g1:SE,g2:NW","0.35","0","3","422146","1223","5237","15713","2","4","8","6","1","2","2","2","0","0.015151515151515152","3673","4000","3515","[""down"",""right""]","{""num_key_presses"":4,""num_perfect"":4,""num_errors"":0,""num_randdir"":0,""num_randdir_good_moves"":0,""num_whilered"":0,""num_whileblue"":0,""num_blue"":0,""num_good_moves"":4}","[420.57142857142856,417.27142551967074,0,420.57142857142856,417.27142551967074,109,420.57142857142856,417.27142551967074,217,420.57142857142856,417.27142551967074,327,420.57142857142856,417.27142551967074,436,420.57142857142856,417.27142551967074,545,420.57142857142856,417.27142551967074,653,420.57142857142856,417.27142551967074,761,420.57142857142856,417.27142551967074,869,420.57142857142856,417.27142551967074,978,420.57142857142856,417.27142551967074,1089,420.57142857142856,417.27142551967074,1198,420.57142857142856,417.27142551967074,1307,420.57142857142856,417.27142551967074,1415,420.57142857142856,417.27142551967074,1523,420.57142857142856,417.27142551967074,1632,420.57142857142856,417.27142551967074,1741,420.57142857142856,417.27142551967074,1849,420.57142857142856,419.27142551967074,1956,420.57142857142856,422.27142551967074,2065,420.57142857142856,422.27142551967074,2175,420.57142857142856,422.27142551967074,2284,420.57142857142856,422.27142551967074,2393,420.57142857142856,422.27142551967074,2503,420.57142857142856,422.27142551967074,2610,420.57142857142856,422.27142551967074,2720,543.5714285714286,634.2714255196707,2829,658.5714285714286,798.2714255196707,2938,721.5714285714286,775.2714255196707,3047,732.5714285714286,768.2714255196707,3158,764.5714285714286,777.2714255196707,3267,765.5714285714286,777.2714255196707,3378,765.5714285714286,777.2714255196707,3486,765.5714285714286,777.2714255196707,3594,765.5714285714286,777.2714255196707,3705,765.5714285714286,777.2714255196707,3813,765.5714285714286,777.2714255196707,3922]","[1480,1480,1000,0,480,""smooth"",""right"",""right"",""good_move"",3607,2126,1703.8,1481,422.2,""smooth"",""right"",""right"",""good_move"",6552,2944,2639.9,3608,304.1,""smooth"",""down"",""down"",""good_move"",10200,3648,3278.9,6552,369.1,""smooth"",""down"",""down"",""good_move""]","",""
"55605","","","","instructions","23","493865","0.0-8.0-4.0","6","1","2025-07-09 09:04:19","7701e855f2ef39aa3fd6c71abdc6918a","99.233.20.75","Mozilla/5.0 (Windows NT 10.0; Win64; x64; rv:140.0) Gecko/20100101 Firefox/140.0","","Firefox","140.0","Windows","10.0","https://app.prolific.com/","en-US,en;q=0.5","56ebadebcdfa81000d9e2b67","686d226cabeef709c732f8e1","686e3078d21f414e9f937e59","56ebadebcdfa81000d9e2b67","","[{""page_index"":0,""viewing_time"":12341},{""page_index"":1,""viewing_time"":43263}]","","","","","","","","","","","","","","","","","","","","","","","","","","","","","","","","","","","","","","","","","","",""
"17798","","","{""green_ball"":[""Ball always moves in the direction I press"",""Ball sometimes shakes and moves in a random direction""]}","survey-multi-select","24","511665","0.0-8.0-5.0-0.0","6","1","2025-07-09 09:04:19","7701e855f2ef39aa3fd6c71abdc6918a","99.233.20.75","Mozilla/5.0 (Windows NT 10.0; Win64; x64; rv:140.0) Gecko/20100101 Firefox/140.0","","Firefox","140.0","Windows","10.0","https://app.prolific.com/","en-US,en;q=0.5","56ebadebcdfa81000d9e2b67","686d226cabeef709c732f8e1","686e3078d21f414e9f937e59","56ebadebcdfa81000d9e2b67","","","[0]","","","","quiz","","","","","","","","","","","","","","","","","","","","","","","","","","","","","","","","","","","","","false",""
"5222","","<p align='center'><b>INCORRECT.</b> Usually the green ball moves in the indicated direction, but sometimes it shakes and moves randomly. </p>","0","html-button-response","25","516889","0.0-8.0-5.0-1.0","6","1","2025-07-09 09:04:19","7701e855f2ef39aa3fd6c71abdc6918a","99.233.20.75","Mozilla/5.0 (Windows NT 10.0; Win64; x64; rv:140.0) Gecko/20100101 Firefox/140.0","","Firefox","140.0","Windows","10.0","https://app.prolific.com/","en-US,en;q=0.5","56ebadebcdfa81000d9e2b67","686d226cabeef709c732f8e1","686e3078d21f414e9f937e59","56ebadebcdfa81000d9e2b67","","","","","","","","","","","","","","","","","","","","","","","","","","","","","","","","","","","","","","","","","","","","",""
"11630","","","{""green_ball"":[""Ball sometimes shakes and moves in a random direction""]}","survey-multi-select","26","528521","0.0-8.0-5.1-0.1","6","1","2025-07-09 09:04:19","7701e855f2ef39aa3fd6c71abdc6918a","99.233.20.75","Mozilla/5.0 (Windows NT 10.0; Win64; x64; rv:140.0) Gecko/20100101 Firefox/140.0","","Firefox","140.0","Windows","10.0","https://app.prolific.com/","en-US,en;q=0.5","56ebadebcdfa81000d9e2b67","686d226cabeef709c732f8e1","686e3078d21f414e9f937e59","56ebadebcdfa81000d9e2b67","","","[0]","","","","quiz","","","","","","","","","","","","","","","","","","","","","","","","","","","","","","","","","","","","","true",""
"2054","","<p align='center'><b>CORRECT!</b> Indeed, the green ball may sometimes shake and move in a random direction.</p>","0","html-button-response","27","530576","0.0-8.0-5.1-1.1","6","1","2025-07-09 09:04:19","7701e855f2ef39aa3fd6c71abdc6918a","99.233.20.75","Mozilla/5.0 (Windows NT 10.0; Win64; x64; rv:140.0) Gecko/20100101 Firefox/140.0","","Firefox","140.0","Windows","10.0","https://app.prolific.com/","en-US,en;q=0.5","56ebadebcdfa81000d9e2b67","686d226cabeef709c732f8e1","686e3078d21f414e9f937e59","56ebadebcdfa81000d9e2b67","","","","","","","","","","","","","","","","","","","","","","","","","","","","","","","","","","","","","","","","","","","","",""
"8678","","","{""yellow_ball"":[""Ball doesn‘t move and I get -1 penalty point""]}","survey-multi-select","28","539256","0.0-8.0-6.0-0.0","6","1","2025-07-09 09:04:19","7701e855f2ef39aa3fd6c71abdc6918a","99.233.20.75","Mozilla/5.0 (Windows NT 10.0; Win64; x64; rv:140.0) Gecko/20100101 Firefox/140.0","","Firefox","140.0","Windows","10.0","https://app.prolific.com/","en-US,en;q=0.5","56ebadebcdfa81000d9e2b67","686d226cabeef709c732f8e1","686e3078d21f414e9f937e59","56ebadebcdfa81000d9e2b67","","","[0]","","","","quiz","","","","","","","","","","","","","","","","","","","","","","","","","","","","","","","","","","","","","true",""
"1550","","<p align='center'><b>CORRECT!</b> Indeed, the yellow ball never moves and you receive a penalty.</p>","0","html-button-response","29","540807","0.0-8.0-6.0-1.0","6","1","2025-07-09 09:04:19","7701e855f2ef39aa3fd6c71abdc6918a","99.233.20.75","Mozilla/5.0 (Windows NT 10.0; Win64; x64; rv:140.0) Gecko/20100101 Firefox/140.0","","Firefox","140.0","Windows","10.0","https://app.prolific.com/","en-US,en;q=0.5","56ebadebcdfa81000d9e2b67","686d226cabeef709c732f8e1","686e3078d21f414e9f937e59","56ebadebcdfa81000d9e2b67","","","","","","","","","","","","","","","","","","","","","","","","","","","","","","","","","","","","","","","","","","","","",""
"7479","","","{""blue_ball"":[""Ball doesn‘t move and I get -1 penalty point""]}","survey-multi-select","30","548288","0.0-8.0-7.0-0.0","6","1","2025-07-09 09:04:19","7701e855f2ef39aa3fd6c71abdc6918a","99.233.20.75","Mozilla/5.0 (Windows NT 10.0; Win64; x64; rv:140.0) Gecko/20100101 Firefox/140.0","","Firefox","140.0","Windows","10.0","https://app.prolific.com/","en-US,en;q=0.5","56ebadebcdfa81000d9e2b67","686d226cabeef709c732f8e1","686e3078d21f414e9f937e59","56ebadebcdfa81000d9e2b67","","","[0]","","","","quiz","","","","","","","","","","","","","","","","","","","","","","","","","","","","","","","","","","","","","false",""
"2927","","<p align='center'><b>INCORRECT.</b> The blue ball always shakes and moves randomly.</p>","0","html-button-response","31","551217","0.0-8.0-7.0-1.0","6","1","2025-07-09 09:04:19","7701e855f2ef39aa3fd6c71abdc6918a","99.233.20.75","Mozilla/5.0 (Windows NT 10.0; Win64; x64; rv:140.0) Gecko/20100101 Firefox/140.0","","Firefox","140.0","Windows","10.0","https://app.prolific.com/","en-US,en;q=0.5","56ebadebcdfa81000d9e2b67","686d226cabeef709c732f8e1","686e3078d21f414e9f937e59","56ebadebcdfa81000d9e2b67","","","","","","","","","","","","","","","","","","","","","","","","","","","","","","","","","","","","","","","","","","","","",""
"3997","","","{""blue_ball"":[""Ball always shakes and moves in a random direction""]}","survey-multi-select","32","555216","0.0-8.0-7.1-0.1","6","1","2025-07-09 09:04:19","7701e855f2ef39aa3fd6c71abdc6918a","99.233.20.75","Mozilla/5.0 (Windows NT 10.0; Win64; x64; rv:140.0) Gecko/20100101 Firefox/140.0","","Firefox","140.0","Windows","10.0","https://app.prolific.com/","en-US,en;q=0.5","56ebadebcdfa81000d9e2b67","686d226cabeef709c732f8e1","686e3078d21f414e9f937e59","56ebadebcdfa81000d9e2b67","","","[0]","","","","quiz","","","","","","","","","","","","","","","","","","","","","","","","","","","","","","","","","","","","","true",""
"2423","","<p align='center'><b>CORRECT!</b> Indeed, the blue ball always shakes and moves in a random direction. Also there is a penalty of -1 point.</p>","0","html-button-response","33","557640","0.0-8.0-7.1-1.1","6","1","2025-07-09 09:04:19","7701e855f2ef39aa3fd6c71abdc6918a","99.233.20.75","Mozilla/5.0 (Windows NT 10.0; Win64; x64; rv:140.0) Gecko/20100101 Firefox/140.0","","Firefox","140.0","Windows","10.0","https://app.prolific.com/","en-US,en;q=0.5","56ebadebcdfa81000d9e2b67","686d226cabeef709c732f8e1","686e3078d21f414e9f937e59","56ebadebcdfa81000d9e2b67","","","","","","","","","","","","","","","","","","","","","","","","","","","","","","","","","","","","","","","","","","","","",""
"3216","","","{""bonus"":[""When I reach 50% of points""]}","survey-multi-select","34","560857","0.0-8.0-8.0-0.0","6","1","2025-07-09 09:04:19","7701e855f2ef39aa3fd6c71abdc6918a","99.233.20.75","Mozilla/5.0 (Windows NT 10.0; Win64; x64; rv:140.0) Gecko/20100101 Firefox/140.0","","Firefox","140.0","Windows","10.0","https://app.prolific.com/","en-US,en;q=0.5","56ebadebcdfa81000d9e2b67","686d226cabeef709c732f8e1","686e3078d21f414e9f937e59","56ebadebcdfa81000d9e2b67","","","[0]","","","","quiz","","","","","","","","","","","","","","","","","","","","","","","","","","","","","","","","","","","","","true",""
"1638","","<p align='center'><b>CORRECT!</b> Indeed, you receive 2 pounds extra when you reach 50% of points.</p>","0","html-button-response","35","562496","0.0-8.0-8.0-1.0","6","1","2025-07-09 09:04:19","7701e855f2ef39aa3fd6c71abdc6918a","99.233.20.75","Mozilla/5.0 (Windows NT 10.0; Win64; x64; rv:140.0) Gecko/20100101 Firefox/140.0","","Firefox","140.0","Windows","10.0","https://app.prolific.com/","en-US,en;q=0.5","56ebadebcdfa81000d9e2b67","686d226cabeef709c732f8e1","686e3078d21f414e9f937e59","56ebadebcdfa81000d9e2b67","","","","","","","","","","","","","","","","","","","","","","","","","","","","","","","","","","","","","","","","","","","","",""
"1920","","","","instructions","36","564416","0.0-8.0-9.0","6","1","2025-07-09 09:04:19","7701e855f2ef39aa3fd6c71abdc6918a","99.233.20.75","Mozilla/5.0 (Windows NT 10.0; Win64; x64; rv:140.0) Gecko/20100101 Firefox/140.0","","Firefox","140.0","Windows","10.0","https://app.prolific.com/","en-US,en;q=0.5","56ebadebcdfa81000d9e2b67","686d226cabeef709c732f8e1","686e3078d21f414e9f937e59","56ebadebcdfa81000d9e2b67","","[{""page_index"":0,""viewing_time"":1919}]","","","","","","","","","","","","","","","","","","","","","","","","","","","","","","","","","","","","","","","","","","",""
"11430","","<p>Before you start with this game please answer the following three questions yourself. </p>
  <p>Through this game, we measure several aspects of your cognitive performance, such as reaction times, multi-tasking capabilities </p>
  <p>and the ability to assess the situation you are in.</p>
  <p></p>
  <p><b>How good do you usually are in such tasks?</b></p>","63","html-slider-response","37","575848","0.0-9.0-0.0","6","1","2025-07-09 09:04:19","7701e855f2ef39aa3fd6c71abdc6918a","99.233.20.75","Mozilla/5.0 (Windows NT 10.0; Win64; x64; rv:140.0) Gecko/20100101 Firefox/140.0","","Firefox","140.0","Windows","10.0","https://app.prolific.com/","en-US,en;q=0.5","56ebadebcdfa81000d9e2b67","686d226cabeef709c732f8e1","686e3078d21f414e9f937e59","56ebadebcdfa81000d9e2b67","2025-07-09T09:13:54.936Z","","","","","","PreSkillQ","","","","","","","","","","","","","","","","","","","","","","","","","","","","","","","","","","","","","","50"
"5223","","<div style=""width:500px;"">
  <p>How well do you think you will perform in this task compared to other participants?</p>
  </div>","39","html-slider-response","38","581071","0.0-9.0-1.0","6","1","2025-07-09 09:04:19","7701e855f2ef39aa3fd6c71abdc6918a","99.233.20.75","Mozilla/5.0 (Windows NT 10.0; Win64; x64; rv:140.0) Gecko/20100101 Firefox/140.0","","Firefox","140.0","Windows","10.0","https://app.prolific.com/","en-US,en;q=0.5","56ebadebcdfa81000d9e2b67","686d226cabeef709c732f8e1","686e3078d21f414e9f937e59","56ebadebcdfa81000d9e2b67","2025-07-09T09:14:00.160Z","","","","","","PrePerfQ","","","","","","","","","","","","","","","","","","","","","","","","","","","","","","","","","","","","","","50"
"4408","","<div style=""width:500px;"">
  <p>What best describes how you currently feel?</p>
  </div>","83","html-slider-response","39","585480","0.0-9.0-2.0","6","1","2025-07-09 09:04:19","7701e855f2ef39aa3fd6c71abdc6918a","99.233.20.75","Mozilla/5.0 (Windows NT 10.0; Win64; x64; rv:140.0) Gecko/20100101 Firefox/140.0","","Firefox","140.0","Windows","10.0","https://app.prolific.com/","en-US,en;q=0.5","56ebadebcdfa81000d9e2b67","686d226cabeef709c732f8e1","686e3078d21f414e9f937e59","56ebadebcdfa81000d9e2b67","2025-07-09T09:14:04.568Z","","","","","","PreMotivationQ","","","","","","","","","","","","","","","","","","","","","","","","","","","","","","","","","","","","","","50"
"","","","","ctl-task-cpt","40","613626","0.0-10.0-0.0","6","1","2025-07-09 09:04:19","7701e855f2ef39aa3fd6c71abdc6918a","99.233.20.75","Mozilla/5.0 (Windows NT 10.0; Win64; x64; rv:140.0) Gecko/20100101 Firefox/140.0","","Firefox","140.0","Windows","10.0","https://app.prolific.com/","en-US,en;q=0.5","56ebadebcdfa81000d9e2b67","686d226cabeef709c732f8e1","686e3078d21f414e9f937e59","56ebadebcdfa81000d9e2b67","2025-07-09T09:14:32.714Z","","","","","","","","","","","","","","","","win-only","3","g1:SW,g2:NE","1","1","0","588088","2120","7125","25137","1","4","4","6","2","4","3","3","0","0.022727272727272728","2375","3000","2270","[""up"",""right""]","{""num_key_presses"":7,""num_perfect"":6,""num_errors"":1,""num_randdir"":0,""num_randdir_good_moves"":0,""num_whilered"":0,""num_whileblue"":0,""num_blue"":0,""num_good_moves"":6}","[419.57142857142856,415.27142551967074,0,419.57142857142856,415.27142551967074,109,419.57142857142856,415.27142551967074,218,419.57142857142856,415.27142551967074,329,419.57142857142856,415.27142551967074,437,419.57142857142856,415.27142551967074,546,419.57142857142856,415.27142551967074,655,419.57142857142856,415.27142551967074,764,419.57142857142856,415.27142551967074,873,419.57142857142856,415.27142551967074,985,419.57142857142856,415.27142551967074,1094,419.57142857142856,415.27142551967074,1204,419.57142857142856,415.27142551967074,1313,598.5714285714286,271.27142551967074,1423,768.5714285714286,4.271425519670757,1530,790.5714285714286,-10.728574480329243,1639,809.5714285714286,23.271425519670757,1750,793.5714285714286,56.27142551967076,1858,777.5714285714286,73.27142551967076,1966,777.5714285714286,73.27142551967076,2074,770.5714285714286,78.27142551967076,2183,764.5714285714286,82.27142551967076,2293,764.5714285714286,82.27142551967076,2402,764.5714285714286,82.27142551967076,2510,764.5714285714286,82.27142551967076,2618,764.5714285714286,82.27142551967076,2728,703.5714285714286,285.27142551967074,2836,718.5714285714286,436.27142551967074,2945,735.5714285714286,457.27142551967074,3054,737.5714285714286,457.27142551967074,3165,809.5714285714286,494.27142551967074,3274,819.5714285714286,497.27142551967074,3382,822.5714285714286,498.27142551967074,3492,822.5714285714286,498.27142551967074,3601,822.5714285714286,498.27142551967074,3711,822.5714285714286,498.27142551967074,3820,822.5714285714286,498.27142551967074,3927,822.5714285714286,498.27142551967074,4036,822.5714285714286,498.27142551967074,4146,822.5714285714286,498.27142551967074,4253,822.5714285714286,498.27142551967074,4363,822.5714285714286,498.27142551967074,4473,822.5714285714286,498.27142551967074,4582,822.5714285714286,498.27142551967074,4690,822.5714285714286,498.27142551967074,4799,822.5714285714286,498.27142551967074,4910]","[240,240,1000,0,-760,""error"",""-"",""-"",""no_move"",3112,2872,1446.8,1252,413.2,""smooth"",""right"",""right"",""good_move"",6175,3062,2620.4,3113,441.6,""smooth"",""right"",""right"",""good_move"",8944,2769,2372.9,6175,396.1,""smooth"",""right"",""right"",""good_move"",11760,2816,2438.9,8944,377.1,""smooth"",""up"",""up"",""good_move"",14720,2960,2512.2,11760,447.8,""smooth"",""up"",""up"",""good_move"",17728,3008,1913.1,14720,1094.9,""smooth"",""up"",""up"",""good_move""]","",""
"3963","","<div style=""width:500px;"">
  <p>What determined the result of this run?</p>
  </div>","100","html-slider-response","41","617592","0.0-10.0-1.0","6","1","2025-07-09 09:04:19","7701e855f2ef39aa3fd6c71abdc6918a","99.233.20.75","Mozilla/5.0 (Windows NT 10.0; Win64; x64; rv:140.0) Gecko/20100101 Firefox/140.0","","Firefox","140.0","Windows","10.0","https://app.prolific.com/","en-US,en;q=0.5","56ebadebcdfa81000d9e2b67","686d226cabeef709c732f8e1","686e3078d21f414e9f937e59","56ebadebcdfa81000d9e2b67","2025-07-09T09:14:36.680Z","","","","","","AttribQ","","","","","","","","","","","","","","","","","","","","","","","","","","","","","","","","","","","","","","50"
"3720","","<div style=""width:500px;"">
  <p>How much control did you have over the ball?</p>
  </div>","100","html-slider-response","42","621311","0.0-10.0-2.0","6","1","2025-07-09 09:04:19","7701e855f2ef39aa3fd6c71abdc6918a","99.233.20.75","Mozilla/5.0 (Windows NT 10.0; Win64; x64; rv:140.0) Gecko/20100101 Firefox/140.0","","Firefox","140.0","Windows","10.0","https://app.prolific.com/","en-US,en;q=0.5","56ebadebcdfa81000d9e2b67","686d226cabeef709c732f8e1","686e3078d21f414e9f937e59","56ebadebcdfa81000d9e2b67","2025-07-09T09:14:40.399Z","","","","","","ControlQ","","","","","","","","","","","","","","","","","","","","","","","","","","","","","","","","","","","","","","50"
"3910","","<div style=""width:500px;"">
  <p>How would you describe your current emotional state?</p>
  </div>","0","html-slider-response","43","625222","0.0-10.0-3.0","6","1","2025-07-09 09:04:19","7701e855f2ef39aa3fd6c71abdc6918a","99.233.20.75","Mozilla/5.0 (Windows NT 10.0; Win64; x64; rv:140.0) Gecko/20100101 Firefox/140.0","","Firefox","140.0","Windows","10.0","https://app.prolific.com/","en-US,en;q=0.5","56ebadebcdfa81000d9e2b67","686d226cabeef709c732f8e1","686e3078d21f414e9f937e59","56ebadebcdfa81000d9e2b67","2025-07-09T09:14:44.311Z","","","","","","StressQ","","","","","","","","","","","","","","","","","","","","","","","","","","","","","","","","","","","","","","50"
"3838","","<div style=""width:500px;"">
  <p>What best describes how you currently feel?</p>
  </div>","100","html-slider-response","44","629063","0.0-10.0-4.0","6","1","2025-07-09 09:04:19","7701e855f2ef39aa3fd6c71abdc6918a","99.233.20.75","Mozilla/5.0 (Windows NT 10.0; Win64; x64; rv:140.0) Gecko/20100101 Firefox/140.0","","Firefox","140.0","Windows","10.0","https://app.prolific.com/","en-US,en;q=0.5","56ebadebcdfa81000d9e2b67","686d226cabeef709c732f8e1","686e3078d21f414e9f937e59","56ebadebcdfa81000d9e2b67","2025-07-09T09:14:48.151Z","","","","","","MotivationQ","","","","","","","","","","","","","","","","","","","","","","","","","","","","","","","","","","","","","","50"
"","","","","ctl-task-cpt","45","678221","0.0-10.0-0.1","6","1","2025-07-09 09:04:19","7701e855f2ef39aa3fd6c71abdc6918a","99.233.20.75","Mozilla/5.0 (Windows NT 10.0; Win64; x64; rv:140.0) Gecko/20100101 Firefox/140.0","","Firefox","140.0","Windows","10.0","https://app.prolific.com/","en-US,en;q=0.5","56ebadebcdfa81000d9e2b67","686d226cabeef709c732f8e1","686e3078d21f414e9f937e59","56ebadebcdfa81000d9e2b67","2025-07-09T09:15:37.309Z","","","","","","","","","","","","","","","","win-only","0","g1:NW,g2:SE","0.9","2","0","631671","1168","6171","46148","1","4","8","6","2","8","7","10","3","0.07575757575757576","1672","3000","1740","[""down"",""right""]","{""num_key_presses"":10,""num_perfect"":8,""num_errors"":1,""num_randdir"":1,""num_randdir_good_moves"":0,""num_whilered"":0,""num_whileblue"":1,""num_blue"":4,""num_good_moves"":8}","[415.57142857142856,417.27142551967074,0,415.57142857142856,417.27142551967074,106,415.57142857142856,417.27142551967074,216,415.57142857142856,417.27142551967074,326,415.57142857142856,417.27142551967074,435,415.57142857142856,417.27142551967074,547,415.57142857142856,417.27142551967074,656,415.57142857142856,417.27142551967074,763,423.57142857142856,436.27142551967074,872,543.5714285714286,587.2714255196707,983,700.5714285714286,805.2714255196707,1094,753.5714285714286,789.2714255196707,1203,755.5714285714286,787.2714255196707,1312,755.5714285714286,787.2714255196707,1420,755.5714285714286,787.2714255196707,1529,755.5714285714286,787.2714255196707,1637,755.5714285714286,787.2714255196707,1745,755.5714285714286,787.2714255196707,1853,755.5714285714286,787.2714255196707,1961,755.5714285714286,787.2714255196707,2069,755.5714285714286,787.2714255196707,2178,755.5714285714286,787.2714255196707,2286,755.5714285714286,787.2714255196707,2395,755.5714285714286,787.2714255196707,2503,755.5714285714286,787.2714255196707,2613,788.5714285714286,788.2714255196707,2721,794.5714285714286,788.2714255196707,2829,794.5714285714286,788.2714255196707,2937,794.5714285714286,788.2714255196707,3047,794.5714285714286,788.2714255196707,3158,794.5714285714286,788.2714255196707,3266,794.5714285714286,788.2714255196707,3374,794.5714285714286,788.2714255196707,3483,794.5714285714286,788.2714255196707,3591,794.5714285714286,788.2714255196707,3700,794.5714285714286,788.2714255196707,3807,794.5714285714286,788.2714255196707,3915,794.5714285714286,788.2714255196707,4024,794.5714285714286,788.2714255196707,4133,794.5714285714286,788.2714255196707,4242,794.5714285714286,788.2714255196707,4349,794.5714285714286,788.2714255196707,4458,794.5714285714286,788.2714255196707,4567,794.5714285714286,788.2714255196707,4674,794.5714285714286,788.2714255196707,4784,794.5714285714286,788.2714255196707,4893]","[1450,1450,1000,0,450,""oops"",""right"",""up"",""bad_move"",4474,3024,2625.8,1450,398.2,""smooth"",""right"",""right"",""good_move"",6802,2328,1945.6,4474,382.4,""smooth"",""right"",""right"",""good_move"",9875,3073,2714.3,6802,358.7,""smooth"",""right"",""right"",""good_move"",13042,3167,2870,9875,297,""while_blue"",""down"",""left"",""bad_move"",20027,6984,2379.6,17082,565.4,""smooth"",""down"",""down"",""good_move"",27082,7054,2887.1,23751,443.9,""smooth"",""down"",""down"",""good_move"",34130,7048,2316.7,31401,412.3,""smooth"",""right"",""right"",""good_move"",37290,3160,2604.1,34130,555.9,""smooth"",""down"",""down"",""good_move"",39698,2408,1921.6,37290,486.4,""smooth"",""down"",""down"",""good_move""]","",""
"9392","","<div style=""width:500px;"">
  <p>What determined the result of this run?</p>
  </div>","94","html-slider-response","46","687614","0.0-10.0-1.1","6","1","2025-07-09 09:04:19","7701e855f2ef39aa3fd6c71abdc6918a","99.233.20.75","Mozilla/5.0 (Windows NT 10.0; Win64; x64; rv:140.0) Gecko/20100101 Firefox/140.0","","Firefox","140.0","Windows","10.0","https://app.prolific.com/","en-US,en;q=0.5","56ebadebcdfa81000d9e2b67","686d226cabeef709c732f8e1","686e3078d21f414e9f937e59","56ebadebcdfa81000d9e2b67","2025-07-09T09:15:46.702Z","","","","","","AttribQ","","","","","","","","","","","","","","","","","","","","","","","","","","","","","","","","","","","","","","50"
"2896","","<div style=""width:500px;"">
  <p>How much control did you have over the ball?</p>
  </div>","92","html-slider-response","47","690510","0.0-10.0-2.1","6","1","2025-07-09 09:04:19","7701e855f2ef39aa3fd6c71abdc6918a","99.233.20.75","Mozilla/5.0 (Windows NT 10.0; Win64; x64; rv:140.0) Gecko/20100101 Firefox/140.0","","Firefox","140.0","Windows","10.0","https://app.prolific.com/","en-US,en;q=0.5","56ebadebcdfa81000d9e2b67","686d226cabeef709c732f8e1","686e3078d21f414e9f937e59","56ebadebcdfa81000d9e2b67","2025-07-09T09:15:49.598Z","","","","","","ControlQ","","","","","","","","","","","","","","","","","","","","","","","","","","","","","","","","","","","","","","50"
"3727","","<div style=""width:500px;"">
  <p>How would you describe your current emotional state?</p>
  </div>","3","html-slider-response","48","694238","0.0-10.0-3.1","6","1","2025-07-09 09:04:19","7701e855f2ef39aa3fd6c71abdc6918a","99.233.20.75","Mozilla/5.0 (Windows NT 10.0; Win64; x64; rv:140.0) Gecko/20100101 Firefox/140.0","","Firefox","140.0","Windows","10.0","https://app.prolific.com/","en-US,en;q=0.5","56ebadebcdfa81000d9e2b67","686d226cabeef709c732f8e1","686e3078d21f414e9f937e59","56ebadebcdfa81000d9e2b67","2025-07-09T09:15:53.327Z","","","","","","StressQ","","","","","","","","","","","","","","","","","","","","","","","","","","","","","","","","","","","","","","50"
"2743","","<div style=""width:500px;"">
  <p>What best describes how you currently feel?</p>
  </div>","100","html-slider-response","49","696983","0.0-10.0-4.1","6","1","2025-07-09 09:04:19","7701e855f2ef39aa3fd6c71abdc6918a","99.233.20.75","Mozilla/5.0 (Windows NT 10.0; Win64; x64; rv:140.0) Gecko/20100101 Firefox/140.0","","Firefox","140.0","Windows","10.0","https://app.prolific.com/","en-US,en;q=0.5","56ebadebcdfa81000d9e2b67","686d226cabeef709c732f8e1","686e3078d21f414e9f937e59","56ebadebcdfa81000d9e2b67","2025-07-09T09:15:56.071Z","","","","","","MotivationQ","","","","","","","","","","","","","","","","","","","","","","","","","","","","","","","","","","","","","","50"
"","","","","ctl-task-cpt","50","726746","0.0-10.0-0.2","6","1","2025-07-09 09:04:19","7701e855f2ef39aa3fd6c71abdc6918a","99.233.20.75","Mozilla/5.0 (Windows NT 10.0; Win64; x64; rv:140.0) Gecko/20100101 Firefox/140.0","","Firefox","140.0","Windows","10.0","https://app.prolific.com/","en-US,en;q=0.5","56ebadebcdfa81000d9e2b67","686d226cabeef709c732f8e1","686e3078d21f414e9f937e59","56ebadebcdfa81000d9e2b67","2025-07-09T09:16:25.834Z","","","","","","","","","","","","","","","","win-only","0","g1:NW,g2:SE","0.8","3","0","699590","984","5991","26760","1","4","4","6","2","4","4","14","10","0.10606060606060606","1168","3000","2085","[""down"",""right""]","{""num_key_presses"":6,""num_perfect"":4,""num_errors"":0,""num_randdir"":2,""num_randdir_good_moves"":2,""num_whilered"":0,""num_whileblue"":0,""num_blue"":1,""num_good_moves"":6}","[416.57142857142856,410.27142551967074,0,416.57142857142856,410.27142551967074,112,416.57142857142856,410.27142551967074,220,416.57142857142856,410.27142551967074,330,416.57142857142856,410.27142551967074,438,416.57142857142856,410.27142551967074,547,416.57142857142856,410.27142551967074,655,475.57142857142856,523.2714255196707,764,806.5714285714286,728.2714255196707,872,807.5714285714286,728.2714255196707,979,790.5714285714286,743.2714255196707,1087,782.5714285714286,749.2714255196707,1197,782.5714285714286,749.2714255196707,1307,782.5714285714286,749.2714255196707,1418,782.5714285714286,749.2714255196707,1526,782.5714285714286,749.2714255196707,1635,782.5714285714286,749.2714255196707,1743,782.5714285714286,749.2714255196707,1853,782.5714285714286,749.2714255196707,1961,782.5714285714286,749.2714255196707,2070,782.5714285714286,749.2714255196707,2177,782.5714285714286,749.2714255196707,2289,782.5714285714286,749.2714255196707,2397,782.5714285714286,749.2714255196707,2507,782.5714285714286,749.2714255196707,2616,782.5714285714286,749.2714255196707,2725,782.5714285714286,749.2714255196707,2833,782.5714285714286,749.2714255196707,2941,782.5714285714286,749.2714255196707,3052,782.5714285714286,749.2714255196707,3161,782.5714285714286,749.2714255196707,3269,782.5714285714286,749.2714255196707,3377,782.5714285714286,749.2714255196707,3486,782.5714285714286,749.2714255196707,3594,782.5714285714286,749.2714255196707,3703,782.5714285714286,749.2714255196707,3812,782.5714285714286,749.2714255196707,3919,782.5714285714286,749.2714255196707,4026,782.5714285714286,749.2714255196707,4135,782.5714285714286,749.2714255196707,4243,782.5714285714286,749.2714255196707,4354,782.5714285714286,749.2714255196707,4465,782.5714285714286,749.2714255196707,4573,782.5714285714286,749.2714255196707,4681,782.5714285714286,749.2714255196707,4791,782.5714285714286,749.2714255196707,4899]","[1398,1398,1000,0,398,""oops"",""down"",""down"",""good_move"",4390,2991,2227.6,1399,763.4,""oops"",""right"",""right"",""good_move"",7231,2840,2294.5,4391,545.5,""smooth"",""right"",""right"",""good_move"",10639,3408,3026,7231,382,""smooth"",""right"",""right"",""good_move"",16895,6256,2269.6,14203,422.4,""smooth"",""down"",""down"",""good_move"",20478,3583,3162.9,16895,420.1,""smooth"",""down"",""down"",""good_move""]","",""
"2643","","<div style=""width:500px;"">
  <p>What determined the result of this run?</p>
  </div>","96","html-slider-response","51","729389","0.0-10.0-1.2","6","1","2025-07-09 09:04:19","7701e855f2ef39aa3fd6c71abdc6918a","99.233.20.75","Mozilla/5.0 (Windows NT 10.0; Win64; x64; rv:140.0) Gecko/20100101 Firefox/140.0","","Firefox","140.0","Windows","10.0","https://app.prolific.com/","en-US,en;q=0.5","56ebadebcdfa81000d9e2b67","686d226cabeef709c732f8e1","686e3078d21f414e9f937e59","56ebadebcdfa81000d9e2b67","2025-07-09T09:16:28.478Z","","","","","","AttribQ","","","","","","","","","","","","","","","","","","","","","","","","","","","","","","","","","","","","","","50"
"2928","","<div style=""width:500px;"">
  <p>How much control did you have over the ball?</p>
  </div>","95","html-slider-response","52","732317","0.0-10.0-2.2","6","1","2025-07-09 09:04:19","7701e855f2ef39aa3fd6c71abdc6918a","99.233.20.75","Mozilla/5.0 (Windows NT 10.0; Win64; x64; rv:140.0) Gecko/20100101 Firefox/140.0","","Firefox","140.0","Windows","10.0","https://app.prolific.com/","en-US,en;q=0.5","56ebadebcdfa81000d9e2b67","686d226cabeef709c732f8e1","686e3078d21f414e9f937e59","56ebadebcdfa81000d9e2b67","2025-07-09T09:16:31.405Z","","","","","","ControlQ","","","","","","","","","","","","","","","","","","","","","","","","","","","","","","","","","","","","","","50"
"4022","","<div style=""width:500px;"">
  <p>How would you describe your current emotional state?</p>
  </div>","3","html-slider-response","53","736341","0.0-10.0-3.2","6","1","2025-07-09 09:04:19","7701e855f2ef39aa3fd6c71abdc6918a","99.233.20.75","Mozilla/5.0 (Windows NT 10.0; Win64; x64; rv:140.0) Gecko/20100101 Firefox/140.0","","Firefox","140.0","Windows","10.0","https://app.prolific.com/","en-US,en;q=0.5","56ebadebcdfa81000d9e2b67","686d226cabeef709c732f8e1","686e3078d21f414e9f937e59","56ebadebcdfa81000d9e2b67","2025-07-09T09:16:35.429Z","","","","","","StressQ","","","","","","","","","","","","","","","","","","","","","","","","","","","","","","","","","","","","","","50"
"2246","","<div style=""width:500px;"">
  <p>What best describes how you currently feel?</p>
  </div>","100","html-slider-response","54","738589","0.0-10.0-4.2","6","1","2025-07-09 09:04:19","7701e855f2ef39aa3fd6c71abdc6918a","99.233.20.75","Mozilla/5.0 (Windows NT 10.0; Win64; x64; rv:140.0) Gecko/20100101 Firefox/140.0","","Firefox","140.0","Windows","10.0","https://app.prolific.com/","en-US,en;q=0.5","56ebadebcdfa81000d9e2b67","686d226cabeef709c732f8e1","686e3078d21f414e9f937e59","56ebadebcdfa81000d9e2b67","2025-07-09T09:16:37.677Z","","","","","","MotivationQ","","","","","","","","","","","","","","","","","","","","","","","","","","","","","","","","","","","","","","50"
"","","","","ctl-task-cpt","55","776279","0.0-10.0-0.3","6","1","2025-07-09 09:04:19","7701e855f2ef39aa3fd6c71abdc6918a","99.233.20.75","Mozilla/5.0 (Windows NT 10.0; Win64; x64; rv:140.0) Gecko/20100101 Firefox/140.0","","Firefox","140.0","Windows","10.0","https://app.prolific.com/","en-US,en;q=0.5","56ebadebcdfa81000d9e2b67","686d226cabeef709c732f8e1","686e3078d21f414e9f937e59","56ebadebcdfa81000d9e2b67","2025-07-09T09:17:15.367Z","","","","","","","","","","","","","","","","win-only","1","g1:NE,g2:SW","0.7","4","0","741198","1808","6814","34686","1","4","8","6","2","8","8","22","14","0.16666666666666666","1480","3000","2130","[""down"",""left""]","{""num_key_presses"":6,""num_perfect"":6,""num_errors"":0,""num_randdir"":0,""num_randdir_good_moves"":0,""num_whilered"":0,""num_whileblue"":0,""num_blue"":3,""num_good_moves"":6}","[417.57142857142856,412.27142551967074,0,417.57142857142856,412.27142551967074,109,417.57142857142856,412.27142551967074,218,417.57142857142856,412.27142551967074,326,417.57142857142856,412.27142551967074,435,417.57142857142856,412.27142551967074,545,428.57142857142856,399.27142551967074,654,475.57142857142856,328.27142551967074,763,387.57142857142856,463.27142551967074,873,167.57142857142856,681.2714255196707,983,22.57142857142857,751.2714255196707,1091,23.57142857142857,753.2714255196707,1199,29.57142857142857,755.2714255196707,1309,42.57142857142857,749.2714255196707,1420,42.57142857142857,748.2714255196707,1528,42.57142857142857,748.2714255196707,1636,42.57142857142857,748.2714255196707,1745,42.57142857142857,748.2714255196707,1854,42.57142857142857,748.2714255196707,1963,60.57142857142857,747.2714255196707,2070,63.57142857142857,748.2714255196707,2179,63.57142857142857,748.2714255196707,2288,65.57142857142857,748.2714255196707,2397,95.57142857142857,731.2714255196707,2506,95.57142857142857,731.2714255196707,2614,95.57142857142857,731.2714255196707,2722,95.57142857142857,731.2714255196707,2831,95.57142857142857,731.2714255196707,2939,95.57142857142857,731.2714255196707,3047,95.57142857142857,731.2714255196707,3156,95.57142857142857,731.2714255196707,3266,95.57142857142857,731.2714255196707,3374,95.57142857142857,731.2714255196707,3483,95.57142857142857,731.2714255196707,3591,95.57142857142857,731.2714255196707,3700,95.57142857142857,731.2714255196707,3807,95.57142857142857,731.2714255196707,3916,95.57142857142857,731.2714255196707,4025,95.57142857142857,731.2714255196707,4135,95.57142857142857,731.2714255196707,4244,95.57142857142857,731.2714255196707,4351,95.57142857142857,731.2714255196707,4460,95.57142857142857,731.2714255196707,4570,95.57142857142857,731.2714255196707,4679,95.57142857142857,731.2714255196707,4788,95.57142857142857,731.2714255196707,4896]","[5024,5024,2542.5,2017,464.5,""smooth"",""left"",""left"",""good_move"",8151,3127,2256.9,5024,870.1,""smooth"",""left"",""left"",""good_move"",11230,3079,1958,8151,1121,""smooth"",""left"",""left"",""good_move"",22478,11247,2160,19806,512,""smooth"",""down"",""down"",""good_move"",25414,2936,2493.6,22478,442.4,""smooth"",""down"",""down"",""good_move"",27576,2161,1753.4,25415,407.6,""smooth"",""down"",""down"",""good_move""]","",""
"3077","","<div style=""width:500px;"">
  <p>What determined the result of this run?</p>
  </div>","95","html-slider-response","56","779357","0.0-10.0-1.3","6","1","2025-07-09 09:04:19","7701e855f2ef39aa3fd6c71abdc6918a","99.233.20.75","Mozilla/5.0 (Windows NT 10.0; Win64; x64; rv:140.0) Gecko/20100101 Firefox/140.0","","Firefox","140.0","Windows","10.0","https://app.prolific.com/","en-US,en;q=0.5","56ebadebcdfa81000d9e2b67","686d226cabeef709c732f8e1","686e3078d21f414e9f937e59","56ebadebcdfa81000d9e2b67","2025-07-09T09:17:18.445Z","","","","","","AttribQ","","","","","","","","","","","","","","","","","","","","","","","","","","","","","","","","","","","","","","50"
"2430","","<div style=""width:500px;"">
  <p>How much control did you have over the ball?</p>
  </div>","97","html-slider-response","57","781789","0.0-10.0-2.3","6","1","2025-07-09 09:04:19","7701e855f2ef39aa3fd6c71abdc6918a","99.233.20.75","Mozilla/5.0 (Windows NT 10.0; Win64; x64; rv:140.0) Gecko/20100101 Firefox/140.0","","Firefox","140.0","Windows","10.0","https://app.prolific.com/","en-US,en;q=0.5","56ebadebcdfa81000d9e2b67","686d226cabeef709c732f8e1","686e3078d21f414e9f937e59","56ebadebcdfa81000d9e2b67","2025-07-09T09:17:20.877Z","","","","","","ControlQ","","","","","","","","","","","","","","","","","","","","","","","","","","","","","","","","","","","","","","50"
"2664","","<div style=""width:500px;"">
  <p>How would you describe your current emotional state?</p>
  </div>","2","html-slider-response","58","784454","0.0-10.0-3.3","6","1","2025-07-09 09:04:19","7701e855f2ef39aa3fd6c71abdc6918a","99.233.20.75","Mozilla/5.0 (Windows NT 10.0; Win64; x64; rv:140.0) Gecko/20100101 Firefox/140.0","","Firefox","140.0","Windows","10.0","https://app.prolific.com/","en-US,en;q=0.5","56ebadebcdfa81000d9e2b67","686d226cabeef709c732f8e1","686e3078d21f414e9f937e59","56ebadebcdfa81000d9e2b67","2025-07-09T09:17:23.542Z","","","","","","StressQ","","","","","","","","","","","","","","","","","","","","","","","","","","","","","","","","","","","","","","50"
"2279","","<div style=""width:500px;"">
  <p>What best describes how you currently feel?</p>
  </div>","100","html-slider-response","59","786734","0.0-10.0-4.3","6","1","2025-07-09 09:04:19","7701e855f2ef39aa3fd6c71abdc6918a","99.233.20.75","Mozilla/5.0 (Windows NT 10.0; Win64; x64; rv:140.0) Gecko/20100101 Firefox/140.0","","Firefox","140.0","Windows","10.0","https://app.prolific.com/","en-US,en;q=0.5","56ebadebcdfa81000d9e2b67","686d226cabeef709c732f8e1","686e3078d21f414e9f937e59","56ebadebcdfa81000d9e2b67","2025-07-09T09:17:25.822Z","","","","","","MotivationQ","","","","","","","","","","","","","","","","","","","","","","","","","","","","","","","","","","","","","","50"
"","","","","ctl-task-cpt","60","834063","0.0-10.0-0.4","6","1","2025-07-09 09:04:19","7701e855f2ef39aa3fd6c71abdc6918a","99.233.20.75","Mozilla/5.0 (Windows NT 10.0; Win64; x64; rv:140.0) Gecko/20100101 Firefox/140.0","","Firefox","140.0","Windows","10.0","https://app.prolific.com/","en-US,en;q=0.5","56ebadebcdfa81000d9e2b67","686d226cabeef709c732f8e1","686e3078d21f414e9f937e59","56ebadebcdfa81000d9e2b67","2025-07-09T09:18:13.151Z","","","","","","","","","","","","","","","","win-only","0","g1:NW,g2:SE","0.6","5","0","789341","1120","6132","44321","1","4","8","6","2","8","8","30","22","0.22727272727272727","1001","3000","1425","[""down"",""right""]","{""num_key_presses"":12,""num_perfect"":7,""num_errors"":0,""num_randdir"":5,""num_randdir_good_moves"":2,""num_whilered"":0,""num_whileblue"":0,""num_blue"":1,""num_good_moves"":9}","[414.57142857142856,418.27142551967074,0,414.57142857142856,418.27142551967074,101,414.57142857142856,418.27142551967074,209,414.57142857142856,418.27142551967074,320,414.57142857142856,418.27142551967074,430,414.57142857142856,418.27142551967074,539,603.5714285714286,688.2714255196707,648,689.5714285714286,754.2714255196707,757,747.5714285714286,745.2714255196707,865,749.5714285714286,750.2714255196707,974,749.5714285714286,750.2714255196707,1086,749.5714285714286,750.2714255196707,1193,749.5714285714286,750.2714255196707,1301,749.5714285714286,750.2714255196707,1411,749.5714285714286,750.2714255196707,1518,749.5714285714286,750.2714255196707,1626,749.5714285714286,750.2714255196707,1735,749.5714285714286,750.2714255196707,1845,809.5714285714286,778.2714255196707,1953,828.5714285714286,785.2714255196707,2061,828.5714285714286,785.2714255196707,2171,828.5714285714286,785.2714255196707,2279,828.5714285714286,785.2714255196707,2388,828.5714285714286,785.2714255196707,2498,828.5714285714286,785.2714255196707,2606,828.5714285714286,785.2714255196707,2714,828.5714285714286,785.2714255196707,2822,828.5714285714286,785.2714255196707,2931,828.5714285714286,785.2714255196707,3039,828.5714285714286,785.2714255196707,3149,828.5714285714286,785.2714255196707,3257,828.5714285714286,785.2714255196707,3364,828.5714285714286,785.2714255196707,3472,828.5714285714286,785.2714255196707,3581,828.5714285714286,785.2714255196707,3689,828.5714285714286,785.2714255196707,3798,828.5714285714286,785.2714255196707,3907,828.5714285714286,785.2714255196707,4016,828.5714285714286,785.2714255196707,4124,828.5714285714286,785.2714255196707,4233,828.5714285714286,785.2714255196707,4342,828.5714285714286,785.2714255196707,4451,828.5714285714286,785.2714255196707,4559,828.5714285714286,785.2714255196707,4669,828.5714285714286,785.2714255196707,4779,828.5714285714286,785.2714255196707,4888,828.5714285714286,785.2714255196707,4997]","[1410,1410,1000,0,410,""smooth"",""right"",""right"",""good_move"",4338,2928,2508.6,1410,419.4,""oops"",""right"",""left"",""bad_move"",7322,2984,1890.5,4338,1093.5,""smooth"",""right"",""right"",""good_move"",10730,3408,2908.2,7322,499.8,""oops"",""down"",""left"",""bad_move"",13753,3023,2088.7,10730,934.3,""oops"",""down"",""right"",""good_move"",20209,6456,2645.5,17141,422.5,""smooth"",""down"",""down"",""good_move"",23201,2992,2489.4,20209,502.6,""smooth"",""down"",""down"",""good_move"",25897,2696,2209,23201,487,""smooth"",""down"",""down"",""good_move"",28417,2520,2064.6,25897,455.4,""smooth"",""right"",""right"",""good_move"",31529,3112,2740.9,28417,371.1,""oops"",""right"",""up"",""bad_move"",34770,3241,2844.2,31529,396.8,""smooth"",""down"",""down"",""good_move"",37913,3143,2798.6,34770,344.4,""oops"",""right"",""right"",""good_move""]","",""
"2852","","<div style=""width:500px;"">
  <p>What determined the result of this run?</p>
  </div>","94","html-slider-response","61","836917","0.0-10.0-1.4","6","1","2025-07-09 09:04:19","7701e855f2ef39aa3fd6c71abdc6918a","99.233.20.75","Mozilla/5.0 (Windows NT 10.0; Win64; x64; rv:140.0) Gecko/20100101 Firefox/140.0","","Firefox","140.0","Windows","10.0","https://app.prolific.com/","en-US,en;q=0.5","56ebadebcdfa81000d9e2b67","686d226cabeef709c732f8e1","686e3078d21f414e9f937e59","56ebadebcdfa81000d9e2b67","2025-07-09T09:18:16.005Z","","","","","","AttribQ","","","","","","","","","","","","","","","","","","","","","","","","","","","","","","","","","","","","","","50"
"2527","","<div style=""width:500px;"">
  <p>How much control did you have over the ball?</p>
  </div>","95","html-slider-response","62","839445","0.0-10.0-2.4","6","1","2025-07-09 09:04:19","7701e855f2ef39aa3fd6c71abdc6918a","99.233.20.75","Mozilla/5.0 (Windows NT 10.0; Win64; x64; rv:140.0) Gecko/20100101 Firefox/140.0","","Firefox","140.0","Windows","10.0","https://app.prolific.com/","en-US,en;q=0.5","56ebadebcdfa81000d9e2b67","686d226cabeef709c732f8e1","686e3078d21f414e9f937e59","56ebadebcdfa81000d9e2b67","2025-07-09T09:18:18.533Z","","","","","","ControlQ","","","","","","","","","","","","","","","","","","","","","","","","","","","","","","","","","","","","","","50"
"2991","","<div style=""width:500px;"">
  <p>How would you describe your current emotional state?</p>
  </div>","4","html-slider-response","63","842437","0.0-10.0-3.4","6","1","2025-07-09 09:04:19","7701e855f2ef39aa3fd6c71abdc6918a","99.233.20.75","Mozilla/5.0 (Windows NT 10.0; Win64; x64; rv:140.0) Gecko/20100101 Firefox/140.0","","Firefox","140.0","Windows","10.0","https://app.prolific.com/","en-US,en;q=0.5","56ebadebcdfa81000d9e2b67","686d226cabeef709c732f8e1","686e3078d21f414e9f937e59","56ebadebcdfa81000d9e2b67","2025-07-09T09:18:21.525Z","","","","","","StressQ","","","","","","","","","","","","","","","","","","","","","","","","","","","","","","","","","","","","","","50"
"2351","","<div style=""width:500px;"">
  <p>What best describes how you currently feel?</p>
  </div>","100","html-slider-response","64","844788","0.0-10.0-4.4","6","1","2025-07-09 09:04:19","7701e855f2ef39aa3fd6c71abdc6918a","99.233.20.75","Mozilla/5.0 (Windows NT 10.0; Win64; x64; rv:140.0) Gecko/20100101 Firefox/140.0","","Firefox","140.0","Windows","10.0","https://app.prolific.com/","en-US,en;q=0.5","56ebadebcdfa81000d9e2b67","686d226cabeef709c732f8e1","686e3078d21f414e9f937e59","56ebadebcdfa81000d9e2b67","2025-07-09T09:18:23.876Z","","","","","","MotivationQ","","","","","","","","","","","","","","","","","","","","","","","","","","","","","","","","","","","","","","50"
"","","","","ctl-task-cpt","65","926022","0.0-10.0-0.5","6","1","2025-07-09 09:04:19","7701e855f2ef39aa3fd6c71abdc6918a","99.233.20.75","Mozilla/5.0 (Windows NT 10.0; Win64; x64; rv:140.0) Gecko/20100101 Firefox/140.0","","Firefox","140.0","Windows","10.0","https://app.prolific.com/","en-US,en;q=0.5","56ebadebcdfa81000d9e2b67","686d226cabeef709c732f8e1","686e3078d21f414e9f937e59","56ebadebcdfa81000d9e2b67","2025-07-09T09:19:45.110Z","","","","","","","","","","","","","","","","win-only","3","g1:SW,g2:NE","0.5","6","0","847396","895","5905","78219","1","4","4","6","2","4","3","33","30","0.25","1256","3000","640","[""up"",""right""]","{""num_key_presses"":19,""num_perfect"":8,""num_errors"":1,""num_randdir"":10,""num_randdir_good_moves"":4,""num_whilered"":0,""num_whileblue"":0,""num_blue"":5,""num_good_moves"":12}","[421.57142857142856,411.27142551967074,1,421.57142857142856,411.27142551967074,112,421.57142857142856,411.27142551967074,224,410.57142857142856,521.2714255196707,334,412.57142857142856,542.2714255196707,442,388.57142857142856,542.2714255196707,548,431.57142857142856,511.27142551967074,657,594.5714285714286,276.27142551967074,766,665.5714285714286,160.27142551967074,875,715.5714285714286,120.27142551967076,985,746.5714285714286,98.27142551967076,1093,760.5714285714286,91.27142551967076,1203,760.5714285714286,91.27142551967076,1312,760.5714285714286,90.27142551967076,1423,759.5714285714286,91.27142551967076,1533,751.5714285714286,263.27142551967074,1642,710.5714285714286,334.27142551967074,1751,734.5714285714286,332.27142551967074,1859,737.5714285714286,333.27142551967074,1967,737.5714285714286,333.27142551967074,2076,737.5714285714286,333.27142551967074,2184,737.5714285714286,333.27142551967074,2293,737.5714285714286,333.27142551967074,2402,737.5714285714286,333.27142551967074,2510,737.5714285714286,333.27142551967074,2620,737.5714285714286,333.27142551967074,2729,737.5714285714286,333.27142551967074,2839,737.5714285714286,333.27142551967074,2947,737.5714285714286,333.27142551967074,3055,737.5714285714286,333.27142551967074,3164,710.5714285714286,336.27142551967074,3273,557.5714285714286,430.27142551967074,3382,537.5714285714286,460.27142551967074,3490,695.5714285714286,471.27142551967074,3599,784.5714285714286,482.27142551967074,3706,773.5714285714286,484.27142551967074,3814,614.5714285714286,474.27142551967074,3922,499.57142857142856,437.27142551967074,4029,366.57142857142856,15.271425519670757,4140,363.57142857142856,-10.728574480329243,4248,363.57142857142856,-17.728574480329243,4357,363.57142857142856,-17.728574480329243,4466,363.57142857142856,-17.728574480329243,4575,377.57142857142856,56.27142551967076,4684,417.57142857142856,195.27142551967074,4794,420.57142857142856,200.27142551967074,4903]","[340,340,1000,0,-660,""error"",""-"",""-"",""no_move"",4477,4137,2734.6,1354,388.4,""smooth"",""right"",""right"",""good_move"",7772,3295,2876.9,4477,418.1,""oops"",""right"",""down"",""bad_move"",10724,2952,2570.4,7772,381.6,""smooth"",""right"",""right"",""good_move"",13340,2616,2189.7,10724,426.3,""smooth"",""up"",""up"",""good_move"",16372,3032,2391.3,13340,640.7,""smooth"",""right"",""right"",""good_move"",19524,3152,2726,16372,426,""oops"",""up"",""up"",""good_move"",22533,3009,2368.4,19524,640.6,""smooth"",""up"",""up"",""good_move"",25532,2999,2615,22533,384,""oops"",""up"",""down"",""bad_move"",31325,5793,2089.5,28856,379.5,""oops"",""up"",""down"",""bad_move"",40636,9311,2798.3,37440,397.7,""oops"",""up"",""left"",""bad_move"",44340,3704,3029.3,40636,674.7,""oops"",""up"",""right"",""good_move"",50580,6240,2502.5,47680,397.5,""oops"",""up"",""left"",""bad_move"",53788,3207,1779.9,50581,1427.1,""oops"",""up"",""down"",""bad_move"",56059,2271,1828.8,53788,442.2,""smooth"",""up"",""up"",""good_move"",59091,3031,2075,56060,956,""oops"",""up"",""up"",""good_move"",62964,3873,3501.2,59091,371.8,""smooth"",""up"",""up"",""good_move"",66468,3504,3115.1,62964,388.9,""oops"",""right"",""right"",""good_move"",72043,5575,1853.1,69855,334.9,""smooth"",""up"",""up"",""good_move""]","",""
"4156","","<div style=""width:500px;"">
  <p>What determined the result of this run?</p>
  </div>","88","html-slider-response","66","930179","0.0-10.0-1.5","6","1","2025-07-09 09:04:19","7701e855f2ef39aa3fd6c71abdc6918a","99.233.20.75","Mozilla/5.0 (Windows NT 10.0; Win64; x64; rv:140.0) Gecko/20100101 Firefox/140.0","","Firefox","140.0","Windows","10.0","https://app.prolific.com/","en-US,en;q=0.5","56ebadebcdfa81000d9e2b67","686d226cabeef709c732f8e1","686e3078d21f414e9f937e59","56ebadebcdfa81000d9e2b67","2025-07-09T09:19:49.267Z","","","","","","AttribQ","","","","","","","","","","","","","","","","","","","","","","","","","","","","","","","","","","","","","","50"
"2735","","<div style=""width:500px;"">
  <p>How much control did you have over the ball?</p>
  </div>","86","html-slider-response","67","932915","0.0-10.0-2.5","6","1","2025-07-09 09:04:19","7701e855f2ef39aa3fd6c71abdc6918a","99.233.20.75","Mozilla/5.0 (Windows NT 10.0; Win64; x64; rv:140.0) Gecko/20100101 Firefox/140.0","","Firefox","140.0","Windows","10.0","https://app.prolific.com/","en-US,en;q=0.5","56ebadebcdfa81000d9e2b67","686d226cabeef709c732f8e1","686e3078d21f414e9f937e59","56ebadebcdfa81000d9e2b67","2025-07-09T09:19:52.003Z","","","","","","ControlQ","","","","","","","","","","","","","","","","","","","","","","","","","","","","","","","","","","","","","","50"
"4640","","<div style=""width:500px;"">
  <p>How would you describe your current emotional state?</p>
  </div>","15","html-slider-response","68","937554","0.0-10.0-3.5","6","1","2025-07-09 09:04:19","7701e855f2ef39aa3fd6c71abdc6918a","99.233.20.75","Mozilla/5.0 (Windows NT 10.0; Win64; x64; rv:140.0) Gecko/20100101 Firefox/140.0","","Firefox","140.0","Windows","10.0","https://app.prolific.com/","en-US,en;q=0.5","56ebadebcdfa81000d9e2b67","686d226cabeef709c732f8e1","686e3078d21f414e9f937e59","56ebadebcdfa81000d9e2b67","2025-07-09T09:19:56.642Z","","","","","","StressQ","","","","","","","","","","","","","","","","","","","","","","","","","","","","","","","","","","","","","","50"
"2031","","<div style=""width:500px;"">
  <p>What best describes how you currently feel?</p>
  </div>","100","html-slider-response","69","939586","0.0-10.0-4.5","6","1","2025-07-09 09:04:19","7701e855f2ef39aa3fd6c71abdc6918a","99.233.20.75","Mozilla/5.0 (Windows NT 10.0; Win64; x64; rv:140.0) Gecko/20100101 Firefox/140.0","","Firefox","140.0","Windows","10.0","https://app.prolific.com/","en-US,en;q=0.5","56ebadebcdfa81000d9e2b67","686d226cabeef709c732f8e1","686e3078d21f414e9f937e59","56ebadebcdfa81000d9e2b67","2025-07-09T09:19:58.674Z","","","","","","MotivationQ","","","","","","","","","","","","","","","","","","","","","","","","","","","","","","","","","","","","","","50"
"","","","","ctl-task-cpt","70","996106","0.0-10.0-0.6","6","1","2025-07-09 09:04:19","7701e855f2ef39aa3fd6c71abdc6918a","99.233.20.75","Mozilla/5.0 (Windows NT 10.0; Win64; x64; rv:140.0) Gecko/20100101 Firefox/140.0","","Firefox","140.0","Windows","10.0","https://app.prolific.com/","en-US,en;q=0.5","56ebadebcdfa81000d9e2b67","686d226cabeef709c732f8e1","686e3078d21f414e9f937e59","56ebadebcdfa81000d9e2b67","2025-07-09T09:20:55.194Z","","","","","","","","","","","","","","","","win-only","1","g1:NE,g2:SW","0.4","7","0","942195","1256","6266","53506","1","4","8","6","2","8","8","41","33","0.3106060606060606","1000","3000","820","[""down"",""left""]","{""num_key_presses"":16,""num_perfect"":6,""num_errors"":0,""num_randdir"":10,""num_randdir_good_moves"":5,""num_whilered"":0,""num_whileblue"":0,""num_blue"":0,""num_good_moves"":11}","[416.57142857142856,414.27142551967074,0,416.57142857142856,414.27142551967074,103,416.57142857142856,414.27142551967074,213,416.57142857142856,414.27142551967074,322,416.57142857142856,414.27142551967074,430,416.57142857142856,414.27142551967074,538,247.57142857142856,604.2714255196707,647,88.57142857142857,727.2714255196707,758,62.57142857142857,746.2714255196707,866,53.57142857142857,755.2714255196707,975,53.57142857142857,755.2714255196707,1085,53.57142857142857,755.2714255196707,1195,53.57142857142857,755.2714255196707,1305,53.57142857142857,755.2714255196707,1414,53.57142857142857,753.2714255196707,1522,54.57142857142857,749.2714255196707,1631,54.57142857142857,749.2714255196707,1742,54.57142857142857,749.2714255196707,1849,54.57142857142857,749.2714255196707,1959,54.57142857142857,749.2714255196707,2066,54.57142857142857,749.2714255196707,2174,41.57142857142857,745.2714255196707,2284,39.57142857142857,745.2714255196707,2392,38.57142857142857,745.2714255196707,2500,38.57142857142857,745.2714255196707,2611,40.57142857142857,743.2714255196707,2718,41.57142857142857,743.2714255196707,2828,41.57142857142857,743.2714255196707,2939,41.57142857142857,743.2714255196707,3047,41.57142857142857,743.2714255196707,3159,41.57142857142857,743.2714255196707,3268,41.57142857142857,743.2714255196707,3376,41.57142857142857,743.2714255196707,3485,41.57142857142857,743.2714255196707,3592,41.57142857142857,743.2714255196707,3700,41.57142857142857,743.2714255196707,3809,41.57142857142857,743.2714255196707,3919,41.57142857142857,743.2714255196707,4027,41.57142857142857,743.2714255196707,4138,41.57142857142857,743.2714255196707,4248,41.57142857142857,743.2714255196707,4359,41.57142857142857,743.2714255196707,4469,41.57142857142857,743.2714255196707,4576,41.57142857142857,743.2714255196707,4685,41.57142857142857,743.2714255196707,4795,41.57142857142857,743.2714255196707,4901]","[1491,1491,1000,0,491,""oops"",""left"",""up"",""bad_move"",4667,3176,2110.8,1491,1065.2,""smooth"",""left"",""left"",""good_move"",8259,3592,2979.9,4667,612.1,""smooth"",""left"",""left"",""good_move"",11307,3048,2497.7,8259,550.3,""smooth"",""down"",""down"",""good_move"",14043,2736,2302.2,11307,433.8,""smooth"",""down"",""down"",""good_move"",17115,3072,2627.4,14043,444.6,""oops"",""down"",""left"",""good_move"",20164,3049,2620.7,17115,428.3,""oops"",""down"",""up"",""bad_move"",23226,3061,2603.1,20165,457.9,""oops"",""down"",""right"",""bad_move"",26243,3017,2626.6,23226,390.4,""oops"",""down"",""left"",""good_move"",29219,2976,2614,26243,362,""oops"",""down"",""down"",""good_move"",32322,3103,2726.3,29219,376.7,""oops"",""down"",""right"",""bad_move"",35043,2721,2246,32322,475,""smooth"",""down"",""down"",""good_move"",37659,2616,2149.8,35043,466.2,""oops"",""left"",""up"",""bad_move"",40683,3024,2160,37659,864,""smooth"",""left"",""left"",""good_move"",43690,3007,2266.3,40683,740.7,""oops"",""down"",""down"",""good_move"",46954,3264,2897.1,43690,366.9,""oops"",""down"",""down"",""good_move""]","",""
"3151","","<div style=""width:500px;"">
  <p>What determined the result of this run?</p>
  </div>","89","html-slider-response","71","999258","0.0-10.0-1.6","6","1","2025-07-09 09:04:19","7701e855f2ef39aa3fd6c71abdc6918a","99.233.20.75","Mozilla/5.0 (Windows NT 10.0; Win64; x64; rv:140.0) Gecko/20100101 Firefox/140.0","","Firefox","140.0","Windows","10.0","https://app.prolific.com/","en-US,en;q=0.5","56ebadebcdfa81000d9e2b67","686d226cabeef709c732f8e1","686e3078d21f414e9f937e59","56ebadebcdfa81000d9e2b67","2025-07-09T09:20:58.346Z","","","","","","AttribQ","","","","","","","","","","","","","","","","","","","","","","","","","","","","","","","","","","","","","","50"
"5727","","<div style=""width:500px;"">
  <p>How much control did you have over the ball?</p>
  </div>","80","html-slider-response","72","1004986","0.0-10.0-2.6","6","1","2025-07-09 09:04:19","7701e855f2ef39aa3fd6c71abdc6918a","99.233.20.75","Mozilla/5.0 (Windows NT 10.0; Win64; x64; rv:140.0) Gecko/20100101 Firefox/140.0","","Firefox","140.0","Windows","10.0","https://app.prolific.com/","en-US,en;q=0.5","56ebadebcdfa81000d9e2b67","686d226cabeef709c732f8e1","686e3078d21f414e9f937e59","56ebadebcdfa81000d9e2b67","2025-07-09T09:21:04.074Z","","","","","","ControlQ","","","","","","","","","","","","","","","","","","","","","","","","","","","","","","","","","","","","","","50"
"5040","","<div style=""width:500px;"">
  <p>How would you describe your current emotional state?</p>
  </div>","18","html-slider-response","73","1010026","0.0-10.0-3.6","6","1","2025-07-09 09:04:19","7701e855f2ef39aa3fd6c71abdc6918a","99.233.20.75","Mozilla/5.0 (Windows NT 10.0; Win64; x64; rv:140.0) Gecko/20100101 Firefox/140.0","","Firefox","140.0","Windows","10.0","https://app.prolific.com/","en-US,en;q=0.5","56ebadebcdfa81000d9e2b67","686d226cabeef709c732f8e1","686e3078d21f414e9f937e59","56ebadebcdfa81000d9e2b67","2025-07-09T09:21:09.114Z","","","","","","StressQ","","","","","","","","","","","","","","","","","","","","","","","","","","","","","","","","","","","","","","50"
"1799","","<div style=""width:500px;"">
  <p>What best describes how you currently feel?</p>
  </div>","100","html-slider-response","74","1011826","0.0-10.0-4.6","6","1","2025-07-09 09:04:19","7701e855f2ef39aa3fd6c71abdc6918a","99.233.20.75","Mozilla/5.0 (Windows NT 10.0; Win64; x64; rv:140.0) Gecko/20100101 Firefox/140.0","","Firefox","140.0","Windows","10.0","https://app.prolific.com/","en-US,en;q=0.5","56ebadebcdfa81000d9e2b67","686d226cabeef709c732f8e1","686e3078d21f414e9f937e59","56ebadebcdfa81000d9e2b67","2025-07-09T09:21:10.914Z","","","","","","MotivationQ","","","","","","","","","","","","","","","","","","","","","","","","","","","","","","","","","","","","","","50"
"","","","","ctl-task-cpt","75","1058519","0.0-10.0-0.7","6","1","2025-07-09 09:04:19","7701e855f2ef39aa3fd6c71abdc6918a","99.233.20.75","Mozilla/5.0 (Windows NT 10.0; Win64; x64; rv:140.0) Gecko/20100101 Firefox/140.0","","Firefox","140.0","Windows","10.0","https://app.prolific.com/","en-US,en;q=0.5","56ebadebcdfa81000d9e2b67","686d226cabeef709c732f8e1","686e3078d21f414e9f937e59","56ebadebcdfa81000d9e2b67","2025-07-09T09:21:57.607Z","","","","","","","","","","","","","","","","win-only","0","g1:NW,g2:SE","0.3","8","0","1014433","1273","6280","43678","1","4","4","6","2","4","4","45","41","0.3409090909090909","1231","3000","1425","[""down"",""right""]","{""num_key_presses"":12,""num_perfect"":4,""num_errors"":0,""num_randdir"":8,""num_randdir_good_moves"":5,""num_whilered"":0,""num_whileblue"":0,""num_blue"":1,""num_good_moves"":9}","[419.57142857142856,415.27142551967074,0,419.57142857142856,415.27142551967074,112,419.57142857142856,415.27142551967074,220,419.57142857142856,415.27142551967074,328,419.57142857142856,415.27142551967074,438,411.57142857142856,412.27142551967074,547,400.57142857142856,397.27142551967074,656,431.57142857142856,464.27142551967074,766,682.5714285714286,723.2714255196707,876,708.5714285714286,761.2714255196707,986,767.5714285714286,786.2714255196707,1097,767.5714285714286,786.2714255196707,1207,767.5714285714286,786.2714255196707,1317,767.5714285714286,786.2714255196707,1428,767.5714285714286,786.2714255196707,1536,767.5714285714286,786.2714255196707,1643,767.5714285714286,786.2714255196707,1752,767.5714285714286,786.2714255196707,1860,767.5714285714286,786.2714255196707,1968,767.5714285714286,786.2714255196707,2076,767.5714285714286,786.2714255196707,2186,767.5714285714286,786.2714255196707,2295,767.5714285714286,786.2714255196707,2404,767.5714285714286,786.2714255196707,2513,767.5714285714286,786.2714255196707,2623,767.5714285714286,786.2714255196707,2732,767.5714285714286,786.2714255196707,2840,767.5714285714286,786.2714255196707,2950,767.5714285714286,786.2714255196707,3058,767.5714285714286,786.2714255196707,3167,767.5714285714286,786.2714255196707,3275,767.5714285714286,786.2714255196707,3386,767.5714285714286,786.2714255196707,3495,767.5714285714286,786.2714255196707,3604,767.5714285714286,786.2714255196707,3712,767.5714285714286,786.2714255196707,3821,767.5714285714286,786.2714255196707,3930,767.5714285714286,786.2714255196707,4040,767.5714285714286,786.2714255196707,4149,767.5714285714286,786.2714255196707,4258,767.5714285714286,786.2714255196707,4366,767.5714285714286,786.2714255196707,4475,767.5714285714286,786.2714255196707,4585,767.5714285714286,786.2714255196707,4693,767.5714285714286,786.2714255196707,4802,767.5714285714286,786.2714255196707,4913]","[1494,1494,1000,0,494,""smooth"",""down"",""down"",""good_move"",4006,2511,2137.4,1495,373.6,""oops"",""right"",""right"",""good_move"",7054,3048,2618.8,4006,429.2,""smooth"",""right"",""right"",""good_move"",10119,3065,2678.4,7054,386.6,""smooth"",""down"",""down"",""good_move"",16366,6247,2647.8,13301,417.2,""oops"",""right"",""up"",""bad_move"",19598,3232,2188.2,16366,1043.8,""oops"",""right"",""up"",""bad_move"",22686,3088,564.4,19598,2523.6,""oops"",""right"",""down"",""good_move"",25382,2696,2271.4,22686,424.6,""oops"",""down"",""right"",""good_move"",28270,2888,2535.2,25382,352.8,""oops"",""down"",""left"",""bad_move"",31327,3056,2505.8,28271,550.2,""oops"",""down"",""down"",""good_move"",34509,3182,2826.2,31327,355.8,""oops"",""down"",""down"",""good_move"",37110,2600,2258.6,34510,341.4,""smooth"",""right"",""right"",""good_move""]","",""
"3296","","<div style=""width:500px;"">
  <p>What determined the result of this run?</p>
  </div>","94","html-slider-response","76","1061818","0.0-10.0-1.7","6","1","2025-07-09 09:04:19","7701e855f2ef39aa3fd6c71abdc6918a","99.233.20.75","Mozilla/5.0 (Windows NT 10.0; Win64; x64; rv:140.0) Gecko/20100101 Firefox/140.0","","Firefox","140.0","Windows","10.0","https://app.prolific.com/","en-US,en;q=0.5","56ebadebcdfa81000d9e2b67","686d226cabeef709c732f8e1","686e3078d21f414e9f937e59","56ebadebcdfa81000d9e2b67","2025-07-09T09:22:00.906Z","","","","","","AttribQ","","","","","","","","","","","","","","","","","","","","","","","","","","","","","","","","","","","","","","50"
"2646","","<div style=""width:500px;"">
  <p>How much control did you have over the ball?</p>
  </div>","88","html-slider-response","77","1064466","0.0-10.0-2.7","6","1","2025-07-09 09:04:19","7701e855f2ef39aa3fd6c71abdc6918a","99.233.20.75","Mozilla/5.0 (Windows NT 10.0; Win64; x64; rv:140.0) Gecko/20100101 Firefox/140.0","","Firefox","140.0","Windows","10.0","https://app.prolific.com/","en-US,en;q=0.5","56ebadebcdfa81000d9e2b67","686d226cabeef709c732f8e1","686e3078d21f414e9f937e59","56ebadebcdfa81000d9e2b67","2025-07-09T09:22:03.554Z","","","","","","ControlQ","","","","","","","","","","","","","","","","","","","","","","","","","","","","","","","","","","","","","","50"
"2591","","<div style=""width:500px;"">
  <p>How would you describe your current emotional state?</p>
  </div>","9","html-slider-response","78","1067057","0.0-10.0-3.7","6","1","2025-07-09 09:04:19","7701e855f2ef39aa3fd6c71abdc6918a","99.233.20.75","Mozilla/5.0 (Windows NT 10.0; Win64; x64; rv:140.0) Gecko/20100101 Firefox/140.0","","Firefox","140.0","Windows","10.0","https://app.prolific.com/","en-US,en;q=0.5","56ebadebcdfa81000d9e2b67","686d226cabeef709c732f8e1","686e3078d21f414e9f937e59","56ebadebcdfa81000d9e2b67","2025-07-09T09:22:06.145Z","","","","","","StressQ","","","","","","","","","","","","","","","","","","","","","","","","","","","","","","","","","","","","","","50"
"1542","","<div style=""width:500px;"">
  <p>What best describes how you currently feel?</p>
  </div>","100","html-slider-response","79","1068602","0.0-10.0-4.7","6","1","2025-07-09 09:04:19","7701e855f2ef39aa3fd6c71abdc6918a","99.233.20.75","Mozilla/5.0 (Windows NT 10.0; Win64; x64; rv:140.0) Gecko/20100101 Firefox/140.0","","Firefox","140.0","Windows","10.0","https://app.prolific.com/","en-US,en;q=0.5","56ebadebcdfa81000d9e2b67","686d226cabeef709c732f8e1","686e3078d21f414e9f937e59","56ebadebcdfa81000d9e2b67","2025-07-09T09:22:07.690Z","","","","","","MotivationQ","","","","","","","","","","","","","","","","","","","","","","","","","","","","","","","","","","","","","","50"
"","","","","ctl-task-cpt","80","1130271","0.0-10.0-0.8","6","1","2025-07-09 09:04:19","7701e855f2ef39aa3fd6c71abdc6918a","99.233.20.75","Mozilla/5.0 (Windows NT 10.0; Win64; x64; rv:140.0) Gecko/20100101 Firefox/140.0","","Firefox","140.0","Windows","10.0","https://app.prolific.com/","en-US,en;q=0.5","56ebadebcdfa81000d9e2b67","686d226cabeef709c732f8e1","686e3078d21f414e9f937e59","56ebadebcdfa81000d9e2b67","2025-07-09T09:23:09.359Z","","","","","","","","","","","","","","","","win-only","0","g1:NW,g2:SE","0.2","9","0","1071210","1239","6248","58656","1","4","8","6","2","8","8","53","45","0.4015151515151515","1050","3000","1155","[""down"",""right""]","{""num_key_presses"":14,""num_perfect"":4,""num_errors"":0,""num_randdir"":10,""num_randdir_good_moves"":6,""num_whilered"":0,""num_whileblue"":0,""num_blue"":4,""num_good_moves"":10}","[419.57142857142856,415.27142551967074,0,419.57142857142856,415.27142551967074,102,419.57142857142856,415.27142551967074,209,415.57142857142856,416.27142551967074,318,438.57142857142856,511.27142551967074,426,438.57142857142856,511.27142551967074,533,422.57142857142856,521.2714255196707,642,684.5714285714286,696.2714255196707,753,789.5714285714286,789.2714255196707,861,789.5714285714286,794.2714255196707,971,789.5714285714286,794.2714255196707,1080,789.5714285714286,793.2714255196707,1187,788.5714285714286,793.2714255196707,1295,787.5714285714286,793.2714255196707,1403,787.5714285714286,793.2714255196707,1514,787.5714285714286,793.2714255196707,1622,787.5714285714286,793.2714255196707,1731,787.5714285714286,793.2714255196707,1840,787.5714285714286,793.2714255196707,1948,787.5714285714286,793.2714255196707,2055,787.5714285714286,793.2714255196707,2164,787.5714285714286,793.2714255196707,2273,787.5714285714286,793.2714255196707,2381,787.5714285714286,793.2714255196707,2488,787.5714285714286,793.2714255196707,2597,787.5714285714286,793.2714255196707,2706,787.5714285714286,793.2714255196707,2813,787.5714285714286,793.2714255196707,2923,787.5714285714286,793.2714255196707,3030,787.5714285714286,793.2714255196707,3138,787.5714285714286,793.2714255196707,3247,787.5714285714286,793.2714255196707,3356,787.5714285714286,793.2714255196707,3466,787.5714285714286,793.2714255196707,3575,787.5714285714286,793.2714255196707,3683,787.5714285714286,793.2714255196707,3792,787.5714285714286,793.2714255196707,3903,787.5714285714286,793.2714255196707,4013,787.5714285714286,793.2714255196707,4122,787.5714285714286,793.2714255196707,4230,787.5714285714286,793.2714255196707,4338,787.5714285714286,793.2714255196707,4448,787.5714285714286,793.2714255196707,4558,787.5714285714286,793.2714255196707,4665,787.5714285714286,793.2714255196707,4776,787.5714285714286,793.2714255196707,4884,787.5714285714286,793.2714255196707,4993]","[1396,1396,1000,0,396,""oops"",""down"",""right"",""good_move"",3868,2471,2085.6,1397,385.4,""oops"",""down"",""right"",""good_move"",6516,2648,2227,3868,421,""oops"",""down"",""up"",""bad_move"",9644,3128,2712.3,6516,415.7,""oops"",""down"",""up"",""bad_move"",12654,3010,2301.9,9644,708.1,""oops"",""down"",""down"",""good_move"",15363,2709,2304.2,12654,404.8,""oops"",""down"",""up"",""bad_move"",18348,2985,2588.7,15363,396.3,""oops"",""down"",""left"",""bad_move"",28164,9815,2878.1,24892,393.9,""oops"",""right"",""right"",""good_move"",30932,2768,2305.1,28164,462.9,""smooth"",""right"",""right"",""good_move"",37804,6872,2239.5,35190,374.5,""smooth"",""down"",""down"",""good_move"",40620,2815,2189.4,37805,625.6,""oops"",""down"",""down"",""good_move"",47164,6544,2501.1,44225,437.9,""oops"",""down"",""down"",""good_move"",49388,2224,1681.1,47164,542.9,""smooth"",""down"",""down"",""good_move"",52124,2736,2376.9,49388,359.1,""smooth"",""down"",""down"",""good_move""]","",""
"3261","","<div style=""width:500px;"">
  <p>What determined the result of this run?</p>
  </div>","93","html-slider-response","81","1133536","0.0-10.0-1.8","6","1","2025-07-09 09:04:19","7701e855f2ef39aa3fd6c71abdc6918a","99.233.20.75","Mozilla/5.0 (Windows NT 10.0; Win64; x64; rv:140.0) Gecko/20100101 Firefox/140.0","","Firefox","140.0","Windows","10.0","https://app.prolific.com/","en-US,en;q=0.5","56ebadebcdfa81000d9e2b67","686d226cabeef709c732f8e1","686e3078d21f414e9f937e59","56ebadebcdfa81000d9e2b67","2025-07-09T09:23:12.624Z","","","","","","AttribQ","","","","","","","","","","","","","","","","","","","","","","","","","","","","","","","","","","","","","","50"
"4992","","<div style=""width:500px;"">
  <p>How much control did you have over the ball?</p>
  </div>","88","html-slider-response","82","1138528","0.0-10.0-2.8","6","1","2025-07-09 09:04:19","7701e855f2ef39aa3fd6c71abdc6918a","99.233.20.75","Mozilla/5.0 (Windows NT 10.0; Win64; x64; rv:140.0) Gecko/20100101 Firefox/140.0","","Firefox","140.0","Windows","10.0","https://app.prolific.com/","en-US,en;q=0.5","56ebadebcdfa81000d9e2b67","686d226cabeef709c732f8e1","686e3078d21f414e9f937e59","56ebadebcdfa81000d9e2b67","2025-07-09T09:23:17.616Z","","","","","","ControlQ","","","","","","","","","","","","","","","","","","","","","","","","","","","","","","","","","","","","","","50"
"2991","","<div style=""width:500px;"">
  <p>How would you describe your current emotional state?</p>
  </div>","9","html-slider-response","83","1141521","0.0-10.0-3.8","6","1","2025-07-09 09:04:19","7701e855f2ef39aa3fd6c71abdc6918a","99.233.20.75","Mozilla/5.0 (Windows NT 10.0; Win64; x64; rv:140.0) Gecko/20100101 Firefox/140.0","","Firefox","140.0","Windows","10.0","https://app.prolific.com/","en-US,en;q=0.5","56ebadebcdfa81000d9e2b67","686d226cabeef709c732f8e1","686e3078d21f414e9f937e59","56ebadebcdfa81000d9e2b67","2025-07-09T09:23:20.609Z","","","","","","StressQ","","","","","","","","","","","","","","","","","","","","","","","","","","","","","","","","","","","","","","50"
"1604","","<div style=""width:500px;"">
  <p>What best describes how you currently feel?</p>
  </div>","100","html-slider-response","84","1143128","0.0-10.0-4.8","6","1","2025-07-09 09:04:19","7701e855f2ef39aa3fd6c71abdc6918a","99.233.20.75","Mozilla/5.0 (Windows NT 10.0; Win64; x64; rv:140.0) Gecko/20100101 Firefox/140.0","","Firefox","140.0","Windows","10.0","https://app.prolific.com/","en-US,en;q=0.5","56ebadebcdfa81000d9e2b67","686d226cabeef709c732f8e1","686e3078d21f414e9f937e59","56ebadebcdfa81000d9e2b67","2025-07-09T09:23:22.217Z","","","","","","MotivationQ","","","","","","","","","","","","","","","","","","","","","","","","","","","","","","","","","","","","","","50"
"","","","","ctl-task-cpt","85","1253864","0.0-10.0-0.9","6","1","2025-07-09 09:04:19","7701e855f2ef39aa3fd6c71abdc6918a","99.233.20.75","Mozilla/5.0 (Windows NT 10.0; Win64; x64; rv:140.0) Gecko/20100101 Firefox/140.0","","Firefox","140.0","Windows","10.0","https://app.prolific.com/","en-US,en;q=0.5","56ebadebcdfa81000d9e2b67","686d226cabeef709c732f8e1","686e3078d21f414e9f937e59","56ebadebcdfa81000d9e2b67","2025-07-09T09:25:12.952Z","","","","","","","","","","","","","","","","win-only","1","g1:NE,g2:SW","0.4","10","0","1145737","2415","7423","107724","1","4","4","6","2","-4","-4","49","53","0.3712121212121212","1360","3000","-965","[""down"",""left""]","{""num_key_presses"":23,""num_perfect"":9,""num_errors"":0,""num_randdir"":14,""num_randdir_good_moves"":5,""num_whilered"":0,""num_whileblue"":0,""num_blue"":9,""num_good_moves"":14}","[423.57142857142856,413.27142551967074,0,423.57142857142856,413.27142551967074,104,423.57142857142856,413.27142551967074,211,423.57142857142856,413.27142551967074,320,423.57142857142856,413.27142551967074,429,431.57142857142856,400.27142551967074,536,454.57142857142856,367.27142551967074,646,275.57142857142856,642.2714255196707,754,29.57142857142857,872.2714255196707,865,24.57142857142857,868.2714255196707,974,34.57142857142857,806.2714255196707,1084,45.57142857142857,788.2714255196707,1191,48.57142857142857,784.2714255196707,1300,48.57142857142857,784.2714255196707,1409,48.57142857142857,784.2714255196707,1519,48.57142857142857,784.2714255196707,1627,48.57142857142857,784.2714255196707,1737,48.57142857142857,784.2714255196707,1846,48.57142857142857,784.2714255196707,1954,49.57142857142857,778.2714255196707,2062,49.57142857142857,778.2714255196707,2171,118.57142857142857,787.2714255196707,2281,153.57142857142856,786.2714255196707,2390,192.57142857142856,832.2714255196707,2499,258.57142857142856,849.2714255196707,2607,261.57142857142856,845.2714255196707,2718,260.57142857142856,845.2714255196707,2827,260.57142857142856,845.2714255196707,2936,260.57142857142856,844.2714255196707,3043,260.57142857142856,843.2714255196707,3154,260.57142857142856,843.2714255196707,3263,260.57142857142856,843.2714255196707,3373,260.57142857142856,843.2714255196707,3484,260.57142857142856,843.2714255196707,3592,260.57142857142856,843.2714255196707,3700,260.57142857142856,843.2714255196707,3809,260.57142857142856,843.2714255196707,3919,260.57142857142856,843.2714255196707,4028,260.57142857142856,843.2714255196707,4138,260.57142857142856,843.2714255196707,4245,260.57142857142856,843.2714255196707,4354,260.57142857142856,843.2714255196707,4463,260.57142857142856,843.2714255196707,4572,260.57142857142856,843.2714255196707,4679,260.57142857142856,843.2714255196707,4789,260.57142857142856,843.2714255196707,4898]","[5758,5758,3334.6,2013,410.4,""oops"",""down"",""right"",""bad_move"",11925,6167,2530.4,8870,524.6,""oops"",""left"",""up"",""bad_move"",15198,3273,2617.2,11925,655.8,""smooth"",""left"",""left"",""good_move"",18325,3127,1748.6,15198,1378.4,""oops"",""down"",""left"",""good_move"",21381,3056,2030.9,18325,1025.1,""smooth"",""down"",""down"",""good_move"",23845,2464,2006.1,21381,457.9,""smooth"",""down"",""down"",""good_move"",26749,2904,2498.6,23845,405.4,""smooth"",""left"",""left"",""good_move"",29774,3025,2034.6,26749,990.4,""oops"",""left"",""left"",""good_move"",43540,13766,2523.4,40635,381.6,""oops"",""down"",""up"",""bad_move"",50405,6864,2845.9,47180,379.1,""oops"",""down"",""up"",""bad_move"",56861,6456,1793.1,54677,390.9,""oops"",""down"",""down"",""good_move"",59966,3105,2688.3,56861,416.7,""oops"",""down"",""up"",""bad_move"",63028,3062,1974.8,59966,1087.2,""oops"",""down"",""down"",""good_move"",65629,2601,2225,63028,376,""oops"",""down"",""up"",""bad_move"",68612,2983,2244.9,65629,738.1,""smooth"",""down"",""down"",""good_move"",78412,9800,2386.1,75665,360.9,""oops"",""down"",""up"",""bad_move"",81453,3040,1946.3,78413,1093.7,""smooth"",""down"",""down"",""good_move"",84389,2936,2575.3,81453,360.7,""smooth"",""down"",""down"",""good_move"",86708,2319,1886.7,84389,432.3,""oops"",""down"",""up"",""bad_move"",89732,3023,2563.2,86709,459.8,""smooth"",""down"",""down"",""good_move"",92148,2416,2025.9,89732,390.1,""oops"",""down"",""up"",""bad_move"",95253,3105,2753.1,92148,351.9,""oops"",""down"",""down"",""good_move"",97772,2519,2158.8,95253,360.2,""smooth"",""down"",""down"",""good_move""]","",""
"6037","","<div style=""width:500px;"">
  <p>What determined the result of this run?</p>
  </div>","62","html-slider-response","86","1259903","0.0-10.0-1.9","6","1","2025-07-09 09:04:19","7701e855f2ef39aa3fd6c71abdc6918a","99.233.20.75","Mozilla/5.0 (Windows NT 10.0; Win64; x64; rv:140.0) Gecko/20100101 Firefox/140.0","","Firefox","140.0","Windows","10.0","https://app.prolific.com/","en-US,en;q=0.5","56ebadebcdfa81000d9e2b67","686d226cabeef709c732f8e1","686e3078d21f414e9f937e59","56ebadebcdfa81000d9e2b67","2025-07-09T09:25:18.991Z","","","","","","AttribQ","","","","","","","","","","","","","","","","","","","","","","","","","","","","","","","","","","","","","","50"
"8095","","<div style=""width:500px;"">
  <p>How much control did you have over the ball?</p>
  </div>","47","html-slider-response","87","1268000","0.0-10.0-2.9","6","1","2025-07-09 09:04:19","7701e855f2ef39aa3fd6c71abdc6918a","99.233.20.75","Mozilla/5.0 (Windows NT 10.0; Win64; x64; rv:140.0) Gecko/20100101 Firefox/140.0","","Firefox","140.0","Windows","10.0","https://app.prolific.com/","en-US,en;q=0.5","56ebadebcdfa81000d9e2b67","686d226cabeef709c732f8e1","686e3078d21f414e9f937e59","56ebadebcdfa81000d9e2b67","2025-07-09T09:25:27.088Z","","","","","","ControlQ","","","","","","","","","","","","","","","","","","","","","","","","","","","","","","","","","","","","","","50"
"4070","","<div style=""width:500px;"">
  <p>How would you describe your current emotional state?</p>
  </div>","66","html-slider-response","88","1272070","0.0-10.0-3.9","6","1","2025-07-09 09:04:19","7701e855f2ef39aa3fd6c71abdc6918a","99.233.20.75","Mozilla/5.0 (Windows NT 10.0; Win64; x64; rv:140.0) Gecko/20100101 Firefox/140.0","","Firefox","140.0","Windows","10.0","https://app.prolific.com/","en-US,en;q=0.5","56ebadebcdfa81000d9e2b67","686d226cabeef709c732f8e1","686e3078d21f414e9f937e59","56ebadebcdfa81000d9e2b67","2025-07-09T09:25:31.159Z","","","","","","StressQ","","","","","","","","","","","","","","","","","","","","","","","","","","","","","","","","","","","","","","50"
"2024","","<div style=""width:500px;"">
  <p>What best describes how you currently feel?</p>
  </div>","100","html-slider-response","89","1274095","0.0-10.0-4.9","6","1","2025-07-09 09:04:19","7701e855f2ef39aa3fd6c71abdc6918a","99.233.20.75","Mozilla/5.0 (Windows NT 10.0; Win64; x64; rv:140.0) Gecko/20100101 Firefox/140.0","","Firefox","140.0","Windows","10.0","https://app.prolific.com/","en-US,en;q=0.5","56ebadebcdfa81000d9e2b67","686d226cabeef709c732f8e1","686e3078d21f414e9f937e59","56ebadebcdfa81000d9e2b67","2025-07-09T09:25:33.183Z","","","","","","MotivationQ","","","","","","","","","","","","","","","","","","","","","","","","","","","","","","","","","","","","","","50"
