"rt","response_timestamp","stimulus","response","trial_type","trial_index","time_elapsed","internal_node_id","run_id","condition","recorded_at","source_code_version","ip","user_agent","device","browser","browser_version","platform","platform_version","referer","accept_language","PROLIFIC_PID","STUDY_ID","SESSION_ID","prolific_id","realtime","view_history","question_order","consent","success","question_id","eventType","responses","item_order","radio_event_ids","radio_event_times","key_event_times","mouse_event_times","straightlining","zigzagging","honeypot","which_type","canvas_config","goals_layout","control_level","trial_number","tutorial_trial_number","trial_start_time","phase1_start_time","phase2_start_time","phase3_start_time","goal_1_value","goal_1_distance","goal_2_value","goal_2_distance","goal_selected","outcome","outcome_total","participant_final_score","participant_initial_score","participant_final_score_prop","goal_choice_rt","allocated_time","allocated_time_remaining","goal_direction","counts","mouse_movements","key_presses","correct","slider_start","sub_question"
"10271","1752052048613","<p style='font-size:40px;line-height:1.25'><strong>Welcome to the experiment!</strong></p><p style='font-size:1.1em;line-height:1.25'>Thank you for your interest in our experiment! Before you begin, it is important that we obtain your informed consent to participate in the study.</p><p style='font-size:1.1em;line-height:1.25'>On the next screen will be an <strong>information sheet</strong> for you to read. To participate in the study we need you to read this information sheet and the following consent form carefully. If you agree with all the statements, please click the <strong>I agree</strong> button.</p><p style='font-size:1.1em;line-height:1.25'>Press <strong>Next</strong> to read the information sheet.</p>","0","custom-html-button-response","0","10273","0.0-0.0","54","1","2025-07-09 09:07:16","7701e855f2ef39aa3fd6c71abdc6918a","178.143.32.198","Mozilla/5.0 (Windows NT 10.0; Win64; x64) AppleWebKit/537.36 (KHTML, like Gecko) Chrome/138.0.0.0 Safari/537.36","WebKit","Chrome","138.0.0.0","Windows","10.0","https://app.prolific.com/","sk-HU,sk;q=0.9,hu-HU;q=0.8,hu;q=0.7,en-HU;q=0.6,en;q=0.5,sk-SK;q=0.4,cs;q=0.3,en-US;q=0.2,de;q=0.1","683dda03c88521ebe8cba79e","686d226cabeef709c732f8e1","686e3140c8da06e1c25eb638","683dda03c88521ebe8cba79e","2025-07-09T09:07:28.613Z","","","","","","","","","","","","","","","","","","","","","","","","","","","","","","","","","","","","","","","","","","","","",""
"146720","","","","instructions","1","156994","0.0-1.0","54","1","2025-07-09 09:07:16","7701e855f2ef39aa3fd6c71abdc6918a","178.143.32.198","Mozilla/5.0 (Windows NT 10.0; Win64; x64) AppleWebKit/537.36 (KHTML, like Gecko) Chrome/138.0.0.0 Safari/537.36","WebKit","Chrome","138.0.0.0","Windows","10.0","https://app.prolific.com/","sk-HU,sk;q=0.9,hu-HU;q=0.8,hu;q=0.7,en-HU;q=0.6,en;q=0.5,sk-SK;q=0.4,cs;q=0.3,en-US;q=0.2,de;q=0.1","683dda03c88521ebe8cba79e","686d226cabeef709c732f8e1","686e3140c8da06e1c25eb638","683dda03c88521ebe8cba79e","","[{""page_index"":0,""viewing_time"":114383},{""page_index"":1,""viewing_time"":32336}]","","","","","","","","","","","","","","","","","","","","","","","","","","","","","","","","","","","","","","","","","","","",""
"30030","","","{""Q0"":"""",""Q1"":"""",""Q2"":"""",""Q3"":"""",""Q4"":"""",""Q5"":"""",""Q6"":""I agree""}","survey-multi-choice","2","187025","0.0-2.0","54","1","2025-07-09 09:07:16","7701e855f2ef39aa3fd6c71abdc6918a","178.143.32.198","Mozilla/5.0 (Windows NT 10.0; Win64; x64) AppleWebKit/537.36 (KHTML, like Gecko) Chrome/138.0.0.0 Safari/537.36","WebKit","Chrome","138.0.0.0","Windows","10.0","https://app.prolific.com/","sk-HU,sk;q=0.9,hu-HU;q=0.8,hu;q=0.7,en-HU;q=0.6,en;q=0.5,sk-SK;q=0.4,cs;q=0.3,en-US;q=0.2,de;q=0.1","683dda03c88521ebe8cba79e","686d226cabeef709c732f8e1","686e3140c8da06e1c25eb638","683dda03c88521ebe8cba79e","","","[0,1,2,3,4,5,6]","true","","","","","","","","","","","","","","","","","","","","","","","","","","","","","","","","","","","","","","","","","",""
"11647","","","","fullscreen","3","199677","0.0-4.0","54","1","2025-07-09 09:07:16","7701e855f2ef39aa3fd6c71abdc6918a","178.143.32.198","Mozilla/5.0 (Windows NT 10.0; Win64; x64) AppleWebKit/537.36 (KHTML, like Gecko) Chrome/138.0.0.0 Safari/537.36","WebKit","Chrome","138.0.0.0","Windows","10.0","https://app.prolific.com/","sk-HU,sk;q=0.9,hu-HU;q=0.8,hu;q=0.7,en-HU;q=0.6,en;q=0.5,sk-SK;q=0.4,cs;q=0.3,en-US;q=0.2,de;q=0.1","683dda03c88521ebe8cba79e","686d226cabeef709c732f8e1","686e3140c8da06e1c25eb638","683dda03c88521ebe8cba79e","","","","","true","","","","","","","","","","","","","","","","","","","","","","","","","","","","","","","","","","","","","","","","",""
"8146","1752052246165"," <p style='font-size:1.1em;line-height:1.25'>Thank you for completing the consent form and closing all other tabs.</p><p style='font-size:1.1em;line-height:1.25'>We will now invite you to fill in some demographic information and questionnaires, before starting the game.<br>This will take about 5 minutes.<br></p><p style='font-size:1.1em;line-height:1.25'>Press the <strong>Next</strong> button to continue.</p>","0","custom-html-button-response","4","207825","0.0-5.0","54","1","2025-07-09 09:07:16","7701e855f2ef39aa3fd6c71abdc6918a","178.143.32.198","Mozilla/5.0 (Windows NT 10.0; Win64; x64) AppleWebKit/537.36 (KHTML, like Gecko) Chrome/138.0.0.0 Safari/537.36","WebKit","Chrome","138.0.0.0","Windows","10.0","https://app.prolific.com/","sk-HU,sk;q=0.9,hu-HU;q=0.8,hu;q=0.7,en-HU;q=0.6,en;q=0.5,sk-SK;q=0.4,cs;q=0.3,en-US;q=0.2,de;q=0.1","683dda03c88521ebe8cba79e","686d226cabeef709c732f8e1","686e3140c8da06e1c25eb638","683dda03c88521ebe8cba79e","2025-07-09T09:10:46.165Z","","","","","","","","","","","","","","","","","","","","","","","","","","","","","","","","","","","","","","","","","","","","",""
"5615","","","{""age"":""26""}","survey-text","5","213442","0.0-6.0-0.0","54","1","2025-07-09 09:07:16","7701e855f2ef39aa3fd6c71abdc6918a","178.143.32.198","Mozilla/5.0 (Windows NT 10.0; Win64; x64) AppleWebKit/537.36 (KHTML, like Gecko) Chrome/138.0.0.0 Safari/537.36","WebKit","Chrome","138.0.0.0","Windows","10.0","https://app.prolific.com/","sk-HU,sk;q=0.9,hu-HU;q=0.8,hu;q=0.7,en-HU;q=0.6,en;q=0.5,sk-SK;q=0.4,cs;q=0.3,en-US;q=0.2,de;q=0.1","683dda03c88521ebe8cba79e","686d226cabeef709c732f8e1","686e3140c8da06e1c25eb638","683dda03c88521ebe8cba79e","","","","","","0","demographics","","","","","","","","","","","","","","","","","","","","","","","","","","","","","","","","","","","","","","",""
"4047","","","{""gender_identity"":""female/woman""}","survey-multi-choice","6","217490","0.0-6.0-1.0","54","1","2025-07-09 09:07:16","7701e855f2ef39aa3fd6c71abdc6918a","178.143.32.198","Mozilla/5.0 (Windows NT 10.0; Win64; x64) AppleWebKit/537.36 (KHTML, like Gecko) Chrome/138.0.0.0 Safari/537.36","WebKit","Chrome","138.0.0.0","Windows","10.0","https://app.prolific.com/","sk-HU,sk;q=0.9,hu-HU;q=0.8,hu;q=0.7,en-HU;q=0.6,en;q=0.5,sk-SK;q=0.4,cs;q=0.3,en-US;q=0.2,de;q=0.1","683dda03c88521ebe8cba79e","686d226cabeef709c732f8e1","686e3140c8da06e1c25eb638","683dda03c88521ebe8cba79e","","","[0]","","","1","demographics","","","","","","","","","","","","","","","","","","","","","","","","","","","","","","","","","","","","","","",""
"4159","","","{""assigned_sex"":""female""}","survey-multi-choice","7","221650","0.0-6.0-2.0","54","1","2025-07-09 09:07:16","7701e855f2ef39aa3fd6c71abdc6918a","178.143.32.198","Mozilla/5.0 (Windows NT 10.0; Win64; x64) AppleWebKit/537.36 (KHTML, like Gecko) Chrome/138.0.0.0 Safari/537.36","WebKit","Chrome","138.0.0.0","Windows","10.0","https://app.prolific.com/","sk-HU,sk;q=0.9,hu-HU;q=0.8,hu;q=0.7,en-HU;q=0.6,en;q=0.5,sk-SK;q=0.4,cs;q=0.3,en-US;q=0.2,de;q=0.1","683dda03c88521ebe8cba79e","686d226cabeef709c732f8e1","686e3140c8da06e1c25eb638","683dda03c88521ebe8cba79e","","","[0]","","","2","demographics","","","","","","","","","","","","","","","","","","","","","","","","","","","","","","","","","","","","","","",""
"4215","","","{""menstrual_cycle"":""No""}","survey-multi-choice","8","225866","0.0-6.0-3.0","54","1","2025-07-09 09:07:16","7701e855f2ef39aa3fd6c71abdc6918a","178.143.32.198","Mozilla/5.0 (Windows NT 10.0; Win64; x64) AppleWebKit/537.36 (KHTML, like Gecko) Chrome/138.0.0.0 Safari/537.36","WebKit","Chrome","138.0.0.0","Windows","10.0","https://app.prolific.com/","sk-HU,sk;q=0.9,hu-HU;q=0.8,hu;q=0.7,en-HU;q=0.6,en;q=0.5,sk-SK;q=0.4,cs;q=0.3,en-US;q=0.2,de;q=0.1","683dda03c88521ebe8cba79e","686d226cabeef709c732f8e1","686e3140c8da06e1c25eb638","683dda03c88521ebe8cba79e","","","[0]","","","4","demographics","","","","","","","","","","","","","","","","","","","","","","","","","","","","","","","","","","","","","","",""
"6384","","","{""education"":""Master's Degree (e.g., MSc)""}","survey-multi-choice","9","232250","0.0-6.0-4.0","54","1","2025-07-09 09:07:16","7701e855f2ef39aa3fd6c71abdc6918a","178.143.32.198","Mozilla/5.0 (Windows NT 10.0; Win64; x64) AppleWebKit/537.36 (KHTML, like Gecko) Chrome/138.0.0.0 Safari/537.36","WebKit","Chrome","138.0.0.0","Windows","10.0","https://app.prolific.com/","sk-HU,sk;q=0.9,hu-HU;q=0.8,hu;q=0.7,en-HU;q=0.6,en;q=0.5,sk-SK;q=0.4,cs;q=0.3,en-US;q=0.2,de;q=0.1","683dda03c88521ebe8cba79e","686d226cabeef709c732f8e1","686e3140c8da06e1c25eb638","683dda03c88521ebe8cba79e","","","[0]","","","5","demographics","","","","","","","","","","","","","","","","","","","","","","","","","","","","","","","","","","","","","","",""
"17295","","","{""education"":""Higher National Certificate""}","survey-multi-choice","10","249546","0.0-6.0-5.0","54","1","2025-07-09 09:07:16","7701e855f2ef39aa3fd6c71abdc6918a","178.143.32.198","Mozilla/5.0 (Windows NT 10.0; Win64; x64) AppleWebKit/537.36 (KHTML, like Gecko) Chrome/138.0.0.0 Safari/537.36","WebKit","Chrome","138.0.0.0","Windows","10.0","https://app.prolific.com/","sk-HU,sk;q=0.9,hu-HU;q=0.8,hu;q=0.7,en-HU;q=0.6,en;q=0.5,sk-SK;q=0.4,cs;q=0.3,en-US;q=0.2,de;q=0.1","683dda03c88521ebe8cba79e","686d226cabeef709c732f8e1","686e3140c8da06e1c25eb638","683dda03c88521ebe8cba79e","2025-07-09T09:11:27.886Z","","[0]","","","6","demographics","","","","","","","","","","","","","","","","","","","","","","","","","","","","","","","","","","","","","","",""
"17574","","","{""mental_health_condition"":""No"",""mental_health_treatment"":""No"",""psychiatric_medication"":""No""}","survey-text","11","267122","0.0-7.0-0.0","54","1","2025-07-09 09:07:16","7701e855f2ef39aa3fd6c71abdc6918a","178.143.32.198","Mozilla/5.0 (Windows NT 10.0; Win64; x64) AppleWebKit/537.36 (KHTML, like Gecko) Chrome/138.0.0.0 Safari/537.36","WebKit","Chrome","138.0.0.0","Windows","10.0","https://app.prolific.com/","sk-HU,sk;q=0.9,hu-HU;q=0.8,hu;q=0.7,en-HU;q=0.6,en;q=0.5,sk-SK;q=0.4,cs;q=0.3,en-US;q=0.2,de;q=0.1","683dda03c88521ebe8cba79e","686d226cabeef709c732f8e1","686e3140c8da06e1c25eb638","683dda03c88521ebe8cba79e","2025-07-09T09:11:45.462Z","","","","","1","mental_health","","","","","","","","","","","","","","","","","","","","","","","","","","","","","","","","","","","","","","",""
"5414","","","{""depression_history"":[""Yes""]}","survey-multi-select","12","272537","0.0-7.0-1.0","54","1","2025-07-09 09:07:16","7701e855f2ef39aa3fd6c71abdc6918a","178.143.32.198","Mozilla/5.0 (Windows NT 10.0; Win64; x64) AppleWebKit/537.36 (KHTML, like Gecko) Chrome/138.0.0.0 Safari/537.36","WebKit","Chrome","138.0.0.0","Windows","10.0","https://app.prolific.com/","sk-HU,sk;q=0.9,hu-HU;q=0.8,hu;q=0.7,en-HU;q=0.6,en;q=0.5,sk-SK;q=0.4,cs;q=0.3,en-US;q=0.2,de;q=0.1","683dda03c88521ebe8cba79e","686d226cabeef709c732f8e1","686e3140c8da06e1c25eb638","683dda03c88521ebe8cba79e","","","[0]","","","","mental_health","","","","","","","","","","","","","","","","","","","","","","","","","","","","","","","","","","","","","","",""
"9952","","","{""depression_episodes"":""3-5"",""depression_recent"":""More than 1 year ago""}","survey-multi-choice","13","282490","0.0-7.0-2.0-0.0","54","1","2025-07-09 09:07:16","7701e855f2ef39aa3fd6c71abdc6918a","178.143.32.198","Mozilla/5.0 (Windows NT 10.0; Win64; x64) AppleWebKit/537.36 (KHTML, like Gecko) Chrome/138.0.0.0 Safari/537.36","WebKit","Chrome","138.0.0.0","Windows","10.0","https://app.prolific.com/","sk-HU,sk;q=0.9,hu-HU;q=0.8,hu;q=0.7,en-HU;q=0.6,en;q=0.5,sk-SK;q=0.4,cs;q=0.3,en-US;q=0.2,de;q=0.1","683dda03c88521ebe8cba79e","686d226cabeef709c732f8e1","686e3140c8da06e1c25eb638","683dda03c88521ebe8cba79e","2025-07-09T09:12:00.830Z","","[0,1]","","","3","mental_health","","","","","","","","","","","","","","","","","","","","","","","","","","","","","","","","","","","","","","",""
"87678.5","","","","survey-template","14","370171","0.0-7.0-3.0","54","1","2025-07-09 09:07:16","7701e855f2ef39aa3fd6c71abdc6918a","178.143.32.198","Mozilla/5.0 (Windows NT 10.0; Win64; x64) AppleWebKit/537.36 (KHTML, like Gecko) Chrome/138.0.0.0 Safari/537.36","WebKit","Chrome","138.0.0.0","Windows","10.0","https://app.prolific.com/","sk-HU,sk;q=0.9,hu-HU;q=0.8,hu;q=0.7,en-HU;q=0.6,en;q=0.5,sk-SK;q=0.4,cs;q=0.3,en-US;q=0.2,de;q=0.1","683dda03c88521ebe8cba79e","686d226cabeef709c732f8e1","686e3140c8da06e1c25eb638","683dda03c88521ebe8cba79e","2025-07-09T09:13:28.511Z","","","","","","ius","{""Q01"":""3"",""Q02"":""3"",""Q03"":""4"",""Q04"":""2"",""Q05"":""3"",""Q06"":""1"",""Q07"":""1"",""Q08"":""0"",""Q09"":""3"",""Q10"":""2"",""Q11"":""1"",""Q12"":""3"",""Q13"":""2""}","[0,1,2,3,4,5,6,7,8,9,10,11,12]","[""Q01"",""Q02"",""Q03"",""Q04"",""Q06"",""Q07"",""Q08"",""Q09"",""Q10"",""Q11"",""Q12"",""Q13"",""Q05""]","[9469.300000011921,14125.899999976158,21478.100000023842,27382.100000023842,37646,44262,47605.19999998808,53509.19999998808,60301.19999998808,64094,67661.30000001192,77422,84086]","[]","[9469.300000011921,14125.899999976158,21133.30000001192,21478.100000023842,27382.100000023842,32766.100000023842,37646,44262,47605.19999998808,53509.19999998808,59557.30000001192,59941.89999997616,60301.19999998808,64094,67310,67661.30000001192,77422,78166.10000002384,84086,87677.30000001192]","0.38461538461538464","0.5","0","","","","","","","","","","","","","","","","","","","","","","","","","","","","","",""
"4734","1752052413245","<p style='font-size:1.1em;line-height:1.25'>In the following, we will ask you a few questions relating to your experiences over the past month.<br></p><p style='font-size:1.1em;line-height:1.25'>Press the <strong>Next</strong> button to continue.</p>","0","custom-html-button-response","15","374906","0.0-7.0-4.0","54","1","2025-07-09 09:07:16","7701e855f2ef39aa3fd6c71abdc6918a","178.143.32.198","Mozilla/5.0 (Windows NT 10.0; Win64; x64) AppleWebKit/537.36 (KHTML, like Gecko) Chrome/138.0.0.0 Safari/537.36","WebKit","Chrome","138.0.0.0","Windows","10.0","https://app.prolific.com/","sk-HU,sk;q=0.9,hu-HU;q=0.8,hu;q=0.7,en-HU;q=0.6,en;q=0.5,sk-SK;q=0.4,cs;q=0.3,en-US;q=0.2,de;q=0.1","683dda03c88521ebe8cba79e","686d226cabeef709c732f8e1","686e3140c8da06e1c25eb638","683dda03c88521ebe8cba79e","2025-07-09T09:13:33.246Z","","","","","","","","","","","","","","","","","","","","","","","","","","","","","","","","","","","","","","","","","","","","",""
"66190.80000001192","","","","survey-template","16","441098","0.0-7.0-5.0","54","1","2025-07-09 09:07:16","7701e855f2ef39aa3fd6c71abdc6918a","178.143.32.198","Mozilla/5.0 (Windows NT 10.0; Win64; x64) AppleWebKit/537.36 (KHTML, like Gecko) Chrome/138.0.0.0 Safari/537.36","WebKit","Chrome","138.0.0.0","Windows","10.0","https://app.prolific.com/","sk-HU,sk;q=0.9,hu-HU;q=0.8,hu;q=0.7,en-HU;q=0.6,en;q=0.5,sk-SK;q=0.4,cs;q=0.3,en-US;q=0.2,de;q=0.1","683dda03c88521ebe8cba79e","686d226cabeef709c732f8e1","686e3140c8da06e1c25eb638","683dda03c88521ebe8cba79e","2025-07-09T09:14:39.438Z","","","","","","pss","{""Q01"":""3"",""Q02"":""4"",""Q03"":""3"",""Q04"":""2"",""Q05"":""1"",""Q06"":""1"",""Q07"":""2"",""Q08"":""2"",""Q09"":""3"",""Q10"":""1""}","[0,1,2,3,4,5,6,7,8,9]","[""Q01"",""Q02"",""Q03"",""Q04"",""Q05"",""Q06"",""Q07"",""Q08"",""Q09"",""Q10""]","[17030.900000035763,22414.100000023842,26302.900000035763,31606.80000001192,36830.80000001192,42294,47006.90000003576,52726.80000001192,58030,64382.90000003576]","[]","[0,17030.900000035763,22414.100000023842,26302.900000035763,31270.900000035763,31606.80000001192,36503,36830.80000001192,42294,46582.90000003576,47006.90000003576,51950.90000003576,52726.80000001192,57630.90000003576,58030,63286.90000003576,63543.10000002384,64069.5,64382.90000003576,66189.80000001192]","0.4","0.6666666666666666","0","","","","","","","","","","","","","","","","","","","","","","","","","","","","","",""
"4983","1752052484421","<p style='font-size:1.1em;line-height:1.25'>Thank you for your answers! Now we will ask you a few more questions relating to your feelings in the last 24 hours.<br></p><p style='font-size:1.1em;line-height:1.25'>Press the <strong>Next</strong> button to continue.</p>","0","custom-html-button-response","17","446082","0.0-7.0-6.0","54","1","2025-07-09 09:07:16","7701e855f2ef39aa3fd6c71abdc6918a","178.143.32.198","Mozilla/5.0 (Windows NT 10.0; Win64; x64) AppleWebKit/537.36 (KHTML, like Gecko) Chrome/138.0.0.0 Safari/537.36","WebKit","Chrome","138.0.0.0","Windows","10.0","https://app.prolific.com/","sk-HU,sk;q=0.9,hu-HU;q=0.8,hu;q=0.7,en-HU;q=0.6,en;q=0.5,sk-SK;q=0.4,cs;q=0.3,en-US;q=0.2,de;q=0.1","683dda03c88521ebe8cba79e","686d226cabeef709c732f8e1","686e3140c8da06e1c25eb638","683dda03c88521ebe8cba79e","2025-07-09T09:14:44.422Z","","","","","","","","","","","","","","","","","","","","","","","","","","","","","","","","","","","","","","","","","","","","",""
"80751.80000001192","","","","survey-template","18","526836","0.0-7.0-7.0","54","1","2025-07-09 09:07:16","7701e855f2ef39aa3fd6c71abdc6918a","178.143.32.198","Mozilla/5.0 (Windows NT 10.0; Win64; x64) AppleWebKit/537.36 (KHTML, like Gecko) Chrome/138.0.0.0 Safari/537.36","WebKit","Chrome","138.0.0.0","Windows","10.0","https://app.prolific.com/","sk-HU,sk;q=0.9,hu-HU;q=0.8,hu;q=0.7,en-HU;q=0.6,en;q=0.5,sk-SK;q=0.4,cs;q=0.3,en-US;q=0.2,de;q=0.1","683dda03c88521ebe8cba79e","686d226cabeef709c732f8e1","686e3140c8da06e1c25eb638","683dda03c88521ebe8cba79e","2025-07-09T09:16:05.176Z","","","","","","drsp","{""Q01"":""1"",""Q02"":""2"",""Q03"":""0"",""Q04"":""2"",""Q05"":""3"",""Q06"":""1"",""Q07"":""3"",""Q08"":""4"",""Q09"":""4"",""Q10"":""1"",""Q11"":""3"",""Q12"":""4"",""Q13"":""4"",""Q14"":""1"",""Q15"":""0"",""Q16"":""2"",""Q17"":""1"",""Q18"":""2"",""Q19"":""4"",""Q20"":""1"",""Q21"":""3""}","[0,1,2,3,4,5,6,7,8,9,10,11,12,13,14,15,16,17,18,19,20]","[""Q01"",""Q02"",""Q03"",""Q04"",""Q05"",""Q06"",""Q07"",""Q08"",""Q09"",""Q10"",""Q11"",""Q12"",""Q13"",""Q14"",""Q15"",""Q16"",""Q17"",""Q18"",""Q19"",""Q20"",""Q21""]","[4333.5,7638.5,10726.399999976158,12990.399999976158,14262.399999976158,17733.30000001192,21638.30000001192,24141.599999964237,28206.30000001192,30750.599999964237,34725.59999996424,38125.59999996424,41301.30000001192,44966.19999998808,48926.30000001192,51278.39999997616,56461.59999996424,61869.5,67894.30000001192,75438.30000001192,79278.30000001192]","[]","[0,4333.5,7638.5,10726.399999976158,12990.399999976158,14262.399999976158,17733.30000001192,21638.30000001192,23846.399999976158,24141.599999964237,28206.30000001192,30750.599999964237,34725.59999996424,38125.59999996424,41301.30000001192,43925.69999998808,44966.19999998808,48926.30000001192,51278.39999997616,56461.59999996424,61869.5,67302.5,67894.30000001192,75438.30000001192,78997.69999998808,79278.30000001192,80749.69999998808]","0.2857142857142857","0.35","0","","","","","","","","","","","","","","","","","","","","","","","","","","","","","",""
"18773.30000001192","","","","survey-template","19","545610","0.0-7.0-8.0","54","1","2025-07-09 09:07:16","7701e855f2ef39aa3fd6c71abdc6918a","178.143.32.198","Mozilla/5.0 (Windows NT 10.0; Win64; x64) AppleWebKit/537.36 (KHTML, like Gecko) Chrome/138.0.0.0 Safari/537.36","WebKit","Chrome","138.0.0.0","Windows","10.0","https://app.prolific.com/","sk-HU,sk;q=0.9,hu-HU;q=0.8,hu;q=0.7,en-HU;q=0.6,en;q=0.5,sk-SK;q=0.4,cs;q=0.3,en-US;q=0.2,de;q=0.1","683dda03c88521ebe8cba79e","686d226cabeef709c732f8e1","686e3140c8da06e1c25eb638","683dda03c88521ebe8cba79e","2025-07-09T09:16:23.950Z","","","","","","stress","{""Q01"":""2"",""Q02"":""4"",""Q03"":""3""}","[0,1,2]","[""Q01"",""Q02"",""Q03""]","[6660.700000047684,12611.900000035763,17900.600000023842]","[]","[6260.700000047684,6660.700000047684,12611.900000035763,17644.80000001192,17900.600000023842,18772.700000047684]","0.3333333333333333","0.5","0","","","","","","","","","","","","","","","","","","","","","","","","","","","","","",""
"65183","","","","instructions","20","610794","0.0-8.0-0.0","54","1","2025-07-09 09:07:16","7701e855f2ef39aa3fd6c71abdc6918a","178.143.32.198","Mozilla/5.0 (Windows NT 10.0; Win64; x64) AppleWebKit/537.36 (KHTML, like Gecko) Chrome/138.0.0.0 Safari/537.36","WebKit","Chrome","138.0.0.0","Windows","10.0","https://app.prolific.com/","sk-HU,sk;q=0.9,hu-HU;q=0.8,hu;q=0.7,en-HU;q=0.6,en;q=0.5,sk-SK;q=0.4,cs;q=0.3,en-US;q=0.2,de;q=0.1","683dda03c88521ebe8cba79e","686d226cabeef709c732f8e1","686e3140c8da06e1c25eb638","683dda03c88521ebe8cba79e","","[{""page_index"":0,""viewing_time"":16838},{""page_index"":1,""viewing_time"":15720},{""page_index"":2,""viewing_time"":20056},{""page_index"":3,""viewing_time"":12569}]","","","","","","","","","","","","","","","","","","","","","","","","","","","","","","","","","","","","","","","","","","","",""
"","","","","ctl-task-cpt","21","647074","0.0-8.0-1.0","54","1","2025-07-09 09:07:16","7701e855f2ef39aa3fd6c71abdc6918a","178.143.32.198","Mozilla/5.0 (Windows NT 10.0; Win64; x64) AppleWebKit/537.36 (KHTML, like Gecko) Chrome/138.0.0.0 Safari/537.36","WebKit","Chrome","138.0.0.0","Windows","10.0","https://app.prolific.com/","sk-HU,sk;q=0.9,hu-HU;q=0.8,hu;q=0.7,en-HU;q=0.6,en;q=0.5,sk-SK;q=0.4,cs;q=0.3,en-US;q=0.2,de;q=0.1","683dda03c88521ebe8cba79e","686d226cabeef709c732f8e1","686e3140c8da06e1c25eb638","683dda03c88521ebe8cba79e","","","","","","","","","","","","","","","","","win-only","0","g1:NW,g2:SE","1","0","1","611898.6","2928.5","6930.2","33272.1","2","4","4","6","1","2","0","0","0","0","4001.7","4000","2510","[""left"",""up""]","{""num_key_presses"":7,""num_perfect"":4,""num_errors"":2,""num_randdir"":0,""num_randdir_good_moves"":0,""num_whilered"":1,""num_whileblue"":0,""num_blue"":3,""num_good_moves"":4}","[422.57142857142856,413.47767857142856,0.4,422.57142857142856,413.47767857142856,101.3,422.57142857142856,413.47767857142856,202.3,422.57142857142856,413.47767857142856,307.3,422.57142857142856,413.47767857142856,407.8,422.57142857142856,413.47767857142856,518.1,422.57142857142856,413.47767857142856,622.9,422.57142857142856,413.47767857142856,727.4,422.57142857142856,413.47767857142856,827.4,422.57142857142856,413.47767857142856,934.7,422.57142857142856,413.47767857142856,1036.9,422.57142857142856,413.47767857142856,1137.1,422.57142857142856,413.47767857142856,1237.2,422.57142857142856,413.47767857142856,1337.6,422.57142857142856,413.47767857142856,1438.6,422.57142857142856,413.47767857142856,1543,422.57142857142856,413.47767857142856,1643.3,422.57142857142856,413.47767857142856,1751.2,422.57142857142856,413.47767857142856,1851.8,422.57142857142856,413.47767857142856,1957.3,422.57142857142856,413.47767857142856,2057.4,422.57142857142856,413.47767857142856,2162.3,422.57142857142856,413.47767857142856,2262.3,422.57142857142856,413.47767857142856,2362.3,422.57142857142856,413.47767857142856,2462.3,422.57142857142856,413.47767857142856,2567,422.57142857142856,413.47767857142856,2668.3,422.57142857142856,413.47767857142856,2768.9,422.57142857142856,413.47767857142856,2871.9,422.57142857142856,413.47767857142856,2972.8,422.57142857142856,413.47767857142856,3072.8,422.57142857142856,413.47767857142856,3172.9,422.57142857142856,413.47767857142856,3272.9,422.57142857142856,413.47767857142856,3384.8,422.57142857142856,413.47767857142856,3487.4,422.57142857142856,413.47767857142856,3587.5,422.57142857142856,413.47767857142856,3687.5,422.57142857142856,413.47767857142856,3787.5,422.57142857142856,413.47767857142856,3892.6]","[315,315,1000,0,-685,""error"",""-"",""-"",""no_move"",12298.6,11983.4,3246,8699.2,353.4,""smooth"",""up"",""up"",""good_move"",12458.6,159.6,2701.2,12299,-2541.6,""error"",""-"",""-"",""no_move"",12683.3,224.6,2701.2,12299,-2316.9,""while_red"",""-"",""-"",""no_move"",15865.3,3406.6,1834.3,13465.4,565.6,""smooth"",""left"",""left"",""good_move"",23198.8,7333.4,2653.7,20165.5,379.6,""smooth"",""up"",""up"",""good_move"",26218.7,3019.9,2628.9,23198.8,391,""smooth"",""left"",""left"",""good_move""]","","",""
"10392","","","","instructions","22","657466","0.0-8.0-2.0","54","1","2025-07-09 09:07:16","7701e855f2ef39aa3fd6c71abdc6918a","178.143.32.198","Mozilla/5.0 (Windows NT 10.0; Win64; x64) AppleWebKit/537.36 (KHTML, like Gecko) Chrome/138.0.0.0 Safari/537.36","WebKit","Chrome","138.0.0.0","Windows","10.0","https://app.prolific.com/","sk-HU,sk;q=0.9,hu-HU;q=0.8,hu;q=0.7,en-HU;q=0.6,en;q=0.5,sk-SK;q=0.4,cs;q=0.3,en-US;q=0.2,de;q=0.1","683dda03c88521ebe8cba79e","686d226cabeef709c732f8e1","686e3140c8da06e1c25eb638","683dda03c88521ebe8cba79e","","[{""page_index"":0,""viewing_time"":10391}]","","","","","","","","","","","","","","","","","","","","","","","","","","","","","","","","","","","","","","","","","","","",""
"","","","","ctl-task-cpt","23","703910","0.0-8.0-3.0","54","1","2025-07-09 09:07:16","7701e855f2ef39aa3fd6c71abdc6918a","178.143.32.198","Mozilla/5.0 (Windows NT 10.0; Win64; x64) AppleWebKit/537.36 (KHTML, like Gecko) Chrome/138.0.0.0 Safari/537.36","WebKit","Chrome","138.0.0.0","Windows","10.0","https://app.prolific.com/","sk-HU,sk;q=0.9,hu-HU;q=0.8,hu;q=0.7,en-HU;q=0.6,en;q=0.5,sk-SK;q=0.4,cs;q=0.3,en-US;q=0.2,de;q=0.1","683dda03c88521ebe8cba79e","686d226cabeef709c732f8e1","686e3140c8da06e1c25eb638","683dda03c88521ebe8cba79e","","","","","","","","","","","","","","","","","win-only","0","g1:NW,g2:SE","0.35","0","3","658569.6","2038.9","6045.2","43431.5","2","4","8","6","1","-2","-3","0","0","0","4006.3","4000","-2585","[""left"",""up""]","{""num_key_presses"":11,""num_perfect"":4,""num_errors"":1,""num_randdir"":6,""num_randdir_good_moves"":2,""num_whilered"":0,""num_whileblue"":1,""num_blue"":2,""num_good_moves"":6}","[414.57142857142856,409.47767857142856,0.2,414.57142857142856,409.47767857142856,106.1,634.5714285714286,411.47767857142856,206.2,1375.5714285714287,315.47767857142856,306.3,1375.5714285714287,315.47767857142856,407.5,1375.5714285714287,315.47767857142856,507.5,1375.5714285714287,315.47767857142856,611.5,1375.5714285714287,315.47767857142856,712.4,1375.5714285714287,315.47767857142856,812.5,1375.5714285714287,315.47767857142856,912.6,1375.5714285714287,315.47767857142856,1024.2,1375.5714285714287,315.47767857142856,1124.4,1375.5714285714287,315.47767857142856,1227.2,1375.5714285714287,315.47767857142856,1331.9,1375.5714285714287,315.47767857142856,1437.1,1375.5714285714287,315.47767857142856,1541.6,1375.5714285714287,315.47767857142856,1641.6,1375.5714285714287,315.47767857142856,1743,1375.5714285714287,315.47767857142856,1845.9,1375.5714285714287,315.47767857142856,1955.7,1375.5714285714287,315.47767857142856,2055.8,1375.5714285714287,315.47767857142856,2156,1375.5714285714287,315.47767857142856,2257.4,1375.5714285714287,315.47767857142856,2357.5,1375.5714285714287,315.47767857142856,2457.5,1375.5714285714287,315.47767857142856,2557.5,1375.5714285714287,315.47767857142856,2657.6,1375.5714285714287,315.47767857142856,2761.5,1375.5714285714287,315.47767857142856,2862.4,1375.5714285714287,315.47767857142856,2972.4,1375.5714285714287,315.47767857142856,3077.5,1375.5714285714287,315.47767857142856,3195.7,1375.5714285714287,315.47767857142856,3306,1375.5714285714287,315.47767857142856,3406.1,1375.5714285714287,315.47767857142856,3506.3,1375.5714285714287,315.47767857142856,3612.4,1375.5714285714287,315.47767857142856,3723.2,1375.5714285714287,315.47767857142856,3832,1375.5714285714287,315.47767857142856,3937.2]","[1397.9,1397.9,1000,0.1,397.9,""oops"",""up"",""up"",""good_move"",4049.1,2650.9,2187.8,1398.2,463.1,""oops"",""left"",""down"",""bad_move"",7214.7,3165.2,2778.6,4049.5,386.6,""smooth"",""up"",""up"",""good_move"",13798.3,6583.4,3124.7,10356.1,317.5,""while_blue"",""up"",""right"",""bad_move"",17169.6,3371,2739.4,13798.6,631.6,""smooth"",""left"",""left"",""good_move"",20433.1,3263.4,2492.9,17169.7,770.5,""oops"",""up"",""right"",""bad_move"",23548.7,3115.4,2613.2,20433.3,502.2,""oops"",""left"",""left"",""good_move"",26198.3,2649.4,2214.8,23548.9,434.6,""smooth"",""left"",""left"",""good_move"",29232.9,3034.5,2654,26198.4,380.5,""oops"",""left"",""right"",""bad_move"",31584.9,2351.7,1993.1,29233.2,358.6,""oops"",""up"",""down"",""bad_move"",34817.3,3232.1,2890.7,31585.2,341.4,""smooth"",""left"",""left"",""good_move""]","","",""
"38876","","","","instructions","24","742787","0.0-8.0-4.0","54","1","2025-07-09 09:07:16","7701e855f2ef39aa3fd6c71abdc6918a","178.143.32.198","Mozilla/5.0 (Windows NT 10.0; Win64; x64) AppleWebKit/537.36 (KHTML, like Gecko) Chrome/138.0.0.0 Safari/537.36","WebKit","Chrome","138.0.0.0","Windows","10.0","https://app.prolific.com/","sk-HU,sk;q=0.9,hu-HU;q=0.8,hu;q=0.7,en-HU;q=0.6,en;q=0.5,sk-SK;q=0.4,cs;q=0.3,en-US;q=0.2,de;q=0.1","683dda03c88521ebe8cba79e","686d226cabeef709c732f8e1","686e3140c8da06e1c25eb638","683dda03c88521ebe8cba79e","","[{""page_index"":0,""viewing_time"":11234},{""page_index"":1,""viewing_time"":27641}]","","","","","","","","","","","","","","","","","","","","","","","","","","","","","","","","","","","","","","","","","","","",""
"15526","","","{""green_ball"":[""Ball sometimes shakes and moves in a random direction""]}","survey-multi-select","25","758314","0.0-8.0-5.0-0.0","54","1","2025-07-09 09:07:16","7701e855f2ef39aa3fd6c71abdc6918a","178.143.32.198","Mozilla/5.0 (Windows NT 10.0; Win64; x64) AppleWebKit/537.36 (KHTML, like Gecko) Chrome/138.0.0.0 Safari/537.36","WebKit","Chrome","138.0.0.0","Windows","10.0","https://app.prolific.com/","sk-HU,sk;q=0.9,hu-HU;q=0.8,hu;q=0.7,en-HU;q=0.6,en;q=0.5,sk-SK;q=0.4,cs;q=0.3,en-US;q=0.2,de;q=0.1","683dda03c88521ebe8cba79e","686d226cabeef709c732f8e1","686e3140c8da06e1c25eb638","683dda03c88521ebe8cba79e","","","[0]","","","","quiz","","","","","","","","","","","","","","","","","","","","","","","","","","","","","","","","","","","","","true","",""
"3911","","<p align='center'><b>CORRECT!</b> Indeed, the green ball may sometimes shake and move in a random direction.</p>","0","html-button-response","26","762225","0.0-8.0-5.0-1.0","54","1","2025-07-09 09:07:16","7701e855f2ef39aa3fd6c71abdc6918a","178.143.32.198","Mozilla/5.0 (Windows NT 10.0; Win64; x64) AppleWebKit/537.36 (KHTML, like Gecko) Chrome/138.0.0.0 Safari/537.36","WebKit","Chrome","138.0.0.0","Windows","10.0","https://app.prolific.com/","sk-HU,sk;q=0.9,hu-HU;q=0.8,hu;q=0.7,en-HU;q=0.6,en;q=0.5,sk-SK;q=0.4,cs;q=0.3,en-US;q=0.2,de;q=0.1","683dda03c88521ebe8cba79e","686d226cabeef709c732f8e1","686e3140c8da06e1c25eb638","683dda03c88521ebe8cba79e","","","","","","","","","","","","","","","","","","","","","","","","","","","","","","","","","","","","","","","","","","","","","",""
"6336","","","{""yellow_ball"":[""Ball doesn‘t move and I get -1 penalty point""]}","survey-multi-select","27","768562","0.0-8.0-6.0-0.0","54","1","2025-07-09 09:07:16","7701e855f2ef39aa3fd6c71abdc6918a","178.143.32.198","Mozilla/5.0 (Windows NT 10.0; Win64; x64) AppleWebKit/537.36 (KHTML, like Gecko) Chrome/138.0.0.0 Safari/537.36","WebKit","Chrome","138.0.0.0","Windows","10.0","https://app.prolific.com/","sk-HU,sk;q=0.9,hu-HU;q=0.8,hu;q=0.7,en-HU;q=0.6,en;q=0.5,sk-SK;q=0.4,cs;q=0.3,en-US;q=0.2,de;q=0.1","683dda03c88521ebe8cba79e","686d226cabeef709c732f8e1","686e3140c8da06e1c25eb638","683dda03c88521ebe8cba79e","","","[0]","","","","quiz","","","","","","","","","","","","","","","","","","","","","","","","","","","","","","","","","","","","","true","",""
"1847","","<p align='center'><b>CORRECT!</b> Indeed, the yellow ball never moves and you receive a penalty.</p>","0","html-button-response","28","770410","0.0-8.0-6.0-1.0","54","1","2025-07-09 09:07:16","7701e855f2ef39aa3fd6c71abdc6918a","178.143.32.198","Mozilla/5.0 (Windows NT 10.0; Win64; x64) AppleWebKit/537.36 (KHTML, like Gecko) Chrome/138.0.0.0 Safari/537.36","WebKit","Chrome","138.0.0.0","Windows","10.0","https://app.prolific.com/","sk-HU,sk;q=0.9,hu-HU;q=0.8,hu;q=0.7,en-HU;q=0.6,en;q=0.5,sk-SK;q=0.4,cs;q=0.3,en-US;q=0.2,de;q=0.1","683dda03c88521ebe8cba79e","686d226cabeef709c732f8e1","686e3140c8da06e1c25eb638","683dda03c88521ebe8cba79e","","","","","","","","","","","","","","","","","","","","","","","","","","","","","","","","","","","","","","","","","","","","","",""
"5399","","","{""blue_ball"":[""Ball doesn‘t move and I get -1 penalty point""]}","survey-multi-select","29","775810","0.0-8.0-7.0-0.0","54","1","2025-07-09 09:07:16","7701e855f2ef39aa3fd6c71abdc6918a","178.143.32.198","Mozilla/5.0 (Windows NT 10.0; Win64; x64) AppleWebKit/537.36 (KHTML, like Gecko) Chrome/138.0.0.0 Safari/537.36","WebKit","Chrome","138.0.0.0","Windows","10.0","https://app.prolific.com/","sk-HU,sk;q=0.9,hu-HU;q=0.8,hu;q=0.7,en-HU;q=0.6,en;q=0.5,sk-SK;q=0.4,cs;q=0.3,en-US;q=0.2,de;q=0.1","683dda03c88521ebe8cba79e","686d226cabeef709c732f8e1","686e3140c8da06e1c25eb638","683dda03c88521ebe8cba79e","","","[0]","","","","quiz","","","","","","","","","","","","","","","","","","","","","","","","","","","","","","","","","","","","","false","",""
"3430","","<p align='center'><b>INCORRECT.</b> The blue ball always shakes and moves randomly.</p>","0","html-button-response","30","779241","0.0-8.0-7.0-1.0","54","1","2025-07-09 09:07:16","7701e855f2ef39aa3fd6c71abdc6918a","178.143.32.198","Mozilla/5.0 (Windows NT 10.0; Win64; x64) AppleWebKit/537.36 (KHTML, like Gecko) Chrome/138.0.0.0 Safari/537.36","WebKit","Chrome","138.0.0.0","Windows","10.0","https://app.prolific.com/","sk-HU,sk;q=0.9,hu-HU;q=0.8,hu;q=0.7,en-HU;q=0.6,en;q=0.5,sk-SK;q=0.4,cs;q=0.3,en-US;q=0.2,de;q=0.1","683dda03c88521ebe8cba79e","686d226cabeef709c732f8e1","686e3140c8da06e1c25eb638","683dda03c88521ebe8cba79e","","","","","","","","","","","","","","","","","","","","","","","","","","","","","","","","","","","","","","","","","","","","","",""
"6143","","","{""blue_ball"":[""Ball always shakes and moves in a random direction""]}","survey-multi-select","31","785385","0.0-8.0-7.1-0.1","54","1","2025-07-09 09:07:16","7701e855f2ef39aa3fd6c71abdc6918a","178.143.32.198","Mozilla/5.0 (Windows NT 10.0; Win64; x64) AppleWebKit/537.36 (KHTML, like Gecko) Chrome/138.0.0.0 Safari/537.36","WebKit","Chrome","138.0.0.0","Windows","10.0","https://app.prolific.com/","sk-HU,sk;q=0.9,hu-HU;q=0.8,hu;q=0.7,en-HU;q=0.6,en;q=0.5,sk-SK;q=0.4,cs;q=0.3,en-US;q=0.2,de;q=0.1","683dda03c88521ebe8cba79e","686d226cabeef709c732f8e1","686e3140c8da06e1c25eb638","683dda03c88521ebe8cba79e","","","[0]","","","","quiz","","","","","","","","","","","","","","","","","","","","","","","","","","","","","","","","","","","","","true","",""
"5016","","<p align='center'><b>CORRECT!</b> Indeed, the blue ball always shakes and moves in a random direction. Also there is a penalty of -1 point.</p>","0","html-button-response","32","790402","0.0-8.0-7.1-1.1","54","1","2025-07-09 09:07:16","7701e855f2ef39aa3fd6c71abdc6918a","178.143.32.198","Mozilla/5.0 (Windows NT 10.0; Win64; x64) AppleWebKit/537.36 (KHTML, like Gecko) Chrome/138.0.0.0 Safari/537.36","WebKit","Chrome","138.0.0.0","Windows","10.0","https://app.prolific.com/","sk-HU,sk;q=0.9,hu-HU;q=0.8,hu;q=0.7,en-HU;q=0.6,en;q=0.5,sk-SK;q=0.4,cs;q=0.3,en-US;q=0.2,de;q=0.1","683dda03c88521ebe8cba79e","686d226cabeef709c732f8e1","686e3140c8da06e1c25eb638","683dda03c88521ebe8cba79e","","","","","","","","","","","","","","","","","","","","","","","","","","","","","","","","","","","","","","","","","","","","","",""
"4807","","","{""bonus"":[""When I reach 50% of points""]}","survey-multi-select","33","795210","0.0-8.0-8.0-0.0","54","1","2025-07-09 09:07:16","7701e855f2ef39aa3fd6c71abdc6918a","178.143.32.198","Mozilla/5.0 (Windows NT 10.0; Win64; x64) AppleWebKit/537.36 (KHTML, like Gecko) Chrome/138.0.0.0 Safari/537.36","WebKit","Chrome","138.0.0.0","Windows","10.0","https://app.prolific.com/","sk-HU,sk;q=0.9,hu-HU;q=0.8,hu;q=0.7,en-HU;q=0.6,en;q=0.5,sk-SK;q=0.4,cs;q=0.3,en-US;q=0.2,de;q=0.1","683dda03c88521ebe8cba79e","686d226cabeef709c732f8e1","686e3140c8da06e1c25eb638","683dda03c88521ebe8cba79e","","","[0]","","","","quiz","","","","","","","","","","","","","","","","","","","","","","","","","","","","","","","","","","","","","true","",""
"2046","","<p align='center'><b>CORRECT!</b> Indeed, you receive 2 pounds extra when you reach 50% of points.</p>","0","html-button-response","34","797257","0.0-8.0-8.0-1.0","54","1","2025-07-09 09:07:16","7701e855f2ef39aa3fd6c71abdc6918a","178.143.32.198","Mozilla/5.0 (Windows NT 10.0; Win64; x64) AppleWebKit/537.36 (KHTML, like Gecko) Chrome/138.0.0.0 Safari/537.36","WebKit","Chrome","138.0.0.0","Windows","10.0","https://app.prolific.com/","sk-HU,sk;q=0.9,hu-HU;q=0.8,hu;q=0.7,en-HU;q=0.6,en;q=0.5,sk-SK;q=0.4,cs;q=0.3,en-US;q=0.2,de;q=0.1","683dda03c88521ebe8cba79e","686d226cabeef709c732f8e1","686e3140c8da06e1c25eb638","683dda03c88521ebe8cba79e","","","","","","","","","","","","","","","","","","","","","","","","","","","","","","","","","","","","","","","","","","","","","",""
"2760","","","","instructions","35","800017","0.0-8.0-9.0","54","1","2025-07-09 09:07:16","7701e855f2ef39aa3fd6c71abdc6918a","178.143.32.198","Mozilla/5.0 (Windows NT 10.0; Win64; x64) AppleWebKit/537.36 (KHTML, like Gecko) Chrome/138.0.0.0 Safari/537.36","WebKit","Chrome","138.0.0.0","Windows","10.0","https://app.prolific.com/","sk-HU,sk;q=0.9,hu-HU;q=0.8,hu;q=0.7,en-HU;q=0.6,en;q=0.5,sk-SK;q=0.4,cs;q=0.3,en-US;q=0.2,de;q=0.1","683dda03c88521ebe8cba79e","686d226cabeef709c732f8e1","686e3140c8da06e1c25eb638","683dda03c88521ebe8cba79e","","[{""page_index"":0,""viewing_time"":2760}]","","","","","","","","","","","","","","","","","","","","","","","","","","","","","","","","","","","","","","","","","","","",""
"11904","","<p>Before you start with this game please answer the following three questions yourself. </p>
  <p>Through this game, we measure several aspects of your cognitive performance, such as reaction times, multi-tasking capabilities </p>
  <p>and the ability to assess the situation you are in.</p>
  <p></p>
  <p><b>How good do you usually are in such tasks?</b></p>","76","html-slider-response","36","811922","0.0-9.0-0.0","54","1","2025-07-09 09:07:16","7701e855f2ef39aa3fd6c71abdc6918a","178.143.32.198","Mozilla/5.0 (Windows NT 10.0; Win64; x64) AppleWebKit/537.36 (KHTML, like Gecko) Chrome/138.0.0.0 Safari/537.36","WebKit","Chrome","138.0.0.0","Windows","10.0","https://app.prolific.com/","sk-HU,sk;q=0.9,hu-HU;q=0.8,hu;q=0.7,en-HU;q=0.6,en;q=0.5,sk-SK;q=0.4,cs;q=0.3,en-US;q=0.2,de;q=0.1","683dda03c88521ebe8cba79e","686d226cabeef709c732f8e1","686e3140c8da06e1c25eb638","683dda03c88521ebe8cba79e","2025-07-09T09:20:50.262Z","","","","","","PreSkillQ","","","","","","","","","","","","","","","","","","","","","","","","","","","","","","","","","","","","","","50",""
"6863","","<div style=""width:500px;"">
  <p>How well do you think you will perform in this task compared to other participants?</p>
  </div>","40","html-slider-response","37","818786","0.0-9.0-1.0","54","1","2025-07-09 09:07:16","7701e855f2ef39aa3fd6c71abdc6918a","178.143.32.198","Mozilla/5.0 (Windows NT 10.0; Win64; x64) AppleWebKit/537.36 (KHTML, like Gecko) Chrome/138.0.0.0 Safari/537.36","WebKit","Chrome","138.0.0.0","Windows","10.0","https://app.prolific.com/","sk-HU,sk;q=0.9,hu-HU;q=0.8,hu;q=0.7,en-HU;q=0.6,en;q=0.5,sk-SK;q=0.4,cs;q=0.3,en-US;q=0.2,de;q=0.1","683dda03c88521ebe8cba79e","686d226cabeef709c732f8e1","686e3140c8da06e1c25eb638","683dda03c88521ebe8cba79e","2025-07-09T09:20:57.126Z","","","","","","PrePerfQ","","","","","","","","","","","","","","","","","","","","","","","","","","","","","","","","","","","","","","50",""
"4286","","<div style=""width:500px;"">
  <p>What best describes how you currently feel?</p>
  </div>","62","html-slider-response","38","823073","0.0-9.0-2.0","54","1","2025-07-09 09:07:16","7701e855f2ef39aa3fd6c71abdc6918a","178.143.32.198","Mozilla/5.0 (Windows NT 10.0; Win64; x64) AppleWebKit/537.36 (KHTML, like Gecko) Chrome/138.0.0.0 Safari/537.36","WebKit","Chrome","138.0.0.0","Windows","10.0","https://app.prolific.com/","sk-HU,sk;q=0.9,hu-HU;q=0.8,hu;q=0.7,en-HU;q=0.6,en;q=0.5,sk-SK;q=0.4,cs;q=0.3,en-US;q=0.2,de;q=0.1","683dda03c88521ebe8cba79e","686d226cabeef709c732f8e1","686e3140c8da06e1c25eb638","683dda03c88521ebe8cba79e","2025-07-09T09:21:01.413Z","","","","","","PreMotivationQ","","","","","","","","","","","","","","","","","","","","","","","","","","","","","","","","","","","","","","50",""
"","","","","ctl-task-cpt","39","856178","0.0-10.0-0.0","54","1","2025-07-09 09:07:16","7701e855f2ef39aa3fd6c71abdc6918a","178.143.32.198","Mozilla/5.0 (Windows NT 10.0; Win64; x64) AppleWebKit/537.36 (KHTML, like Gecko) Chrome/138.0.0.0 Safari/537.36","WebKit","Chrome","138.0.0.0","Windows","10.0","https://app.prolific.com/","sk-HU,sk;q=0.9,hu-HU;q=0.8,hu;q=0.7,en-HU;q=0.6,en;q=0.5,sk-SK;q=0.4,cs;q=0.3,en-US;q=0.2,de;q=0.1","683dda03c88521ebe8cba79e","686d226cabeef709c732f8e1","686e3140c8da06e1c25eb638","683dda03c88521ebe8cba79e","2025-07-09T09:21:34.518Z","","","","","","","","","","","","","","","","win-only","0","g1:NW,g2:SE","1","1","0","824177.5","1453.8","6457.6","30089","1","4","8","6","1","1","1","1","0","0.007575757575757576","5003.8","3000","1195","[""left"",""up""]","{""num_key_presses"":6,""num_perfect"":6,""num_errors"":0,""num_randdir"":0,""num_randdir_good_moves"":0,""num_whilered"":0,""num_whileblue"":0,""num_blue"":2,""num_good_moves"":5}","[408.57142857142856,416.47767857142856,0.3,408.57142857142856,417.47767857142856,103.6,408.57142857142856,417.47767857142856,208.1,408.57142857142856,417.47767857142856,311.8,408.57142857142856,417.47767857142856,411.9,430.57142857142856,446.47767857142856,511.9,431.57142857142856,445.47767857142856,627.1,431.57142857142856,445.47767857142856,735.7,431.57142857142856,445.47767857142856,838.4,431.57142857142856,444.47767857142856,941.7,431.57142857142856,444.47767857142856,1042,431.57142857142856,444.47767857142856,1142.2,431.57142857142856,444.47767857142856,1242.2,431.57142857142856,444.47767857142856,1342.9,431.57142857142856,444.47767857142856,1451.9,431.57142857142856,444.47767857142856,1552.2,431.57142857142856,444.47767857142856,1653.4,431.57142857142856,444.47767857142856,1757.5,431.57142857142856,444.47767857142856,1857.8,431.57142857142856,444.47767857142856,1961.6,431.57142857142856,444.47767857142856,2061.7,431.57142857142856,444.47767857142856,2161.8,431.57142857142856,444.47767857142856,2268.2,431.57142857142856,444.47767857142856,2372.1,431.57142857142856,444.47767857142856,2485.3,431.57142857142856,444.47767857142856,2585.4,431.57142857142856,444.47767857142856,2686.9,431.57142857142856,444.47767857142856,2787.1,431.57142857142856,444.47767857142856,2887.1,431.57142857142856,444.47767857142856,2992.4,431.57142857142856,444.47767857142856,3103.7,431.57142857142856,444.47767857142856,3205.3,431.57142857142856,444.47767857142856,3307.1,431.57142857142856,444.47767857142856,3411.8,431.57142857142856,444.47767857142856,3516.7,431.57142857142856,444.47767857142856,3617.3,431.57142857142856,444.47767857142856,3717.3,431.57142857142856,444.47767857142856,3822.3,431.57142857142856,444.47767857142856,3922.6,431.57142857142856,444.47767857142856,4022.6,431.57142857142856,444.47767857142856,4122.7,431.57142857142856,444.47767857142856,4235.4,431.57142857142856,444.47767857142856,4336.9,431.57142857142856,444.47767857142856,4438.1,431.57142857142856,444.47767857142856,4542.5,431.57142857142856,444.47767857142856,4652.8,431.57142857142856,444.47767857142856,4756.9,431.57142857142856,444.47767857142856,4861.9,431.57142857142856,444.47767857142856,4961.9]","[5317.3,5317.3,2934.6,2007.7,375,""smooth"",""right"",""right"",""bad_move"",11461,6143.4,2641.1,8449.3,370.6,""smooth"",""up"",""up"",""good_move"",14621.4,3160.1,2677.9,11461.3,482.2,""smooth"",""up"",""up"",""good_move"",17900.9,3279.3,2916.1,14621.7,363.1,""smooth"",""left"",""left"",""good_move"",20404.8,2503.6,2096.5,17901.2,407.1,""smooth"",""left"",""left"",""good_move"",23530.5,3125.5,2715.2,20405,410.3,""smooth"",""left"",""left"",""good_move""]","","",""
"6246","","<div style=""width:500px;"">
  <p>What determined the result of this run?</p>
  </div>","73","html-slider-response","40","862425","0.0-10.0-1.0","54","1","2025-07-09 09:07:16","7701e855f2ef39aa3fd6c71abdc6918a","178.143.32.198","Mozilla/5.0 (Windows NT 10.0; Win64; x64) AppleWebKit/537.36 (KHTML, like Gecko) Chrome/138.0.0.0 Safari/537.36","WebKit","Chrome","138.0.0.0","Windows","10.0","https://app.prolific.com/","sk-HU,sk;q=0.9,hu-HU;q=0.8,hu;q=0.7,en-HU;q=0.6,en;q=0.5,sk-SK;q=0.4,cs;q=0.3,en-US;q=0.2,de;q=0.1","683dda03c88521ebe8cba79e","686d226cabeef709c732f8e1","686e3140c8da06e1c25eb638","683dda03c88521ebe8cba79e","2025-07-09T09:21:40.765Z","","","","","","AttribQ","","","","","","","","","","","","","","","","","","","","","","","","","","","","","","","","","","","","","","50",""
"3496","","<div style=""width:500px;"">
  <p>How much control did you have over the ball?</p>
  </div>","100","html-slider-response","41","865921","0.0-10.0-2.0","54","1","2025-07-09 09:07:16","7701e855f2ef39aa3fd6c71abdc6918a","178.143.32.198","Mozilla/5.0 (Windows NT 10.0; Win64; x64) AppleWebKit/537.36 (KHTML, like Gecko) Chrome/138.0.0.0 Safari/537.36","WebKit","Chrome","138.0.0.0","Windows","10.0","https://app.prolific.com/","sk-HU,sk;q=0.9,hu-HU;q=0.8,hu;q=0.7,en-HU;q=0.6,en;q=0.5,sk-SK;q=0.4,cs;q=0.3,en-US;q=0.2,de;q=0.1","683dda03c88521ebe8cba79e","686d226cabeef709c732f8e1","686e3140c8da06e1c25eb638","683dda03c88521ebe8cba79e","2025-07-09T09:21:44.262Z","","","","","","ControlQ","","","","","","","","","","","","","","","","","","","","","","","","","","","","","","","","","","","","","","50",""
"5343","","<div style=""width:500px;"">
  <p>How would you describe your current emotional state?</p>
  </div>","62","html-slider-response","42","871265","0.0-10.0-3.0","54","1","2025-07-09 09:07:16","7701e855f2ef39aa3fd6c71abdc6918a","178.143.32.198","Mozilla/5.0 (Windows NT 10.0; Win64; x64) AppleWebKit/537.36 (KHTML, like Gecko) Chrome/138.0.0.0 Safari/537.36","WebKit","Chrome","138.0.0.0","Windows","10.0","https://app.prolific.com/","sk-HU,sk;q=0.9,hu-HU;q=0.8,hu;q=0.7,en-HU;q=0.6,en;q=0.5,sk-SK;q=0.4,cs;q=0.3,en-US;q=0.2,de;q=0.1","683dda03c88521ebe8cba79e","686d226cabeef709c732f8e1","686e3140c8da06e1c25eb638","683dda03c88521ebe8cba79e","2025-07-09T09:21:49.605Z","","","","","","StressQ","","","","","","","","","","","","","","","","","","","","","","","","","","","","","","","","","","","","","","50",""
"5559","","<div style=""width:500px;"">
  <p>What best describes how you currently feel?</p>
  </div>","82","html-slider-response","43","876825","0.0-10.0-4.0","54","1","2025-07-09 09:07:16","7701e855f2ef39aa3fd6c71abdc6918a","178.143.32.198","Mozilla/5.0 (Windows NT 10.0; Win64; x64) AppleWebKit/537.36 (KHTML, like Gecko) Chrome/138.0.0.0 Safari/537.36","WebKit","Chrome","138.0.0.0","Windows","10.0","https://app.prolific.com/","sk-HU,sk;q=0.9,hu-HU;q=0.8,hu;q=0.7,en-HU;q=0.6,en;q=0.5,sk-SK;q=0.4,cs;q=0.3,en-US;q=0.2,de;q=0.1","683dda03c88521ebe8cba79e","686d226cabeef709c732f8e1","686e3140c8da06e1c25eb638","683dda03c88521ebe8cba79e","2025-07-09T09:21:55.165Z","","","","","","MotivationQ","","","","","","","","","","","","","","","","","","","","","","","","","","","","","","","","","","","","","","50",""
"","","","","ctl-task-cpt","44","914781","0.0-10.0-0.1","54","1","2025-07-09 09:07:16","7701e855f2ef39aa3fd6c71abdc6918a","178.143.32.198","Mozilla/5.0 (Windows NT 10.0; Win64; x64) AppleWebKit/537.36 (KHTML, like Gecko) Chrome/138.0.0.0 Safari/537.36","WebKit","Chrome","138.0.0.0","Windows","10.0","https://app.prolific.com/","sk-HU,sk;q=0.9,hu-HU;q=0.8,hu;q=0.7,en-HU;q=0.6,en;q=0.5,sk-SK;q=0.4,cs;q=0.3,en-US;q=0.2,de;q=0.1","683dda03c88521ebe8cba79e","686d226cabeef709c732f8e1","686e3140c8da06e1c25eb638","683dda03c88521ebe8cba79e","2025-07-09T09:22:33.121Z","","","","","","","","","","","","","","","","win-only","2","g1:SE,g2:NW","0.9","2","0","877929.8","1623.3","6626.1","34938.6","1","4","4","6","2","4","3","4","1","0.030303030303030304","3115.3","3000","850","[""left"",""up""]","{""num_key_presses"":9,""num_perfect"":7,""num_errors"":1,""num_randdir"":1,""num_randdir_good_moves"":0,""num_whilered"":0,""num_whileblue"":0,""num_blue"":1,""num_good_moves"":7}","[412.57142857142856,412.47767857142856,0.2,412.57142857142856,412.47767857142856,102.9,413.57142857142856,413.47767857142856,203.2,1249.5714285714287,361.47767857142856,316.2,1252.5714285714287,355.47767857142856,417.3,1241.5714285714287,362.47767857142856,517.8,1241.5714285714287,362.47767857142856,622.4,1241.5714285714287,362.47767857142856,732.4,1241.5714285714287,362.47767857142856,834.4,1241.5714285714287,362.47767857142856,937.5,1241.5714285714287,362.47767857142856,1038.3,1241.5714285714287,362.47767857142856,1142.7,1241.5714285714287,362.47767857142856,1243.6,1241.5714285714287,362.47767857142856,1349.4,1241.5714285714287,362.47767857142856,1453,1241.5714285714287,362.47767857142856,1565.7,1241.5714285714287,362.47767857142856,1667.2,1241.5714285714287,362.47767857142856,1768.5,1241.5714285714287,362.47767857142856,1872,1241.5714285714287,362.47767857142856,1972.1,1241.5714285714287,362.47767857142856,2082.5,1241.5714285714287,362.47767857142856,2187.3,1241.5714285714287,362.47767857142856,2287.6,1225.5714285714287,340.47767857142856,2392.1,848.5714285714286,295.47767857142856,2499.3,762.5714285714286,331.47767857142856,2603.4,59.57142857142857,71.47767857142857,2716.3,-57.42857142857143,25.47767857142857,2817.4,19.57142857142857,53.47767857142857,2918.2,97.57142857142857,87.47767857142857,3024.1,86.57142857142857,85.47767857142857,3128.4,86.57142857142857,85.47767857142857,3232.7,1054.5714285714287,161.47767857142856,3333.1,1358.5714285714287,174.47767857142856,3437.3,1358.5714285714287,174.47767857142856,3537.5,1358.5714285714287,174.47767857142856,3650,1358.5714285714287,174.47767857142856,3753,1358.5714285714287,174.47767857142856,3858,1358.5714285714287,174.47767857142856,3958.2,1358.5714285714287,174.47767857142856,4063.3,1358.5714285714287,174.47767857142856,4167.2,1358.5714285714287,174.47767857142856,4267.4,1358.5714285714287,174.47767857142856,4367.4,1358.5714285714287,174.47767857142856,4467.4,1358.5714285714287,174.47767857142856,4567.4,1358.5714285714287,174.47767857142856,4667.5,1358.5714285714287,174.47767857142856,4767.6,1358.5714285714287,174.47767857142856,4867.6,1358.5714285714287,174.47767857142856,4980.8]","[428.1,428.1,1000,0,-571.9,""error"",""-"",""-"",""no_move"",4677.2,4249,2862,1429.4,385.8,""smooth"",""up"",""up"",""good_move"",6277.4,1599.9,1177.3,4677.5,422.6,""smooth"",""up"",""up"",""good_move"",9143.3,2865.8,2501.7,6277.5,364.1,""smooth"",""up"",""up"",""good_move"",11428.1,2284.7,1926.7,9143.4,358,""smooth"",""left"",""left"",""good_move"",13927.6,2499,2152.9,11428.6,346.1,""smooth"",""left"",""left"",""good_move"",17147.8,3220,2869.2,13927.8,350.8,""oops"",""left"",""right"",""bad_move"",20268.4,3120.2,2801.2,17148.2,319,""smooth"",""left"",""left"",""good_move"",28195.1,7926.5,2878.7,24965.3,351.1,""smooth"",""left"",""left"",""good_move""]","","",""
"4364","","<div style=""width:500px;"">
  <p>What determined the result of this run?</p>
  </div>","68","html-slider-response","45","919145","0.0-10.0-1.1","54","1","2025-07-09 09:07:16","7701e855f2ef39aa3fd6c71abdc6918a","178.143.32.198","Mozilla/5.0 (Windows NT 10.0; Win64; x64) AppleWebKit/537.36 (KHTML, like Gecko) Chrome/138.0.0.0 Safari/537.36","WebKit","Chrome","138.0.0.0","Windows","10.0","https://app.prolific.com/","sk-HU,sk;q=0.9,hu-HU;q=0.8,hu;q=0.7,en-HU;q=0.6,en;q=0.5,sk-SK;q=0.4,cs;q=0.3,en-US;q=0.2,de;q=0.1","683dda03c88521ebe8cba79e","686d226cabeef709c732f8e1","686e3140c8da06e1c25eb638","683dda03c88521ebe8cba79e","2025-07-09T09:22:37.486Z","","","","","","AttribQ","","","","","","","","","","","","","","","","","","","","","","","","","","","","","","","","","","","","","","50",""
"4375","","<div style=""width:500px;"">
  <p>How much control did you have over the ball?</p>
  </div>","89","html-slider-response","46","923521","0.0-10.0-2.1","54","1","2025-07-09 09:07:16","7701e855f2ef39aa3fd6c71abdc6918a","178.143.32.198","Mozilla/5.0 (Windows NT 10.0; Win64; x64) AppleWebKit/537.36 (KHTML, like Gecko) Chrome/138.0.0.0 Safari/537.36","WebKit","Chrome","138.0.0.0","Windows","10.0","https://app.prolific.com/","sk-HU,sk;q=0.9,hu-HU;q=0.8,hu;q=0.7,en-HU;q=0.6,en;q=0.5,sk-SK;q=0.4,cs;q=0.3,en-US;q=0.2,de;q=0.1","683dda03c88521ebe8cba79e","686d226cabeef709c732f8e1","686e3140c8da06e1c25eb638","683dda03c88521ebe8cba79e","2025-07-09T09:22:41.861Z","","","","","","ControlQ","","","","","","","","","","","","","","","","","","","","","","","","","","","","","","","","","","","","","","50",""
"4367","","<div style=""width:500px;"">
  <p>How would you describe your current emotional state?</p>
  </div>","64","html-slider-response","47","927889","0.0-10.0-3.1","54","1","2025-07-09 09:07:16","7701e855f2ef39aa3fd6c71abdc6918a","178.143.32.198","Mozilla/5.0 (Windows NT 10.0; Win64; x64) AppleWebKit/537.36 (KHTML, like Gecko) Chrome/138.0.0.0 Safari/537.36","WebKit","Chrome","138.0.0.0","Windows","10.0","https://app.prolific.com/","sk-HU,sk;q=0.9,hu-HU;q=0.8,hu;q=0.7,en-HU;q=0.6,en;q=0.5,sk-SK;q=0.4,cs;q=0.3,en-US;q=0.2,de;q=0.1","683dda03c88521ebe8cba79e","686d226cabeef709c732f8e1","686e3140c8da06e1c25eb638","683dda03c88521ebe8cba79e","2025-07-09T09:22:46.229Z","","","","","","StressQ","","","","","","","","","","","","","","","","","","","","","","","","","","","","","","","","","","","","","","50",""
"3424","","<div style=""width:500px;"">
  <p>What best describes how you currently feel?</p>
  </div>","89","html-slider-response","48","931313","0.0-10.0-4.1","54","1","2025-07-09 09:07:16","7701e855f2ef39aa3fd6c71abdc6918a","178.143.32.198","Mozilla/5.0 (Windows NT 10.0; Win64; x64) AppleWebKit/537.36 (KHTML, like Gecko) Chrome/138.0.0.0 Safari/537.36","WebKit","Chrome","138.0.0.0","Windows","10.0","https://app.prolific.com/","sk-HU,sk;q=0.9,hu-HU;q=0.8,hu;q=0.7,en-HU;q=0.6,en;q=0.5,sk-SK;q=0.4,cs;q=0.3,en-US;q=0.2,de;q=0.1","683dda03c88521ebe8cba79e","686d226cabeef709c732f8e1","686e3140c8da06e1c25eb638","683dda03c88521ebe8cba79e","2025-07-09T09:22:49.653Z","","","","","","MotivationQ","","","","","","","","","","","","","","","","","","","","","","","","","","","","","","","","","","","","","","50",""
"","","","","ctl-task-cpt","49","958129","0.0-10.0-0.2","54","1","2025-07-09 09:07:16","7701e855f2ef39aa3fd6c71abdc6918a","178.143.32.198","Mozilla/5.0 (Windows NT 10.0; Win64; x64) AppleWebKit/537.36 (KHTML, like Gecko) Chrome/138.0.0.0 Safari/537.36","WebKit","Chrome","138.0.0.0","Windows","10.0","https://app.prolific.com/","sk-HU,sk;q=0.9,hu-HU;q=0.8,hu;q=0.7,en-HU;q=0.6,en;q=0.5,sk-SK;q=0.4,cs;q=0.3,en-US;q=0.2,de;q=0.1","683dda03c88521ebe8cba79e","686d226cabeef709c732f8e1","686e3140c8da06e1c25eb638","683dda03c88521ebe8cba79e","2025-07-09T09:23:16.469Z","","","","","","","","","","","","","","","","win-only","2","g1:SE,g2:NW","0.8","3","0","932418","2532.2","7536.6","23796.1","1","4","4","6","2","4","4","8","4","0.06060606060606061","1586","3000","690","[""left"",""up""]","{""num_key_presses"":6,""num_perfect"":5,""num_errors"":0,""num_randdir"":1,""num_randdir_good_moves"":1,""num_whilered"":0,""num_whileblue"":0,""num_blue"":0,""num_good_moves"":6}","[408.57142857142856,413.47767857142856,0.1,408.57142857142856,413.47767857142856,103.5,408.57142857142856,413.47767857142856,204.5,420.57142857142856,420.47767857142856,309.2,505.57142857142856,481.47767857142856,421.2,507.57142857142856,505.47767857142856,522.2,551.5714285714286,601.4776785714286,623.2,699.5714285714286,704.4776785714286,724.3,737.5714285714286,764.4776785714286,828.2,752.5714285714286,770.4776785714286,928.7,16.57142857142857,307.47767857142856,1033.5,5.571428571428569,187.47767857142856,1133.5,73.57142857142857,178.47767857142856,1239.1,72.57142857142857,97.47767857142857,1349.3,73.57142857142857,82.47767857142857,1449.6,73.57142857142857,82.47767857142857,1554.1,73.57142857142857,82.47767857142857,1666.9,73.57142857142857,82.47767857142857,1767.3,73.57142857142857,82.47767857142857,1868.2,75.57142857142857,81.47767857142857,1973.6,1201.5714285714287,278.47767857142856,2073.8,1346.5714285714287,376.47767857142856,2182.9,1316.5714285714287,378.47767857142856,2283.2,1267.5714285714287,395.47767857142856,2384.4,1267.5714285714287,395.47767857142856,2489.1,1267.5714285714287,395.47767857142856,2589.6,1267.5714285714287,395.47767857142856,2698.9,1267.5714285714287,395.47767857142856,2804.1,1267.5714285714287,395.47767857142856,2904.1,1267.5714285714287,395.47767857142856,3004.2,1267.5714285714287,395.47767857142856,3108.5,1267.5714285714287,395.47767857142856,3208.6,1267.5714285714287,395.47767857142856,3308.6,1267.5714285714287,395.47767857142856,3408.7,1267.5714285714287,395.47767857142856,3508.9,1267.5714285714287,395.47767857142856,3615.8,1267.5714285714287,395.47767857142856,3719.2,1267.5714285714287,395.47767857142856,3828.5,1267.5714285714287,395.47767857142856,3931.7,1267.5714285714287,395.47767857142856,4033.2,1267.5714285714287,395.47767857142856,4133.8,1267.5714285714287,395.47767857142856,4238.8,1267.5714285714287,395.47767857142856,4339.7,1267.5714285714287,395.47767857142856,4444.3,1267.5714285714287,395.47767857142856,4548.1,1267.5714285714287,395.47767857142856,4648.9,1267.5714285714287,395.47767857142856,4753.8,1267.5714285714287,395.47767857142856,4854.1,1267.5714285714287,395.47767857142856,4958.9]","[1471.6,1471.6,1000,0,471.6,""oops"",""left"",""up"",""good_move"",3837.2,2365.1,1961,1472.2,404,""smooth"",""left"",""left"",""good_move"",6477,2639.7,2171.1,3837.4,468.6,""smooth"",""left"",""left"",""good_move"",10213,3735.6,3409.4,6477.4,326.2,""smooth"",""up"",""up"",""good_move"",13181.2,2968,2584.8,10213.2,383.2,""smooth"",""left"",""left"",""good_move"",16165.7,2984.4,2700,13181.3,284.4,""smooth"",""up"",""up"",""good_move""]","","",""
"4239","","<div style=""width:500px;"">
  <p>What determined the result of this run?</p>
  </div>","78","html-slider-response","50","962369","0.0-10.0-1.2","54","1","2025-07-09 09:07:16","7701e855f2ef39aa3fd6c71abdc6918a","178.143.32.198","Mozilla/5.0 (Windows NT 10.0; Win64; x64) AppleWebKit/537.36 (KHTML, like Gecko) Chrome/138.0.0.0 Safari/537.36","WebKit","Chrome","138.0.0.0","Windows","10.0","https://app.prolific.com/","sk-HU,sk;q=0.9,hu-HU;q=0.8,hu;q=0.7,en-HU;q=0.6,en;q=0.5,sk-SK;q=0.4,cs;q=0.3,en-US;q=0.2,de;q=0.1","683dda03c88521ebe8cba79e","686d226cabeef709c732f8e1","686e3140c8da06e1c25eb638","683dda03c88521ebe8cba79e","2025-07-09T09:23:20.709Z","","","","","","AttribQ","","","","","","","","","","","","","","","","","","","","","","","","","","","","","","","","","","","","","","50",""
"2959","","<div style=""width:500px;"">
  <p>How much control did you have over the ball?</p>
  </div>","93","html-slider-response","51","965329","0.0-10.0-2.2","54","1","2025-07-09 09:07:16","7701e855f2ef39aa3fd6c71abdc6918a","178.143.32.198","Mozilla/5.0 (Windows NT 10.0; Win64; x64) AppleWebKit/537.36 (KHTML, like Gecko) Chrome/138.0.0.0 Safari/537.36","WebKit","Chrome","138.0.0.0","Windows","10.0","https://app.prolific.com/","sk-HU,sk;q=0.9,hu-HU;q=0.8,hu;q=0.7,en-HU;q=0.6,en;q=0.5,sk-SK;q=0.4,cs;q=0.3,en-US;q=0.2,de;q=0.1","683dda03c88521ebe8cba79e","686d226cabeef709c732f8e1","686e3140c8da06e1c25eb638","683dda03c88521ebe8cba79e","2025-07-09T09:23:23.669Z","","","","","","ControlQ","","","","","","","","","","","","","","","","","","","","","","","","","","","","","","","","","","","","","","50",""
"3824","","<div style=""width:500px;"">
  <p>How would you describe your current emotional state?</p>
  </div>","60","html-slider-response","52","969154","0.0-10.0-3.2","54","1","2025-07-09 09:07:16","7701e855f2ef39aa3fd6c71abdc6918a","178.143.32.198","Mozilla/5.0 (Windows NT 10.0; Win64; x64) AppleWebKit/537.36 (KHTML, like Gecko) Chrome/138.0.0.0 Safari/537.36","WebKit","Chrome","138.0.0.0","Windows","10.0","https://app.prolific.com/","sk-HU,sk;q=0.9,hu-HU;q=0.8,hu;q=0.7,en-HU;q=0.6,en;q=0.5,sk-SK;q=0.4,cs;q=0.3,en-US;q=0.2,de;q=0.1","683dda03c88521ebe8cba79e","686d226cabeef709c732f8e1","686e3140c8da06e1c25eb638","683dda03c88521ebe8cba79e","2025-07-09T09:23:27.494Z","","","","","","StressQ","","","","","","","","","","","","","","","","","","","","","","","","","","","","","","","","","","","","","","50",""
"5046","","<div style=""width:500px;"">
  <p>What best describes how you currently feel?</p>
  </div>","90","html-slider-response","53","974201","0.0-10.0-4.2","54","1","2025-07-09 09:07:16","7701e855f2ef39aa3fd6c71abdc6918a","178.143.32.198","Mozilla/5.0 (Windows NT 10.0; Win64; x64) AppleWebKit/537.36 (KHTML, like Gecko) Chrome/138.0.0.0 Safari/537.36","WebKit","Chrome","138.0.0.0","Windows","10.0","https://app.prolific.com/","sk-HU,sk;q=0.9,hu-HU;q=0.8,hu;q=0.7,en-HU;q=0.6,en;q=0.5,sk-SK;q=0.4,cs;q=0.3,en-US;q=0.2,de;q=0.1","683dda03c88521ebe8cba79e","686d226cabeef709c732f8e1","686e3140c8da06e1c25eb638","683dda03c88521ebe8cba79e","2025-07-09T09:23:32.541Z","","","","","","MotivationQ","","","","","","","","","","","","","","","","","","","","","","","","","","","","","","","","","","","","","","50",""
"","","","","ctl-task-cpt","54","1007610","0.0-10.0-0.3","54","1","2025-07-09 09:07:16","7701e855f2ef39aa3fd6c71abdc6918a","178.143.32.198","Mozilla/5.0 (Windows NT 10.0; Win64; x64) AppleWebKit/537.36 (KHTML, like Gecko) Chrome/138.0.0.0 Safari/537.36","WebKit","Chrome","138.0.0.0","Windows","10.0","https://app.prolific.com/","sk-HU,sk;q=0.9,hu-HU;q=0.8,hu;q=0.7,en-HU;q=0.6,en;q=0.5,sk-SK;q=0.4,cs;q=0.3,en-US;q=0.2,de;q=0.1","683dda03c88521ebe8cba79e","686d226cabeef709c732f8e1","686e3140c8da06e1c25eb638","683dda03c88521ebe8cba79e","2025-07-09T09:24:05.950Z","","","","","","","","","","","","","","","","win-only","3","g1:SW,g2:NE","0.7","4","0","975305.6","2750.9","7751.2","30391.4","1","4","8","6","2","8","7","15","8","0.11363636363636363","1064.2","3000","745","[""up"",""right""]","{""num_key_presses"":8,""num_perfect"":5,""num_errors"":1,""num_randdir"":2,""num_randdir_good_moves"":2,""num_whilered"":0,""num_whileblue"":1,""num_blue"":2,""num_good_moves"":7}","[413.57142857142856,418.47767857142856,0.2,413.57142857142856,418.47767857142856,100.4,413.57142857142856,418.47767857142856,210.2,413.57142857142856,418.47767857142856,310.2,494.57142857142856,299.47767857142856,412,314.57142857142856,462.47767857142856,514.5,407.57142857142856,515.4776785714286,614.5,628.5714285714286,293.47767857142856,715.1,878.5714285714286,68.47767857142857,815.4,845.5714285714286,47.47767857142857,919.4,824.5714285714286,55.47767857142857,1021,824.5714285714286,55.47767857142857,1128.7,824.5714285714286,55.47767857142857,1230.4,973.5714285714286,73.47767857142857,1335.4,1184.5714285714287,118.47767857142857,1435.4,1179.5714285714287,124.47767857142857,1536.1,1152.5714285714287,142.47767857142856,1639.7,1152.5714285714287,142.47767857142856,1743.4,1152.5714285714287,142.47767857142856,1845.2,1152.5714285714287,142.47767857142856,1949.8,1152.5714285714287,142.47767857142856,2049.9,1152.5714285714287,142.47767857142856,2150,1152.5714285714287,142.47767857142856,2250,1152.5714285714287,142.47767857142856,2359.7,1152.5714285714287,142.47767857142856,2459.8,1152.5714285714287,142.47767857142856,2560.1,1152.5714285714287,142.47767857142856,2665,1152.5714285714287,142.47767857142856,2769.7,1152.5714285714287,142.47767857142856,2870.7,1152.5714285714287,142.47767857142856,2977.5,1152.5714285714287,142.47767857142856,3080.5,1152.5714285714287,142.47767857142856,3180.5,1152.5714285714287,142.47767857142856,3280.6,1152.5714285714287,142.47767857142856,3384.6,1152.5714285714287,142.47767857142856,3484.7,1152.5714285714287,142.47767857142856,3585.4,1152.5714285714287,142.47767857142856,3685.5,1152.5714285714287,142.47767857142856,3793.3,1152.5714285714287,142.47767857142856,3893.9,1152.5714285714287,142.47767857142856,3995,1152.5714285714287,142.47767857142856,4096.5,1152.5714285714287,142.47767857142856,4199.6,1152.5714285714287,142.47767857142856,4300.5,1152.5714285714287,142.47767857142856,4409.4,1152.5714285714287,142.47767857142856,4509.4,1152.5714285714287,142.47767857142856,4609.7,1152.5714285714287,142.47767857142856,4714.6,1152.5714285714287,142.47767857142856,4814.9,1152.5714285714287,142.47767857142856,4915]","[1431.2,1431.2,1000,0,431.2,""smooth"",""up"",""up"",""good_move"",4112.9,2681.3,2345.8,1431.6,335.5,""smooth"",""up"",""up"",""good_move"",6554.5,2441.4,2099.5,4113.1,341.9,""smooth"",""right"",""right"",""good_move"",9406.9,2852,2548.7,6554.9,303.3,""oops"",""right"",""up"",""good_move"",12111.5,2704.4,2362.8,9407.1,341.6,""while_blue"",""right"",""left"",""bad_move"",14416.5,2304.6,1904.9,12111.9,399.7,""smooth"",""right"",""right"",""good_move"",16823.1,2406.2,1990.4,14416.9,415.8,""oops"",""right"",""right"",""good_move"",22551.8,5728.4,1085.9,21170.7,295.3,""smooth"",""right"",""right"",""good_move""]","","",""
"3542","","<div style=""width:500px;"">
  <p>What determined the result of this run?</p>
  </div>","69","html-slider-response","55","1011154","0.0-10.0-1.3","54","1","2025-07-09 09:07:16","7701e855f2ef39aa3fd6c71abdc6918a","178.143.32.198","Mozilla/5.0 (Windows NT 10.0; Win64; x64) AppleWebKit/537.36 (KHTML, like Gecko) Chrome/138.0.0.0 Safari/537.36","WebKit","Chrome","138.0.0.0","Windows","10.0","https://app.prolific.com/","sk-HU,sk;q=0.9,hu-HU;q=0.8,hu;q=0.7,en-HU;q=0.6,en;q=0.5,sk-SK;q=0.4,cs;q=0.3,en-US;q=0.2,de;q=0.1","683dda03c88521ebe8cba79e","686d226cabeef709c732f8e1","686e3140c8da06e1c25eb638","683dda03c88521ebe8cba79e","2025-07-09T09:24:09.494Z","","","","","","AttribQ","","","","","","","","","","","","","","","","","","","","","","","","","","","","","","","","","","","","","","50",""
"4272","","<div style=""width:500px;"">
  <p>How much control did you have over the ball?</p>
  </div>","86","html-slider-response","56","1015426","0.0-10.0-2.3","54","1","2025-07-09 09:07:16","7701e855f2ef39aa3fd6c71abdc6918a","178.143.32.198","Mozilla/5.0 (Windows NT 10.0; Win64; x64) AppleWebKit/537.36 (KHTML, like Gecko) Chrome/138.0.0.0 Safari/537.36","WebKit","Chrome","138.0.0.0","Windows","10.0","https://app.prolific.com/","sk-HU,sk;q=0.9,hu-HU;q=0.8,hu;q=0.7,en-HU;q=0.6,en;q=0.5,sk-SK;q=0.4,cs;q=0.3,en-US;q=0.2,de;q=0.1","683dda03c88521ebe8cba79e","686d226cabeef709c732f8e1","686e3140c8da06e1c25eb638","683dda03c88521ebe8cba79e","2025-07-09T09:24:13.766Z","","","","","","ControlQ","","","","","","","","","","","","","","","","","","","","","","","","","","","","","","","","","","","","","","50",""
"3574","","<div style=""width:500px;"">
  <p>How would you describe your current emotional state?</p>
  </div>","66","html-slider-response","57","1019001","0.0-10.0-3.3","54","1","2025-07-09 09:07:16","7701e855f2ef39aa3fd6c71abdc6918a","178.143.32.198","Mozilla/5.0 (Windows NT 10.0; Win64; x64) AppleWebKit/537.36 (KHTML, like Gecko) Chrome/138.0.0.0 Safari/537.36","WebKit","Chrome","138.0.0.0","Windows","10.0","https://app.prolific.com/","sk-HU,sk;q=0.9,hu-HU;q=0.8,hu;q=0.7,en-HU;q=0.6,en;q=0.5,sk-SK;q=0.4,cs;q=0.3,en-US;q=0.2,de;q=0.1","683dda03c88521ebe8cba79e","686d226cabeef709c732f8e1","686e3140c8da06e1c25eb638","683dda03c88521ebe8cba79e","2025-07-09T09:24:17.341Z","","","","","","StressQ","","","","","","","","","","","","","","","","","","","","","","","","","","","","","","","","","","","","","","50",""
"3432","","<div style=""width:500px;"">
  <p>What best describes how you currently feel?</p>
  </div>","91","html-slider-response","58","1022434","0.0-10.0-4.3","54","1","2025-07-09 09:07:16","7701e855f2ef39aa3fd6c71abdc6918a","178.143.32.198","Mozilla/5.0 (Windows NT 10.0; Win64; x64) AppleWebKit/537.36 (KHTML, like Gecko) Chrome/138.0.0.0 Safari/537.36","WebKit","Chrome","138.0.0.0","Windows","10.0","https://app.prolific.com/","sk-HU,sk;q=0.9,hu-HU;q=0.8,hu;q=0.7,en-HU;q=0.6,en;q=0.5,sk-SK;q=0.4,cs;q=0.3,en-US;q=0.2,de;q=0.1","683dda03c88521ebe8cba79e","686d226cabeef709c732f8e1","686e3140c8da06e1c25eb638","683dda03c88521ebe8cba79e","2025-07-09T09:24:20.774Z","","","","","","MotivationQ","","","","","","","","","","","","","","","","","","","","","","","","","","","","","","","","","","","","","","50",""
"","","","","ctl-task-cpt","59","1077449","0.0-10.0-0.4","54","1","2025-07-09 09:07:16","7701e855f2ef39aa3fd6c71abdc6918a","178.143.32.198","Mozilla/5.0 (Windows NT 10.0; Win64; x64) AppleWebKit/537.36 (KHTML, like Gecko) Chrome/138.0.0.0 Safari/537.36","WebKit","Chrome","138.0.0.0","Windows","10.0","https://app.prolific.com/","sk-HU,sk;q=0.9,hu-HU;q=0.8,hu;q=0.7,en-HU;q=0.6,en;q=0.5,sk-SK;q=0.4,cs;q=0.3,en-US;q=0.2,de;q=0.1","683dda03c88521ebe8cba79e","686d226cabeef709c732f8e1","686e3140c8da06e1c25eb638","683dda03c88521ebe8cba79e","2025-07-09T09:25:15.789Z","","","","","","","","","","","","","","","","win-only","3","g1:SW,g2:NE","0.6","5","0","1023538","1918.9","6919.4","51995.7","1","4","4","6","2","4","4","19","15","0.14393939393939395","984","3000","220","[""up"",""right""]","{""num_key_presses"":8,""num_perfect"":5,""num_errors"":0,""num_randdir"":3,""num_randdir_good_moves"":2,""num_whilered"":0,""num_whileblue"":0,""num_blue"":6,""num_good_moves"":7}","[416.57142857142856,411.47767857142856,0.2,416.57142857142856,411.47767857142856,102.2,416.57142857142856,411.47767857142856,211,419.57142857142856,404.47767857142856,311.3,688.5714285714286,169.47767857142856,411.4,569.5714285714286,254.47767857142856,513.4,521.5714285714286,287.47767857142856,617.1,762.5714285714286,130.47767857142856,717.4,772.5714285714286,118.47767857142857,817.7,790.5714285714286,89.47767857142857,923.2,792.5714285714286,88.47767857142857,1026.8,795.5714285714286,88.47767857142857,1137.5,1346.5714285714287,120.47767857142857,1244.6,1342.5714285714287,137.47767857142856,1344.9,1342.5714285714287,137.47767857142856,1445.1,1342.5714285714287,137.47767857142856,1546.5,1342.5714285714287,137.47767857142856,1647.4,1342.5714285714287,137.47767857142856,1751.7,1342.5714285714287,137.47767857142856,1852.1,1342.5714285714287,137.47767857142856,1960.8,1342.5714285714287,137.47767857142856,2062.3,1342.5714285714287,137.47767857142856,2166.5,1342.5714285714287,137.47767857142856,2266.9,1342.5714285714287,137.47767857142856,2367.7,1342.5714285714287,137.47767857142856,2468.1,1342.5714285714287,137.47767857142856,2577,1342.5714285714287,137.47767857142856,2677,1342.5714285714287,137.47767857142856,2781.8,1342.5714285714287,137.47767857142856,2888.3,1342.5714285714287,137.47767857142856,2991.8,1342.5714285714287,137.47767857142856,3092.8,1342.5714285714287,137.47767857142856,3196.9,1342.5714285714287,137.47767857142856,3297.4,1342.5714285714287,137.47767857142856,3401.7,1342.5714285714287,137.47767857142856,3502.1,1342.5714285714287,137.47767857142856,3602.2,1342.5714285714287,137.47767857142856,3710.5,1342.5714285714287,137.47767857142856,3811,1342.5714285714287,137.47767857142856,3912.4,1342.5714285714287,137.47767857142856,4016.9,1342.5714285714287,137.47767857142856,4126.8,1342.5714285714287,137.47767857142856,4226.8,1342.5714285714287,137.47767857142856,4337.8,1342.5714285714287,137.47767857142856,4447,1342.5714285714287,137.47767857142856,4552,1342.5714285714287,137.47767857142856,4652,1342.5714285714287,137.47767857142856,4752.1,1342.5714285714287,137.47767857142856,4861.3,1342.5714285714287,137.47767857142856,4966.7]","[1414.5,1414.5,1000,0,414.5,""smooth"",""right"",""right"",""good_move"",15743.5,14328.8,3579.4,11796.7,367.4,""smooth"",""right"",""right"",""good_move"",22686.8,6942.8,2662,19516.7,508.1,""smooth"",""up"",""up"",""good_move"",26118.5,3431.3,3076.5,22687.2,354.8,""oops"",""right"",""up"",""good_move"",29278.5,3159.8,2808.1,26118.7,351.7,""oops"",""right"",""left"",""bad_move"",35839.1,6560.4,2615.3,32866.3,357.5,""oops"",""right"",""right"",""good_move"",41398.5,5559,1883.4,39147.5,367.6,""smooth"",""right"",""right"",""good_move"",44991,3592.3,3290.5,41398.7,301.8,""smooth"",""up"",""up"",""good_move""]","","",""
"9527","","<div style=""width:500px;"">
  <p>What determined the result of this run?</p>
  </div>","67","html-slider-response","60","1086977","0.0-10.0-1.4","54","1","2025-07-09 09:07:16","7701e855f2ef39aa3fd6c71abdc6918a","178.143.32.198","Mozilla/5.0 (Windows NT 10.0; Win64; x64) AppleWebKit/537.36 (KHTML, like Gecko) Chrome/138.0.0.0 Safari/537.36","WebKit","Chrome","138.0.0.0","Windows","10.0","https://app.prolific.com/","sk-HU,sk;q=0.9,hu-HU;q=0.8,hu;q=0.7,en-HU;q=0.6,en;q=0.5,sk-SK;q=0.4,cs;q=0.3,en-US;q=0.2,de;q=0.1","683dda03c88521ebe8cba79e","686d226cabeef709c732f8e1","686e3140c8da06e1c25eb638","683dda03c88521ebe8cba79e","2025-07-09T09:25:25.317Z","","","","","","AttribQ","","","","","","","","","","","","","","","","","","","","","","","","","","","","","","","","","","","","","","50",""
"6519","","<div style=""width:500px;"">
  <p>How much control did you have over the ball?</p>
  </div>","80","html-slider-response","61","1093497","0.0-10.0-2.4","54","1","2025-07-09 09:07:16","7701e855f2ef39aa3fd6c71abdc6918a","178.143.32.198","Mozilla/5.0 (Windows NT 10.0; Win64; x64) AppleWebKit/537.36 (KHTML, like Gecko) Chrome/138.0.0.0 Safari/537.36","WebKit","Chrome","138.0.0.0","Windows","10.0","https://app.prolific.com/","sk-HU,sk;q=0.9,hu-HU;q=0.8,hu;q=0.7,en-HU;q=0.6,en;q=0.5,sk-SK;q=0.4,cs;q=0.3,en-US;q=0.2,de;q=0.1","683dda03c88521ebe8cba79e","686d226cabeef709c732f8e1","686e3140c8da06e1c25eb638","683dda03c88521ebe8cba79e","2025-07-09T09:25:31.837Z","","","","","","ControlQ","","","","","","","","","","","","","","","","","","","","","","","","","","","","","","","","","","","","","","50",""
"2591","","<div style=""width:500px;"">
  <p>How would you describe your current emotional state?</p>
  </div>","70","html-slider-response","62","1096089","0.0-10.0-3.4","54","1","2025-07-09 09:07:16","7701e855f2ef39aa3fd6c71abdc6918a","178.143.32.198","Mozilla/5.0 (Windows NT 10.0; Win64; x64) AppleWebKit/537.36 (KHTML, like Gecko) Chrome/138.0.0.0 Safari/537.36","WebKit","Chrome","138.0.0.0","Windows","10.0","https://app.prolific.com/","sk-HU,sk;q=0.9,hu-HU;q=0.8,hu;q=0.7,en-HU;q=0.6,en;q=0.5,sk-SK;q=0.4,cs;q=0.3,en-US;q=0.2,de;q=0.1","683dda03c88521ebe8cba79e","686d226cabeef709c732f8e1","686e3140c8da06e1c25eb638","683dda03c88521ebe8cba79e","2025-07-09T09:25:34.429Z","","","","","","StressQ","","","","","","","","","","","","","","","","","","","","","","","","","","","","","","","","","","","","","","50",""
"3383","","<div style=""width:500px;"">
  <p>What best describes how you currently feel?</p>
  </div>","93","html-slider-response","63","1099473","0.0-10.0-4.4","54","1","2025-07-09 09:07:16","7701e855f2ef39aa3fd6c71abdc6918a","178.143.32.198","Mozilla/5.0 (Windows NT 10.0; Win64; x64) AppleWebKit/537.36 (KHTML, like Gecko) Chrome/138.0.0.0 Safari/537.36","WebKit","Chrome","138.0.0.0","Windows","10.0","https://app.prolific.com/","sk-HU,sk;q=0.9,hu-HU;q=0.8,hu;q=0.7,en-HU;q=0.6,en;q=0.5,sk-SK;q=0.4,cs;q=0.3,en-US;q=0.2,de;q=0.1","683dda03c88521ebe8cba79e","686d226cabeef709c732f8e1","686e3140c8da06e1c25eb638","683dda03c88521ebe8cba79e","2025-07-09T09:25:37.813Z","","","","","","MotivationQ","","","","","","","","","","","","","","","","","","","","","","","","","","","","","","","","","","","","","","50",""
"","","","","ctl-task-cpt","64","1124762","0.0-10.0-0.5","54","1","2025-07-09 09:07:16","7701e855f2ef39aa3fd6c71abdc6918a","178.143.32.198","Mozilla/5.0 (Windows NT 10.0; Win64; x64) AppleWebKit/537.36 (KHTML, like Gecko) Chrome/138.0.0.0 Safari/537.36","WebKit","Chrome","138.0.0.0","Windows","10.0","https://app.prolific.com/","sk-HU,sk;q=0.9,hu-HU;q=0.8,hu;q=0.7,en-HU;q=0.6,en;q=0.5,sk-SK;q=0.4,cs;q=0.3,en-US;q=0.2,de;q=0.1","683dda03c88521ebe8cba79e","686d226cabeef709c732f8e1","686e3140c8da06e1c25eb638","683dda03c88521ebe8cba79e","2025-07-09T09:26:03.102Z","","","","","","","","","","","","","","","","win-only","2","g1:SE,g2:NW","0.5","6","0","1100577.3","1719.6","6725.9","22270.5","1","4","8","6","2","8","8","27","19","0.20454545454545456","753.9","3000","1050","[""left"",""up""]","{""num_key_presses"":6,""num_perfect"":4,""num_errors"":0,""num_randdir"":2,""num_randdir_good_moves"":2,""num_whilered"":0,""num_whileblue"":0,""num_blue"":0,""num_good_moves"":6}","[416.57142857142856,417.47767857142856,0.4,416.57142857142856,417.47767857142856,100.7,416.57142857142856,417.47767857142856,205.1,490.57142857142856,382.47767857142856,307.2,556.5714285714286,363.47767857142856,411.1,66.57142857142857,73.47767857142857,523.9,46.57142857142857,36.47767857142857,626.7,46.57142857142857,34.47767857142857,726.8,46.57142857142857,34.47767857142857,831.1,46.57142857142857,34.47767857142857,932,407.57142857142856,132.47767857142856,1040.9,753.5714285714286,236.47767857142856,1141,750.5714285714286,245.47767857142856,1246.5,750.5714285714286,245.47767857142856,1355.2,750.5714285714286,245.47767857142856,1456.5,750.5714285714286,245.47767857142856,1562.1,750.5714285714286,245.47767857142856,1678.9,750.5714285714286,245.47767857142856,1780.9,750.5714285714286,245.47767857142856,1889.5,750.5714285714286,245.47767857142856,1991.7,750.5714285714286,245.47767857142856,2096.4,750.5714285714286,245.47767857142856,2196.4,750.5714285714286,245.47767857142856,2305.1,750.5714285714286,245.47767857142856,2405.5,750.5714285714286,245.47767857142856,2506.6,750.5714285714286,245.47767857142856,2611.8,750.5714285714286,245.47767857142856,2722.9,750.5714285714286,245.47767857142856,2825.9,750.5714285714286,245.47767857142856,2926.7,750.5714285714286,245.47767857142856,3039.3,750.5714285714286,245.47767857142856,3140.4,750.5714285714286,245.47767857142856,3241.7,750.5714285714286,245.47767857142856,3347.3,750.5714285714286,245.47767857142856,3455.5,750.5714285714286,245.47767857142856,3557.6,750.5714285714286,245.47767857142856,3661.4,750.5714285714286,245.47767857142856,3767.6,750.5714285714286,245.47767857142856,3871,750.5714285714286,245.47767857142856,3975.3,750.5714285714286,245.47767857142856,4076.4,750.5714285714286,245.47767857142856,4188.8,750.5714285714286,245.47767857142856,4289.8,750.5714285714286,245.47767857142856,4399.2,750.5714285714286,245.47767857142856,4505.1,750.5714285714286,245.47767857142856,4605.4,750.5714285714286,245.47767857142856,4705.5,750.5714285714286,245.47767857142856,4805.5,750.5714285714286,245.47767857142856,4905.6]","[1441.3,1441.3,1000,0,441.3,""smooth"",""up"",""up"",""good_move"",4385.1,2943.6,2541.7,1441.5,401.9,""oops"",""up"",""up"",""good_move"",6656.7,2271.4,1926.2,4385.3,345.2,""oops"",""left"",""left"",""good_move"",9147.4,2490.1,2136.8,6657.3,353.3,""smooth"",""left"",""left"",""good_move"",11969,2821.5,2396,9147.5,425.5,""smooth"",""up"",""up"",""good_move"",15417.4,3448.2,3094.8,11969.2,353.4,""smooth"",""left"",""left"",""good_move""]","","",""
"2358","","<div style=""width:500px;"">
  <p>What determined the result of this run?</p>
  </div>","89","html-slider-response","65","1127121","0.0-10.0-1.5","54","1","2025-07-09 09:07:16","7701e855f2ef39aa3fd6c71abdc6918a","178.143.32.198","Mozilla/5.0 (Windows NT 10.0; Win64; x64) AppleWebKit/537.36 (KHTML, like Gecko) Chrome/138.0.0.0 Safari/537.36","WebKit","Chrome","138.0.0.0","Windows","10.0","https://app.prolific.com/","sk-HU,sk;q=0.9,hu-HU;q=0.8,hu;q=0.7,en-HU;q=0.6,en;q=0.5,sk-SK;q=0.4,cs;q=0.3,en-US;q=0.2,de;q=0.1","683dda03c88521ebe8cba79e","686d226cabeef709c732f8e1","686e3140c8da06e1c25eb638","683dda03c88521ebe8cba79e","2025-07-09T09:26:05.461Z","","","","","","AttribQ","","","","","","","","","","","","","","","","","","","","","","","","","","","","","","","","","","","","","","50",""
"2071","","<div style=""width:500px;"">
  <p>How much control did you have over the ball?</p>
  </div>","100","html-slider-response","66","1129193","0.0-10.0-2.5","54","1","2025-07-09 09:07:16","7701e855f2ef39aa3fd6c71abdc6918a","178.143.32.198","Mozilla/5.0 (Windows NT 10.0; Win64; x64) AppleWebKit/537.36 (KHTML, like Gecko) Chrome/138.0.0.0 Safari/537.36","WebKit","Chrome","138.0.0.0","Windows","10.0","https://app.prolific.com/","sk-HU,sk;q=0.9,hu-HU;q=0.8,hu;q=0.7,en-HU;q=0.6,en;q=0.5,sk-SK;q=0.4,cs;q=0.3,en-US;q=0.2,de;q=0.1","683dda03c88521ebe8cba79e","686d226cabeef709c732f8e1","686e3140c8da06e1c25eb638","683dda03c88521ebe8cba79e","2025-07-09T09:26:07.533Z","","","","","","ControlQ","","","","","","","","","","","","","","","","","","","","","","","","","","","","","","","","","","","","","","50",""
"3328","","<div style=""width:500px;"">
  <p>How would you describe your current emotional state?</p>
  </div>","44","html-slider-response","67","1132521","0.0-10.0-3.5","54","1","2025-07-09 09:07:16","7701e855f2ef39aa3fd6c71abdc6918a","178.143.32.198","Mozilla/5.0 (Windows NT 10.0; Win64; x64) AppleWebKit/537.36 (KHTML, like Gecko) Chrome/138.0.0.0 Safari/537.36","WebKit","Chrome","138.0.0.0","Windows","10.0","https://app.prolific.com/","sk-HU,sk;q=0.9,hu-HU;q=0.8,hu;q=0.7,en-HU;q=0.6,en;q=0.5,sk-SK;q=0.4,cs;q=0.3,en-US;q=0.2,de;q=0.1","683dda03c88521ebe8cba79e","686d226cabeef709c732f8e1","686e3140c8da06e1c25eb638","683dda03c88521ebe8cba79e","2025-07-09T09:26:10.861Z","","","","","","StressQ","","","","","","","","","","","","","","","","","","","","","","","","","","","","","","","","","","","","","","50",""
"2623","","<div style=""width:500px;"">
  <p>What best describes how you currently feel?</p>
  </div>","94","html-slider-response","68","1135145","0.0-10.0-4.5","54","1","2025-07-09 09:07:16","7701e855f2ef39aa3fd6c71abdc6918a","178.143.32.198","Mozilla/5.0 (Windows NT 10.0; Win64; x64) AppleWebKit/537.36 (KHTML, like Gecko) Chrome/138.0.0.0 Safari/537.36","WebKit","Chrome","138.0.0.0","Windows","10.0","https://app.prolific.com/","sk-HU,sk;q=0.9,hu-HU;q=0.8,hu;q=0.7,en-HU;q=0.6,en;q=0.5,sk-SK;q=0.4,cs;q=0.3,en-US;q=0.2,de;q=0.1","683dda03c88521ebe8cba79e","686d226cabeef709c732f8e1","686e3140c8da06e1c25eb638","683dda03c88521ebe8cba79e","2025-07-09T09:26:13.486Z","","","","","","MotivationQ","","","","","","","","","","","","","","","","","","","","","","","","","","","","","","","","","","","","","","50",""
"","","","","ctl-task-cpt","69","1179489","0.0-10.0-0.6","54","1","2025-07-09 09:07:16","7701e855f2ef39aa3fd6c71abdc6918a","178.143.32.198","Mozilla/5.0 (Windows NT 10.0; Win64; x64) AppleWebKit/537.36 (KHTML, like Gecko) Chrome/138.0.0.0 Safari/537.36","WebKit","Chrome","138.0.0.0","Windows","10.0","https://app.prolific.com/","sk-HU,sk;q=0.9,hu-HU;q=0.8,hu;q=0.7,en-HU;q=0.6,en;q=0.5,sk-SK;q=0.4,cs;q=0.3,en-US;q=0.2,de;q=0.1","683dda03c88521ebe8cba79e","686d226cabeef709c732f8e1","686e3140c8da06e1c25eb638","683dda03c88521ebe8cba79e","2025-07-09T09:26:57.829Z","","","","","","","","","","","","","","","","win-only","0","g1:NW,g2:SE","0.4","7","0","1136250.1","1518.8","6522.1","41325.6","1","4","8","6","2","-8","-8","19","27","0.14393939393939395","800.6","3000","-2995","[""down"",""right""]","{""num_key_presses"":8,""num_perfect"":3,""num_errors"":0,""num_randdir"":5,""num_randdir_good_moves"":3,""num_whilered"":0,""num_whileblue"":0,""num_blue"":3,""num_good_moves"":6}","[421.57142857142856,417.47767857142856,0.2,421.57142857142856,417.47767857142856,103.3,421.57142857142856,417.47767857142856,207.1,421.57142857142856,417.47767857142856,307.4,421.57142857142856,417.47767857142856,407.7,783.5714285714286,609.4776785714286,513.2,805.5714285714286,692.4776785714286,614,789.5714285714286,740.4776785714286,716.6,781.5714285714286,751.4776785714286,816.6,781.5714285714286,751.4776785714286,917.3,894.5714285714286,729.4776785714286,1021.7,1156.5714285714287,660.4776785714286,1121.7,1152.5714285714287,660.4776785714286,1222.7,1152.5714285714287,660.4776785714286,1327.3,1152.5714285714287,660.4776785714286,1432.7,1152.5714285714287,660.4776785714286,1533,1152.5714285714287,660.4776785714286,1637.3,1152.5714285714287,660.4776785714286,1741.3,1152.5714285714287,660.4776785714286,1842.7,1152.5714285714287,660.4776785714286,1947.3,1152.5714285714287,660.4776785714286,2052.6,1152.5714285714287,660.4776785714286,2157.7,1152.5714285714287,660.4776785714286,2258.6,1152.5714285714287,660.4776785714286,2363.1,1152.5714285714287,660.4776785714286,2467.7,1152.5714285714287,660.4776785714286,2571.5,1152.5714285714287,660.4776785714286,2672.9,1152.5714285714287,660.4776785714286,2777,1152.5714285714287,660.4776785714286,2877.3,1152.5714285714287,660.4776785714286,2977.5,1152.5714285714287,660.4776785714286,3082.2,1152.5714285714287,660.4776785714286,3183.6,1152.5714285714287,660.4776785714286,3286.3,1152.5714285714287,660.4776785714286,3387.4,1152.5714285714287,660.4776785714286,3493.4,1152.5714285714287,660.4776785714286,3596.9,1152.5714285714287,660.4776785714286,3697.3,1152.5714285714287,660.4776785714286,3797.5,1152.5714285714287,660.4776785714286,3901.8,1152.5714285714287,660.4776785714286,4003.8,1152.5714285714287,660.4776785714286,4107.3,1152.5714285714287,660.4776785714286,4208.1,1152.5714285714287,660.4776785714286,4312.3,1152.5714285714287,660.4776785714286,4412.8,1152.5714285714287,660.4776785714286,4516.9,1152.5714285714287,660.4776785714286,4617.4,1152.5714285714287,660.4776785714286,4718.3,1152.5714285714287,660.4776785714286,4822.1,1152.5714285714287,660.4776785714286,4922.6]","[1364.2,1364.2,1000,0,364.2,""oops"",""right"",""right"",""good_move"",4427.7,3062.9,2705.6,1364.8,357.3,""smooth"",""down"",""down"",""good_move"",10579.8,6151.5,2623,7623.4,333.4,""oops"",""down"",""down"",""good_move"",16452.6,5872.5,2419.5,13704.4,328.7,""oops"",""right"",""left"",""bad_move"",19316.1,2863.3,2421.6,16452.8,441.7,""oops"",""right"",""right"",""good_move"",22267.6,2951.1,2641,19316.5,310.1,""smooth"",""right"",""right"",""good_move"",25236.2,2968.4,2554,22267.8,414.4,""oops"",""down"",""left"",""bad_move"",28572.1,3335.6,3005.5,25236.5,330.1,""smooth"",""right"",""right"",""good_move""]","","",""
"7823","","<div style=""width:500px;"">
  <p>What determined the result of this run?</p>
  </div>","23","html-slider-response","70","1187313","0.0-10.0-1.6","54","1","2025-07-09 09:07:16","7701e855f2ef39aa3fd6c71abdc6918a","178.143.32.198","Mozilla/5.0 (Windows NT 10.0; Win64; x64) AppleWebKit/537.36 (KHTML, like Gecko) Chrome/138.0.0.0 Safari/537.36","WebKit","Chrome","138.0.0.0","Windows","10.0","https://app.prolific.com/","sk-HU,sk;q=0.9,hu-HU;q=0.8,hu;q=0.7,en-HU;q=0.6,en;q=0.5,sk-SK;q=0.4,cs;q=0.3,en-US;q=0.2,de;q=0.1","683dda03c88521ebe8cba79e","686d226cabeef709c732f8e1","686e3140c8da06e1c25eb638","683dda03c88521ebe8cba79e","2025-07-09T09:27:05.653Z","","","","","","AttribQ","","","","","","","","","","","","","","","","","","","","","","","","","","","","","","","","","","","","","","50",""
"4303","","<div style=""width:500px;"">
  <p>How much control did you have over the ball?</p>
  </div>","28","html-slider-response","71","1191617","0.0-10.0-2.6","54","1","2025-07-09 09:07:16","7701e855f2ef39aa3fd6c71abdc6918a","178.143.32.198","Mozilla/5.0 (Windows NT 10.0; Win64; x64) AppleWebKit/537.36 (KHTML, like Gecko) Chrome/138.0.0.0 Safari/537.36","WebKit","Chrome","138.0.0.0","Windows","10.0","https://app.prolific.com/","sk-HU,sk;q=0.9,hu-HU;q=0.8,hu;q=0.7,en-HU;q=0.6,en;q=0.5,sk-SK;q=0.4,cs;q=0.3,en-US;q=0.2,de;q=0.1","683dda03c88521ebe8cba79e","686d226cabeef709c732f8e1","686e3140c8da06e1c25eb638","683dda03c88521ebe8cba79e","2025-07-09T09:27:09.957Z","","","","","","ControlQ","","","","","","","","","","","","","","","","","","","","","","","","","","","","","","","","","","","","","","50",""
"4023","","<div style=""width:500px;"">
  <p>How would you describe your current emotional state?</p>
  </div>","95","html-slider-response","72","1195641","0.0-10.0-3.6","54","1","2025-07-09 09:07:16","7701e855f2ef39aa3fd6c71abdc6918a","178.143.32.198","Mozilla/5.0 (Windows NT 10.0; Win64; x64) AppleWebKit/537.36 (KHTML, like Gecko) Chrome/138.0.0.0 Safari/537.36","WebKit","Chrome","138.0.0.0","Windows","10.0","https://app.prolific.com/","sk-HU,sk;q=0.9,hu-HU;q=0.8,hu;q=0.7,en-HU;q=0.6,en;q=0.5,sk-SK;q=0.4,cs;q=0.3,en-US;q=0.2,de;q=0.1","683dda03c88521ebe8cba79e","686d226cabeef709c732f8e1","686e3140c8da06e1c25eb638","683dda03c88521ebe8cba79e","2025-07-09T09:27:13.982Z","","","","","","StressQ","","","","","","","","","","","","","","","","","","","","","","","","","","","","","","","","","","","","","","50",""
"4783","","<div style=""width:500px;"">
  <p>What best describes how you currently feel?</p>
  </div>","74","html-slider-response","73","1200425","0.0-10.0-4.6","54","1","2025-07-09 09:07:16","7701e855f2ef39aa3fd6c71abdc6918a","178.143.32.198","Mozilla/5.0 (Windows NT 10.0; Win64; x64) AppleWebKit/537.36 (KHTML, like Gecko) Chrome/138.0.0.0 Safari/537.36","WebKit","Chrome","138.0.0.0","Windows","10.0","https://app.prolific.com/","sk-HU,sk;q=0.9,hu-HU;q=0.8,hu;q=0.7,en-HU;q=0.6,en;q=0.5,sk-SK;q=0.4,cs;q=0.3,en-US;q=0.2,de;q=0.1","683dda03c88521ebe8cba79e","686d226cabeef709c732f8e1","686e3140c8da06e1c25eb638","683dda03c88521ebe8cba79e","2025-07-09T09:27:18.765Z","","","","","","MotivationQ","","","","","","","","","","","","","","","","","","","","","","","","","","","","","","","","","","","","","","50",""
"","","","","ctl-task-cpt","74","1253204","0.0-10.0-0.7","54","1","2025-07-09 09:07:16","7701e855f2ef39aa3fd6c71abdc6918a","178.143.32.198","Mozilla/5.0 (Windows NT 10.0; Win64; x64) AppleWebKit/537.36 (KHTML, like Gecko) Chrome/138.0.0.0 Safari/537.36","WebKit","Chrome","138.0.0.0","Windows","10.0","https://app.prolific.com/","sk-HU,sk;q=0.9,hu-HU;q=0.8,hu;q=0.7,en-HU;q=0.6,en;q=0.5,sk-SK;q=0.4,cs;q=0.3,en-US;q=0.2,de;q=0.1","683dda03c88521ebe8cba79e","686d226cabeef709c732f8e1","686e3140c8da06e1c25eb638","683dda03c88521ebe8cba79e","2025-07-09T09:28:11.544Z","","","","","","","","","","","","","","","","win-only","0","g1:NW,g2:SE","0.3","8","0","1201529.3","1311","6311.8","49761.7","1","4","4","6","2","-4","-5","14","19","0.10606060606060606","984.8","3000","-2960","[""down"",""right""]","{""num_key_presses"":9,""num_perfect"":3,""num_errors"":1,""num_randdir"":5,""num_randdir_good_moves"":3,""num_whilered"":0,""num_whileblue"":1,""num_blue"":5,""num_good_moves"":7}","[411.57142857142856,415.47767857142856,0.2,411.57142857142856,415.47767857142856,100,411.57142857142856,415.47767857142856,200.2,411.57142857142856,415.47767857142856,305.4,411.57142857142856,415.47767857142856,412.6,518.5714285714286,487.47767857142856,514.9,1003.5714285714286,759.4776785714286,619.5,893.5714285714286,810.4776785714286,719.8,838.5714285714286,785.4776785714286,829,798.5714285714286,755.4776785714286,929.6,793.5714285714286,755.4776785714286,1034.7,793.5714285714286,754.4776785714286,1134.8,974.5714285714286,724.4776785714286,1234.9,1375.5714285714287,629.4776785714286,1335.2,1368.5714285714287,631.4776785714286,1439.6,1368.5714285714287,631.4776785714286,1540.4,1368.5714285714287,631.4776785714286,1641.1,1368.5714285714287,631.4776785714286,1748.6,1368.5714285714287,631.4776785714286,1850.3,1368.5714285714287,631.4776785714286,1955.1,1368.5714285714287,631.4776785714286,2062,1368.5714285714287,631.4776785714286,2162.3,1368.5714285714287,631.4776785714286,2262.3,1368.5714285714287,631.4776785714286,2363.4,1368.5714285714287,631.4776785714286,2464.8,1368.5714285714287,631.4776785714286,2565.1,1368.5714285714287,631.4776785714286,2671.3,1368.5714285714287,631.4776785714286,2779.1,1368.5714285714287,631.4776785714286,2879.5,1368.5714285714287,631.4776785714286,2985.9,1368.5714285714287,631.4776785714286,3090.3,1368.5714285714287,631.4776785714286,3196,1368.5714285714287,631.4776785714286,3298.9,1368.5714285714287,631.4776785714286,3400.1,1368.5714285714287,631.4776785714286,3505.3,1368.5714285714287,631.4776785714286,3613.1,1368.5714285714287,631.4776785714286,3714.7,1368.5714285714287,631.4776785714286,3815.6,1368.5714285714287,631.4776785714286,3919.3,1368.5714285714287,631.4776785714286,4020,1368.5714285714287,631.4776785714286,4129.2,1368.5714285714287,631.4776785714286,4229.9,1368.5714285714287,631.4776785714286,4334.5,1368.5714285714287,631.4776785714286,4439.2,1368.5714285714287,631.4776785714286,4540.7,1368.5714285714287,631.4776785714286,4647.2,1368.5714285714287,631.4776785714286,4748,1368.5714285714287,631.4776785714286,4850.7,1368.5714285714287,631.4776785714286,4954.6]","[4663,4663,2346,2009.2,307.8,""oops"",""right"",""right"",""good_move"",7950.9,3287.6,2896.9,4663.3,390.7,""oops"",""down"",""up"",""bad_move"",13198.8,5247.7,2210.9,10595.3,392.7,""oops"",""right"",""up"",""bad_move"",16839.1,3640.1,3154.5,13199,485.6,""smooth"",""right"",""right"",""good_move"",19447.3,2607.9,2270.9,16839.5,337,""oops"",""right"",""right"",""good_move"",23103.4,3655.7,3353.8,19447.7,301.9,""oops"",""down"",""down"",""good_move"",25359,2255.2,1899.6,23103.8,355.6,""while_blue"",""down"",""down"",""good_move"",32655,7295.5,2841.9,29373.6,439.5,""smooth"",""down"",""down"",""good_move"",40750.8,8095.4,3745.2,36660.1,345.5,""smooth"",""down"",""down"",""good_move""]","","",""
"3076","","<div style=""width:500px;"">
  <p>What determined the result of this run?</p>
  </div>","22","html-slider-response","75","1256281","0.0-10.0-1.7","54","1","2025-07-09 09:07:16","7701e855f2ef39aa3fd6c71abdc6918a","178.143.32.198","Mozilla/5.0 (Windows NT 10.0; Win64; x64) AppleWebKit/537.36 (KHTML, like Gecko) Chrome/138.0.0.0 Safari/537.36","WebKit","Chrome","138.0.0.0","Windows","10.0","https://app.prolific.com/","sk-HU,sk;q=0.9,hu-HU;q=0.8,hu;q=0.7,en-HU;q=0.6,en;q=0.5,sk-SK;q=0.4,cs;q=0.3,en-US;q=0.2,de;q=0.1","683dda03c88521ebe8cba79e","686d226cabeef709c732f8e1","686e3140c8da06e1c25eb638","683dda03c88521ebe8cba79e","2025-07-09T09:28:14.621Z","","","","","","AttribQ","","","","","","","","","","","","","","","","","","","","","","","","","","","","","","","","","","","","","","50",""
"3968","","<div style=""width:500px;"">
  <p>How much control did you have over the ball?</p>
  </div>","37","html-slider-response","76","1260250","0.0-10.0-2.7","54","1","2025-07-09 09:07:16","7701e855f2ef39aa3fd6c71abdc6918a","178.143.32.198","Mozilla/5.0 (Windows NT 10.0; Win64; x64) AppleWebKit/537.36 (KHTML, like Gecko) Chrome/138.0.0.0 Safari/537.36","WebKit","Chrome","138.0.0.0","Windows","10.0","https://app.prolific.com/","sk-HU,sk;q=0.9,hu-HU;q=0.8,hu;q=0.7,en-HU;q=0.6,en;q=0.5,sk-SK;q=0.4,cs;q=0.3,en-US;q=0.2,de;q=0.1","683dda03c88521ebe8cba79e","686d226cabeef709c732f8e1","686e3140c8da06e1c25eb638","683dda03c88521ebe8cba79e","2025-07-09T09:28:18.590Z","","","","","","ControlQ","","","","","","","","","","","","","","","","","","","","","","","","","","","","","","","","","","","","","","50",""
"3415","","<div style=""width:500px;"">
  <p>How would you describe your current emotional state?</p>
  </div>","87","html-slider-response","77","1263665","0.0-10.0-3.7","54","1","2025-07-09 09:07:16","7701e855f2ef39aa3fd6c71abdc6918a","178.143.32.198","Mozilla/5.0 (Windows NT 10.0; Win64; x64) AppleWebKit/537.36 (KHTML, like Gecko) Chrome/138.0.0.0 Safari/537.36","WebKit","Chrome","138.0.0.0","Windows","10.0","https://app.prolific.com/","sk-HU,sk;q=0.9,hu-HU;q=0.8,hu;q=0.7,en-HU;q=0.6,en;q=0.5,sk-SK;q=0.4,cs;q=0.3,en-US;q=0.2,de;q=0.1","683dda03c88521ebe8cba79e","686d226cabeef709c732f8e1","686e3140c8da06e1c25eb638","683dda03c88521ebe8cba79e","2025-07-09T09:28:22.005Z","","","","","","StressQ","","","","","","","","","","","","","","","","","","","","","","","","","","","","","","","","","","","","","","50",""
"3263","","<div style=""width:500px;"">
  <p>What best describes how you currently feel?</p>
  </div>","79","html-slider-response","78","1266929","0.0-10.0-4.7","54","1","2025-07-09 09:07:16","7701e855f2ef39aa3fd6c71abdc6918a","178.143.32.198","Mozilla/5.0 (Windows NT 10.0; Win64; x64) AppleWebKit/537.36 (KHTML, like Gecko) Chrome/138.0.0.0 Safari/537.36","WebKit","Chrome","138.0.0.0","Windows","10.0","https://app.prolific.com/","sk-HU,sk;q=0.9,hu-HU;q=0.8,hu;q=0.7,en-HU;q=0.6,en;q=0.5,sk-SK;q=0.4,cs;q=0.3,en-US;q=0.2,de;q=0.1","683dda03c88521ebe8cba79e","686d226cabeef709c732f8e1","686e3140c8da06e1c25eb638","683dda03c88521ebe8cba79e","2025-07-09T09:28:25.269Z","","","","","","MotivationQ","","","","","","","","","","","","","","","","","","","","","","","","","","","","","","","","","","","","","","50",""
