"rt","response_timestamp","stimulus","response","trial_type","trial_index","time_elapsed","internal_node_id","run_id","condition","recorded_at","source_code_version","ip","user_agent","device","browser","browser_version","platform","platform_version","referer","accept_language","PROLIFIC_PID","STUDY_ID","SESSION_ID","prolific_id","realtime","view_history","question_order","consent","success","question_id","eventType","responses","item_order","radio_event_ids","radio_event_times","key_event_times","mouse_event_times","straightlining","zigzagging","honeypot","which_type","canvas_config","goals_layout","control_level","trial_number","tutorial_trial_number","trial_start_time","phase1_start_time","phase2_start_time","phase3_start_time","goal_1_value","goal_1_distance","goal_2_value","goal_2_distance","goal_selected","outcome","outcome_total","participant_final_score","participant_initial_score","participant_final_score_prop","goal_choice_rt","allocated_time","allocated_time_remaining","goal_direction","counts","mouse_movements","key_presses","correct","slider_start","sub_question"
"4726","1752051997835","<p style='font-size:40px;line-height:1.25'><strong>Welcome to the experiment!</strong></p><p style='font-size:1.1em;line-height:1.25'>Thank you for your interest in our experiment! Before you begin, it is important that we obtain your informed consent to participate in the study.</p><p style='font-size:1.1em;line-height:1.25'>On the next screen will be an <strong>information sheet</strong> for you to read. To participate in the study we need you to read this information sheet and the following consent form carefully. If you agree with all the statements, please click the <strong>I agree</strong> button.</p><p style='font-size:1.1em;line-height:1.25'>Press <strong>Next</strong> to read the information sheet.</p>","0","custom-html-button-response","0","4728","0.0-0.0","14","1","2025-07-09 09:06:33","7701e855f2ef39aa3fd6c71abdc6918a","92.40.111.69","Mozilla/5.0 (Windows NT 10.0; Win64; x64) AppleWebKit/537.36 (KHTML, like Gecko) Chrome/138.0.0.0 Safari/537.36","WebKit","Chrome","138.0.0.0","Windows","10.0","https://app.prolific.com/","en-GB,en-US;q=0.9,en;q=0.8","5bfd8910eed5280001ead1dd","686d226cabeef709c732f8e1","686e3110c339f3012f4432fc","5bfd8910eed5280001ead1dd","2025-07-09T09:06:37.836Z","","","","","","","","","","","","","","","","","","","","","","","","","","","","","","","","","","","","","","","","","","","","",""
"15534","","","","instructions","1","20265","0.0-1.0","14","1","2025-07-09 09:06:33","7701e855f2ef39aa3fd6c71abdc6918a","92.40.111.69","Mozilla/5.0 (Windows NT 10.0; Win64; x64) AppleWebKit/537.36 (KHTML, like Gecko) Chrome/138.0.0.0 Safari/537.36","WebKit","Chrome","138.0.0.0","Windows","10.0","https://app.prolific.com/","en-GB,en-US;q=0.9,en;q=0.8","5bfd8910eed5280001ead1dd","686d226cabeef709c732f8e1","686e3110c339f3012f4432fc","5bfd8910eed5280001ead1dd","","[{""page_index"":0,""viewing_time"":14100},{""page_index"":1,""viewing_time"":1434}]","","","","","","","","","","","","","","","","","","","","","","","","","","","","","","","","","","","","","","","","","","","",""
"3217","","","{""Q0"":"""",""Q1"":"""",""Q2"":"""",""Q3"":"""",""Q4"":"""",""Q5"":"""",""Q6"":""I agree""}","survey-multi-choice","2","23484","0.0-2.0","14","1","2025-07-09 09:06:33","7701e855f2ef39aa3fd6c71abdc6918a","92.40.111.69","Mozilla/5.0 (Windows NT 10.0; Win64; x64) AppleWebKit/537.36 (KHTML, like Gecko) Chrome/138.0.0.0 Safari/537.36","WebKit","Chrome","138.0.0.0","Windows","10.0","https://app.prolific.com/","en-GB,en-US;q=0.9,en;q=0.8","5bfd8910eed5280001ead1dd","686d226cabeef709c732f8e1","686e3110c339f3012f4432fc","5bfd8910eed5280001ead1dd","","","[0,1,2,3,4,5,6]","true","","","","","","","","","","","","","","","","","","","","","","","","","","","","","","","","","","","","","","","","","",""
"5298","","","","fullscreen","3","29789","0.0-4.0","14","1","2025-07-09 09:06:33","7701e855f2ef39aa3fd6c71abdc6918a","92.40.111.69","Mozilla/5.0 (Windows NT 10.0; Win64; x64) AppleWebKit/537.36 (KHTML, like Gecko) Chrome/138.0.0.0 Safari/537.36","WebKit","Chrome","138.0.0.0","Windows","10.0","https://app.prolific.com/","en-GB,en-US;q=0.9,en;q=0.8","5bfd8910eed5280001ead1dd","686d226cabeef709c732f8e1","686e3110c339f3012f4432fc","5bfd8910eed5280001ead1dd","","","","","true","","","","","","","","","","","","","","","","","","","","","","","","","","","","","","","","","","","","","","","","",""
"3457","1752052026355"," <p style='font-size:1.1em;line-height:1.25'>Thank you for completing the consent form and closing all other tabs.</p><p style='font-size:1.1em;line-height:1.25'>We will now invite you to fill in some demographic information and questionnaires, before starting the game.<br>This will take about 5 minutes.<br></p><p style='font-size:1.1em;line-height:1.25'>Press the <strong>Next</strong> button to continue.</p>","0","custom-html-button-response","4","33247","0.0-5.0","14","1","2025-07-09 09:06:33","7701e855f2ef39aa3fd6c71abdc6918a","92.40.111.69","Mozilla/5.0 (Windows NT 10.0; Win64; x64) AppleWebKit/537.36 (KHTML, like Gecko) Chrome/138.0.0.0 Safari/537.36","WebKit","Chrome","138.0.0.0","Windows","10.0","https://app.prolific.com/","en-GB,en-US;q=0.9,en;q=0.8","5bfd8910eed5280001ead1dd","686d226cabeef709c732f8e1","686e3110c339f3012f4432fc","5bfd8910eed5280001ead1dd","2025-07-09T09:07:06.355Z","","","","","","","","","","","","","","","","","","","","","","","","","","","","","","","","","","","","","","","","","","","","",""
"3156","","","{""age"":""40""}","survey-text","5","36406","0.0-6.0-0.0","14","1","2025-07-09 09:06:33","7701e855f2ef39aa3fd6c71abdc6918a","92.40.111.69","Mozilla/5.0 (Windows NT 10.0; Win64; x64) AppleWebKit/537.36 (KHTML, like Gecko) Chrome/138.0.0.0 Safari/537.36","WebKit","Chrome","138.0.0.0","Windows","10.0","https://app.prolific.com/","en-GB,en-US;q=0.9,en;q=0.8","5bfd8910eed5280001ead1dd","686d226cabeef709c732f8e1","686e3110c339f3012f4432fc","5bfd8910eed5280001ead1dd","","","","","","0","demographics","","","","","","","","","","","","","","","","","","","","","","","","","","","","","","","","","","","","","","",""
"1554","","","{""gender_identity"":""female/woman""}","survey-multi-choice","6","37961","0.0-6.0-1.0","14","1","2025-07-09 09:06:33","7701e855f2ef39aa3fd6c71abdc6918a","92.40.111.69","Mozilla/5.0 (Windows NT 10.0; Win64; x64) AppleWebKit/537.36 (KHTML, like Gecko) Chrome/138.0.0.0 Safari/537.36","WebKit","Chrome","138.0.0.0","Windows","10.0","https://app.prolific.com/","en-GB,en-US;q=0.9,en;q=0.8","5bfd8910eed5280001ead1dd","686d226cabeef709c732f8e1","686e3110c339f3012f4432fc","5bfd8910eed5280001ead1dd","","","[0]","","","1","demographics","","","","","","","","","","","","","","","","","","","","","","","","","","","","","","","","","","","","","","",""
"2000","","","{""assigned_sex"":""female""}","survey-multi-choice","7","39961","0.0-6.0-2.0","14","1","2025-07-09 09:06:33","7701e855f2ef39aa3fd6c71abdc6918a","92.40.111.69","Mozilla/5.0 (Windows NT 10.0; Win64; x64) AppleWebKit/537.36 (KHTML, like Gecko) Chrome/138.0.0.0 Safari/537.36","WebKit","Chrome","138.0.0.0","Windows","10.0","https://app.prolific.com/","en-GB,en-US;q=0.9,en;q=0.8","5bfd8910eed5280001ead1dd","686d226cabeef709c732f8e1","686e3110c339f3012f4432fc","5bfd8910eed5280001ead1dd","","","[0]","","","2","demographics","","","","","","","","","","","","","","","","","","","","","","","","","","","","","","","","","","","","","","",""
"3948","","","{""menstrual_cycle"":""Yes""}","survey-multi-choice","8","43910","0.0-6.0-3.0","14","1","2025-07-09 09:06:33","7701e855f2ef39aa3fd6c71abdc6918a","92.40.111.69","Mozilla/5.0 (Windows NT 10.0; Win64; x64) AppleWebKit/537.36 (KHTML, like Gecko) Chrome/138.0.0.0 Safari/537.36","WebKit","Chrome","138.0.0.0","Windows","10.0","https://app.prolific.com/","en-GB,en-US;q=0.9,en;q=0.8","5bfd8910eed5280001ead1dd","686d226cabeef709c732f8e1","686e3110c339f3012f4432fc","5bfd8910eed5280001ead1dd","","","[0]","","","4","demographics","","","","","","","","","","","","","","","","","","","","","","","","","","","","","","","","","","","","","","",""
"2713","","","{""education"":""Bachelor's Degree (e.g., BA)""}","survey-multi-choice","9","46625","0.0-6.0-4.0","14","1","2025-07-09 09:06:33","7701e855f2ef39aa3fd6c71abdc6918a","92.40.111.69","Mozilla/5.0 (Windows NT 10.0; Win64; x64) AppleWebKit/537.36 (KHTML, like Gecko) Chrome/138.0.0.0 Safari/537.36","WebKit","Chrome","138.0.0.0","Windows","10.0","https://app.prolific.com/","en-GB,en-US;q=0.9,en;q=0.8","5bfd8910eed5280001ead1dd","686d226cabeef709c732f8e1","686e3110c339f3012f4432fc","5bfd8910eed5280001ead1dd","","","[0]","","","5","demographics","","","","","","","","","","","","","","","","","","","","","","","","","","","","","","","","","","","","","","",""
"5218","","","{""education"":""GCSE/Standard Grades""}","survey-multi-choice","10","51843","0.0-6.0-5.0","14","1","2025-07-09 09:06:33","7701e855f2ef39aa3fd6c71abdc6918a","92.40.111.69","Mozilla/5.0 (Windows NT 10.0; Win64; x64) AppleWebKit/537.36 (KHTML, like Gecko) Chrome/138.0.0.0 Safari/537.36","WebKit","Chrome","138.0.0.0","Windows","10.0","https://app.prolific.com/","en-GB,en-US;q=0.9,en;q=0.8","5bfd8910eed5280001ead1dd","686d226cabeef709c732f8e1","686e3110c339f3012f4432fc","5bfd8910eed5280001ead1dd","2025-07-09T09:07:24.951Z","","[0]","","","6","demographics","","","","","","","","","","","","","","","","","","","","","","","","","","","","","","","","","","","","","","",""
"29395","","","{""mental_health_condition"":""Depression, anxiety"",""mental_health_treatment"":""SSRIs"",""psychiatric_medication"":""NA""}","survey-text","11","81241","0.0-7.0-0.0","14","1","2025-07-09 09:06:33","7701e855f2ef39aa3fd6c71abdc6918a","92.40.111.69","Mozilla/5.0 (Windows NT 10.0; Win64; x64) AppleWebKit/537.36 (KHTML, like Gecko) Chrome/138.0.0.0 Safari/537.36","WebKit","Chrome","138.0.0.0","Windows","10.0","https://app.prolific.com/","en-GB,en-US;q=0.9,en;q=0.8","5bfd8910eed5280001ead1dd","686d226cabeef709c732f8e1","686e3110c339f3012f4432fc","5bfd8910eed5280001ead1dd","2025-07-09T09:07:54.349Z","","","","","1","mental_health","","","","","","","","","","","","","","","","","","","","","","","","","","","","","","","","","","","","","","",""
"6966","","","{""depression_history"":[""Yes""]}","survey-multi-select","12","88210","0.0-7.0-1.0","14","1","2025-07-09 09:06:33","7701e855f2ef39aa3fd6c71abdc6918a","92.40.111.69","Mozilla/5.0 (Windows NT 10.0; Win64; x64) AppleWebKit/537.36 (KHTML, like Gecko) Chrome/138.0.0.0 Safari/537.36","WebKit","Chrome","138.0.0.0","Windows","10.0","https://app.prolific.com/","en-GB,en-US;q=0.9,en;q=0.8","5bfd8910eed5280001ead1dd","686d226cabeef709c732f8e1","686e3110c339f3012f4432fc","5bfd8910eed5280001ead1dd","","","[0]","","","","mental_health","","","","","","","","","","","","","","","","","","","","","","","","","","","","","","","","","","","","","","",""
"6863","","","{""depression_episodes"":""more than 5"",""depression_recent"":""Within the past year""}","survey-multi-choice","13","95075","0.0-7.0-2.0-0.0","14","1","2025-07-09 09:06:33","7701e855f2ef39aa3fd6c71abdc6918a","92.40.111.69","Mozilla/5.0 (Windows NT 10.0; Win64; x64) AppleWebKit/537.36 (KHTML, like Gecko) Chrome/138.0.0.0 Safari/537.36","WebKit","Chrome","138.0.0.0","Windows","10.0","https://app.prolific.com/","en-GB,en-US;q=0.9,en;q=0.8","5bfd8910eed5280001ead1dd","686d226cabeef709c732f8e1","686e3110c339f3012f4432fc","5bfd8910eed5280001ead1dd","2025-07-09T09:08:08.183Z","","[0,1]","","","3","mental_health","","","","","","","","","","","","","","","","","","","","","","","","","","","","","","","","","","","","","","",""
"43401.90000000002","","","","survey-template","14","138482","0.0-7.0-3.0","14","1","2025-07-09 09:06:33","7701e855f2ef39aa3fd6c71abdc6918a","92.40.111.69","Mozilla/5.0 (Windows NT 10.0; Win64; x64) AppleWebKit/537.36 (KHTML, like Gecko) Chrome/138.0.0.0 Safari/537.36","WebKit","Chrome","138.0.0.0","Windows","10.0","https://app.prolific.com/","en-GB,en-US;q=0.9,en;q=0.8","5bfd8910eed5280001ead1dd","686d226cabeef709c732f8e1","686e3110c339f3012f4432fc","5bfd8910eed5280001ead1dd","2025-07-09T09:08:51.590Z","","","","","","ius","{""Q01"":""2"",""Q02"":""3"",""Q03"":""3"",""Q04"":""2"",""Q05"":""2"",""Q06"":""3"",""Q07"":""3"",""Q08"":""0"",""Q09"":""2"",""Q10"":""2"",""Q11"":""2"",""Q12"":""2"",""Q13"":""2""}","[0,1,2,3,4,5,6,7,8,9,10,11,12]","[""Q01"",""Q02"",""Q03"",""Q04"",""Q05"",""Q06"",""Q07"",""Q08"",""Q09"",""Q10"",""Q11"",""Q12"",""Q13""]","[3625.5,6118.300000000047,8617.900000000023,13589.100000000035,17604.600000000035,19513.70000000001,21955.600000000035,24626.400000000023,26894.5,31978.300000000047,35662.30000000005,39949.90000000002,42167]","[]","[3625.5,6118.300000000047,8617.900000000023,13589.100000000035,16573.300000000047,17604.600000000035,19513.70000000001,21955.600000000035,24626.400000000023,26894.5,31978.300000000047,35662.30000000005,39949.90000000002,42167,43400]","0.6153846153846154","0.25","0","","","","","","","","","","","","","","","","","","","","","","","","","","","","","",""
"2876","1752052134469","<p style='font-size:1.1em;line-height:1.25'>In the following, we will ask you a few questions relating to your experiences over the past month.<br></p><p style='font-size:1.1em;line-height:1.25'>Press the <strong>Next</strong> button to continue.</p>","0","custom-html-button-response","15","141362","0.0-7.0-4.0","14","1","2025-07-09 09:06:33","7701e855f2ef39aa3fd6c71abdc6918a","92.40.111.69","Mozilla/5.0 (Windows NT 10.0; Win64; x64) AppleWebKit/537.36 (KHTML, like Gecko) Chrome/138.0.0.0 Safari/537.36","WebKit","Chrome","138.0.0.0","Windows","10.0","https://app.prolific.com/","en-GB,en-US;q=0.9,en;q=0.8","5bfd8910eed5280001ead1dd","686d226cabeef709c732f8e1","686e3110c339f3012f4432fc","5bfd8910eed5280001ead1dd","2025-07-09T09:08:54.470Z","","","","","","","","","","","","","","","","","","","","","","","","","","","","","","","","","","","","","","","","","","","","",""
"41714.399999999965","","","","survey-template","16","183078","0.0-7.0-5.0","14","1","2025-07-09 09:06:33","7701e855f2ef39aa3fd6c71abdc6918a","92.40.111.69","Mozilla/5.0 (Windows NT 10.0; Win64; x64) AppleWebKit/537.36 (KHTML, like Gecko) Chrome/138.0.0.0 Safari/537.36","WebKit","Chrome","138.0.0.0","Windows","10.0","https://app.prolific.com/","en-GB,en-US;q=0.9,en;q=0.8","5bfd8910eed5280001ead1dd","686d226cabeef709c732f8e1","686e3110c339f3012f4432fc","5bfd8910eed5280001ead1dd","2025-07-09T09:09:36.186Z","","","","","","pss","{""Q01"":""2"",""Q02"":""2"",""Q03"":""3"",""Q04"":""2"",""Q05"":""3"",""Q06"":""2"",""Q07"":""3"",""Q08"":""3"",""Q09"":""3"",""Q10"":""2""}","[0,1,2,3,4,5,6,7,8,9]","[""Q01"",""Q02"",""Q03"",""Q04"",""Q05"",""Q06"",""Q07"",""Q08"",""Q09"",""Q10""]","[3217.2000000000116,6000.799999999988,9185.899999999965,13087.599999999977,16137.899999999965,21189.5,27193.20000000001,31344.70000000001,36329.09999999998,40631.79999999999]","[]","[0.20000000001164153,3217.2000000000116,6000.799999999988,9185.899999999965,13087.599999999977,16137.899999999965,21189.5,27193.20000000001,31344.70000000001,36329.09999999998,40631.79999999999,41712.59999999998]","0.5","0.6666666666666666","0","","","","","","","","","","","","","","","","","","","","","","","","","","","","","",""
"2896","1752052179086","<p style='font-size:1.1em;line-height:1.25'>Thank you for your answers! Now we will ask you a few more questions relating to your feelings in the last 24 hours.<br></p><p style='font-size:1.1em;line-height:1.25'>Press the <strong>Next</strong> button to continue.</p>","0","custom-html-button-response","17","185979","0.0-7.0-6.0","14","1","2025-07-09 09:06:33","7701e855f2ef39aa3fd6c71abdc6918a","92.40.111.69","Mozilla/5.0 (Windows NT 10.0; Win64; x64) AppleWebKit/537.36 (KHTML, like Gecko) Chrome/138.0.0.0 Safari/537.36","WebKit","Chrome","138.0.0.0","Windows","10.0","https://app.prolific.com/","en-GB,en-US;q=0.9,en;q=0.8","5bfd8910eed5280001ead1dd","686d226cabeef709c732f8e1","686e3110c339f3012f4432fc","5bfd8910eed5280001ead1dd","2025-07-09T09:09:39.087Z","","","","","","","","","","","","","","","","","","","","","","","","","","","","","","","","","","","","","","","","","","","","",""
"56139.399999999965","","","","survey-template","18","242122","0.0-7.0-7.0","14","1","2025-07-09 09:06:33","7701e855f2ef39aa3fd6c71abdc6918a","92.40.111.69","Mozilla/5.0 (Windows NT 10.0; Win64; x64) AppleWebKit/537.36 (KHTML, like Gecko) Chrome/138.0.0.0 Safari/537.36","WebKit","Chrome","138.0.0.0","Windows","10.0","https://app.prolific.com/","en-GB,en-US;q=0.9,en;q=0.8","5bfd8910eed5280001ead1dd","686d226cabeef709c732f8e1","686e3110c339f3012f4432fc","5bfd8910eed5280001ead1dd","2025-07-09T09:10:35.231Z","","","","","","drsp","{""Q01"":""3"",""Q02"":""3"",""Q03"":""3"",""Q04"":""3"",""Q05"":""3"",""Q06"":""3"",""Q07"":""3"",""Q08"":""1"",""Q09"":""3"",""Q10"":""4"",""Q11"":""4"",""Q12"":""3"",""Q13"":""3"",""Q14"":""4"",""Q15"":""2"",""Q16"":""3"",""Q17"":""3"",""Q18"":""3"",""Q19"":""2"",""Q20"":""3"",""Q21"":""3""}","[0,1,2,3,4,5,6,7,8,9,10,11,12,13,14,15,16,17,18,19,20]","[""Q01"",""Q02"",""Q03"",""Q04"",""Q05"",""Q06"",""Q07"",""Q08"",""Q09"",""Q10"",""Q11"",""Q12"",""Q13"",""Q14"",""Q15"",""Q16"",""Q17"",""Q18"",""Q19"",""Q20"",""Q21""]","[4782.299999999988,6382.399999999965,8418.199999999953,9652.799999999988,11384.599999999977,14537.099999999977,16270.599999999977,18471.399999999965,21255.29999999999,23275.399999999965,24822.29999999999,26308,27890.29999999999,30992.699999999953,34310.79999999999,36228.29999999999,37745.899999999965,46313.899999999965,49700.09999999998,52685.79999999999,55284.899999999965]","[]","[0.09999999997671694,4782.299999999988,6382.399999999965,8418.199999999953,9652.799999999988,11384.599999999977,14537.099999999977,16270.599999999977,18471.399999999965,21255.29999999999,23275.399999999965,24822.29999999999,26308,27890.29999999999,30992.699999999953,34310.79999999999,36228.29999999999,37745.899999999965,46313.899999999965,49700.09999999998,52685.79999999999,55284.899999999965,56136.69999999995]","0.7142857142857143","0.3","0","","","","","","","","","","","","","","","","","","","","","","","","","","","","","",""
"8179","","","","survey-template","19","250303","0.0-7.0-8.0","14","1","2025-07-09 09:06:33","7701e855f2ef39aa3fd6c71abdc6918a","92.40.111.69","Mozilla/5.0 (Windows NT 10.0; Win64; x64) AppleWebKit/537.36 (KHTML, like Gecko) Chrome/138.0.0.0 Safari/537.36","WebKit","Chrome","138.0.0.0","Windows","10.0","https://app.prolific.com/","en-GB,en-US;q=0.9,en;q=0.8","5bfd8910eed5280001ead1dd","686d226cabeef709c732f8e1","686e3110c339f3012f4432fc","5bfd8910eed5280001ead1dd","2025-07-09T09:10:43.411Z","","","","","","stress","{""Q01"":""3"",""Q02"":""4"",""Q03"":""3""}","[0,1,2]","[""Q01"",""Q02"",""Q03""]","[2377.1999999999534,4378.599999999977,7128.299999999988]","[]","[2377.1999999999534,4378.599999999977,7128.299999999988,8178.399999999965]","0.6666666666666666","0","0","","","","","","","","","","","","","","","","","","","","","","","","","","","","","",""
"60903","","","","instructions","20","311207","0.0-8.0-0.0","14","1","2025-07-09 09:06:33","7701e855f2ef39aa3fd6c71abdc6918a","92.40.111.69","Mozilla/5.0 (Windows NT 10.0; Win64; x64) AppleWebKit/537.36 (KHTML, like Gecko) Chrome/138.0.0.0 Safari/537.36","WebKit","Chrome","138.0.0.0","Windows","10.0","https://app.prolific.com/","en-GB,en-US;q=0.9,en;q=0.8","5bfd8910eed5280001ead1dd","686d226cabeef709c732f8e1","686e3110c339f3012f4432fc","5bfd8910eed5280001ead1dd","","[{""page_index"":0,""viewing_time"":17757},{""page_index"":1,""viewing_time"":18671},{""page_index"":2,""viewing_time"":10171},{""page_index"":3,""viewing_time"":14305}]","","","","","","","","","","","","","","","","","","","","","","","","","","","","","","","","","","","","","","","","","","","",""
"","","","","ctl-task-cpt","21","331662","0.0-8.0-1.0","14","1","2025-07-09 09:06:33","7701e855f2ef39aa3fd6c71abdc6918a","92.40.111.69","Mozilla/5.0 (Windows NT 10.0; Win64; x64) AppleWebKit/537.36 (KHTML, like Gecko) Chrome/138.0.0.0 Safari/537.36","WebKit","Chrome","138.0.0.0","Windows","10.0","https://app.prolific.com/","en-GB,en-US;q=0.9,en;q=0.8","5bfd8910eed5280001ead1dd","686d226cabeef709c732f8e1","686e3110c339f3012f4432fc","5bfd8910eed5280001ead1dd","","","","","","","","","","","","","","","","","win-only","1","g1:NE,g2:SW","1","0","1","313097.8","2834.2","6835.9","17443.7","2","4","4","6","1","2","2","2","0","0.015151515151515152","2713","4000","2490","[""up"",""right""]","{""num_key_presses"":4,""num_perfect"":4,""num_errors"":0,""num_randdir"":0,""num_randdir_good_moves"":0,""num_whilered"":0,""num_whileblue"":0,""num_blue"":0,""num_good_moves"":4}","[410.57142857142856,411.6808016640799,2,410.57142857142856,411.6808016640799,102.5,410.57142857142856,411.6808016640799,206.4,410.57142857142856,411.6808016640799,306.5,410.57142857142856,411.6808016640799,411.6,410.57142857142856,411.6808016640799,511.7,410.57142857142856,411.6808016640799,616.4,410.57142857142856,411.6808016640799,717,410.57142857142856,411.6808016640799,821.3,410.57142857142856,411.6808016640799,921.3,410.57142857142856,411.6808016640799,1021.6,410.57142857142856,411.6808016640799,1121.7,410.57142857142856,411.6808016640799,1227.1,410.57142857142856,411.6808016640799,1327.5,410.57142857142856,411.6808016640799,1431.3,497.57142857142856,342.6808016640799,1531.6,565.0714285714286,308.1808016640799,1636.1,578.5714285714286,311.1808016640799,1736.7,581.5714285714286,311.1808016640799,1836.9,650.5714285714286,324.6808016640799,1936.9,665.5714285714286,311.1808016640799,2042.9,689.5714285714286,224.18080166407992,2146.5,703.0714285714286,204.68080166407992,2247,716.5714285714286,159.68080166407992,2347.5,725.5714285714286,119.18080166407994,2451.9,730.0714285714286,110.18080166407994,2559.8,730.0714285714286,110.18080166407994,2662.6,730.0714285714286,110.18080166407994,2766.8,730.0714285714286,110.18080166407994,2872.3,730.0714285714286,110.18080166407994,2976.9,730.0714285714286,110.18080166407994,3081.7,730.0714285714286,110.18080166407994,3187,730.0714285714286,110.18080166407994,3287,730.0714285714286,110.18080166407994,3393.3,730.0714285714286,110.18080166407994,3497.3,730.0714285714286,110.18080166407994,3601.6,730.0714285714286,110.18080166407994,3709.9,730.0714285714286,110.18080166407994,3810,730.0714285714286,110.18080166407994,3912.5]","[1375.3,1375.3,1000,0,375.3,""smooth"",""right"",""right"",""good_move"",4196.8,2821.2,2441.6,1375.6,379.6,""smooth"",""right"",""right"",""good_move"",6881.4,2684.4,2072.9,4197,611.5,""smooth"",""up"",""up"",""good_move"",10496.9,3615.2,3270.9,6881.8,344.2,""smooth"",""up"",""up"",""good_move""]","","",""
"10587","","","","instructions","22","342250","0.0-8.0-2.0","14","1","2025-07-09 09:06:33","7701e855f2ef39aa3fd6c71abdc6918a","92.40.111.69","Mozilla/5.0 (Windows NT 10.0; Win64; x64) AppleWebKit/537.36 (KHTML, like Gecko) Chrome/138.0.0.0 Safari/537.36","WebKit","Chrome","138.0.0.0","Windows","10.0","https://app.prolific.com/","en-GB,en-US;q=0.9,en;q=0.8","5bfd8910eed5280001ead1dd","686d226cabeef709c732f8e1","686e3110c339f3012f4432fc","5bfd8910eed5280001ead1dd","","[{""page_index"":0,""viewing_time"":10587}]","","","","","","","","","","","","","","","","","","","","","","","","","","","","","","","","","","","","","","","","","","","",""
"","","","","ctl-task-cpt","23","370859","0.0-8.0-3.0","14","1","2025-07-09 09:06:33","7701e855f2ef39aa3fd6c71abdc6918a","92.40.111.69","Mozilla/5.0 (Windows NT 10.0; Win64; x64) AppleWebKit/537.36 (KHTML, like Gecko) Chrome/138.0.0.0 Safari/537.36","WebKit","Chrome","138.0.0.0","Windows","10.0","https://app.prolific.com/","en-GB,en-US;q=0.9,en;q=0.8","5bfd8910eed5280001ead1dd","686d226cabeef709c732f8e1","686e3110c339f3012f4432fc","5bfd8910eed5280001ead1dd","","","","","","","","","","","","","","","","","win-only","1","g1:NE,g2:SW","0.35","0","3","344136.4","1466.6","5471.7","25591.3","2","4","8","6","1","2","1","1","0","0.007575757575757576","1102.7","4000","2550","[""up"",""right""]","{""num_key_presses"":5,""num_perfect"":2,""num_errors"":1,""num_randdir"":2,""num_randdir_good_moves"":2,""num_whilered"":0,""num_whileblue"":0,""num_blue"":2,""num_good_moves"":4}","[419.57142857142856,420.6808016640799,0.2,419.57142857142856,420.6808016640799,104.7,419.57142857142856,420.6808016640799,209.8,419.57142857142856,420.6808016640799,309.9,419.57142857142856,420.6808016640799,413.8,419.57142857142856,420.6808016640799,514,605.5714285714286,243.68080166407992,619,758.5714285714286,110.18080166407994,720.1,757.0714285714286,108.68080166407994,825.6,752.5714285714286,105.68080166407994,929.8,752.5714285714286,105.68080166407994,1034.4,752.5714285714286,105.68080166407994,1139.9,752.5714285714286,105.68080166407994,1245.1,752.5714285714286,105.68080166407994,1349.6,752.5714285714286,105.68080166407994,1454.3,752.5714285714286,105.68080166407994,1554.2,752.5714285714286,105.68080166407994,1655.3,911.5714285714286,279.6808016640799,1759.3,913.0714285714286,282.6808016640799,1859.9,913.0714285714286,282.6808016640799,1963.9,913.0714285714286,282.6808016640799,2063.9,913.0714285714286,282.6808016640799,2164,913.0714285714286,282.6808016640799,2264,913.0714285714286,282.6808016640799,2369.1,913.0714285714286,282.6808016640799,2474.5,913.0714285714286,282.6808016640799,2578.8,913.0714285714286,282.6808016640799,2680.8,913.0714285714286,282.6808016640799,2784.1,913.0714285714286,282.6808016640799,2884.3,913.0714285714286,282.6808016640799,2985.2,913.0714285714286,282.6808016640799,3089,913.0714285714286,282.6808016640799,3189.6,913.0714285714286,282.6808016640799,3294.1,913.0714285714286,282.6808016640799,3394.8,913.0714285714286,282.6808016640799,3495.1,913.0714285714286,282.6808016640799,3598.8,913.0714285714286,282.6808016640799,3698.8,913.0714285714286,282.6808016640799,3798.9,913.0714285714286,282.6808016640799,3900]","[541.8,541.8,1000,0,-458.2,""error"",""-"",""-"",""no_move"",8129.1,7587.1,2639.8,5134.4,354.9,""oops"",""right"",""right"",""good_move"",11304.5,3175.1,2726.1,8129.4,449,""smooth"",""up"",""up"",""good_move"",17222,5917.1,2536,14348.7,337.3,""smooth"",""up"",""up"",""good_move"",20030.4,2808.2,2473.9,17222.2,334.3,""oops"",""right"",""right"",""good_move""]","","",""
"25130","","","","instructions","24","395989","0.0-8.0-4.0","14","1","2025-07-09 09:06:33","7701e855f2ef39aa3fd6c71abdc6918a","92.40.111.69","Mozilla/5.0 (Windows NT 10.0; Win64; x64) AppleWebKit/537.36 (KHTML, like Gecko) Chrome/138.0.0.0 Safari/537.36","WebKit","Chrome","138.0.0.0","Windows","10.0","https://app.prolific.com/","en-GB,en-US;q=0.9,en;q=0.8","5bfd8910eed5280001ead1dd","686d226cabeef709c732f8e1","686e3110c339f3012f4432fc","5bfd8910eed5280001ead1dd","","[{""page_index"":0,""viewing_time"":6082},{""page_index"":1,""viewing_time"":19047}]","","","","","","","","","","","","","","","","","","","","","","","","","","","","","","","","","","","","","","","","","","","",""
"12001","","","{""green_ball"":[""Ball sometimes shakes and moves in a random direction""]}","survey-multi-select","25","407994","0.0-8.0-5.0-0.0","14","1","2025-07-09 09:06:33","7701e855f2ef39aa3fd6c71abdc6918a","92.40.111.69","Mozilla/5.0 (Windows NT 10.0; Win64; x64) AppleWebKit/537.36 (KHTML, like Gecko) Chrome/138.0.0.0 Safari/537.36","WebKit","Chrome","138.0.0.0","Windows","10.0","https://app.prolific.com/","en-GB,en-US;q=0.9,en;q=0.8","5bfd8910eed5280001ead1dd","686d226cabeef709c732f8e1","686e3110c339f3012f4432fc","5bfd8910eed5280001ead1dd","","","[0]","","","","quiz","","","","","","","","","","","","","","","","","","","","","","","","","","","","","","","","","","","","","true","",""
"1745","","<p align='center'><b>CORRECT!</b> Indeed, the green ball may sometimes shake and move in a random direction.</p>","0","html-button-response","26","409742","0.0-8.0-5.0-1.0","14","1","2025-07-09 09:06:33","7701e855f2ef39aa3fd6c71abdc6918a","92.40.111.69","Mozilla/5.0 (Windows NT 10.0; Win64; x64) AppleWebKit/537.36 (KHTML, like Gecko) Chrome/138.0.0.0 Safari/537.36","WebKit","Chrome","138.0.0.0","Windows","10.0","https://app.prolific.com/","en-GB,en-US;q=0.9,en;q=0.8","5bfd8910eed5280001ead1dd","686d226cabeef709c732f8e1","686e3110c339f3012f4432fc","5bfd8910eed5280001ead1dd","","","","","","","","","","","","","","","","","","","","","","","","","","","","","","","","","","","","","","","","","","","","","",""
"4918","","","{""yellow_ball"":[""Ball doesn‘t move and I get -1 penalty point""]}","survey-multi-select","27","414663","0.0-8.0-6.0-0.0","14","1","2025-07-09 09:06:33","7701e855f2ef39aa3fd6c71abdc6918a","92.40.111.69","Mozilla/5.0 (Windows NT 10.0; Win64; x64) AppleWebKit/537.36 (KHTML, like Gecko) Chrome/138.0.0.0 Safari/537.36","WebKit","Chrome","138.0.0.0","Windows","10.0","https://app.prolific.com/","en-GB,en-US;q=0.9,en;q=0.8","5bfd8910eed5280001ead1dd","686d226cabeef709c732f8e1","686e3110c339f3012f4432fc","5bfd8910eed5280001ead1dd","","","[0]","","","","quiz","","","","","","","","","","","","","","","","","","","","","","","","","","","","","","","","","","","","","true","",""
"1219","","<p align='center'><b>CORRECT!</b> Indeed, the yellow ball never moves and you receive a penalty.</p>","0","html-button-response","28","415884","0.0-8.0-6.0-1.0","14","1","2025-07-09 09:06:33","7701e855f2ef39aa3fd6c71abdc6918a","92.40.111.69","Mozilla/5.0 (Windows NT 10.0; Win64; x64) AppleWebKit/537.36 (KHTML, like Gecko) Chrome/138.0.0.0 Safari/537.36","WebKit","Chrome","138.0.0.0","Windows","10.0","https://app.prolific.com/","en-GB,en-US;q=0.9,en;q=0.8","5bfd8910eed5280001ead1dd","686d226cabeef709c732f8e1","686e3110c339f3012f4432fc","5bfd8910eed5280001ead1dd","","","","","","","","","","","","","","","","","","","","","","","","","","","","","","","","","","","","","","","","","","","","","",""
"12263","","","{""blue_ball"":[""Ball always shakes and moves in a random direction""]}","survey-multi-select","29","428148","0.0-8.0-7.0-0.0","14","1","2025-07-09 09:06:33","7701e855f2ef39aa3fd6c71abdc6918a","92.40.111.69","Mozilla/5.0 (Windows NT 10.0; Win64; x64) AppleWebKit/537.36 (KHTML, like Gecko) Chrome/138.0.0.0 Safari/537.36","WebKit","Chrome","138.0.0.0","Windows","10.0","https://app.prolific.com/","en-GB,en-US;q=0.9,en;q=0.8","5bfd8910eed5280001ead1dd","686d226cabeef709c732f8e1","686e3110c339f3012f4432fc","5bfd8910eed5280001ead1dd","","","[0]","","","","quiz","","","","","","","","","","","","","","","","","","","","","","","","","","","","","","","","","","","","","true","",""
"1334","","<p align='center'><b>CORRECT!</b> Indeed, the blue ball always shakes and moves in a random direction. Also there is a penalty of -1 point.</p>","0","html-button-response","30","429483","0.0-8.0-7.0-1.0","14","1","2025-07-09 09:06:33","7701e855f2ef39aa3fd6c71abdc6918a","92.40.111.69","Mozilla/5.0 (Windows NT 10.0; Win64; x64) AppleWebKit/537.36 (KHTML, like Gecko) Chrome/138.0.0.0 Safari/537.36","WebKit","Chrome","138.0.0.0","Windows","10.0","https://app.prolific.com/","en-GB,en-US;q=0.9,en;q=0.8","5bfd8910eed5280001ead1dd","686d226cabeef709c732f8e1","686e3110c339f3012f4432fc","5bfd8910eed5280001ead1dd","","","","","","","","","","","","","","","","","","","","","","","","","","","","","","","","","","","","","","","","","","","","","",""
"5136","","","{""bonus"":[""When I reach 50% of points""]}","survey-multi-select","31","434620","0.0-8.0-8.0-0.0","14","1","2025-07-09 09:06:33","7701e855f2ef39aa3fd6c71abdc6918a","92.40.111.69","Mozilla/5.0 (Windows NT 10.0; Win64; x64) AppleWebKit/537.36 (KHTML, like Gecko) Chrome/138.0.0.0 Safari/537.36","WebKit","Chrome","138.0.0.0","Windows","10.0","https://app.prolific.com/","en-GB,en-US;q=0.9,en;q=0.8","5bfd8910eed5280001ead1dd","686d226cabeef709c732f8e1","686e3110c339f3012f4432fc","5bfd8910eed5280001ead1dd","","","[0]","","","","quiz","","","","","","","","","","","","","","","","","","","","","","","","","","","","","","","","","","","","","true","",""
"1622","","<p align='center'><b>CORRECT!</b> Indeed, you receive 2 pounds extra when you reach 50% of points.</p>","0","html-button-response","32","436243","0.0-8.0-8.0-1.0","14","1","2025-07-09 09:06:33","7701e855f2ef39aa3fd6c71abdc6918a","92.40.111.69","Mozilla/5.0 (Windows NT 10.0; Win64; x64) AppleWebKit/537.36 (KHTML, like Gecko) Chrome/138.0.0.0 Safari/537.36","WebKit","Chrome","138.0.0.0","Windows","10.0","https://app.prolific.com/","en-GB,en-US;q=0.9,en;q=0.8","5bfd8910eed5280001ead1dd","686d226cabeef709c732f8e1","686e3110c339f3012f4432fc","5bfd8910eed5280001ead1dd","","","","","","","","","","","","","","","","","","","","","","","","","","","","","","","","","","","","","","","","","","","","","",""
"2349","","","","instructions","33","438592","0.0-8.0-9.0","14","1","2025-07-09 09:06:33","7701e855f2ef39aa3fd6c71abdc6918a","92.40.111.69","Mozilla/5.0 (Windows NT 10.0; Win64; x64) AppleWebKit/537.36 (KHTML, like Gecko) Chrome/138.0.0.0 Safari/537.36","WebKit","Chrome","138.0.0.0","Windows","10.0","https://app.prolific.com/","en-GB,en-US;q=0.9,en;q=0.8","5bfd8910eed5280001ead1dd","686d226cabeef709c732f8e1","686e3110c339f3012f4432fc","5bfd8910eed5280001ead1dd","","[{""page_index"":0,""viewing_time"":2349}]","","","","","","","","","","","","","","","","","","","","","","","","","","","","","","","","","","","","","","","","","","","",""
"12336","","<p>Before you start with this game please answer the following three questions yourself. </p>
  <p>Through this game, we measure several aspects of your cognitive performance, such as reaction times, multi-tasking capabilities </p>
  <p>and the ability to assess the situation you are in.</p>
  <p></p>
  <p><b>How good do you usually are in such tasks?</b></p>","62","html-slider-response","34","450933","0.0-9.0-0.0","14","1","2025-07-09 09:06:33","7701e855f2ef39aa3fd6c71abdc6918a","92.40.111.69","Mozilla/5.0 (Windows NT 10.0; Win64; x64) AppleWebKit/537.36 (KHTML, like Gecko) Chrome/138.0.0.0 Safari/537.36","WebKit","Chrome","138.0.0.0","Windows","10.0","https://app.prolific.com/","en-GB,en-US;q=0.9,en;q=0.8","5bfd8910eed5280001ead1dd","686d226cabeef709c732f8e1","686e3110c339f3012f4432fc","5bfd8910eed5280001ead1dd","2025-07-09T09:14:04.042Z","","","","","","PreSkillQ","","","","","","","","","","","","","","","","","","","","","","","","","","","","","","","","","","","","","","50",""
"4128","","<div style=""width:500px;"">
  <p>How well do you think you will perform in this task compared to other participants?</p>
  </div>","49","html-slider-response","35","455063","0.0-9.0-1.0","14","1","2025-07-09 09:06:33","7701e855f2ef39aa3fd6c71abdc6918a","92.40.111.69","Mozilla/5.0 (Windows NT 10.0; Win64; x64) AppleWebKit/537.36 (KHTML, like Gecko) Chrome/138.0.0.0 Safari/537.36","WebKit","Chrome","138.0.0.0","Windows","10.0","https://app.prolific.com/","en-GB,en-US;q=0.9,en;q=0.8","5bfd8910eed5280001ead1dd","686d226cabeef709c732f8e1","686e3110c339f3012f4432fc","5bfd8910eed5280001ead1dd","2025-07-09T09:14:08.171Z","","","","","","PrePerfQ","","","","","","","","","","","","","","","","","","","","","","","","","","","","","","","","","","","","","","50",""
"4580","","<div style=""width:500px;"">
  <p>What best describes how you currently feel?</p>
  </div>","54","html-slider-response","36","459644","0.0-9.0-2.0","14","1","2025-07-09 09:06:33","7701e855f2ef39aa3fd6c71abdc6918a","92.40.111.69","Mozilla/5.0 (Windows NT 10.0; Win64; x64) AppleWebKit/537.36 (KHTML, like Gecko) Chrome/138.0.0.0 Safari/537.36","WebKit","Chrome","138.0.0.0","Windows","10.0","https://app.prolific.com/","en-GB,en-US;q=0.9,en;q=0.8","5bfd8910eed5280001ead1dd","686d226cabeef709c732f8e1","686e3110c339f3012f4432fc","5bfd8910eed5280001ead1dd","2025-07-09T09:14:12.752Z","","","","","","PreMotivationQ","","","","","","","","","","","","","","","","","","","","","","","","","","","","","","","","","","","","","","50",""
"","","","","ctl-task-cpt","37","484053","0.0-10.0-0.0","14","1","2025-07-09 09:06:33","7701e855f2ef39aa3fd6c71abdc6918a","92.40.111.69","Mozilla/5.0 (Windows NT 10.0; Win64; x64) AppleWebKit/537.36 (KHTML, like Gecko) Chrome/138.0.0.0 Safari/537.36","WebKit","Chrome","138.0.0.0","Windows","10.0","https://app.prolific.com/","en-GB,en-US;q=0.9,en;q=0.8","5bfd8910eed5280001ead1dd","686d226cabeef709c732f8e1","686e3110c339f3012f4432fc","5bfd8910eed5280001ead1dd","2025-07-09T09:14:37.161Z","","","","","","","","","","","","","","","","win-only","2","g1:SE,g2:NW","1","1","0","461532","1493.6","6495.8","21390.5","1","4","4","6","2","4","4","4","0","0.030303030303030304","996.7","3000","1105","[""left"",""up""]","{""num_key_presses"":6,""num_perfect"":6,""num_errors"":0,""num_randdir"":0,""num_randdir_good_moves"":0,""num_whilered"":0,""num_whileblue"":0,""num_blue"":0,""num_good_moves"":6}","[415.07142857142856,416.1808016640799,0.2,415.07142857142856,416.1808016640799,102.5,415.07142857142856,416.1808016640799,202.7,415.07142857142856,416.1808016640799,302.8,415.07142857142856,416.1808016640799,406.9,415.07142857142856,416.1808016640799,507.6,107.57142857142857,221.18080166407992,611.6,44.57142857142857,87.68080166407994,712.4,32.57142857142857,60.68080166407994,816.6,32.57142857142857,59.18080166407994,917.1,32.57142857142857,59.18080166407994,1017.2,32.57142857142857,59.18080166407994,1121.9,32.57142857142857,59.18080166407994,1222.1,32.57142857142857,59.18080166407994,1322.2,32.57142857142857,59.18080166407994,1422.8,32.57142857142857,59.18080166407994,1523.2,32.57142857142857,59.18080166407994,1628.5,32.57142857142857,59.18080166407994,1732.7,32.57142857142857,59.18080166407994,1837.4,32.57142857142857,59.18080166407994,1942.1,32.57142857142857,59.18080166407994,2042.3,32.57142857142857,59.18080166407994,2142.5,32.57142857142857,59.18080166407994,2246.9,32.57142857142857,59.18080166407994,2347.2,32.57142857142857,59.18080166407994,2447.6,32.57142857142857,59.18080166407994,2551.7,32.57142857142857,59.18080166407994,2651.9,32.57142857142857,59.18080166407994,2752,32.57142857142857,59.18080166407994,2852.7,32.57142857142857,59.18080166407994,2957.5,32.57142857142857,59.18080166407994,3058.4,32.57142857142857,59.18080166407994,3162.8,32.57142857142857,59.18080166407994,3268.1,32.57142857142857,59.18080166407994,3372.8,32.57142857142857,59.18080166407994,3477.3,32.57142857142857,59.18080166407994,3577.4,32.57142857142857,59.18080166407994,3677.7,32.57142857142857,59.18080166407994,3782.3,32.57142857142857,59.18080166407994,3887.8,32.57142857142857,59.18080166407994,3992.7,32.57142857142857,59.18080166407994,4097.2,32.57142857142857,59.18080166407994,4198.3,32.57142857142857,59.18080166407994,4302.7,32.57142857142857,59.18080166407994,4407.1,32.57142857142857,59.18080166407994,4507.1,32.57142857142857,59.18080166407994,4607.6,32.57142857142857,59.18080166407994,4712.6,32.57142857142857,59.18080166407994,4813.2,32.57142857142857,59.18080166407994,4917.4]","[1398.7,1398.7,1000,0,398.7,""smooth"",""up"",""up"",""good_move"",4424.8,3025.8,2675,1399,350.8,""smooth"",""up"",""up"",""good_move"",7396.9,2972,2632.8,4425,339.1,""smooth"",""up"",""up"",""good_move"",9875.1,2477.9,2193.6,7397.2,284.3,""smooth"",""left"",""left"",""good_move"",12220.4,2345.1,2009.5,9875.3,335.6,""smooth"",""left"",""left"",""good_move"",14810.3,2589.6,2331.5,12220.7,258.1,""smooth"",""left"",""left"",""good_move""]","","",""
"4796","","<div style=""width:500px;"">
  <p>What determined the result of this run?</p>
  </div>","69","html-slider-response","38","488850","0.0-10.0-1.0","14","1","2025-07-09 09:06:33","7701e855f2ef39aa3fd6c71abdc6918a","92.40.111.69","Mozilla/5.0 (Windows NT 10.0; Win64; x64) AppleWebKit/537.36 (KHTML, like Gecko) Chrome/138.0.0.0 Safari/537.36","WebKit","Chrome","138.0.0.0","Windows","10.0","https://app.prolific.com/","en-GB,en-US;q=0.9,en;q=0.8","5bfd8910eed5280001ead1dd","686d226cabeef709c732f8e1","686e3110c339f3012f4432fc","5bfd8910eed5280001ead1dd","2025-07-09T09:14:41.958Z","","","","","","AttribQ","","","","","","","","","","","","","","","","","","","","","","","","","","","","","","","","","","","","","","50",""
"4046","","<div style=""width:500px;"">
  <p>How much control did you have over the ball?</p>
  </div>","95","html-slider-response","39","492897","0.0-10.0-2.0","14","1","2025-07-09 09:06:33","7701e855f2ef39aa3fd6c71abdc6918a","92.40.111.69","Mozilla/5.0 (Windows NT 10.0; Win64; x64) AppleWebKit/537.36 (KHTML, like Gecko) Chrome/138.0.0.0 Safari/537.36","WebKit","Chrome","138.0.0.0","Windows","10.0","https://app.prolific.com/","en-GB,en-US;q=0.9,en;q=0.8","5bfd8910eed5280001ead1dd","686d226cabeef709c732f8e1","686e3110c339f3012f4432fc","5bfd8910eed5280001ead1dd","2025-07-09T09:14:46.005Z","","","","","","ControlQ","","","","","","","","","","","","","","","","","","","","","","","","","","","","","","","","","","","","","","50",""
"5262","","<div style=""width:500px;"">
  <p>How would you describe your current emotional state?</p>
  </div>","30","html-slider-response","40","498160","0.0-10.0-3.0","14","1","2025-07-09 09:06:33","7701e855f2ef39aa3fd6c71abdc6918a","92.40.111.69","Mozilla/5.0 (Windows NT 10.0; Win64; x64) AppleWebKit/537.36 (KHTML, like Gecko) Chrome/138.0.0.0 Safari/537.36","WebKit","Chrome","138.0.0.0","Windows","10.0","https://app.prolific.com/","en-GB,en-US;q=0.9,en;q=0.8","5bfd8910eed5280001ead1dd","686d226cabeef709c732f8e1","686e3110c339f3012f4432fc","5bfd8910eed5280001ead1dd","2025-07-09T09:14:51.268Z","","","","","","StressQ","","","","","","","","","","","","","","","","","","","","","","","","","","","","","","","","","","","","","","50",""
"4049","","<div style=""width:500px;"">
  <p>What best describes how you currently feel?</p>
  </div>","59","html-slider-response","41","502210","0.0-10.0-4.0","14","1","2025-07-09 09:06:33","7701e855f2ef39aa3fd6c71abdc6918a","92.40.111.69","Mozilla/5.0 (Windows NT 10.0; Win64; x64) AppleWebKit/537.36 (KHTML, like Gecko) Chrome/138.0.0.0 Safari/537.36","WebKit","Chrome","138.0.0.0","Windows","10.0","https://app.prolific.com/","en-GB,en-US;q=0.9,en;q=0.8","5bfd8910eed5280001ead1dd","686d226cabeef709c732f8e1","686e3110c339f3012f4432fc","5bfd8910eed5280001ead1dd","2025-07-09T09:14:55.318Z","","","","","","MotivationQ","","","","","","","","","","","","","","","","","","","","","","","","","","","","","","","","","","","","","","50",""
"","","","","ctl-task-cpt","42","532874","0.0-10.0-0.1","14","1","2025-07-09 09:06:33","7701e855f2ef39aa3fd6c71abdc6918a","92.40.111.69","Mozilla/5.0 (Windows NT 10.0; Win64; x64) AppleWebKit/537.36 (KHTML, like Gecko) Chrome/138.0.0.0 Safari/537.36","WebKit","Chrome","138.0.0.0","Windows","10.0","https://app.prolific.com/","en-GB,en-US;q=0.9,en;q=0.8","5bfd8910eed5280001ead1dd","686d226cabeef709c732f8e1","686e3110c339f3012f4432fc","5bfd8910eed5280001ead1dd","2025-07-09T09:15:25.982Z","","","","","","","","","","","","","","","","win-only","0","g1:NW,g2:SE","0.9","2","0","504097.7","1258.7","6260.5","27644.7","1","4","8","6","2","8","7","11","4","0.08333333333333333","1124.5","3000","765","[""down"",""right""]","{""num_key_presses"":8,""num_perfect"":7,""num_errors"":1,""num_randdir"":0,""num_randdir_good_moves"":0,""num_whilered"":0,""num_whileblue"":1,""num_blue"":1,""num_good_moves"":7}","[413.57142857142856,404.1808016640799,0.2,413.57142857142856,404.1808016640799,102.4,413.57142857142856,404.1808016640799,202.4,413.57142857142856,404.1808016640799,302.5,413.57142857142856,404.1808016640799,408.8,413.57142857142856,404.1808016640799,513,413.57142857142856,404.1808016640799,616.5,698.5714285714286,738.6808016640799,716.8,749.5714285714286,812.1808016640799,817.9,758.5714285714286,821.1808016640799,918.1,764.5714285714286,824.1808016640799,1025.9,764.5714285714286,824.1808016640799,1127,764.5714285714286,824.1808016640799,1232,764.5714285714286,824.1808016640799,1342.7,764.5714285714286,824.1808016640799,1447,764.5714285714286,824.1808016640799,1551.5,764.5714285714286,824.1808016640799,1651.5,764.5714285714286,824.1808016640799,1751.6,764.5714285714286,824.1808016640799,1851.8,764.5714285714286,824.1808016640799,1951.9,764.5714285714286,824.1808016640799,2052.8,764.5714285714286,824.1808016640799,2159.4,764.5714285714286,824.1808016640799,2259.5,764.5714285714286,824.1808016640799,2361.8,764.5714285714286,824.1808016640799,2467.2,764.5714285714286,824.1808016640799,2575.7,764.5714285714286,824.1808016640799,2675.7,764.5714285714286,824.1808016640799,2775.8,764.5714285714286,824.1808016640799,2876.2,764.5714285714286,824.1808016640799,2977.6,764.5714285714286,824.1808016640799,3081.9,764.5714285714286,824.1808016640799,3183.4,764.5714285714286,824.1808016640799,3292.1,764.5714285714286,824.1808016640799,3392.7,764.5714285714286,824.1808016640799,3496.8,764.5714285714286,824.1808016640799,3602.3,764.5714285714286,824.1808016640799,3709.6,764.5714285714286,824.1808016640799,3811.5,764.5714285714286,824.1808016640799,3916.8,764.5714285714286,824.1808016640799,4017.6,764.5714285714286,824.1808016640799,4126.1,764.5714285714286,824.1808016640799,4226.8,764.5714285714286,824.1808016640799,4331.6,764.5714285714286,824.1808016640799,4431.8,764.5714285714286,824.1808016640799,4531.8,764.5714285714286,824.1808016640799,4632.9,764.5714285714286,824.1808016640799,4736.4,764.5714285714286,824.1808016640799,4837.8,764.5714285714286,824.1808016640799,4943.6]","[1391,1391,1000,0,391,""smooth"",""down"",""down"",""good_move"",4147.4,2755.9,2476.5,1391.5,279.4,""smooth"",""down"",""down"",""good_move"",6459,2311.5,1951.7,4147.5,359.8,""smooth"",""down"",""down"",""good_move"",9777.7,3318.5,2968.7,6459.2,349.8,""while_blue"",""right"",""left"",""bad_move"",12580.6,2802.4,2407.9,9778.2,394.5,""smooth"",""right"",""right"",""good_move"",15320.5,2739.5,2411.7,12581,327.8,""smooth"",""right"",""right"",""good_move"",18163.7,2843,2472.2,15320.7,370.8,""smooth"",""right"",""right"",""good_move"",21282.1,3118.2,2685.6,18163.9,432.6,""smooth"",""right"",""right"",""good_move""]","","",""
"3858","","<div style=""width:500px;"">
  <p>What determined the result of this run?</p>
  </div>","78","html-slider-response","43","536734","0.0-10.0-1.1","14","1","2025-07-09 09:06:33","7701e855f2ef39aa3fd6c71abdc6918a","92.40.111.69","Mozilla/5.0 (Windows NT 10.0; Win64; x64) AppleWebKit/537.36 (KHTML, like Gecko) Chrome/138.0.0.0 Safari/537.36","WebKit","Chrome","138.0.0.0","Windows","10.0","https://app.prolific.com/","en-GB,en-US;q=0.9,en;q=0.8","5bfd8910eed5280001ead1dd","686d226cabeef709c732f8e1","686e3110c339f3012f4432fc","5bfd8910eed5280001ead1dd","2025-07-09T09:15:29.842Z","","","","","","AttribQ","","","","","","","","","","","","","","","","","","","","","","","","","","","","","","","","","","","","","","50",""
"3130","","<div style=""width:500px;"">
  <p>How much control did you have over the ball?</p>
  </div>","91","html-slider-response","44","539865","0.0-10.0-2.1","14","1","2025-07-09 09:06:33","7701e855f2ef39aa3fd6c71abdc6918a","92.40.111.69","Mozilla/5.0 (Windows NT 10.0; Win64; x64) AppleWebKit/537.36 (KHTML, like Gecko) Chrome/138.0.0.0 Safari/537.36","WebKit","Chrome","138.0.0.0","Windows","10.0","https://app.prolific.com/","en-GB,en-US;q=0.9,en;q=0.8","5bfd8910eed5280001ead1dd","686d226cabeef709c732f8e1","686e3110c339f3012f4432fc","5bfd8910eed5280001ead1dd","2025-07-09T09:15:32.973Z","","","","","","ControlQ","","","","","","","","","","","","","","","","","","","","","","","","","","","","","","","","","","","","","","50",""
"3179","","<div style=""width:500px;"">
  <p>How would you describe your current emotional state?</p>
  </div>","38","html-slider-response","45","543045","0.0-10.0-3.1","14","1","2025-07-09 09:06:33","7701e855f2ef39aa3fd6c71abdc6918a","92.40.111.69","Mozilla/5.0 (Windows NT 10.0; Win64; x64) AppleWebKit/537.36 (KHTML, like Gecko) Chrome/138.0.0.0 Safari/537.36","WebKit","Chrome","138.0.0.0","Windows","10.0","https://app.prolific.com/","en-GB,en-US;q=0.9,en;q=0.8","5bfd8910eed5280001ead1dd","686d226cabeef709c732f8e1","686e3110c339f3012f4432fc","5bfd8910eed5280001ead1dd","2025-07-09T09:15:36.153Z","","","","","","StressQ","","","","","","","","","","","","","","","","","","","","","","","","","","","","","","","","","","","","","","50",""
"3083","","<div style=""width:500px;"">
  <p>What best describes how you currently feel?</p>
  </div>","59","html-slider-response","46","546129","0.0-10.0-4.1","14","1","2025-07-09 09:06:33","7701e855f2ef39aa3fd6c71abdc6918a","92.40.111.69","Mozilla/5.0 (Windows NT 10.0; Win64; x64) AppleWebKit/537.36 (KHTML, like Gecko) Chrome/138.0.0.0 Safari/537.36","WebKit","Chrome","138.0.0.0","Windows","10.0","https://app.prolific.com/","en-GB,en-US;q=0.9,en;q=0.8","5bfd8910eed5280001ead1dd","686d226cabeef709c732f8e1","686e3110c339f3012f4432fc","5bfd8910eed5280001ead1dd","2025-07-09T09:15:39.237Z","","","","","","MotivationQ","","","","","","","","","","","","","","","","","","","","","","","","","","","","","","","","","","","","","","50",""
"","","","","ctl-task-cpt","47","591647","0.0-10.0-0.2","14","1","2025-07-09 09:06:33","7701e855f2ef39aa3fd6c71abdc6918a","92.40.111.69","Mozilla/5.0 (Windows NT 10.0; Win64; x64) AppleWebKit/537.36 (KHTML, like Gecko) Chrome/138.0.0.0 Safari/537.36","WebKit","Chrome","138.0.0.0","Windows","10.0","https://app.prolific.com/","en-GB,en-US;q=0.9,en;q=0.8","5bfd8910eed5280001ead1dd","686d226cabeef709c732f8e1","686e3110c339f3012f4432fc","5bfd8910eed5280001ead1dd","2025-07-09T09:16:24.755Z","","","","","","","","","","","","","","","","win-only","2","g1:SE,g2:NW","0.8","3","0","548017","1313","6317.7","42498.1","1","4","4","6","2","4","4","15","11","0.11363636363636363","1782.4","3000","170","[""left"",""up""]","{""num_key_presses"":8,""num_perfect"":6,""num_errors"":0,""num_randdir"":2,""num_randdir_good_moves"":1,""num_whilered"":0,""num_whileblue"":0,""num_blue"":4,""num_good_moves"":7}","[419.57142857142856,416.1808016640799,0.2,419.57142857142856,416.1808016640799,103,419.57142857142856,416.1808016640799,208.1,419.57142857142856,416.1808016640799,313.7,419.57142857142856,416.1808016640799,419.3,419.57142857142856,416.1808016640799,520.4,419.57142857142856,416.1808016640799,623.1,419.57142857142856,416.1808016640799,723.2,298.07142857142856,324.6808016640799,828.5,-15.42857142857143,32.18080166407994,933.5,-18.42857142857143,27.680801664079937,1034.2,-18.42857142857143,27.680801664079937,1138.1,-18.42857142857143,27.680801664079937,1238.2,-18.42857142857143,27.680801664079937,1339.6,-18.42857142857143,27.680801664079937,1442.5,-18.42857142857143,27.680801664079937,1542.9,23.57142857142857,36.68080166407994,1648.3,23.57142857142857,36.68080166407994,1749.4,23.57142857142857,36.68080166407994,1854.4,23.57142857142857,36.68080166407994,1957.9,23.57142857142857,36.68080166407994,2065.2,23.57142857142857,36.68080166407994,2166,23.57142857142857,36.68080166407994,2268.8,23.57142857142857,36.68080166407994,2368.8,23.57142857142857,36.68080166407994,2473.1,23.57142857142857,36.68080166407994,2577.8,23.57142857142857,36.68080166407994,2686,23.57142857142857,36.68080166407994,2786,23.57142857142857,36.68080166407994,2886.7,23.57142857142857,36.68080166407994,2989.8,23.57142857142857,36.68080166407994,3093,23.57142857142857,36.68080166407994,3193.1,23.57142857142857,36.68080166407994,3303.2,23.57142857142857,36.68080166407994,3403.8,23.57142857142857,36.68080166407994,3508.2,23.57142857142857,36.68080166407994,3612.7,23.57142857142857,36.68080166407994,3713.5,23.57142857142857,36.68080166407994,3820.8,23.57142857142857,36.68080166407994,3922.9,23.57142857142857,36.68080166407994,4027.7,23.57142857142857,36.68080166407994,4136.8,23.57142857142857,36.68080166407994,4237.8,23.57142857142857,36.68080166407994,4338.1,23.57142857142857,36.68080166407994,4443,23.57142857142857,36.68080166407994,4548.9,23.57142857142857,36.68080166407994,4653.7,23.57142857142857,36.68080166407994,4754.5,23.57142857142857,36.68080166407994,4858.1,23.57142857142857,36.68080166407994,4958.3]","[8823,8823,2610.3,5778.2,434.5,""smooth"",""up"",""up"",""good_move"",12092.8,3269.3,2806.8,8823.5,462.5,""smooth"",""up"",""up"",""good_move"",14746.6,2653.6,2271.6,12093,382,""smooth"",""up"",""up"",""good_move"",17274.2,2527.4,2101.7,14746.9,425.6,""smooth"",""left"",""left"",""good_move"",23379.7,6105.1,2368.9,20683.5,327.3,""oops"",""left"",""right"",""bad_move"",26897.9,3518,3026,23379.9,492,""smooth"",""left"",""left"",""good_move"",33160.4,6262.1,2419.6,30393.1,347.7,""smooth"",""left"",""left"",""good_move"",36071.6,2911.1,2567.3,33160.5,343.8,""oops"",""left"",""left"",""good_move""]","","",""
"3790","","<div style=""width:500px;"">
  <p>What determined the result of this run?</p>
  </div>","31","html-slider-response","48","595438","0.0-10.0-1.2","14","1","2025-07-09 09:06:33","7701e855f2ef39aa3fd6c71abdc6918a","92.40.111.69","Mozilla/5.0 (Windows NT 10.0; Win64; x64) AppleWebKit/537.36 (KHTML, like Gecko) Chrome/138.0.0.0 Safari/537.36","WebKit","Chrome","138.0.0.0","Windows","10.0","https://app.prolific.com/","en-GB,en-US;q=0.9,en;q=0.8","5bfd8910eed5280001ead1dd","686d226cabeef709c732f8e1","686e3110c339f3012f4432fc","5bfd8910eed5280001ead1dd","2025-07-09T09:16:28.546Z","","","","","","AttribQ","","","","","","","","","","","","","","","","","","","","","","","","","","","","","","","","","","","","","","50",""
"4178","","<div style=""width:500px;"">
  <p>How much control did you have over the ball?</p>
  </div>","29","html-slider-response","49","599617","0.0-10.0-2.2","14","1","2025-07-09 09:06:33","7701e855f2ef39aa3fd6c71abdc6918a","92.40.111.69","Mozilla/5.0 (Windows NT 10.0; Win64; x64) AppleWebKit/537.36 (KHTML, like Gecko) Chrome/138.0.0.0 Safari/537.36","WebKit","Chrome","138.0.0.0","Windows","10.0","https://app.prolific.com/","en-GB,en-US;q=0.9,en;q=0.8","5bfd8910eed5280001ead1dd","686d226cabeef709c732f8e1","686e3110c339f3012f4432fc","5bfd8910eed5280001ead1dd","2025-07-09T09:16:32.725Z","","","","","","ControlQ","","","","","","","","","","","","","","","","","","","","","","","","","","","","","","","","","","","","","","50",""
"3266","","<div style=""width:500px;"">
  <p>How would you describe your current emotional state?</p>
  </div>","44","html-slider-response","50","602884","0.0-10.0-3.2","14","1","2025-07-09 09:06:33","7701e855f2ef39aa3fd6c71abdc6918a","92.40.111.69","Mozilla/5.0 (Windows NT 10.0; Win64; x64) AppleWebKit/537.36 (KHTML, like Gecko) Chrome/138.0.0.0 Safari/537.36","WebKit","Chrome","138.0.0.0","Windows","10.0","https://app.prolific.com/","en-GB,en-US;q=0.9,en;q=0.8","5bfd8910eed5280001ead1dd","686d226cabeef709c732f8e1","686e3110c339f3012f4432fc","5bfd8910eed5280001ead1dd","2025-07-09T09:16:35.992Z","","","","","","StressQ","","","","","","","","","","","","","","","","","","","","","","","","","","","","","","","","","","","","","","50",""
"4752","","<div style=""width:500px;"">
  <p>What best describes how you currently feel?</p>
  </div>","56","html-slider-response","51","607637","0.0-10.0-4.2","14","1","2025-07-09 09:06:33","7701e855f2ef39aa3fd6c71abdc6918a","92.40.111.69","Mozilla/5.0 (Windows NT 10.0; Win64; x64) AppleWebKit/537.36 (KHTML, like Gecko) Chrome/138.0.0.0 Safari/537.36","WebKit","Chrome","138.0.0.0","Windows","10.0","https://app.prolific.com/","en-GB,en-US;q=0.9,en;q=0.8","5bfd8910eed5280001ead1dd","686d226cabeef709c732f8e1","686e3110c339f3012f4432fc","5bfd8910eed5280001ead1dd","2025-07-09T09:16:40.745Z","","","","","","MotivationQ","","","","","","","","","","","","","","","","","","","","","","","","","","","","","","","","","","","","","","50",""
"","","","","ctl-task-cpt","52","640049","0.0-10.0-0.3","14","1","2025-07-09 09:06:33","7701e855f2ef39aa3fd6c71abdc6918a","92.40.111.69","Mozilla/5.0 (Windows NT 10.0; Win64; x64) AppleWebKit/537.36 (KHTML, like Gecko) Chrome/138.0.0.0 Safari/537.36","WebKit","Chrome","138.0.0.0","Windows","10.0","https://app.prolific.com/","en-GB,en-US;q=0.9,en;q=0.8","5bfd8910eed5280001ead1dd","686d226cabeef709c732f8e1","686e3110c339f3012f4432fc","5bfd8910eed5280001ead1dd","2025-07-09T09:17:13.157Z","","","","","","","","","","","","","","","","win-only","0","g1:NW,g2:SE","0.7","4","0","609523.9","1332.5","6334.9","29403.9","1","4","8","6","2","8","8","23","15","0.17424242424242425","1381.5","3000","1205","[""down"",""right""]","{""num_key_presses"":6,""num_perfect"":4,""num_errors"":0,""num_randdir"":2,""num_randdir_good_moves"":2,""num_whilered"":0,""num_whileblue"":0,""num_blue"":2,""num_good_moves"":6}","[415.07142857142856,407.1808016640799,0.1,415.07142857142856,407.1808016640799,102.8,415.07142857142856,407.1808016640799,203.9,415.07142857142856,407.1808016640799,310.1,415.07142857142856,407.1808016640799,414.1,415.07142857142856,407.1808016640799,517.1,415.07142857142856,407.1808016640799,618.5,415.07142857142856,407.1808016640799,724.4,536.5714285714286,488.1808016640799,824.4,647.5714285714286,632.1808016640799,933.2,698.5714285714286,681.6808016640799,1038.4,722.5714285714286,711.6808016640799,1138.6,728.5714285714286,720.6808016640799,1250.4,728.5714285714286,720.6808016640799,1353.9,728.5714285714286,720.6808016640799,1454.2,728.5714285714286,720.6808016640799,1558.4,728.5714285714286,720.6808016640799,1658.4,728.5714285714286,720.6808016640799,1759,728.5714285714286,720.6808016640799,1868.4,728.5714285714286,720.6808016640799,1968.9,728.5714285714286,720.6808016640799,2069.5,728.5714285714286,720.6808016640799,2172.6,797.5714285714286,660.6808016640799,2273.3,868.0714285714286,632.1808016640799,2373.3,895.0714285714286,624.6808016640799,2478.4,895.0714285714286,624.6808016640799,2583.8,895.0714285714286,624.6808016640799,2687.7,895.0714285714286,624.6808016640799,2788.7,895.0714285714286,624.6808016640799,2900.3,895.0714285714286,624.6808016640799,3003.9,895.0714285714286,624.6808016640799,3107.9,895.0714285714286,624.6808016640799,3208.7,895.0714285714286,624.6808016640799,3317.4,895.0714285714286,624.6808016640799,3417.9,895.0714285714286,624.6808016640799,3518.1,895.0714285714286,624.6808016640799,3618.2,895.0714285714286,624.6808016640799,3722.7,895.0714285714286,624.6808016640799,3822.8,895.0714285714286,624.6808016640799,3923.4,895.0714285714286,624.6808016640799,4023.5,895.0714285714286,624.6808016640799,4128.7,895.0714285714286,624.6808016640799,4229.1,895.0714285714286,624.6808016640799,4333,895.0714285714286,624.6808016640799,4433.7,895.0714285714286,624.6808016640799,4537.9,895.0714285714286,624.6808016640799,4639,895.0714285714286,624.6808016640799,4742.7,895.0714285714286,624.6808016640799,4843.9,895.0714285714286,624.6808016640799,4952.7]","[1414.3,1414.3,1000,0,414.3,""smooth"",""right"",""right"",""good_move"",7587.4,6172.8,2251,4972.3,364.1,""smooth"",""right"",""right"",""good_move"",10508.2,2920.6,2551.9,7587.7,368.6,""oops"",""right"",""right"",""good_move"",13628.8,3120.4,2781.7,10508.4,338.7,""smooth"",""down"",""down"",""good_move"",16586.4,2957.2,2577.2,13629.2,380,""smooth"",""down"",""down"",""good_move"",22957.6,6371,3084.4,19551,322.2,""oops"",""down"",""down"",""good_move""]","","",""
"5714","","<div style=""width:500px;"">
  <p>What determined the result of this run?</p>
  </div>","76","html-slider-response","53","645765","0.0-10.0-1.3","14","1","2025-07-09 09:06:33","7701e855f2ef39aa3fd6c71abdc6918a","92.40.111.69","Mozilla/5.0 (Windows NT 10.0; Win64; x64) AppleWebKit/537.36 (KHTML, like Gecko) Chrome/138.0.0.0 Safari/537.36","WebKit","Chrome","138.0.0.0","Windows","10.0","https://app.prolific.com/","en-GB,en-US;q=0.9,en;q=0.8","5bfd8910eed5280001ead1dd","686d226cabeef709c732f8e1","686e3110c339f3012f4432fc","5bfd8910eed5280001ead1dd","2025-07-09T09:17:18.873Z","","","","","","AttribQ","","","","","","","","","","","","","","","","","","","","","","","","","","","","","","","","","","","","","","50",""
"3830","","<div style=""width:500px;"">
  <p>How much control did you have over the ball?</p>
  </div>","76","html-slider-response","54","649596","0.0-10.0-2.3","14","1","2025-07-09 09:06:33","7701e855f2ef39aa3fd6c71abdc6918a","92.40.111.69","Mozilla/5.0 (Windows NT 10.0; Win64; x64) AppleWebKit/537.36 (KHTML, like Gecko) Chrome/138.0.0.0 Safari/537.36","WebKit","Chrome","138.0.0.0","Windows","10.0","https://app.prolific.com/","en-GB,en-US;q=0.9,en;q=0.8","5bfd8910eed5280001ead1dd","686d226cabeef709c732f8e1","686e3110c339f3012f4432fc","5bfd8910eed5280001ead1dd","2025-07-09T09:17:22.704Z","","","","","","ControlQ","","","","","","","","","","","","","","","","","","","","","","","","","","","","","","","","","","","","","","50",""
"5373","","<div style=""width:500px;"">
  <p>How would you describe your current emotional state?</p>
  </div>","35","html-slider-response","55","654970","0.0-10.0-3.3","14","1","2025-07-09 09:06:33","7701e855f2ef39aa3fd6c71abdc6918a","92.40.111.69","Mozilla/5.0 (Windows NT 10.0; Win64; x64) AppleWebKit/537.36 (KHTML, like Gecko) Chrome/138.0.0.0 Safari/537.36","WebKit","Chrome","138.0.0.0","Windows","10.0","https://app.prolific.com/","en-GB,en-US;q=0.9,en;q=0.8","5bfd8910eed5280001ead1dd","686d226cabeef709c732f8e1","686e3110c339f3012f4432fc","5bfd8910eed5280001ead1dd","2025-07-09T09:17:28.079Z","","","","","","StressQ","","","","","","","","","","","","","","","","","","","","","","","","","","","","","","","","","","","","","","50",""
"2659","","<div style=""width:500px;"">
  <p>What best describes how you currently feel?</p>
  </div>","50","html-slider-response","56","657630","0.0-10.0-4.3","14","1","2025-07-09 09:06:33","7701e855f2ef39aa3fd6c71abdc6918a","92.40.111.69","Mozilla/5.0 (Windows NT 10.0; Win64; x64) AppleWebKit/537.36 (KHTML, like Gecko) Chrome/138.0.0.0 Safari/537.36","WebKit","Chrome","138.0.0.0","Windows","10.0","https://app.prolific.com/","en-GB,en-US;q=0.9,en;q=0.8","5bfd8910eed5280001ead1dd","686d226cabeef709c732f8e1","686e3110c339f3012f4432fc","5bfd8910eed5280001ead1dd","2025-07-09T09:17:30.739Z","","","","","","MotivationQ","","","","","","","","","","","","","","","","","","","","","","","","","","","","","","","","","","","","","","50",""
"","","","","ctl-task-cpt","57","703309","0.0-10.0-0.4","14","1","2025-07-09 09:06:33","7701e855f2ef39aa3fd6c71abdc6918a","92.40.111.69","Mozilla/5.0 (Windows NT 10.0; Win64; x64) AppleWebKit/537.36 (KHTML, like Gecko) Chrome/138.0.0.0 Safari/537.36","WebKit","Chrome","138.0.0.0","Windows","10.0","https://app.prolific.com/","en-GB,en-US;q=0.9,en;q=0.8","5bfd8910eed5280001ead1dd","686d226cabeef709c732f8e1","686e3110c339f3012f4432fc","5bfd8910eed5280001ead1dd","2025-07-09T09:18:16.417Z","","","","","","","","","","","","","","","","win-only","0","g1:NW,g2:SE","0.6","5","0","659517.7","1372.9","6376.8","42661.4","1","4","4","6","2","-4","-4","19","23","0.14393939393939395","1642.3","3000","-2425","[""down"",""right""]","{""num_key_presses"":9,""num_perfect"":5,""num_errors"":0,""num_randdir"":4,""num_randdir_good_moves"":2,""num_whilered"":0,""num_whileblue"":0,""num_blue"":3,""num_good_moves"":7}","[410.57142857142856,414.6808016640799,0.2,410.57142857142856,414.6808016640799,103,410.57142857142856,414.6808016640799,207.8,410.57142857142856,414.6808016640799,308.6,410.57142857142856,414.6808016640799,413.6,410.57142857142856,414.6808016640799,517.5,410.57142857142856,414.6808016640799,617.6,470.57142857142856,459.6808016640799,718.9,685.0714285714286,639.6808016640799,822.8,715.0714285714286,681.6808016640799,923.2,721.0714285714286,689.1808016640799,1023.8,721.0714285714286,689.1808016640799,1136.9,721.0714285714286,689.1808016640799,1238,721.0714285714286,689.1808016640799,1342.9,746.5714285714286,728.1808016640799,1443.4,755.5714285714286,740.1808016640799,1552.8,755.5714285714286,740.1808016640799,1652.8,755.5714285714286,740.1808016640799,1757.4,755.5714285714286,740.1808016640799,1864.1,755.5714285714286,740.1808016640799,1968.8,755.5714285714286,740.1808016640799,2073.2,755.5714285714286,740.1808016640799,2186.2,907.0714285714286,683.1808016640799,2288,913.0714285714286,683.1808016640799,2392.5,913.0714285714286,683.1808016640799,2493,913.0714285714286,683.1808016640799,2602.8,913.0714285714286,683.1808016640799,2703.1,913.0714285714286,683.1808016640799,2803.4,913.0714285714286,683.1808016640799,2907.7,913.0714285714286,683.1808016640799,3014,913.0714285714286,683.1808016640799,3120.6,913.0714285714286,683.1808016640799,3221.4,913.0714285714286,683.1808016640799,3323.1,913.0714285714286,683.1808016640799,3423.6,913.0714285714286,683.1808016640799,3527.6,913.0714285714286,683.1808016640799,3628.5,913.0714285714286,683.1808016640799,3737.5,913.0714285714286,683.1808016640799,3837.5,913.0714285714286,683.1808016640799,3944.3,913.0714285714286,683.1808016640799,4048.6,913.0714285714286,683.1808016640799,4152.5,913.0714285714286,683.1808016640799,4253,913.0714285714286,683.1808016640799,4354.2,913.0714285714286,683.1808016640799,4459.4,913.0714285714286,683.1808016640799,4563.5,913.0714285714286,683.1808016640799,4671.7,913.0714285714286,683.1808016640799,4773.4,913.0714285714286,683.1808016640799,4878.2,913.0714285714286,683.1808016640799,4986.8]","[4644.5,4644.5,2356.1,2004.9,283.5,""oops"",""right"",""down"",""good_move"",7818.5,3173.6,2679.6,4644.9,494,""smooth"",""right"",""right"",""good_move"",11231.2,3412.4,3037.1,7818.8,375.3,""oops"",""right"",""left"",""bad_move"",13988.2,2756.7,2282.4,11231.5,474.3,""smooth"",""down"",""down"",""good_move"",16441.3,2452.8,1925.3,13988.5,527.5,""oops"",""down"",""up"",""bad_move"",19805.9,3364.2,3025.2,16441.7,339,""oops"",""down"",""right"",""good_move"",25425.5,5619.2,2544.2,22514.5,366.8,""smooth"",""right"",""right"",""good_move"",31411.5,5985.8,2153.1,28899.6,358.8,""smooth"",""right"",""right"",""good_move"",33967.4,2555.6,2120.5,31411.8,435.1,""smooth"",""down"",""down"",""good_move""]","","",""
"3639","","<div style=""width:500px;"">
  <p>What determined the result of this run?</p>
  </div>","17","html-slider-response","58","706949","0.0-10.0-1.4","14","1","2025-07-09 09:06:33","7701e855f2ef39aa3fd6c71abdc6918a","92.40.111.69","Mozilla/5.0 (Windows NT 10.0; Win64; x64) AppleWebKit/537.36 (KHTML, like Gecko) Chrome/138.0.0.0 Safari/537.36","WebKit","Chrome","138.0.0.0","Windows","10.0","https://app.prolific.com/","en-GB,en-US;q=0.9,en;q=0.8","5bfd8910eed5280001ead1dd","686d226cabeef709c732f8e1","686e3110c339f3012f4432fc","5bfd8910eed5280001ead1dd","2025-07-09T09:18:20.057Z","","","","","","AttribQ","","","","","","","","","","","","","","","","","","","","","","","","","","","","","","","","","","","","","","50",""
"3662","","<div style=""width:500px;"">
  <p>How much control did you have over the ball?</p>
  </div>","13","html-slider-response","59","710612","0.0-10.0-2.4","14","1","2025-07-09 09:06:33","7701e855f2ef39aa3fd6c71abdc6918a","92.40.111.69","Mozilla/5.0 (Windows NT 10.0; Win64; x64) AppleWebKit/537.36 (KHTML, like Gecko) Chrome/138.0.0.0 Safari/537.36","WebKit","Chrome","138.0.0.0","Windows","10.0","https://app.prolific.com/","en-GB,en-US;q=0.9,en;q=0.8","5bfd8910eed5280001ead1dd","686d226cabeef709c732f8e1","686e3110c339f3012f4432fc","5bfd8910eed5280001ead1dd","2025-07-09T09:18:23.720Z","","","","","","ControlQ","","","","","","","","","","","","","","","","","","","","","","","","","","","","","","","","","","","","","","50",""
"5019","","<div style=""width:500px;"">
  <p>How would you describe your current emotional state?</p>
  </div>","54","html-slider-response","60","715633","0.0-10.0-3.4","14","1","2025-07-09 09:06:33","7701e855f2ef39aa3fd6c71abdc6918a","92.40.111.69","Mozilla/5.0 (Windows NT 10.0; Win64; x64) AppleWebKit/537.36 (KHTML, like Gecko) Chrome/138.0.0.0 Safari/537.36","WebKit","Chrome","138.0.0.0","Windows","10.0","https://app.prolific.com/","en-GB,en-US;q=0.9,en;q=0.8","5bfd8910eed5280001ead1dd","686d226cabeef709c732f8e1","686e3110c339f3012f4432fc","5bfd8910eed5280001ead1dd","2025-07-09T09:18:28.741Z","","","","","","StressQ","","","","","","","","","","","","","","","","","","","","","","","","","","","","","","","","","","","","","","50",""
"4636","","<div style=""width:500px;"">
  <p>What best describes how you currently feel?</p>
  </div>","55","html-slider-response","61","720270","0.0-10.0-4.4","14","1","2025-07-09 09:06:33","7701e855f2ef39aa3fd6c71abdc6918a","92.40.111.69","Mozilla/5.0 (Windows NT 10.0; Win64; x64) AppleWebKit/537.36 (KHTML, like Gecko) Chrome/138.0.0.0 Safari/537.36","WebKit","Chrome","138.0.0.0","Windows","10.0","https://app.prolific.com/","en-GB,en-US;q=0.9,en;q=0.8","5bfd8910eed5280001ead1dd","686d226cabeef709c732f8e1","686e3110c339f3012f4432fc","5bfd8910eed5280001ead1dd","2025-07-09T09:18:33.378Z","","","","","","MotivationQ","","","","","","","","","","","","","","","","","","","","","","","","","","","","","","","","","","","","","","50",""
"","","","","ctl-task-cpt","62","746475","0.0-10.0-0.5","14","1","2025-07-09 09:06:33","7701e855f2ef39aa3fd6c71abdc6918a","92.40.111.69","Mozilla/5.0 (Windows NT 10.0; Win64; x64) AppleWebKit/537.36 (KHTML, like Gecko) Chrome/138.0.0.0 Safari/537.36","WebKit","Chrome","138.0.0.0","Windows","10.0","https://app.prolific.com/","en-GB,en-US;q=0.9,en;q=0.8","5bfd8910eed5280001ead1dd","686d226cabeef709c732f8e1","686e3110c339f3012f4432fc","5bfd8910eed5280001ead1dd","2025-07-09T09:18:59.583Z","","","","","","","","","","","","","","","","win-only","0","g1:NW,g2:SE","0.5","6","0","722157.8","1403.8","6411.8","23190.9","1","4","8","6","2","8","8","27","19","0.20454545454545456","1355.7","3000","1425","[""down"",""right""]","{""num_key_presses"":6,""num_perfect"":3,""num_errors"":0,""num_randdir"":3,""num_randdir_good_moves"":3,""num_whilered"":0,""num_whileblue"":0,""num_blue"":0,""num_good_moves"":6}","[416.57142857142856,416.1808016640799,0.5,416.57142857142856,416.1808016640799,102.2,416.57142857142856,416.1808016640799,205.8,416.57142857142856,416.1808016640799,308,416.57142857142856,416.1808016640799,421.9,416.57142857142856,416.1808016640799,537.9,416.57142857142856,416.1808016640799,638.4,215.57142857142856,173.18080166407992,742,565.0714285714286,446.1808016640799,842.1,689.5714285714286,635.1808016640799,943,730.0714285714286,719.1808016640799,1048.4,736.0714285714286,728.1808016640799,1151.5,740.5714285714286,732.6808016640799,1255.3,740.5714285714286,732.6808016640799,1359.5,740.5714285714286,732.6808016640799,1468.4,740.5714285714286,732.6808016640799,1570.5,740.5714285714286,732.6808016640799,1673.4,740.5714285714286,732.6808016640799,1777.5,740.5714285714286,732.6808016640799,1882.5,740.5714285714286,732.6808016640799,1983.1,740.5714285714286,732.6808016640799,2086,740.5714285714286,732.6808016640799,2187.3,740.5714285714286,732.6808016640799,2287.4,740.5714285714286,732.6808016640799,2389.4,740.5714285714286,732.6808016640799,2492.1,740.5714285714286,732.6808016640799,2593,740.5714285714286,732.6808016640799,2697.6,740.5714285714286,732.6808016640799,2797.8,782.5714285714286,719.1808016640799,2906.6,977.5714285714286,665.1808016640799,3008,977.5714285714286,665.1808016640799,3111,977.5714285714286,665.1808016640799,3212.1,977.5714285714286,665.1808016640799,3312.3,977.5714285714286,665.1808016640799,3412.4,977.5714285714286,665.1808016640799,3513.9,977.5714285714286,665.1808016640799,3625.2,977.5714285714286,665.1808016640799,3727.8,977.5714285714286,665.1808016640799,3841.4,977.5714285714286,665.1808016640799,3941.4,977.5714285714286,665.1808016640799,4042.2,977.5714285714286,665.1808016640799,4143.3,977.5714285714286,665.1808016640799,4243.3,977.5714285714286,665.1808016640799,4346.9,977.5714285714286,665.1808016640799,4447,977.5714285714286,665.1808016640799,4547.9,977.5714285714286,665.1808016640799,4648.3,977.5714285714286,665.1808016640799,4752.9,977.5714285714286,665.1808016640799,4852.9,977.5714285714286,665.1808016640799,4953.8]","[1331.7,1331.7,1000,0,331.7,""oops"",""right"",""right"",""good_move"",4269.2,2937,2646.5,1332.2,290.5,""oops"",""right"",""down"",""good_move"",7970.7,3701.1,3400.9,4269.6,300.2,""smooth"",""right"",""right"",""good_move"",10534,2563.1,2220.1,7970.9,343,""smooth"",""right"",""right"",""good_move"",14036.7,3502.4,3217.2,10534.3,285.2,""oops"",""down"",""down"",""good_move"",16659.8,2622.6,2277.9,14037.2,344.7,""smooth"",""down"",""down"",""good_move""]","","",""
"3717","","<div style=""width:500px;"">
  <p>What determined the result of this run?</p>
  </div>","57","html-slider-response","63","750193","0.0-10.0-1.5","14","1","2025-07-09 09:06:33","7701e855f2ef39aa3fd6c71abdc6918a","92.40.111.69","Mozilla/5.0 (Windows NT 10.0; Win64; x64) AppleWebKit/537.36 (KHTML, like Gecko) Chrome/138.0.0.0 Safari/537.36","WebKit","Chrome","138.0.0.0","Windows","10.0","https://app.prolific.com/","en-GB,en-US;q=0.9,en;q=0.8","5bfd8910eed5280001ead1dd","686d226cabeef709c732f8e1","686e3110c339f3012f4432fc","5bfd8910eed5280001ead1dd","2025-07-09T09:19:03.301Z","","","","","","AttribQ","","","","","","","","","","","","","","","","","","","","","","","","","","","","","","","","","","","","","","50",""
"6546","","<div style=""width:500px;"">
  <p>How much control did you have over the ball?</p>
  </div>","77","html-slider-response","64","756740","0.0-10.0-2.5","14","1","2025-07-09 09:06:33","7701e855f2ef39aa3fd6c71abdc6918a","92.40.111.69","Mozilla/5.0 (Windows NT 10.0; Win64; x64) AppleWebKit/537.36 (KHTML, like Gecko) Chrome/138.0.0.0 Safari/537.36","WebKit","Chrome","138.0.0.0","Windows","10.0","https://app.prolific.com/","en-GB,en-US;q=0.9,en;q=0.8","5bfd8910eed5280001ead1dd","686d226cabeef709c732f8e1","686e3110c339f3012f4432fc","5bfd8910eed5280001ead1dd","2025-07-09T09:19:09.848Z","","","","","","ControlQ","","","","","","","","","","","","","","","","","","","","","","","","","","","","","","","","","","","","","","50",""
"4212","","<div style=""width:500px;"">
  <p>How would you describe your current emotional state?</p>
  </div>","46","html-slider-response","65","760954","0.0-10.0-3.5","14","1","2025-07-09 09:06:33","7701e855f2ef39aa3fd6c71abdc6918a","92.40.111.69","Mozilla/5.0 (Windows NT 10.0; Win64; x64) AppleWebKit/537.36 (KHTML, like Gecko) Chrome/138.0.0.0 Safari/537.36","WebKit","Chrome","138.0.0.0","Windows","10.0","https://app.prolific.com/","en-GB,en-US;q=0.9,en;q=0.8","5bfd8910eed5280001ead1dd","686d226cabeef709c732f8e1","686e3110c339f3012f4432fc","5bfd8910eed5280001ead1dd","2025-07-09T09:19:14.062Z","","","","","","StressQ","","","","","","","","","","","","","","","","","","","","","","","","","","","","","","","","","","","","","","50",""
"4929","","<div style=""width:500px;"">
  <p>What best describes how you currently feel?</p>
  </div>","55","html-slider-response","66","765883","0.0-10.0-4.5","14","1","2025-07-09 09:06:33","7701e855f2ef39aa3fd6c71abdc6918a","92.40.111.69","Mozilla/5.0 (Windows NT 10.0; Win64; x64) AppleWebKit/537.36 (KHTML, like Gecko) Chrome/138.0.0.0 Safari/537.36","WebKit","Chrome","138.0.0.0","Windows","10.0","https://app.prolific.com/","en-GB,en-US;q=0.9,en;q=0.8","5bfd8910eed5280001ead1dd","686d226cabeef709c732f8e1","686e3110c339f3012f4432fc","5bfd8910eed5280001ead1dd","2025-07-09T09:19:18.991Z","","","","","","MotivationQ","","","","","","","","","","","","","","","","","","","","","","","","","","","","","","","","","","","","","","50",""
"","","","","ctl-task-cpt","67","815469","0.0-10.0-0.6","14","1","2025-07-09 09:06:33","7701e855f2ef39aa3fd6c71abdc6918a","92.40.111.69","Mozilla/5.0 (Windows NT 10.0; Win64; x64) AppleWebKit/537.36 (KHTML, like Gecko) Chrome/138.0.0.0 Safari/537.36","WebKit","Chrome","138.0.0.0","Windows","10.0","https://app.prolific.com/","en-GB,en-US;q=0.9,en;q=0.8","5bfd8910eed5280001ead1dd","686d226cabeef709c732f8e1","686e3110c339f3012f4432fc","5bfd8910eed5280001ead1dd","2025-07-09T09:20:08.577Z","","","","","","","","","","","","","","","","win-only","1","g1:NE,g2:SW","0.4","7","0","767771","1028.1","6030.5","46566.5","1","4","4","6","2","-4","-4","23","27","0.17424242424242425","1151.6","3000","-2480","[""down"",""left""]","{""num_key_presses"":10,""num_perfect"":4,""num_errors"":0,""num_randdir"":6,""num_randdir_good_moves"":2,""num_whilered"":0,""num_whileblue"":0,""num_blue"":3,""num_good_moves"":6}","[422.57142857142856,419.1808016640799,0.2,422.57142857142856,419.1808016640799,111.6,422.57142857142856,419.1808016640799,213.1,422.57142857142856,419.1808016640799,321.4,422.57142857142856,419.1808016640799,423.2,422.57142857142856,419.1808016640799,534.9,226.07142857142856,671.1808016640799,635.8,107.57142857142857,821.1808016640799,739.1,98.57142857142857,824.1808016640799,843.2,64.07142857142857,806.1808016640799,955.2,58.07142857142857,789.6808016640799,1056.3,58.07142857142857,789.6808016640799,1158.3,58.07142857142857,789.6808016640799,1268.7,58.07142857142857,789.6808016640799,1380.9,58.07142857142857,789.6808016640799,1486.4,58.07142857142857,789.6808016640799,1586.6,58.07142857142857,789.6808016640799,1687.9,58.07142857142857,789.6808016640799,1789.5,58.07142857142857,789.6808016640799,1892.5,-213.42857142857144,671.1808016640799,1993.9,-216.42857142857144,669.6808016640799,2099.1,-216.42857142857144,669.6808016640799,2202.6,-216.42857142857144,669.6808016640799,2302.9,-216.42857142857144,669.6808016640799,2406.3,-216.42857142857144,669.6808016640799,2508,-216.42857142857144,669.6808016640799,2609.1,-216.42857142857144,669.6808016640799,2712.9,-216.42857142857144,669.6808016640799,2820.2,-216.42857142857144,669.6808016640799,2923.2,-216.42857142857144,669.6808016640799,3031.8,-216.42857142857144,669.6808016640799,3134.1,-216.42857142857144,669.6808016640799,3238.7,-216.42857142857144,669.6808016640799,3339.5,-216.42857142857144,669.6808016640799,3444.1,-216.42857142857144,669.6808016640799,3550.6,-216.42857142857144,669.6808016640799,3651,-216.42857142857144,669.6808016640799,3753,-216.42857142857144,669.6808016640799,3853.5,-216.42857142857144,669.6808016640799,3953.5,-216.42857142857144,669.6808016640799,4053.5,-216.42857142857144,669.6808016640799,4158.4,-216.42857142857144,669.6808016640799,4272.5,-216.42857142857144,669.6808016640799,4373.4,-216.42857142857144,669.6808016640799,4478.2,-216.42857142857144,669.6808016640799,4581.7,-216.42857142857144,669.6808016640799,4698,-216.42857142857144,669.6808016640799,4803.9,-216.42857142857144,669.6808016640799,4907.3]","[1302.6,1302.6,1000,0,302.6,""smooth"",""down"",""down"",""good_move"",4109.2,2806.2,2522,1303.1,284.2,""smooth"",""down"",""down"",""good_move"",9569.5,5459.8,2143.8,7135.8,289.9,""oops"",""down"",""right"",""bad_move"",12808.8,3239.1,2870.4,9569.7,368.7,""oops"",""down"",""up"",""bad_move"",15604.6,2795.2,2394.1,12809.4,401.1,""oops"",""down"",""down"",""good_move"",25995.2,10390.2,3025,22659.8,310.4,""smooth"",""down"",""down"",""good_move"",28820.3,2824.8,2512.4,25995.5,312.4,""oops"",""left"",""right"",""bad_move"",31808.9,2988.3,2626.3,28820.6,362,""smooth"",""left"",""left"",""good_move"",34761.5,2952.1,2589.2,31809.4,362.9,""oops"",""left"",""left"",""good_move"",38196.4,3434.7,3057.7,34761.7,377,""oops"",""left"",""up"",""bad_move""]","","",""
"35938","","<div style=""width:500px;"">
  <p>What determined the result of this run?</p>
  </div>","12","html-slider-response","68","851408","0.0-10.0-1.6","14","1","2025-07-09 09:06:33","7701e855f2ef39aa3fd6c71abdc6918a","92.40.111.69","Mozilla/5.0 (Windows NT 10.0; Win64; x64) AppleWebKit/537.36 (KHTML, like Gecko) Chrome/138.0.0.0 Safari/537.36","WebKit","Chrome","138.0.0.0","Windows","10.0","https://app.prolific.com/","en-GB,en-US;q=0.9,en;q=0.8","5bfd8910eed5280001ead1dd","686d226cabeef709c732f8e1","686e3110c339f3012f4432fc","5bfd8910eed5280001ead1dd","2025-07-09T09:20:44.516Z","","","","","","AttribQ","","","","","","","","","","","","","","","","","","","","","","","","","","","","","","","","","","","","","","50",""
"2719","","<div style=""width:500px;"">
  <p>How much control did you have over the ball?</p>
  </div>","13","html-slider-response","69","854128","0.0-10.0-2.6","14","1","2025-07-09 09:06:33","7701e855f2ef39aa3fd6c71abdc6918a","92.40.111.69","Mozilla/5.0 (Windows NT 10.0; Win64; x64) AppleWebKit/537.36 (KHTML, like Gecko) Chrome/138.0.0.0 Safari/537.36","WebKit","Chrome","138.0.0.0","Windows","10.0","https://app.prolific.com/","en-GB,en-US;q=0.9,en;q=0.8","5bfd8910eed5280001ead1dd","686d226cabeef709c732f8e1","686e3110c339f3012f4432fc","5bfd8910eed5280001ead1dd","2025-07-09T09:20:47.236Z","","","","","","ControlQ","","","","","","","","","","","","","","","","","","","","","","","","","","","","","","","","","","","","","","50",""
"1990","","<div style=""width:500px;"">
  <p>How would you describe your current emotional state?</p>
  </div>","58","html-slider-response","70","856119","0.0-10.0-3.6","14","1","2025-07-09 09:06:33","7701e855f2ef39aa3fd6c71abdc6918a","92.40.111.69","Mozilla/5.0 (Windows NT 10.0; Win64; x64) AppleWebKit/537.36 (KHTML, like Gecko) Chrome/138.0.0.0 Safari/537.36","WebKit","Chrome","138.0.0.0","Windows","10.0","https://app.prolific.com/","en-GB,en-US;q=0.9,en;q=0.8","5bfd8910eed5280001ead1dd","686d226cabeef709c732f8e1","686e3110c339f3012f4432fc","5bfd8910eed5280001ead1dd","2025-07-09T09:20:49.227Z","","","","","","StressQ","","","","","","","","","","","","","","","","","","","","","","","","","","","","","","","","","","","","","","50",""
"2155","","<div style=""width:500px;"">
  <p>What best describes how you currently feel?</p>
  </div>","55","html-slider-response","71","858275","0.0-10.0-4.6","14","1","2025-07-09 09:06:33","7701e855f2ef39aa3fd6c71abdc6918a","92.40.111.69","Mozilla/5.0 (Windows NT 10.0; Win64; x64) AppleWebKit/537.36 (KHTML, like Gecko) Chrome/138.0.0.0 Safari/537.36","WebKit","Chrome","138.0.0.0","Windows","10.0","https://app.prolific.com/","en-GB,en-US;q=0.9,en;q=0.8","5bfd8910eed5280001ead1dd","686d226cabeef709c732f8e1","686e3110c339f3012f4432fc","5bfd8910eed5280001ead1dd","2025-07-09T09:20:51.384Z","","","","","","MotivationQ","","","","","","","","","","","","","","","","","","","","","","","","","","","","","","","","","","","","","","50",""
"","","","","ctl-task-cpt","72","912772","0.0-10.0-0.7","14","1","2025-07-09 09:06:33","7701e855f2ef39aa3fd6c71abdc6918a","92.40.111.69","Mozilla/5.0 (Windows NT 10.0; Win64; x64) AppleWebKit/537.36 (KHTML, like Gecko) Chrome/138.0.0.0 Safari/537.36","WebKit","Chrome","138.0.0.0","Windows","10.0","https://app.prolific.com/","en-GB,en-US;q=0.9,en;q=0.8","5bfd8910eed5280001ead1dd","686d226cabeef709c732f8e1","686e3110c339f3012f4432fc","5bfd8910eed5280001ead1dd","2025-07-09T09:21:45.880Z","","","","","","","","","","","","","","","","win-only","1","g1:NE,g2:SW","0.3","8","0","860163","989.8","5993.3","51476.8","1","4","8","6","2","-8","-9","14","23","0.10606060606060606","1741.5","3000","-2345","[""down"",""left""]","{""num_key_presses"":12,""num_perfect"":4,""num_errors"":1,""num_randdir"":7,""num_randdir_good_moves"":2,""num_whilered"":0,""num_whileblue"":1,""num_blue"":3,""num_good_moves"":6}","[413.57142857142856,419.1808016640799,0.2,413.57142857142856,419.1808016640799,101.1,521.5714285714286,449.1808016640799,219.3,839.5714285714286,524.1808016640799,321.9,847.0714285714286,522.6808016640799,423,884.5714285714286,509.1808016640799,534.5,884.5714285714286,509.1808016640799,635.1,884.5714285714286,509.1808016640799,735.1,884.5714285714286,509.1808016640799,835.4,884.5714285714286,509.1808016640799,935.9,884.5714285714286,509.1808016640799,1040.8,743.5714285714286,629.1808016640799,1154,536.5714285714286,740.1808016640799,1254.7,415.07142857142856,737.1808016640799,1356.9,191.57142857142856,743.1808016640799,1470.7,184.07142857142856,744.6808016640799,1571,109.07142857142857,753.6808016640799,1672,98.57142857142857,750.6808016640799,1779,179.57142857142856,767.1808016640799,1881.3,982.0714285714286,669.6808016640799,1982.7,1142.5714285714287,639.6808016640799,2087.5,1142.5714285714287,639.6808016640799,2191,1142.5714285714287,639.6808016640799,2291.2,1142.5714285714287,639.6808016640799,2393.3,1142.5714285714287,639.6808016640799,2497.6,1142.5714285714287,639.6808016640799,2601.2,1142.5714285714287,639.6808016640799,2701.9,1142.5714285714287,639.6808016640799,2803.4,1142.5714285714287,639.6808016640799,2906.3,1142.5714285714287,639.6808016640799,3006.5,1142.5714285714287,639.6808016640799,3120.1,1142.5714285714287,639.6808016640799,3220.8,1142.5714285714287,639.6808016640799,3327.8,1142.5714285714287,639.6808016640799,3434.6,1142.5714285714287,639.6808016640799,3536.1,1142.5714285714287,639.6808016640799,3637.1,1142.5714285714287,639.6808016640799,3741.4,1142.5714285714287,639.6808016640799,3846.7,1142.5714285714287,639.6808016640799,3947,1142.5714285714287,639.6808016640799,4051.1,1142.5714285714287,639.6808016640799,4151.9,1142.5714285714287,639.6808016640799,4253.3,1142.5714285714287,639.6808016640799,4357,1142.5714285714287,639.6808016640799,4470.1,1142.5714285714287,639.6808016640799,4570.6,1142.5714285714287,639.6808016640799,4671.3,1142.5714285714287,639.6808016640799,4772,1142.5714285714287,639.6808016640799,4877.5,1142.5714285714287,639.6808016640799,4978.1]","[1314.8,1314.8,1000,0,314.8,""oops"",""left"",""right"",""bad_move"",4132.6,2817.5,2429.9,1315.1,387.6,""oops"",""down"",""up"",""bad_move"",7283.5,3150.5,2813,4133,337.5,""oops"",""up"",""right"",""bad_move"",10651.4,3367.7,3024.8,7283.7,342.9,""oops"",""down"",""up"",""bad_move"",13819.1,3167.5,2868.5,10651.6,299,""smooth"",""up"",""left"",""good_move"",15875,2055.4,1444.5,13819.6,610.9,""oops"",""down"",""left"",""good_move"",18802.1,2926.7,2660.4,15875.4,266.3,""smooth"",""right"",""right"",""bad_move"",21938.9,3136.4,2839.3,18802.5,297.1,""while_blue"",""left"",""left"",""good_move"",29704.7,7765.6,3205.9,26210.2,288.6,""smooth"",""down"",""down"",""good_move"",32625.8,2920.7,2570.2,29705.1,350.5,""oops"",""down"",""down"",""good_move"",39428.6,6802.6,2759.2,36402.2,267.2,""oops"",""down"",""up"",""bad_move"",42352.3,2923.4,2421.3,39428.9,502.1,""smooth"",""left"",""left"",""good_move""]","","",""
"3524","","<div style=""width:500px;"">
  <p>What determined the result of this run?</p>
  </div>","8","html-slider-response","73","916298","0.0-10.0-1.7","14","1","2025-07-09 09:06:33","7701e855f2ef39aa3fd6c71abdc6918a","92.40.111.69","Mozilla/5.0 (Windows NT 10.0; Win64; x64) AppleWebKit/537.36 (KHTML, like Gecko) Chrome/138.0.0.0 Safari/537.36","WebKit","Chrome","138.0.0.0","Windows","10.0","https://app.prolific.com/","en-GB,en-US;q=0.9,en;q=0.8","5bfd8910eed5280001ead1dd","686d226cabeef709c732f8e1","686e3110c339f3012f4432fc","5bfd8910eed5280001ead1dd","2025-07-09T09:21:49.406Z","","","","","","AttribQ","","","","","","","","","","","","","","","","","","","","","","","","","","","","","","","","","","","","","","50",""
"2012","","<div style=""width:500px;"">
  <p>How much control did you have over the ball?</p>
  </div>","1","html-slider-response","74","918311","0.0-10.0-2.7","14","1","2025-07-09 09:06:33","7701e855f2ef39aa3fd6c71abdc6918a","92.40.111.69","Mozilla/5.0 (Windows NT 10.0; Win64; x64) AppleWebKit/537.36 (KHTML, like Gecko) Chrome/138.0.0.0 Safari/537.36","WebKit","Chrome","138.0.0.0","Windows","10.0","https://app.prolific.com/","en-GB,en-US;q=0.9,en;q=0.8","5bfd8910eed5280001ead1dd","686d226cabeef709c732f8e1","686e3110c339f3012f4432fc","5bfd8910eed5280001ead1dd","2025-07-09T09:21:51.419Z","","","","","","ControlQ","","","","","","","","","","","","","","","","","","","","","","","","","","","","","","","","","","","","","","50",""
"1851","","<div style=""width:500px;"">
  <p>How would you describe your current emotional state?</p>
  </div>","69","html-slider-response","75","920162","0.0-10.0-3.7","14","1","2025-07-09 09:06:33","7701e855f2ef39aa3fd6c71abdc6918a","92.40.111.69","Mozilla/5.0 (Windows NT 10.0; Win64; x64) AppleWebKit/537.36 (KHTML, like Gecko) Chrome/138.0.0.0 Safari/537.36","WebKit","Chrome","138.0.0.0","Windows","10.0","https://app.prolific.com/","en-GB,en-US;q=0.9,en;q=0.8","5bfd8910eed5280001ead1dd","686d226cabeef709c732f8e1","686e3110c339f3012f4432fc","5bfd8910eed5280001ead1dd","2025-07-09T09:21:53.270Z","","","","","","StressQ","","","","","","","","","","","","","","","","","","","","","","","","","","","","","","","","","","","","","","50",""
"3348","","<div style=""width:500px;"">
  <p>What best describes how you currently feel?</p>
  </div>","50","html-slider-response","76","923511","0.0-10.0-4.7","14","1","2025-07-09 09:06:33","7701e855f2ef39aa3fd6c71abdc6918a","92.40.111.69","Mozilla/5.0 (Windows NT 10.0; Win64; x64) AppleWebKit/537.36 (KHTML, like Gecko) Chrome/138.0.0.0 Safari/537.36","WebKit","Chrome","138.0.0.0","Windows","10.0","https://app.prolific.com/","en-GB,en-US;q=0.9,en;q=0.8","5bfd8910eed5280001ead1dd","686d226cabeef709c732f8e1","686e3110c339f3012f4432fc","5bfd8910eed5280001ead1dd","2025-07-09T09:21:56.619Z","","","","","","MotivationQ","","","","","","","","","","","","","","","","","","","","","","","","","","","","","","","","","","","","","","50",""
"","","","","ctl-task-cpt","77","972963","0.0-10.0-0.8","14","1","2025-07-09 09:06:33","7701e855f2ef39aa3fd6c71abdc6918a","92.40.111.69","Mozilla/5.0 (Windows NT 10.0; Win64; x64) AppleWebKit/537.36 (KHTML, like Gecko) Chrome/138.0.0.0 Safari/537.36","WebKit","Chrome","138.0.0.0","Windows","10.0","https://app.prolific.com/","en-GB,en-US;q=0.9,en;q=0.8","5bfd8910eed5280001ead1dd","686d226cabeef709c732f8e1","686e3110c339f3012f4432fc","5bfd8910eed5280001ead1dd","2025-07-09T09:22:46.071Z","","","","","","","","","","","","","","","","win-only","3","g1:SW,g2:NE","0.2","9","0","925398.6","2705.9","7716","46430.7","1","4","8","6","1","-1","-2","12","14","0.09090909090909091","775.8","3000","-2295","[""down"",""left""]","{""num_key_presses"":12,""num_perfect"":2,""num_errors"":1,""num_randdir"":9,""num_randdir_good_moves"":3,""num_whilered"":0,""num_whileblue"":1,""num_blue"":2,""num_good_moves"":6}","[412.07142857142856,410.1808016640799,0.1,412.07142857142856,410.1808016640799,100.7,416.57142857142856,407.1808016640799,203.2,653.5714285714286,293.1808016640799,307.5,395.57142857142856,416.1808016640799,410.1,146.57142857142856,630.6808016640799,515.1,80.57142857142857,686.1808016640799,626.9,52.07142857142857,737.1808016640799,742.1,52.07142857142857,737.1808016640799,846.8,281.57142857142856,734.1808016640799,961,950.5714285714286,789.6808016640799,1065.2,950.5714285714286,789.6808016640799,1171.1,950.5714285714286,789.6808016640799,1275.3,950.5714285714286,789.6808016640799,1379.7,950.5714285714286,789.6808016640799,1496.7,950.5714285714286,789.6808016640799,1609.4,950.5714285714286,789.6808016640799,1715.1,950.5714285714286,789.6808016640799,1815.5,950.5714285714286,789.6808016640799,1925.2,950.5714285714286,789.6808016640799,2026.5,950.5714285714286,789.6808016640799,2126.5,950.5714285714286,789.6808016640799,2226.6,950.5714285714286,789.6808016640799,2329.6,950.5714285714286,789.6808016640799,2430.3,950.5714285714286,789.6808016640799,2535.1,950.5714285714286,789.6808016640799,2635.7,950.5714285714286,789.6808016640799,2740.7,950.5714285714286,789.6808016640799,2844.2,950.5714285714286,789.6808016640799,2945.3,950.5714285714286,789.6808016640799,3050.4,950.5714285714286,789.6808016640799,3160.3,950.5714285714286,789.6808016640799,3261.2,950.5714285714286,789.6808016640799,3364.8,950.5714285714286,789.6808016640799,3466.3,950.5714285714286,789.6808016640799,3575.8,950.5714285714286,789.6808016640799,3678.5,950.5714285714286,789.6808016640799,3780.2,950.5714285714286,789.6808016640799,3886,950.5714285714286,789.6808016640799,3986.2,950.5714285714286,789.6808016640799,4090.2,950.5714285714286,789.6808016640799,4190.4,950.5714285714286,789.6808016640799,4290.8,950.5714285714286,789.6808016640799,4390.8,950.5714285714286,789.6808016640799,4495.6,950.5714285714286,789.6808016640799,4610.1,950.5714285714286,789.6808016640799,4710.9,950.5714285714286,789.6808016640799,4814.9,950.5714285714286,789.6808016640799,4915.5]","[1381.8,1381.8,1000,0,381.8,""oops"",""down"",""down"",""good_move"",3726.2,2344,2011.4,1382.2,332.6,""oops"",""down"",""up"",""bad_move"",7301.1,3574.4,3240.2,3726.7,334.2,""oops"",""left"",""down"",""good_move"",9696.5,2395,2020.3,7301.6,374.7,""oops"",""left"",""right"",""bad_move"",12301.1,2604.2,2252.6,9696.9,351.6,""oops"",""down"",""up"",""bad_move"",16240,3938.6,3582.5,12301.4,356.1,""smooth"",""left"",""left"",""good_move"",18879.2,2638.9,2264.3,16240.3,374.6,""oops"",""left"",""up"",""bad_move"",21935,3055.7,2770.1,18879.5,285.5,""oops"",""right"",""right"",""bad_move"",24524.5,2589.1,2277.9,21935.5,311.1,""smooth"",""left"",""left"",""good_move"",27029.1,2504.3,2119.5,24524.8,384.8,""while_blue"",""down"",""left"",""good_move"",34139.1,7109.8,3235.4,30579.9,323.8,""oops"",""down"",""left"",""good_move"",36817.4,2677.8,2262.8,34139.6,415,""oops"",""down"",""up"",""bad_move""]","","",""
"2695","","<div style=""width:500px;"">
  <p>What determined the result of this run?</p>
  </div>","5","html-slider-response","78","975659","0.0-10.0-1.8","14","1","2025-07-09 09:06:33","7701e855f2ef39aa3fd6c71abdc6918a","92.40.111.69","Mozilla/5.0 (Windows NT 10.0; Win64; x64) AppleWebKit/537.36 (KHTML, like Gecko) Chrome/138.0.0.0 Safari/537.36","WebKit","Chrome","138.0.0.0","Windows","10.0","https://app.prolific.com/","en-GB,en-US;q=0.9,en;q=0.8","5bfd8910eed5280001ead1dd","686d226cabeef709c732f8e1","686e3110c339f3012f4432fc","5bfd8910eed5280001ead1dd","2025-07-09T09:22:48.768Z","","","","","","AttribQ","","","","","","","","","","","","","","","","","","","","","","","","","","","","","","","","","","","","","","50",""
"2156","","<div style=""width:500px;"">
  <p>How much control did you have over the ball?</p>
  </div>","2","html-slider-response","79","977816","0.0-10.0-2.8","14","1","2025-07-09 09:06:33","7701e855f2ef39aa3fd6c71abdc6918a","92.40.111.69","Mozilla/5.0 (Windows NT 10.0; Win64; x64) AppleWebKit/537.36 (KHTML, like Gecko) Chrome/138.0.0.0 Safari/537.36","WebKit","Chrome","138.0.0.0","Windows","10.0","https://app.prolific.com/","en-GB,en-US;q=0.9,en;q=0.8","5bfd8910eed5280001ead1dd","686d226cabeef709c732f8e1","686e3110c339f3012f4432fc","5bfd8910eed5280001ead1dd","2025-07-09T09:22:50.924Z","","","","","","ControlQ","","","","","","","","","","","","","","","","","","","","","","","","","","","","","","","","","","","","","","50",""
"2177","","<div style=""width:500px;"">
  <p>How would you describe your current emotional state?</p>
  </div>","65","html-slider-response","80","979994","0.0-10.0-3.8","14","1","2025-07-09 09:06:33","7701e855f2ef39aa3fd6c71abdc6918a","92.40.111.69","Mozilla/5.0 (Windows NT 10.0; Win64; x64) AppleWebKit/537.36 (KHTML, like Gecko) Chrome/138.0.0.0 Safari/537.36","WebKit","Chrome","138.0.0.0","Windows","10.0","https://app.prolific.com/","en-GB,en-US;q=0.9,en;q=0.8","5bfd8910eed5280001ead1dd","686d226cabeef709c732f8e1","686e3110c339f3012f4432fc","5bfd8910eed5280001ead1dd","2025-07-09T09:22:53.102Z","","","","","","StressQ","","","","","","","","","","","","","","","","","","","","","","","","","","","","","","","","","","","","","","50",""
"2093","","<div style=""width:500px;"">
  <p>What best describes how you currently feel?</p>
  </div>","51","html-slider-response","81","982088","0.0-10.0-4.8","14","1","2025-07-09 09:06:33","7701e855f2ef39aa3fd6c71abdc6918a","92.40.111.69","Mozilla/5.0 (Windows NT 10.0; Win64; x64) AppleWebKit/537.36 (KHTML, like Gecko) Chrome/138.0.0.0 Safari/537.36","WebKit","Chrome","138.0.0.0","Windows","10.0","https://app.prolific.com/","en-GB,en-US;q=0.9,en;q=0.8","5bfd8910eed5280001ead1dd","686d226cabeef709c732f8e1","686e3110c339f3012f4432fc","5bfd8910eed5280001ead1dd","2025-07-09T09:22:55.196Z","","","","","","MotivationQ","","","","","","","","","","","","","","","","","","","","","","","","","","","","","","","","","","","","","","50",""
"","","","","ctl-task-cpt","82","1033883","0.0-10.0-0.9","14","1","2025-07-09 09:06:33","7701e855f2ef39aa3fd6c71abdc6918a","92.40.111.69","Mozilla/5.0 (Windows NT 10.0; Win64; x64) AppleWebKit/537.36 (KHTML, like Gecko) Chrome/138.0.0.0 Safari/537.36","WebKit","Chrome","138.0.0.0","Windows","10.0","https://app.prolific.com/","en-GB,en-US;q=0.9,en;q=0.8","5bfd8910eed5280001ead1dd","686d226cabeef709c732f8e1","686e3110c339f3012f4432fc","5bfd8910eed5280001ead1dd","2025-07-09T09:23:46.991Z","","","","","","","","","","","","","","","","win-only","0","g1:NW,g2:SE","0.4","10","0","983975.8","910.7","5911.2","48765.7","1","4","4","6","2","-4","-5","7","12","0.05303030303030303","624.3","3000","-2335","[""down"",""right""]","{""num_key_presses"":12,""num_perfect"":4,""num_errors"":1,""num_randdir"":7,""num_randdir_good_moves"":3,""num_whilered"":0,""num_whileblue"":1,""num_blue"":3,""num_good_moves"":7}","[416.57142857142856,417.6808016640799,0.2,416.57142857142856,417.6808016640799,113.8,416.57142857142856,417.6808016640799,216.3,421.07142857142856,443.1808016640799,321.3,667.0714285714286,654.6808016640799,432.4,731.5714285714286,768.6808016640799,536.6,740.5714285714286,767.1808016640799,647.4,773.5714285714286,759.6808016640799,749.6,1196.5714285714287,762.6808016640799,849.8,1270.0714285714287,744.6808016640799,950.7,1301.5714285714287,701.1808016640799,1054.7,1301.5714285714287,701.1808016640799,1164.8,1301.5714285714287,701.1808016640799,1269.8,1301.5714285714287,701.1808016640799,1375,1301.5714285714287,701.1808016640799,1476.1,1301.5714285714287,701.1808016640799,1582.3,1301.5714285714287,701.1808016640799,1683.3,1301.5714285714287,701.1808016640799,1783.8,1301.5714285714287,701.1808016640799,1889.9,1301.5714285714287,701.1808016640799,1995.2,1301.5714285714287,701.1808016640799,2096.5,1301.5714285714287,701.1808016640799,2200.3,1301.5714285714287,701.1808016640799,2301.5,1301.5714285714287,701.1808016640799,2415.1,1301.5714285714287,701.1808016640799,2519.8,1301.5714285714287,701.1808016640799,2620.9,1301.5714285714287,701.1808016640799,2720.9,1301.5714285714287,701.1808016640799,2832.7,1301.5714285714287,701.1808016640799,2936.4,1301.5714285714287,701.1808016640799,3050.6,1301.5714285714287,701.1808016640799,3155.3,1301.5714285714287,701.1808016640799,3261.1,1301.5714285714287,701.1808016640799,3365.9,1301.5714285714287,701.1808016640799,3467,1301.5714285714287,701.1808016640799,3570.7,1301.5714285714287,701.1808016640799,3683.9,1301.5714285714287,701.1808016640799,3784.9,1301.5714285714287,701.1808016640799,3885.5,1301.5714285714287,701.1808016640799,3999.4,1301.5714285714287,701.1808016640799,4099.8,1301.5714285714287,701.1808016640799,4205.4,1301.5714285714287,701.1808016640799,4315.9,1301.5714285714287,701.1808016640799,4419.8,1301.5714285714287,701.1808016640799,4520.9,1301.5714285714287,701.1808016640799,4620.9,1301.5714285714287,701.1808016640799,4724.7,1301.5714285714287,701.1808016640799,4833.9,1301.5714285714287,701.1808016640799,4935.4]","[1330.6,1330.6,1000,0,330.6,""smooth"",""right"",""right"",""good_move"",3854.3,2523.2,2161.3,1331.1,361.9,""oops"",""right"",""left"",""bad_move"",6168.9,2314.2,1892.1,3854.7,422.1,""smooth"",""right"",""right"",""good_move"",9516.5,3347.4,3020.9,6169.1,326.5,""while_blue"",""down"",""left"",""bad_move"",12123.8,2606.9,2222.1,9516.9,384.8,""smooth"",""down"",""down"",""good_move"",14935.4,2811.4,2472,12124.1,339.4,""oops"",""down"",""down"",""good_move"",21155.8,6220.2,2157.1,18625,373.7,""oops"",""down"",""left"",""bad_move"",24568.5,3412.4,3022.7,21156.1,389.7,""oops"",""right"",""left"",""bad_move"",27131.4,2562.5,2190.8,24568.9,371.7,""oops"",""up"",""up"",""bad_move"",33196.9,6064.9,2328.5,30544.8,323.6,""smooth"",""down"",""down"",""good_move"",35782.6,2585.5,2234.1,33197.1,351.4,""oops"",""down"",""down"",""good_move"",40107.2,4324.3,4002.9,35782.9,321.4,""oops"",""right"",""right"",""good_move""]","","",""
"2949","","<div style=""width:500px;"">
  <p>What determined the result of this run?</p>
