"rt","response_timestamp","stimulus","response","trial_type","trial_index","time_elapsed","internal_node_id","run_id","condition","recorded_at","source_code_version","ip","user_agent","device","browser","browser_version","platform","platform_version","referer","accept_language","PROLIFIC_PID","STUDY_ID","SESSION_ID","prolific_id","realtime","view_history","question_order","consent","success","question_id","eventType","responses","item_order","radio_event_ids","radio_event_times","key_event_times","mouse_event_times","straightlining","zigzagging","honeypot","which_type","canvas_config","goals_layout","control_level","trial_number","tutorial_trial_number","trial_start_time","phase1_start_time","phase2_start_time","phase3_start_time","goal_1_value","goal_1_distance","goal_2_value","goal_2_distance","goal_selected","outcome","outcome_total","participant_final_score","participant_initial_score","participant_final_score_prop","goal_choice_rt","allocated_time","allocated_time_remaining","goal_direction","counts","mouse_movements","key_presses","correct","slider_start"
"45736","1752052085349","<p style='font-size:40px;line-height:1.25'><strong>Welcome to the experiment!</strong></p><p style='font-size:1.1em;line-height:1.25'>Thank you for your interest in our experiment! Before you begin, it is important that we obtain your informed consent to participate in the study.</p><p style='font-size:1.1em;line-height:1.25'>On the next screen will be an <strong>information sheet</strong> for you to read. To participate in the study we need you to read this information sheet and the following consent form carefully. If you agree with all the statements, please click the <strong>I agree</strong> button.</p><p style='font-size:1.1em;line-height:1.25'>Press <strong>Next</strong> to read the information sheet.</p>","0","custom-html-button-response","0","45738","0.0-0.0","60","1","2025-07-09 09:07:18","7701e855f2ef39aa3fd6c71abdc6918a","105.245.233.173","Mozilla/5.0 (Windows NT 10.0; Win64; x64) AppleWebKit/537.36 (KHTML, like Gecko) Chrome/137.0.0.0 Safari/537.36","WebKit","Chrome","137.0.0.0","Windows","10.0","https://app.prolific.com/","en-US,en;q=0.9","650ac282d9578d72800bf303","686d226cabeef709c732f8e1","686e3113e93b13947e5de7a5","650ac282d9578d72800bf303","2025-07-09T09:08:05.350Z","","","","","","","","","","","","","","","","","","","","","","","","","","","","","","","","","","","","","","","","","","","",""
"100099","","","","instructions","1","145838","0.0-1.0","60","1","2025-07-09 09:07:18","7701e855f2ef39aa3fd6c71abdc6918a","105.245.233.173","Mozilla/5.0 (Windows NT 10.0; Win64; x64) AppleWebKit/537.36 (KHTML, like Gecko) Chrome/137.0.0.0 Safari/537.36","WebKit","Chrome","137.0.0.0","Windows","10.0","https://app.prolific.com/","en-US,en;q=0.9","650ac282d9578d72800bf303","686d226cabeef709c732f8e1","686e3113e93b13947e5de7a5","650ac282d9578d72800bf303","","[{""page_index"":0,""viewing_time"":84197},{""page_index"":1,""viewing_time"":15901}]","","","","","","","","","","","","","","","","","","","","","","","","","","","","","","","","","","","","","","","","","","",""
"361467","","","{""Q0"":"""",""Q1"":"""",""Q2"":"""",""Q3"":"""",""Q4"":"""",""Q5"":"""",""Q6"":""I agree""}","survey-multi-choice","2","507307","0.0-2.0","60","1","2025-07-09 09:07:18","7701e855f2ef39aa3fd6c71abdc6918a","105.245.233.173","Mozilla/5.0 (Windows NT 10.0; Win64; x64) AppleWebKit/537.36 (KHTML, like Gecko) Chrome/137.0.0.0 Safari/537.36","WebKit","Chrome","137.0.0.0","Windows","10.0","https://app.prolific.com/","en-US,en;q=0.9","650ac282d9578d72800bf303","686d226cabeef709c732f8e1","686e3113e93b13947e5de7a5","650ac282d9578d72800bf303","","","[0,1,2,3,4,5,6]","true","","","","","","","","","","","","","","","","","","","","","","","","","","","","","","","","","","","","","","","","",""
"359547","","","","fullscreen","3","867861","0.0-4.0","60","1","2025-07-09 09:07:18","7701e855f2ef39aa3fd6c71abdc6918a","105.245.233.173","Mozilla/5.0 (Windows NT 10.0; Win64; x64) AppleWebKit/537.36 (KHTML, like Gecko) Chrome/137.0.0.0 Safari/537.36","WebKit","Chrome","137.0.0.0","Windows","10.0","https://app.prolific.com/","en-US,en;q=0.9","650ac282d9578d72800bf303","686d226cabeef709c732f8e1","686e3113e93b13947e5de7a5","650ac282d9578d72800bf303","","","","","true","","","","","","","","","","","","","","","","","","","","","","","","","","","","","","","","","","","","","","","",""
"6027","1752052913502"," <p style='font-size:1.1em;line-height:1.25'>Thank you for completing the consent form and closing all other tabs.</p><p style='font-size:1.1em;line-height:1.25'>We will now invite you to fill in some demographic information and questionnaires, before starting the game.<br>This will take about 5 minutes.<br></p><p style='font-size:1.1em;line-height:1.25'>Press the <strong>Next</strong> button to continue.</p>","0","custom-html-button-response","4","873890","0.0-5.0","60","1","2025-07-09 09:07:18","7701e855f2ef39aa3fd6c71abdc6918a","105.245.233.173","Mozilla/5.0 (Windows NT 10.0; Win64; x64) AppleWebKit/537.36 (KHTML, like Gecko) Chrome/137.0.0.0 Safari/537.36","WebKit","Chrome","137.0.0.0","Windows","10.0","https://app.prolific.com/","en-US,en;q=0.9","650ac282d9578d72800bf303","686d226cabeef709c732f8e1","686e3113e93b13947e5de7a5","650ac282d9578d72800bf303","2025-07-09T09:21:53.502Z","","","","","","","","","","","","","","","","","","","","","","","","","","","","","","","","","","","","","","","","","","","",""
"5473","","","{""age"":""39""}","survey-text","5","879366","0.0-6.0-0.0","60","1","2025-07-09 09:07:18","7701e855f2ef39aa3fd6c71abdc6918a","105.245.233.173","Mozilla/5.0 (Windows NT 10.0; Win64; x64) AppleWebKit/537.36 (KHTML, like Gecko) Chrome/137.0.0.0 Safari/537.36","WebKit","Chrome","137.0.0.0","Windows","10.0","https://app.prolific.com/","en-US,en;q=0.9","650ac282d9578d72800bf303","686d226cabeef709c732f8e1","686e3113e93b13947e5de7a5","650ac282d9578d72800bf303","","","","","","0","demographics","","","","","","","","","","","","","","","","","","","","","","","","","","","","","","","","","","","","","",""
"3096","","","{""gender_identity"":""female/woman""}","survey-multi-choice","6","882464","0.0-6.0-1.0","60","1","2025-07-09 09:07:18","7701e855f2ef39aa3fd6c71abdc6918a","105.245.233.173","Mozilla/5.0 (Windows NT 10.0; Win64; x64) AppleWebKit/537.36 (KHTML, like Gecko) Chrome/137.0.0.0 Safari/537.36","WebKit","Chrome","137.0.0.0","Windows","10.0","https://app.prolific.com/","en-US,en;q=0.9","650ac282d9578d72800bf303","686d226cabeef709c732f8e1","686e3113e93b13947e5de7a5","650ac282d9578d72800bf303","","","[0]","","","1","demographics","","","","","","","","","","","","","","","","","","","","","","","","","","","","","","","","","","","","","",""
"2440","","","{""assigned_sex"":""female""}","survey-multi-choice","7","884906","0.0-6.0-2.0","60","1","2025-07-09 09:07:18","7701e855f2ef39aa3fd6c71abdc6918a","105.245.233.173","Mozilla/5.0 (Windows NT 10.0; Win64; x64) AppleWebKit/537.36 (KHTML, like Gecko) Chrome/137.0.0.0 Safari/537.36","WebKit","Chrome","137.0.0.0","Windows","10.0","https://app.prolific.com/","en-US,en;q=0.9","650ac282d9578d72800bf303","686d226cabeef709c732f8e1","686e3113e93b13947e5de7a5","650ac282d9578d72800bf303","","","[0]","","","2","demographics","","","","","","","","","","","","","","","","","","","","","","","","","","","","","","","","","","","","","",""
"4117","","","{""menstrual_cycle"":""Yes""}","survey-multi-choice","8","889025","0.0-6.0-3.0","60","1","2025-07-09 09:07:18","7701e855f2ef39aa3fd6c71abdc6918a","105.245.233.173","Mozilla/5.0 (Windows NT 10.0; Win64; x64) AppleWebKit/537.36 (KHTML, like Gecko) Chrome/137.0.0.0 Safari/537.36","WebKit","Chrome","137.0.0.0","Windows","10.0","https://app.prolific.com/","en-US,en;q=0.9","650ac282d9578d72800bf303","686d226cabeef709c732f8e1","686e3113e93b13947e5de7a5","650ac282d9578d72800bf303","","","[0]","","","4","demographics","","","","","","","","","","","","","","","","","","","","","","","","","","","","","","","","","","","","","",""
"4365","","","{""education"":""Master's Degree (e.g., MSc)""}","survey-multi-choice","9","893392","0.0-6.0-4.0","60","1","2025-07-09 09:07:18","7701e855f2ef39aa3fd6c71abdc6918a","105.245.233.173","Mozilla/5.0 (Windows NT 10.0; Win64; x64) AppleWebKit/537.36 (KHTML, like Gecko) Chrome/137.0.0.0 Safari/537.36","WebKit","Chrome","137.0.0.0","Windows","10.0","https://app.prolific.com/","en-US,en;q=0.9","650ac282d9578d72800bf303","686d226cabeef709c732f8e1","686e3113e93b13947e5de7a5","650ac282d9578d72800bf303","","","[0]","","","5","demographics","","","","","","","","","","","","","","","","","","","","","","","","","","","","","","","","","","","","","",""
"6180","","","{""education"":""Higher National Diploma""}","survey-multi-choice","10","899575","0.0-6.0-5.0","60","1","2025-07-09 09:07:18","7701e855f2ef39aa3fd6c71abdc6918a","105.245.233.173","Mozilla/5.0 (Windows NT 10.0; Win64; x64) AppleWebKit/537.36 (KHTML, like Gecko) Chrome/137.0.0.0 Safari/537.36","WebKit","Chrome","137.0.0.0","Windows","10.0","https://app.prolific.com/","en-US,en;q=0.9","650ac282d9578d72800bf303","686d226cabeef709c732f8e1","686e3113e93b13947e5de7a5","650ac282d9578d72800bf303","2025-07-09T09:22:19.187Z","","[0]","","","6","demographics","","","","","","","","","","","","","","","","","","","","","","","","","","","","","","","","","","","","","",""
"10845","","","{""mental_health_condition"":""No"",""mental_health_treatment"":""No"",""psychiatric_medication"":""No""}","survey-text","11","910422","0.0-7.0-0.0","60","1","2025-07-09 09:07:18","7701e855f2ef39aa3fd6c71abdc6918a","105.245.233.173","Mozilla/5.0 (Windows NT 10.0; Win64; x64) AppleWebKit/537.36 (KHTML, like Gecko) Chrome/137.0.0.0 Safari/537.36","WebKit","Chrome","137.0.0.0","Windows","10.0","https://app.prolific.com/","en-US,en;q=0.9","650ac282d9578d72800bf303","686d226cabeef709c732f8e1","686e3113e93b13947e5de7a5","650ac282d9578d72800bf303","2025-07-09T09:22:30.034Z","","","","","1","mental_health","","","","","","","","","","","","","","","","","","","","","","","","","","","","","","","","","","","","","",""
"7301","","","{""depression_history"":[""Yes""]}","survey-multi-select","12","917726","0.0-7.0-1.0","60","1","2025-07-09 09:07:18","7701e855f2ef39aa3fd6c71abdc6918a","105.245.233.173","Mozilla/5.0 (Windows NT 10.0; Win64; x64) AppleWebKit/537.36 (KHTML, like Gecko) Chrome/137.0.0.0 Safari/537.36","WebKit","Chrome","137.0.0.0","Windows","10.0","https://app.prolific.com/","en-US,en;q=0.9","650ac282d9578d72800bf303","686d226cabeef709c732f8e1","686e3113e93b13947e5de7a5","650ac282d9578d72800bf303","","","[0]","","","","mental_health","","","","","","","","","","","","","","","","","","","","","","","","","","","","","","","","","","","","","",""
"8914","","","{""depression_episodes"":""1-2"",""depression_recent"":""More than 1 year ago""}","survey-multi-choice","13","926642","0.0-7.0-2.0-0.0","60","1","2025-07-09 09:07:18","7701e855f2ef39aa3fd6c71abdc6918a","105.245.233.173","Mozilla/5.0 (Windows NT 10.0; Win64; x64) AppleWebKit/537.36 (KHTML, like Gecko) Chrome/137.0.0.0 Safari/537.36","WebKit","Chrome","137.0.0.0","Windows","10.0","https://app.prolific.com/","en-US,en;q=0.9","650ac282d9578d72800bf303","686d226cabeef709c732f8e1","686e3113e93b13947e5de7a5","650ac282d9578d72800bf303","2025-07-09T09:22:46.254Z","","[0,1]","","","3","mental_health","","","","","","","","","","","","","","","","","","","","","","","","","","","","","","","","","","","","","",""
"185611.5","","","","survey-template","14","1112261","0.0-7.0-3.0","60","1","2025-07-09 09:07:18","7701e855f2ef39aa3fd6c71abdc6918a","105.245.233.173","Mozilla/5.0 (Windows NT 10.0; Win64; x64) AppleWebKit/537.36 (KHTML, like Gecko) Chrome/137.0.0.0 Safari/537.36","WebKit","Chrome","137.0.0.0","Windows","10.0","https://app.prolific.com/","en-US,en;q=0.9","650ac282d9578d72800bf303","686d226cabeef709c732f8e1","686e3113e93b13947e5de7a5","650ac282d9578d72800bf303","2025-07-09T09:25:51.873Z","","","","","","ius","{""Q01"":""2"",""Q02"":""4"",""Q03"":""1"",""Q04"":""2"",""Q05"":""1"",""Q06"":""1"",""Q07"":""0"",""Q08"":""0"",""Q09"":""2"",""Q10"":""2"",""Q11"":""2"",""Q12"":""2"",""Q13"":""2""}","[0,1,2,3,4,5,6,7,8,9,10,11,12]","[""Q01"",""Q02"",""Q03"",""Q04"",""Q05"",""Q06"",""Q06"",""Q07"",""Q08"",""Q09"",""Q10"",""Q11"",""Q12"",""Q13""]","[10058.900000000373,16837.599999999627,21998.700000000186,35657.40000000037,39862.200000000186,58937,62533.90000000037,70918.90000000037,77663.09999999963,83742.90000000037,85336.5,159408.7000000002,177604,184484.2999999998]","[]","[10058.900000000373,15476.599999999627,16837.599999999627,21998.700000000186,27344.700000000186,29227.5,30866.200000000186,34325.700000000186,35657.40000000037,38826.799999999814,39862.200000000186,55843.40000000037,57461,58937,62533.90000000037,68711.5,69909.09999999963,70918.90000000037,77663.09999999963,83742.90000000037,85336.5,156210.59999999963,159408.7000000002,177604,183477.40000000037,184484.2999999998,185609.90000000037]","0.5384615384615384","0.25","0","","","","","","","","","","","","","","","","","","","","","","","","","","","","",""
"2745","1752053154619","<p style='font-size:1.1em;line-height:1.25'>In the following, we will ask you a few questions relating to your experiences over the past month.<br></p><p style='font-size:1.1em;line-height:1.25'>Press the <strong>Next</strong> button to continue.</p>","0","custom-html-button-response","15","1115008","0.0-7.0-4.0","60","1","2025-07-09 09:07:18","7701e855f2ef39aa3fd6c71abdc6918a","105.245.233.173","Mozilla/5.0 (Windows NT 10.0; Win64; x64) AppleWebKit/537.36 (KHTML, like Gecko) Chrome/137.0.0.0 Safari/537.36","WebKit","Chrome","137.0.0.0","Windows","10.0","https://app.prolific.com/","en-US,en;q=0.9","650ac282d9578d72800bf303","686d226cabeef709c732f8e1","686e3113e93b13947e5de7a5","650ac282d9578d72800bf303","2025-07-09T09:25:54.620Z","","","","","","","","","","","","","","","","","","","","","","","","","","","","","","","","","","","","","","","","","","","",""
"71487.79999999981","","","","survey-template","16","1186499","0.0-7.0-5.0","60","1","2025-07-09 09:07:18","7701e855f2ef39aa3fd6c71abdc6918a","105.245.233.173","Mozilla/5.0 (Windows NT 10.0; Win64; x64) AppleWebKit/537.36 (KHTML, like Gecko) Chrome/137.0.0.0 Safari/537.36","WebKit","Chrome","137.0.0.0","Windows","10.0","https://app.prolific.com/","en-US,en;q=0.9","650ac282d9578d72800bf303","686d226cabeef709c732f8e1","686e3113e93b13947e5de7a5","650ac282d9578d72800bf303","2025-07-09T09:27:06.111Z","","","","","","pss","{""Q01"":""1"",""Q02"":""2"",""Q03"":""2"",""Q04"":""1"",""Q05"":""2"",""Q06"":""2"",""Q07"":""3"",""Q08"":""2"",""Q09"":""2"",""Q10"":""3""}","[0,1,2,3,4,5,6,7,8,9]","[""Q01"",""Q02"",""Q03"",""Q04"",""Q05"",""Q06"",""Q07"",""Q08"",""Q08"",""Q09"",""Q10""]","[8246.599999999627,16161.5,19153.700000000186,28975.799999999814,34107.799999999814,38372.09999999963,48523.299999999814,49859.5,52386.39999999944,62566.200000000186,70475.79999999981]","[]","[0.09999999962747097,8246.599999999627,14565.599999999627,16161.5,19153.700000000186,28975.799999999814,34107.799999999814,36416.5,38372.09999999963,45731.700000000186,48523.299999999814,49859.5,52386.39999999944,59565.5,62566.200000000186,68266.89999999944,69433.39999999944,70475.79999999981,71486.70000000019]","0.6","0.6666666666666666","0","","","","","","","","","","","","","","","","","","","","","","","","","","","","",""
"12858","1752053238970","<p style='font-size:1.1em;line-height:1.25'>Thank you for your answers! Now we will ask you a few more questions relating to your feelings in the last 24 hours.<br></p><p style='font-size:1.1em;line-height:1.25'>Press the <strong>Next</strong> button to continue.</p>","0","custom-html-button-response","17","1199358","0.0-7.0-6.0","60","1","2025-07-09 09:07:18","7701e855f2ef39aa3fd6c71abdc6918a","105.245.233.173","Mozilla/5.0 (Windows NT 10.0; Win64; x64) AppleWebKit/537.36 (KHTML, like Gecko) Chrome/137.0.0.0 Safari/537.36","WebKit","Chrome","137.0.0.0","Windows","10.0","https://app.prolific.com/","en-US,en;q=0.9","650ac282d9578d72800bf303","686d226cabeef709c732f8e1","686e3113e93b13947e5de7a5","650ac282d9578d72800bf303","2025-07-09T09:27:18.970Z","","","","","","","","","","","","","","","","","","","","","","","","","","","","","","","","","","","","","","","","","","","",""
"128131.5","","","","survey-template","18","1327496","0.0-7.0-7.0","60","1","2025-07-09 09:07:18","7701e855f2ef39aa3fd6c71abdc6918a","105.245.233.173","Mozilla/5.0 (Windows NT 10.0; Win64; x64) AppleWebKit/537.36 (KHTML, like Gecko) Chrome/137.0.0.0 Safari/537.36","WebKit","Chrome","137.0.0.0","Windows","10.0","https://app.prolific.com/","en-US,en;q=0.9","650ac282d9578d72800bf303","686d226cabeef709c732f8e1","686e3113e93b13947e5de7a5","650ac282d9578d72800bf303","2025-07-09T09:29:27.108Z","","","","","","drsp","{""Q01"":""1"",""Q02"":""2"",""Q03"":""2"",""Q04"":""3"",""Q05"":""1"",""Q06"":""1"",""Q07"":""2"",""Q08"":""1"",""Q09"":""2"",""Q10"":""2"",""Q11"":""2"",""Q12"":""3"",""Q13"":""2"",""Q14"":""1"",""Q15"":""4"",""Q16"":""3"",""Q17"":""3"",""Q18"":""4"",""Q19"":""3"",""Q20"":""3"",""Q21"":""3""}","[0,1,2,3,4,5,6,7,8,9,10,11,12,13,14,15,16,17,18,19,20]","[""Q01"",""Q02"",""Q03"",""Q04"",""Q05"",""Q06"",""Q07"",""Q08"",""Q09"",""Q10"",""Q11"",""Q12"",""Q13"",""Q14"",""Q15"",""Q16"",""Q17"",""Q18"",""Q20"",""Q19"",""Q21""]","[31875.39999999944,36311.89999999944,39717.89999999944,44012.299999999814,50398.799999999814,53969.59999999963,58312,60396.5,62876.299999999814,64740.299999999814,69413.09999999963,74234.59999999963,78612.29999999981,82493.5,87149.89999999944,90307.69999999925,92297.19999999925,100910.79999999981,116318.29999999981,118290.29999999981,126545.19999999925]","[]","[0,30713.89999999944,31875.39999999944,36311.89999999944,38514.89999999944,39717.89999999944,41314.299999999814,42396.5,44012.299999999814,50398.799999999814,53969.59999999963,57114.09999999963,58312,60396.5,62876.299999999814,64740.299999999814,69413.09999999963,74234.59999999963,75979.19999999925,78612.29999999981,82493.5,87149.89999999944,90307.69999999925,92297.19999999925,99547.79999999981,100910.79999999981,114164.19999999925,115114.19999999925,116318.29999999981,117199.5,118290.29999999981,126545.19999999925,128129.09999999963]","0.3333333333333333","0.55","0","","","","","","","","","","","","","","","","","","","","","","","","","","","","",""
"14895.300000000745","","","","survey-template","19","1342393","0.0-7.0-8.0","60","1","2025-07-09 09:07:18","7701e855f2ef39aa3fd6c71abdc6918a","105.245.233.173","Mozilla/5.0 (Windows NT 10.0; Win64; x64) AppleWebKit/537.36 (KHTML, like Gecko) Chrome/137.0.0.0 Safari/537.36","WebKit","Chrome","137.0.0.0","Windows","10.0","https://app.prolific.com/","en-US,en;q=0.9","650ac282d9578d72800bf303","686d226cabeef709c732f8e1","686e3113e93b13947e5de7a5","650ac282d9578d72800bf303","2025-07-09T09:29:42.005Z","","","","","","stress","{""Q01"":""3"",""Q02"":""2"",""Q03"":""4""}","[0,1,2]","[""Q01"",""Q02"",""Q03""]","[4078.300000000745,8378.900000000373,13346.100000000559]","[]","[4078.300000000745,8378.900000000373,12097,13346.100000000559,14894.5]","0.6666666666666666","0.5","0","","","","","","","","","","","","","","","","","","","","","","","","","","","","",""
"104733","","","","instructions","20","1447127","0.0-8.0-0.0","60","1","2025-07-09 09:07:18","7701e855f2ef39aa3fd6c71abdc6918a","105.245.233.173","Mozilla/5.0 (Windows NT 10.0; Win64; x64) AppleWebKit/537.36 (KHTML, like Gecko) Chrome/137.0.0.0 Safari/537.36","WebKit","Chrome","137.0.0.0","Windows","10.0","https://app.prolific.com/","en-US,en;q=0.9","650ac282d9578d72800bf303","686d226cabeef709c732f8e1","686e3113e93b13947e5de7a5","650ac282d9578d72800bf303","","[{""page_index"":0,""viewing_time"":56597},{""page_index"":1,""viewing_time"":11536},{""page_index"":2,""viewing_time"":16799},{""page_index"":3,""viewing_time"":19801}]","","","","","","","","","","","","","","","","","","","","","","","","","","","","","","","","","","","","","","","","","","",""
"","","","","ctl-task-cpt","21","1482292","0.0-8.0-1.0","60","1","2025-07-09 09:07:18","7701e855f2ef39aa3fd6c71abdc6918a","105.245.233.173","Mozilla/5.0 (Windows NT 10.0; Win64; x64) AppleWebKit/537.36 (KHTML, like Gecko) Chrome/137.0.0.0 Safari/537.36","WebKit","Chrome","137.0.0.0","Windows","10.0","https://app.prolific.com/","en-US,en;q=0.9","650ac282d9578d72800bf303","686d226cabeef709c732f8e1","686e3113e93b13947e5de7a5","650ac282d9578d72800bf303","","","","","","","","","","","","","","","","","win-only","2","g1:SE,g2:NW","1","0","1","1450333.2","6906.5","10912.5","32159","2","4","4","6","1","2","-1","0","0","0","4005.9","4000","1995","[""down"",""right""]","{""num_key_presses"":9,""num_perfect"":4,""num_errors"":3,""num_randdir"":0,""num_randdir_good_moves"":0,""num_whilered"":2,""num_whileblue"":0,""num_blue"":0,""num_good_moves"":4}","[296.22232142857143,300.12857142857143,0.3,296.22232142857143,300.12857142857143,105,296.22232142857143,300.12857142857143,205.2,296.22232142857143,300.12857142857143,309.1,296.22232142857143,300.12857142857143,414.4,296.22232142857143,300.12857142857143,514.6,296.22232142857143,300.12857142857143,615,296.22232142857143,300.12857142857143,715.1,296.22232142857143,300.12857142857143,819.5,296.22232142857143,300.12857142857143,920.2,296.22232142857143,300.12857142857143,1023.9,296.22232142857143,300.12857142857143,1124.4,296.22232142857143,300.12857142857143,1229.9,296.22232142857143,300.12857142857143,1330,296.22232142857143,300.12857142857143,1435.6,296.22232142857143,300.12857142857143,1540.1,296.22232142857143,300.12857142857143,1640.3,296.22232142857143,300.12857142857143,1744.5,296.22232142857143,300.12857142857143,1850.4,296.22232142857143,300.12857142857143,1954.7,296.22232142857143,300.12857142857143,2059.9,296.22232142857143,300.12857142857143,2164.3,296.22232142857143,300.12857142857143,2264.7,296.22232142857143,300.12857142857143,2364.7,296.22232142857143,300.12857142857143,2464.8,296.22232142857143,300.12857142857143,2565,296.22232142857143,300.12857142857143,2665.2,296.22232142857143,300.12857142857143,2769.5,296.22232142857143,300.12857142857143,2874.1,296.22232142857143,300.12857142857143,2974.4,296.22232142857143,300.12857142857143,3079.4,296.22232142857143,300.12857142857143,3180.4,296.22232142857143,300.12857142857143,3284.7,296.22232142857143,300.12857142857143,3384.8,296.22232142857143,300.12857142857143,3489.7,296.22232142857143,300.12857142857143,3594.8,296.22232142857143,300.12857142857143,3699.1,296.22232142857143,300.12857142857143,3799.4,296.22232142857143,300.12857142857143,3904.7]","[247.6,247.5,1000,0.1,-752.5,""error"",""-"",""-"",""no_move"",6110.6,5862.8,3308.7,1251.4,1550.5,""smooth"",""right"",""right"",""good_move"",7306.6,1195.4,1987.7,6111.3,-792.4,""error"",""-"",""-"",""no_move"",7306.7,0,1987.7,6111.3,-792.3,""while_red"",""-"",""-"",""no_move"",7952.8,646.1,1987.7,6111.3,-146.2,""while_red"",""-"",""-"",""no_move"",11488.3,4181.6,2621.8,8308.5,558,""smooth"",""down"",""down"",""good_move"",11817,328.3,1386.8,11488.7,-1058.4,""error"",""-"",""-"",""no_move"",16103.2,4285.9,2917.4,12817.9,367.9,""smooth"",""down"",""down"",""good_move"",21155,5051.5,2441.4,16103.5,2610.2,""smooth"",""right"",""right"",""good_move""]","",""
"18929","","","","instructions","22","1501221","0.0-8.0-2.0","60","1","2025-07-09 09:07:18","7701e855f2ef39aa3fd6c71abdc6918a","105.245.233.173","Mozilla/5.0 (Windows NT 10.0; Win64; x64) AppleWebKit/537.36 (KHTML, like Gecko) Chrome/137.0.0.0 Safari/537.36","WebKit","Chrome","137.0.0.0","Windows","10.0","https://app.prolific.com/","en-US,en;q=0.9","650ac282d9578d72800bf303","686d226cabeef709c732f8e1","686e3113e93b13947e5de7a5","650ac282d9578d72800bf303","","[{""page_index"":0,""viewing_time"":18928}]","","","","","","","","","","","","","","","","","","","","","","","","","","","","","","","","","","","","","","","","","","",""
"","","","","ctl-task-cpt","23","1542660","0.0-8.0-3.0","60","1","2025-07-09 09:07:18","7701e855f2ef39aa3fd6c71abdc6918a","105.245.233.173","Mozilla/5.0 (Windows NT 10.0; Win64; x64) AppleWebKit/537.36 (KHTML, like Gecko) Chrome/137.0.0.0 Safari/537.36","WebKit","Chrome","137.0.0.0","Windows","10.0","https://app.prolific.com/","en-US,en;q=0.9","650ac282d9578d72800bf303","686d226cabeef709c732f8e1","686e3113e93b13947e5de7a5","650ac282d9578d72800bf303","","","","","","","","","","","","","","","","","win-only","2","g1:SE,g2:NW","0.35","0","3","1504427.1","4349.5","8351.5","38426.4","2","4","8","6","1","-2","-8","0","0","0","4002","4000","-2985","[""down"",""right""]","{""num_key_presses"":12,""num_perfect"":3,""num_errors"":6,""num_randdir"":3,""num_randdir_good_moves"":1,""num_whilered"":0,""num_whileblue"":0,""num_blue"":0,""num_good_moves"":4}","[300.22232142857143,293.12857142857143,0.3,300.22232142857143,293.12857142857143,101.6,300.22232142857143,293.12857142857143,201.7,300.22232142857143,293.12857142857143,301.7,300.22232142857143,293.12857142857143,401.8,300.22232142857143,293.12857142857143,502.3,300.22232142857143,293.12857142857143,606.2,300.22232142857143,293.12857142857143,707,300.22232142857143,293.12857142857143,807.3,300.22232142857143,293.12857142857143,911.6,300.22232142857143,293.12857142857143,1011.8,300.22232142857143,293.12857142857143,1111.8,300.22232142857143,293.12857142857143,1216.7,300.22232142857143,293.12857142857143,1320.9,300.22232142857143,293.12857142857143,1421,300.22232142857143,293.12857142857143,1522.8,300.22232142857143,293.12857142857143,1626.6,300.22232142857143,293.12857142857143,1727,300.22232142857143,293.12857142857143,1831.5,300.22232142857143,293.12857142857143,1931.8,300.22232142857143,293.12857142857143,2036,300.22232142857143,293.12857142857143,2136.4,300.22232142857143,293.12857142857143,2236.4,300.22232142857143,293.12857142857143,2336.5,300.22232142857143,293.12857142857143,2436.6,300.22232142857143,293.12857142857143,2541.3,300.22232142857143,293.12857142857143,2641.8,300.22232142857143,293.12857142857143,2743.1,300.22232142857143,293.12857142857143,2846.5,300.22232142857143,293.12857142857143,2946.6,300.22232142857143,293.12857142857143,3051.9,300.22232142857143,293.12857142857143,3156.9,300.22232142857143,293.12857142857143,3261.8,162.22232142857143,251.12857142857143,3361.9,91.22232142857143,223.12857142857143,3466.6,31.222321428571426,190.12857142857143,3566.6,60.222321428571426,-25.871428571428574,3668.3,61.222321428571426,-27.871428571428574,3772.3,52.222321428571426,29.128571428571426,3877.3,49.222321428571426,44.128571428571426,3981.8]","[2504.5,2504.5,1000,0,1504.5,""oops"",""right"",""right"",""good_move"",2883.1,378.4,2873.8,2504.7,-2495.4,""error"",""-"",""-"",""no_move"",4670.3,1787.1,2980.4,3884,-2194.1,""error"",""-"",""-"",""no_move"",7963.9,3293.4,1882.4,5674,407.5,""oops"",""right"",""up"",""bad_move"",8939.6,975.5,2956.9,7964.2,-1981.4,""error"",""-"",""-"",""no_move"",10962,2022.2,2675.6,9944.5,-1658.1,""error"",""-"",""-"",""no_move"",14739.5,3777.3,2276,11964.3,499.2,""smooth"",""down"",""down"",""good_move"",15431.7,692,2785.6,14739.7,-2093.6,""error"",""-"",""-"",""no_move"",19315.5,3883.6,2280.2,16434.3,601,""smooth"",""down"",""down"",""good_move"",23017.6,3702,3190.1,19315.6,511.9,""oops"",""down"",""left"",""bad_move"",24054.5,1036.5,2500.7,23018,-1464.2,""error"",""-"",""-"",""no_move"",27863.8,3809.1,2304.3,25059.6,499.9,""smooth"",""right"",""right"",""good_move""]","",""
"37268","","","","instructions","24","1579929","0.0-8.0-4.0","60","1","2025-07-09 09:07:18","7701e855f2ef39aa3fd6c71abdc6918a","105.245.233.173","Mozilla/5.0 (Windows NT 10.0; Win64; x64) AppleWebKit/537.36 (KHTML, like Gecko) Chrome/137.0.0.0 Safari/537.36","WebKit","Chrome","137.0.0.0","Windows","10.0","https://app.prolific.com/","en-US,en;q=0.9","650ac282d9578d72800bf303","686d226cabeef709c732f8e1","686e3113e93b13947e5de7a5","650ac282d9578d72800bf303","","[{""page_index"":0,""viewing_time"":14328},{""page_index"":1,""viewing_time"":22940}]","","","","","","","","","","","","","","","","","","","","","","","","","","","","","","","","","","","","","","","","","","",""
"35048","","","{""green_ball"":[""Ball always moves in the direction I press"",""Ball sometimes shakes and moves in a random direction""]}","survey-multi-select","25","1614979","0.0-8.0-5.0-0.0","60","1","2025-07-09 09:07:18","7701e855f2ef39aa3fd6c71abdc6918a","105.245.233.173","Mozilla/5.0 (Windows NT 10.0; Win64; x64) AppleWebKit/537.36 (KHTML, like Gecko) Chrome/137.0.0.0 Safari/537.36","WebKit","Chrome","137.0.0.0","Windows","10.0","https://app.prolific.com/","en-US,en;q=0.9","650ac282d9578d72800bf303","686d226cabeef709c732f8e1","686e3113e93b13947e5de7a5","650ac282d9578d72800bf303","","","[0]","","","","quiz","","","","","","","","","","","","","","","","","","","","","","","","","","","","","","","","","","","","","false",""
"2942","","<p align='center'><b>INCORRECT.</b> Usually the green ball moves in the indicated direction, but sometimes it shakes and moves randomly. </p>","0","html-button-response","26","1617922","0.0-8.0-5.0-1.0","60","1","2025-07-09 09:07:18","7701e855f2ef39aa3fd6c71abdc6918a","105.245.233.173","Mozilla/5.0 (Windows NT 10.0; Win64; x64) AppleWebKit/537.36 (KHTML, like Gecko) Chrome/137.0.0.0 Safari/537.36","WebKit","Chrome","137.0.0.0","Windows","10.0","https://app.prolific.com/","en-US,en;q=0.9","650ac282d9578d72800bf303","686d226cabeef709c732f8e1","686e3113e93b13947e5de7a5","650ac282d9578d72800bf303","","","","","","","","","","","","","","","","","","","","","","","","","","","","","","","","","","","","","","","","","","","","",""
"4155","","","{""green_ball"":[""Ball always shakes and moves in a random direction""]}","survey-multi-select","27","1622080","0.0-8.0-5.1-0.1","60","1","2025-07-09 09:07:18","7701e855f2ef39aa3fd6c71abdc6918a","105.245.233.173","Mozilla/5.0 (Windows NT 10.0; Win64; x64) AppleWebKit/537.36 (KHTML, like Gecko) Chrome/137.0.0.0 Safari/537.36","WebKit","Chrome","137.0.0.0","Windows","10.0","https://app.prolific.com/","en-US,en;q=0.9","650ac282d9578d72800bf303","686d226cabeef709c732f8e1","686e3113e93b13947e5de7a5","650ac282d9578d72800bf303","","","[0]","","","","quiz","","","","","","","","","","","","","","","","","","","","","","","","","","","","","","","","","","","","","false",""
"7498","","<p align='center'><b>INCORRECT.</b> Usually the green ball moves in the indicated direction, but sometimes it shakes and moves randomly. </p>","0","html-button-response","28","1629579","0.0-8.0-5.1-1.1","60","1","2025-07-09 09:07:18","7701e855f2ef39aa3fd6c71abdc6918a","105.245.233.173","Mozilla/5.0 (Windows NT 10.0; Win64; x64) AppleWebKit/537.36 (KHTML, like Gecko) Chrome/137.0.0.0 Safari/537.36","WebKit","Chrome","137.0.0.0","Windows","10.0","https://app.prolific.com/","en-US,en;q=0.9","650ac282d9578d72800bf303","686d226cabeef709c732f8e1","686e3113e93b13947e5de7a5","650ac282d9578d72800bf303","","","","","","","","","","","","","","","","","","","","","","","","","","","","","","","","","","","","","","","","","","","","",""
"8485","","","{""green_ball"":[""Ball sometimes shakes and moves in a random direction""]}","survey-multi-select","29","1638066","0.0-8.0-5.2-0.2","60","1","2025-07-09 09:07:18","7701e855f2ef39aa3fd6c71abdc6918a","105.245.233.173","Mozilla/5.0 (Windows NT 10.0; Win64; x64) AppleWebKit/537.36 (KHTML, like Gecko) Chrome/137.0.0.0 Safari/537.36","WebKit","Chrome","137.0.0.0","Windows","10.0","https://app.prolific.com/","en-US,en;q=0.9","650ac282d9578d72800bf303","686d226cabeef709c732f8e1","686e3113e93b13947e5de7a5","650ac282d9578d72800bf303","","","[0]","","","","quiz","","","","","","","","","","","","","","","","","","","","","","","","","","","","","","","","","","","","","true",""
"4208","","<p align='center'><b>CORRECT!</b> Indeed, the green ball may sometimes shake and move in a random direction.</p>","0","html-button-response","30","1642275","0.0-8.0-5.2-1.2","60","1","2025-07-09 09:07:18","7701e855f2ef39aa3fd6c71abdc6918a","105.245.233.173","Mozilla/5.0 (Windows NT 10.0; Win64; x64) AppleWebKit/537.36 (KHTML, like Gecko) Chrome/137.0.0.0 Safari/537.36","WebKit","Chrome","137.0.0.0","Windows","10.0","https://app.prolific.com/","en-US,en;q=0.9","650ac282d9578d72800bf303","686d226cabeef709c732f8e1","686e3113e93b13947e5de7a5","650ac282d9578d72800bf303","","","","","","","","","","","","","","","","","","","","","","","","","","","","","","","","","","","","","","","","","","","","",""
"9461","","","{""yellow_ball"":[""Ball doesn‘t move and I get -1 penalty point""]}","survey-multi-select","31","1651737","0.0-8.0-6.0-0.0","60","1","2025-07-09 09:07:18","7701e855f2ef39aa3fd6c71abdc6918a","105.245.233.173","Mozilla/5.0 (Windows NT 10.0; Win64; x64) AppleWebKit/537.36 (KHTML, like Gecko) Chrome/137.0.0.0 Safari/537.36","WebKit","Chrome","137.0.0.0","Windows","10.0","https://app.prolific.com/","en-US,en;q=0.9","650ac282d9578d72800bf303","686d226cabeef709c732f8e1","686e3113e93b13947e5de7a5","650ac282d9578d72800bf303","","","[0]","","","","quiz","","","","","","","","","","","","","","","","","","","","","","","","","","","","","","","","","","","","","true",""
"1840","","<p align='center'><b>CORRECT!</b> Indeed, the yellow ball never moves and you receive a penalty.</p>","0","html-button-response","32","1653578","0.0-8.0-6.0-1.0","60","1","2025-07-09 09:07:18","7701e855f2ef39aa3fd6c71abdc6918a","105.245.233.173","Mozilla/5.0 (Windows NT 10.0; Win64; x64) AppleWebKit/537.36 (KHTML, like Gecko) Chrome/137.0.0.0 Safari/537.36","WebKit","Chrome","137.0.0.0","Windows","10.0","https://app.prolific.com/","en-US,en;q=0.9","650ac282d9578d72800bf303","686d226cabeef709c732f8e1","686e3113e93b13947e5de7a5","650ac282d9578d72800bf303","","","","","","","","","","","","","","","","","","","","","","","","","","","","","","","","","","","","","","","","","","","","",""
"12352","","","{""blue_ball"":[""Ball always shakes and moves in a random direction""]}","survey-multi-select","33","1665932","0.0-8.0-7.0-0.0","60","1","2025-07-09 09:07:18","7701e855f2ef39aa3fd6c71abdc6918a","105.245.233.173","Mozilla/5.0 (Windows NT 10.0; Win64; x64) AppleWebKit/537.36 (KHTML, like Gecko) Chrome/137.0.0.0 Safari/537.36","WebKit","Chrome","137.0.0.0","Windows","10.0","https://app.prolific.com/","en-US,en;q=0.9","650ac282d9578d72800bf303","686d226cabeef709c732f8e1","686e3113e93b13947e5de7a5","650ac282d9578d72800bf303","","","[0]","","","","quiz","","","","","","","","","","","","","","","","","","","","","","","","","","","","","","","","","","","","","true",""
"1825","","<p align='center'><b>CORRECT!</b> Indeed, the blue ball always shakes and moves in a random direction. Also there is a penalty of -1 point.</p>","0","html-button-response","34","1667758","0.0-8.0-7.0-1.0","60","1","2025-07-09 09:07:18","7701e855f2ef39aa3fd6c71abdc6918a","105.245.233.173","Mozilla/5.0 (Windows NT 10.0; Win64; x64) AppleWebKit/537.36 (KHTML, like Gecko) Chrome/137.0.0.0 Safari/537.36","WebKit","Chrome","137.0.0.0","Windows","10.0","https://app.prolific.com/","en-US,en;q=0.9","650ac282d9578d72800bf303","686d226cabeef709c732f8e1","686e3113e93b13947e5de7a5","650ac282d9578d72800bf303","","","","","","","","","","","","","","","","","","","","","","","","","","","","","","","","","","","","","","","","","","","","",""
"9138","","","{""bonus"":[""When I reach all possible points""]}","survey-multi-select","35","1676898","0.0-8.0-8.0-0.0","60","1","2025-07-09 09:07:18","7701e855f2ef39aa3fd6c71abdc6918a","105.245.233.173","Mozilla/5.0 (Windows NT 10.0; Win64; x64) AppleWebKit/537.36 (KHTML, like Gecko) Chrome/137.0.0.0 Safari/537.36","WebKit","Chrome","137.0.0.0","Windows","10.0","https://app.prolific.com/","en-US,en;q=0.9","650ac282d9578d72800bf303","686d226cabeef709c732f8e1","686e3113e93b13947e5de7a5","650ac282d9578d72800bf303","","","[0]","","","","quiz","","","","","","","","","","","","","","","","","","","","","","","","","","","","","","","","","","","","","false",""
"1877","","<p align='center'><b>INCORRECT.</b> You receive 2 pounds extra when you reach 50% of points </p>","0","html-button-response","36","1678776","0.0-8.0-8.0-1.0","60","1","2025-07-09 09:07:18","7701e855f2ef39aa3fd6c71abdc6918a","105.245.233.173","Mozilla/5.0 (Windows NT 10.0; Win64; x64) AppleWebKit/537.36 (KHTML, like Gecko) Chrome/137.0.0.0 Safari/537.36","WebKit","Chrome","137.0.0.0","Windows","10.0","https://app.prolific.com/","en-US,en;q=0.9","650ac282d9578d72800bf303","686d226cabeef709c732f8e1","686e3113e93b13947e5de7a5","650ac282d9578d72800bf303","","","","","","","","","","","","","","","","","","","","","","","","","","","","","","","","","","","","","","","","","","","","",""
"2493","","","{""bonus"":[""When I reach 50% of points""]}","survey-multi-select","37","1681270","0.0-8.0-8.1-0.1","60","1","2025-07-09 09:07:18","7701e855f2ef39aa3fd6c71abdc6918a","105.245.233.173","Mozilla/5.0 (Windows NT 10.0; Win64; x64) AppleWebKit/537.36 (KHTML, like Gecko) Chrome/137.0.0.0 Safari/537.36","WebKit","Chrome","137.0.0.0","Windows","10.0","https://app.prolific.com/","en-US,en;q=0.9","650ac282d9578d72800bf303","686d226cabeef709c732f8e1","686e3113e93b13947e5de7a5","650ac282d9578d72800bf303","","","[0]","","","","quiz","","","","","","","","","","","","","","","","","","","","","","","","","","","","","","","","","","","","","true",""
"2292","","<p align='center'><b>CORRECT!</b> Indeed, you receive 2 pounds extra when you reach 50% of points.</p>","0","html-button-response","38","1683563","0.0-8.0-8.1-1.1","60","1","2025-07-09 09:07:18","7701e855f2ef39aa3fd6c71abdc6918a","105.245.233.173","Mozilla/5.0 (Windows NT 10.0; Win64; x64) AppleWebKit/537.36 (KHTML, like Gecko) Chrome/137.0.0.0 Safari/537.36","WebKit","Chrome","137.0.0.0","Windows","10.0","https://app.prolific.com/","en-US,en;q=0.9","650ac282d9578d72800bf303","686d226cabeef709c732f8e1","686e3113e93b13947e5de7a5","650ac282d9578d72800bf303","","","","","","","","","","","","","","","","","","","","","","","","","","","","","","","","","","","","","","","","","","","","",""
"3354","","","","instructions","39","1686919","0.0-8.0-9.0","60","1","2025-07-09 09:07:18","7701e855f2ef39aa3fd6c71abdc6918a","105.245.233.173","Mozilla/5.0 (Windows NT 10.0; Win64; x64) AppleWebKit/537.36 (KHTML, like Gecko) Chrome/137.0.0.0 Safari/537.36","WebKit","Chrome","137.0.0.0","Windows","10.0","https://app.prolific.com/","en-US,en;q=0.9","650ac282d9578d72800bf303","686d226cabeef709c732f8e1","686e3113e93b13947e5de7a5","650ac282d9578d72800bf303","","[{""page_index"":0,""viewing_time"":3354}]","","","","","","","","","","","","","","","","","","","","","","","","","","","","","","","","","","","","","","","","","","",""
"13354","","<p>Before you start with this game please answer the following three questions yourself. </p>
  <p>Through this game, we measure several aspects of your cognitive performance, such as reaction times, multi-tasking capabilities </p>
  <p>and the ability to assess the situation you are in.</p>
  <p></p>
  <p><b>How good do you usually are in such tasks?</b></p>","61","html-slider-response","40","1700274","0.0-9.0-0.0","60","1","2025-07-09 09:07:18","7701e855f2ef39aa3fd6c71abdc6918a","105.245.233.173","Mozilla/5.0 (Windows NT 10.0; Win64; x64) AppleWebKit/537.36 (KHTML, like Gecko) Chrome/137.0.0.0 Safari/537.36","WebKit","Chrome","137.0.0.0","Windows","10.0","https://app.prolific.com/","en-US,en;q=0.9","650ac282d9578d72800bf303","686d226cabeef709c732f8e1","686e3113e93b13947e5de7a5","650ac282d9578d72800bf303","2025-07-09T09:35:39.886Z","","","","","","PreSkillQ","","","","","","","","","","","","","","","","","","","","","","","","","","","","","","","","","","","","","","50"
"8141","","<div style=""width:500px;"">
  <p>How well do you think you will perform in this task compared to other participants?</p>
  </div>","47","html-slider-response","41","1708417","0.0-9.0-1.0","60","1","2025-07-09 09:07:18","7701e855f2ef39aa3fd6c71abdc6918a","105.245.233.173","Mozilla/5.0 (Windows NT 10.0; Win64; x64) AppleWebKit/537.36 (KHTML, like Gecko) Chrome/137.0.0.0 Safari/537.36","WebKit","Chrome","137.0.0.0","Windows","10.0","https://app.prolific.com/","en-US,en;q=0.9","650ac282d9578d72800bf303","686d226cabeef709c732f8e1","686e3113e93b13947e5de7a5","650ac282d9578d72800bf303","2025-07-09T09:35:48.029Z","","","","","","PrePerfQ","","","","","","","","","","","","","","","","","","","","","","","","","","","","","","","","","","","","","","50"
"5130","","<div style=""width:500px;"">
  <p>What best describes how you currently feel?</p>
  </div>","29","html-slider-response","42","1713548","0.0-9.0-2.0","60","1","2025-07-09 09:07:18","7701e855f2ef39aa3fd6c71abdc6918a","105.245.233.173","Mozilla/5.0 (Windows NT 10.0; Win64; x64) AppleWebKit/537.36 (KHTML, like Gecko) Chrome/137.0.0.0 Safari/537.36","WebKit","Chrome","137.0.0.0","Windows","10.0","https://app.prolific.com/","en-US,en;q=0.9","650ac282d9578d72800bf303","686d226cabeef709c732f8e1","686e3113e93b13947e5de7a5","650ac282d9578d72800bf303","2025-07-09T09:35:53.160Z","","","","","","PreMotivationQ","","","","","","","","","","","","","","","","","","","","","","","","","","","","","","","","","","","","","","50"
"","","","","ctl-task-cpt","43","1745314","0.0-10.0-0.0","60","1","2025-07-09 09:07:18","7701e855f2ef39aa3fd6c71abdc6918a","105.245.233.173","Mozilla/5.0 (Windows NT 10.0; Win64; x64) AppleWebKit/537.36 (KHTML, like Gecko) Chrome/137.0.0.0 Safari/537.36","WebKit","Chrome","137.0.0.0","Windows","10.0","https://app.prolific.com/","en-US,en;q=0.9","650ac282d9578d72800bf303","686d226cabeef709c732f8e1","686e3113e93b13947e5de7a5","650ac282d9578d72800bf303","2025-07-09T09:36:24.926Z","","","","","","","","","","","","","","","","win-only","0","g1:NW,g2:SE","1","1","0","1716754.9","4185","9187.3","28746.6","1","4","8","6","1","1","0","0","0","0","1131.2","3000","1155","[""left"",""up""]","{""num_key_presses"":5,""num_perfect"":4,""num_errors"":1,""num_randdir"":0,""num_randdir_good_moves"":0,""num_whilered"":0,""num_whileblue"":0,""num_blue"":2,""num_good_moves"":4}","[294.22232142857143,290.12857142857143,0.2,294.22232142857143,290.12857142857143,102.1,294.22232142857143,290.12857142857143,206.2,294.22232142857143,290.12857142857143,306.6,294.22232142857143,290.12857142857143,411.4,244.22232142857143,268.12857142857143,516.2,124.22232142857143,85.12857142857143,620.8,125.22232142857143,75.12857142857143,727.5,78.22232142857143,72.12857142857143,831.2,55.222321428571426,71.12857142857143,931.4,55.222321428571426,71.12857142857143,1035.8,55.222321428571426,71.12857142857143,1141.8,55.222321428571426,71.12857142857143,1245.9,55.222321428571426,71.12857142857143,1346.2,55.222321428571426,71.12857142857143,1450.4,55.222321428571426,71.12857142857143,1555.8,55.222321428571426,71.12857142857143,1656.4,55.222321428571426,71.12857142857143,1756.4,55.222321428571426,71.12857142857143,1860.5,55.222321428571426,71.12857142857143,1961.3,55.222321428571426,71.12857142857143,2066.3,55.222321428571426,71.12857142857143,2166.4,55.222321428571426,71.12857142857143,2266.5,55.222321428571426,71.12857142857143,2371.5,55.222321428571426,71.12857142857143,2477.6,55.222321428571426,71.12857142857143,2582,55.222321428571426,71.12857142857143,2686.4,55.222321428571426,71.12857142857143,2790.5,55.222321428571426,71.12857142857143,2891.1,55.222321428571426,71.12857142857143,2996.4,55.222321428571426,71.12857142857143,3102.2,55.222321428571426,71.12857142857143,3206.4,55.222321428571426,71.12857142857143,3310.3,55.222321428571426,71.12857142857143,3410.7,55.222321428571426,71.12857142857143,3511.7,55.222321428571426,71.12857142857143,3611.7,55.222321428571426,71.12857142857143,3712.1,55.222321428571426,71.12857142857143,3816,55.222321428571426,71.12857142857143,3916.5,55.222321428571426,71.12857142857143,4022.2,55.222321428571426,71.12857142857143,4126.8,55.222321428571426,71.12857142857143,4226.9,55.222321428571426,71.12857142857143,4327.5,55.222321428571426,71.12857142857143,4427.6,55.222321428571426,71.12857142857143,4531.5,55.222321428571426,71.12857142857143,4636.1,55.222321428571426,71.12857142857143,4736.4,55.222321428571426,71.12857142857143,4841.1,55.222321428571426,71.12857142857143,4945.9]","[1596.8,1596.8,1000,0,596.8,""smooth"",""up"",""up"",""good_move"",2125,527.9,1832.7,1597.1,-1304.8,""error"",""-"",""-"",""no_move"",6064,3939,2485.9,3128.3,449.8,""smooth"",""up"",""up"",""good_move"",12974.6,6910.4,2987.8,9548.1,438.7,""smooth"",""left"",""left"",""good_move"",19474.9,6500,2378.3,16708.7,387.9,""smooth"",""left"",""left"",""good_move""]","",""
"5434","","<div style=""width:500px;"">
  <p>What determined the result of this run?</p>
  </div>","100","html-slider-response","44","1750749","0.0-10.0-1.0","60","1","2025-07-09 09:07:18","7701e855f2ef39aa3fd6c71abdc6918a","105.245.233.173","Mozilla/5.0 (Windows NT 10.0; Win64; x64) AppleWebKit/537.36 (KHTML, like Gecko) Chrome/137.0.0.0 Safari/537.36","WebKit","Chrome","137.0.0.0","Windows","10.0","https://app.prolific.com/","en-US,en;q=0.9","650ac282d9578d72800bf303","686d226cabeef709c732f8e1","686e3113e93b13947e5de7a5","650ac282d9578d72800bf303","2025-07-09T09:36:30.361Z","","","","","","AttribQ","","","","","","","","","","","","","","","","","","","","","","","","","","","","","","","","","","","","","","50"
"6470","","<div style=""width:500px;"">
  <p>How much control did you have over the ball?</p>
  </div>","78","html-slider-response","45","1757221","0.0-10.0-2.0","60","1","2025-07-09 09:07:18","7701e855f2ef39aa3fd6c71abdc6918a","105.245.233.173","Mozilla/5.0 (Windows NT 10.0; Win64; x64) AppleWebKit/537.36 (KHTML, like Gecko) Chrome/137.0.0.0 Safari/537.36","WebKit","Chrome","137.0.0.0","Windows","10.0","https://app.prolific.com/","en-US,en;q=0.9","650ac282d9578d72800bf303","686d226cabeef709c732f8e1","686e3113e93b13947e5de7a5","650ac282d9578d72800bf303","2025-07-09T09:36:36.833Z","","","","","","ControlQ","","","","","","","","","","","","","","","","","","","","","","","","","","","","","","","","","","","","","","50"
"5781","","<div style=""width:500px;"">
  <p>How would you describe your current emotional state?</p>
  </div>","54","html-slider-response","46","1763003","0.0-10.0-3.0","60","1","2025-07-09 09:07:18","7701e855f2ef39aa3fd6c71abdc6918a","105.245.233.173","Mozilla/5.0 (Windows NT 10.0; Win64; x64) AppleWebKit/537.36 (KHTML, like Gecko) Chrome/137.0.0.0 Safari/537.36","WebKit","Chrome","137.0.0.0","Windows","10.0","https://app.prolific.com/","en-US,en;q=0.9","650ac282d9578d72800bf303","686d226cabeef709c732f8e1","686e3113e93b13947e5de7a5","650ac282d9578d72800bf303","2025-07-09T09:36:42.615Z","","","","","","StressQ","","","","","","","","","","","","","","","","","","","","","","","","","","","","","","","","","","","","","","50"
"8009","","<div style=""width:500px;"">
  <p>What best describes how you currently feel?</p>
  </div>","59","html-slider-response","47","1771012","0.0-10.0-4.0","60","1","2025-07-09 09:07:18","7701e855f2ef39aa3fd6c71abdc6918a","105.245.233.173","Mozilla/5.0 (Windows NT 10.0; Win64; x64) AppleWebKit/537.36 (KHTML, like Gecko) Chrome/137.0.0.0 Safari/537.36","WebKit","Chrome","137.0.0.0","Windows","10.0","https://app.prolific.com/","en-US,en;q=0.9","650ac282d9578d72800bf303","686d226cabeef709c732f8e1","686e3113e93b13947e5de7a5","650ac282d9578d72800bf303","2025-07-09T09:36:50.624Z","","","","","","MotivationQ","","","","","","","","","","","","","","","","","","","","","","","","","","","","","","","","","","","","","","50"
"","","","","ctl-task-cpt","48","1799916","0.0-10.0-0.1","60","1","2025-07-09 09:07:18","7701e855f2ef39aa3fd6c71abdc6918a","105.245.233.173","Mozilla/5.0 (Windows NT 10.0; Win64; x64) AppleWebKit/537.36 (KHTML, like Gecko) Chrome/137.0.0.0 Safari/537.36","WebKit","Chrome","137.0.0.0","Windows","10.0","https://app.prolific.com/","en-US,en;q=0.9","650ac282d9578d72800bf303","686d226cabeef709c732f8e1","686e3113e93b13947e5de7a5","650ac282d9578d72800bf303","2025-07-09T09:37:19.528Z","","","","","","","","","","","","","","","","win-only","0","g1:NW,g2:SE","0.9","2","0","1774216.9","2854.9","7856.3","25880.7","1","4","4","6","2","4","3","3","0","0.022727272727272728","943.8","3000","465","[""down"",""right""]","{""num_key_presses"":6,""num_perfect"":4,""num_errors"":1,""num_randdir"":1,""num_randdir_good_moves"":1,""num_whilered"":0,""num_whileblue"":1,""num_blue"":1,""num_good_moves"":6}","[292.22232142857143,295.12857142857143,0.2,292.22232142857143,295.12857142857143,101.5,292.22232142857143,295.12857142857143,201.7,292.22232142857143,295.12857142857143,306.5,313.22232142857143,317.12857142857143,411.6,549.2223214285714,515.1285714285714,512.9,594.2223214285714,555.1285714285714,616.5,584.2223214285714,559.1285714285714,717.3,579.2223214285714,557.1285714285714,821.6,559.2223214285714,551.1285714285714,926.3,558.2223214285714,551.1285714285714,1032.4,558.2223214285714,551.1285714285714,1136.1,558.2223214285714,551.1285714285714,1237.1,558.2223214285714,551.1285714285714,1341.8,558.2223214285714,551.1285714285714,1447.5,558.2223214285714,551.1285714285714,1551.3,558.2223214285714,551.1285714285714,1656.1,558.2223214285714,551.1285714285714,1756.4,558.2223214285714,551.1285714285714,1856.4,558.2223214285714,551.1285714285714,1956.6,558.2223214285714,551.1285714285714,2056.6,558.2223214285714,551.1285714285714,2161.2,558.2223214285714,551.1285714285714,2261.6,558.2223214285714,551.1285714285714,2366.3,558.2223214285714,551.1285714285714,2466.5,558.2223214285714,551.1285714285714,2572.3,558.2223214285714,551.1285714285714,2675.8,558.2223214285714,551.1285714285714,2776,558.2223214285714,551.1285714285714,2876.1,558.2223214285714,551.1285714285714,2981.9,558.2223214285714,551.1285714285714,3082.4,558.2223214285714,551.1285714285714,3186.4,558.2223214285714,551.1285714285714,3291.4,558.2223214285714,551.1285714285714,3395.7,558.2223214285714,551.1285714285714,3500.9,558.2223214285714,551.1285714285714,3601.2,558.2223214285714,551.1285714285714,3706.9,558.2223214285714,551.1285714285714,3810.5,558.2223214285714,551.1285714285714,3911.3,558.2223214285714,551.1285714285714,4016.6,558.2223214285714,551.1285714285714,4120.6,558.2223214285714,551.1285714285714,4220.7,558.2223214285714,551.1285714285714,4325.8,558.2223214285714,551.1285714285714,4426.7,558.2223214285714,551.1285714285714,4531.1,558.2223214285714,551.1285714285714,4636.2,558.2223214285714,551.1285714285714,4740.6,558.2223214285714,551.1285714285714,4841.5,558.2223214285714,551.1285714285714,4941.7]","[1446.8,1446.8,1000,0,446.8,""smooth"",""down"",""down"",""good_move"",4765,3317.9,2733.2,1447.1,584.7,""smooth"",""down"",""down"",""good_move"",7873.4,3108.2,2491.8,4765.2,616.4,""smooth"",""down"",""down"",""good_move"",11218.6,3345,2897.1,7873.6,447.9,""oops"",""right"",""right"",""good_move"",14818.1,3599.3,3122.6,11218.8,476.7,""smooth"",""right"",""right"",""good_move"",17930.8,3112.5,2756.2,14818.3,356.3,""while_blue"",""right"",""right"",""good_move""]","",""
"4295","","<div style=""width:500px;"">
  <p>What determined the result of this run?</p>
  </div>","79","html-slider-response","49","1804212","0.0-10.0-1.1","60","1","2025-07-09 09:07:18","7701e855f2ef39aa3fd6c71abdc6918a","105.245.233.173","Mozilla/5.0 (Windows NT 10.0; Win64; x64) AppleWebKit/537.36 (KHTML, like Gecko) Chrome/137.0.0.0 Safari/537.36","WebKit","Chrome","137.0.0.0","Windows","10.0","https://app.prolific.com/","en-US,en;q=0.9","650ac282d9578d72800bf303","686d226cabeef709c732f8e1","686e3113e93b13947e5de7a5","650ac282d9578d72800bf303","2025-07-09T09:37:23.824Z","","","","","","AttribQ","","","","","","","","","","","","","","","","","","","","","","","","","","","","","","","","","","","","","","50"
"3809","","<div style=""width:500px;"">
  <p>How much control did you have over the ball?</p>
  </div>","67","html-slider-response","50","1808022","0.0-10.0-2.1","60","1","2025-07-09 09:07:18","7701e855f2ef39aa3fd6c71abdc6918a","105.245.233.173","Mozilla/5.0 (Windows NT 10.0; Win64; x64) AppleWebKit/537.36 (KHTML, like Gecko) Chrome/137.0.0.0 Safari/537.36","WebKit","Chrome","137.0.0.0","Windows","10.0","https://app.prolific.com/","en-US,en;q=0.9","650ac282d9578d72800bf303","686d226cabeef709c732f8e1","686e3113e93b13947e5de7a5","650ac282d9578d72800bf303","2025-07-09T09:37:27.634Z","","","","","","ControlQ","","","","","","","","","","","","","","","","","","","","","","","","","","","","","","","","","","","","","","50"
"3625","","<div style=""width:500px;"">
  <p>How would you describe your current emotional state?</p>
  </div>","43","html-slider-response","51","1811648","0.0-10.0-3.1","60","1","2025-07-09 09:07:18","7701e855f2ef39aa3fd6c71abdc6918a","105.245.233.173","Mozilla/5.0 (Windows NT 10.0; Win64; x64) AppleWebKit/537.36 (KHTML, like Gecko) Chrome/137.0.0.0 Safari/537.36","WebKit","Chrome","137.0.0.0","Windows","10.0","https://app.prolific.com/","en-US,en;q=0.9","650ac282d9578d72800bf303","686d226cabeef709c732f8e1","686e3113e93b13947e5de7a5","650ac282d9578d72800bf303","2025-07-09T09:37:31.260Z","","","","","","StressQ","","","","","","","","","","","","","","","","","","","","","","","","","","","","","","","","","","","","","","50"
"12995","","<div style=""width:500px;"">
  <p>What best describes how you currently feel?</p>
  </div>","61","html-slider-response","52","1824644","0.0-10.0-4.1","60","1","2025-07-09 09:07:18","7701e855f2ef39aa3fd6c71abdc6918a","105.245.233.173","Mozilla/5.0 (Windows NT 10.0; Win64; x64) AppleWebKit/537.36 (KHTML, like Gecko) Chrome/137.0.0.0 Safari/537.36","WebKit","Chrome","137.0.0.0","Windows","10.0","https://app.prolific.com/","en-US,en;q=0.9","650ac282d9578d72800bf303","686d226cabeef709c732f8e1","686e3113e93b13947e5de7a5","650ac282d9578d72800bf303","2025-07-09T09:37:44.256Z","","","","","","MotivationQ","","","","","","","","","","","","","","","","","","","","","","","","","","","","","","","","","","","","","","50"
"","","","","ctl-task-cpt","53","1857417","0.0-10.0-0.2","60","1","2025-07-09 09:07:18","7701e855f2ef39aa3fd6c71abdc6918a","105.245.233.173","Mozilla/5.0 (Windows NT 10.0; Win64; x64) AppleWebKit/537.36 (KHTML, like Gecko) Chrome/137.0.0.0 Safari/537.36","WebKit","Chrome","137.0.0.0","Windows","10.0","https://app.prolific.com/","en-US,en;q=0.9","650ac282d9578d72800bf303","686d226cabeef709c732f8e1","686e3113e93b13947e5de7a5","650ac282d9578d72800bf303","2025-07-09T09:38:17.029Z","","","","","","","","","","","","","","","","win-only","3","g1:SW,g2:NE","0.8","3","0","1827848.9","1657.8","6661.2","29753.7","1","4","4","6","2","4","3","6","3","0.045454545454545456","1362.8","3000","310","[""up"",""right""]","{""num_key_presses"":7,""num_perfect"":6,""num_errors"":1,""num_randdir"":0,""num_randdir_good_moves"":0,""num_whilered"":0,""num_whileblue"":0,""num_blue"":1,""num_good_moves"":6}","[297.22232142857143,295.12857142857143,0.1,297.22232142857143,295.12857142857143,103.5,297.22232142857143,295.12857142857143,208.1,297.22232142857143,295.12857142857143,313.2,297.22232142857143,295.12857142857143,417.9,297.22232142857143,295.12857142857143,518.3,297.22232142857143,295.12857142857143,623.5,296.22232142857143,309.12857142857143,728.2,287.22232142857143,318.12857142857143,830.4,447.22232142857143,107.12857142857143,930.8,468.22232142857143,70.12857142857143,1033.3,475.22232142857143,43.128571428571426,1138.2,530.2223214285714,45.128571428571426,1243,538.2223214285714,48.128571428571426,1343.6,538.2223214285714,49.128571428571426,1446.2,538.2223214285714,49.128571428571426,1547.8,538.2223214285714,49.128571428571426,1652.4,538.2223214285714,49.128571428571426,1753.4,538.2223214285714,49.128571428571426,1858.4,538.2223214285714,49.128571428571426,1963.5,538.2223214285714,49.128571428571426,2068.7,538.2223214285714,49.128571428571426,2173.5,538.2223214285714,49.128571428571426,2277.6,538.2223214285714,49.128571428571426,2382.5,538.2223214285714,49.128571428571426,2487.4,538.2223214285714,49.128571428571426,2587.6,538.2223214285714,49.128571428571426,2688.6,538.2223214285714,49.128571428571426,2794.1,538.2223214285714,49.128571428571426,2894.1,538.2223214285714,49.128571428571426,2998.3,538.2223214285714,49.128571428571426,3103.2,538.2223214285714,49.128571428571426,3208.1,538.2223214285714,49.128571428571426,3313.2,538.2223214285714,49.128571428571426,3413.4,538.2223214285714,49.128571428571426,3514.4,538.2223214285714,49.128571428571426,3618.2,538.2223214285714,49.128571428571426,3719.8,538.2223214285714,49.128571428571426,3822.4,538.2223214285714,49.128571428571426,3923.4,538.2223214285714,49.128571428571426,4028.4,538.2223214285714,49.128571428571426,4130.4,538.2223214285714,49.128571428571426,4232.4,538.2223214285714,49.128571428571426,4334.2,538.2223214285714,49.128571428571426,4437.4,538.2223214285714,49.128571428571426,4537.4,538.2223214285714,49.128571428571426,4637.4,538.2223214285714,49.128571428571426,4737.6,538.2223214285714,49.128571428571426,4837.9,538.2223214285714,49.128571428571426,4938.4]","[430.3,430.3,1000,0,-569.7,""error"",""-"",""-"",""no_move"",7313.1,6882.6,2163,4714.9,435.2,""smooth"",""up"",""up"",""good_move"",10577.7,3264.4,2642.9,7313.4,621.4,""smooth"",""up"",""up"",""good_move"",13487.5,2909.6,2370,10577.9,539.6,""smooth"",""up"",""up"",""good_move"",16533.7,3045.9,2622.5,13487.8,423.4,""smooth"",""right"",""right"",""good_move"",19113.9,2579.9,2192.3,16534,387.6,""smooth"",""right"",""right"",""good_move"",22998.9,3884.5,3552.3,19114.4,332.2,""smooth"",""right"",""right"",""good_move""]","",""
"3341","","<div style=""width:500px;"">
  <p>What determined the result of this run?</p>
  </div>","81","html-slider-response","54","1860759","0.0-10.0-1.2","60","1","2025-07-09 09:07:18","7701e855f2ef39aa3fd6c71abdc6918a","105.245.233.173","Mozilla/5.0 (Windows NT 10.0; Win64; x64) AppleWebKit/537.36 (KHTML, like Gecko) Chrome/137.0.0.0 Safari/537.36","WebKit","Chrome","137.0.0.0","Windows","10.0","https://app.prolific.com/","en-US,en;q=0.9","650ac282d9578d72800bf303","686d226cabeef709c732f8e1","686e3113e93b13947e5de7a5","650ac282d9578d72800bf303","2025-07-09T09:38:20.371Z","","","","","","AttribQ","","","","","","","","","","","","","","","","","","","","","","","","","","","","","","","","","","","","","","50"
"3048","","<div style=""width:500px;"">
  <p>How much control did you have over the ball?</p>
  </div>","74","html-slider-response","55","1863807","0.0-10.0-2.2","60","1","2025-07-09 09:07:18","7701e855f2ef39aa3fd6c71abdc6918a","105.245.233.173","Mozilla/5.0 (Windows NT 10.0; Win64; x64) AppleWebKit/537.36 (KHTML, like Gecko) Chrome/137.0.0.0 Safari/537.36","WebKit","Chrome","137.0.0.0","Windows","10.0","https://app.prolific.com/","en-US,en;q=0.9","650ac282d9578d72800bf303","686d226cabeef709c732f8e1","686e3113e93b13947e5de7a5","650ac282d9578d72800bf303","2025-07-09T09:38:23.420Z","","","","","","ControlQ","","","","","","","","","","","","","","","","","","","","","","","","","","","","","","","","","","","","","","50"
"4899","","<div style=""width:500px;"">
  <p>How would you describe your current emotional state?</p>
  </div>","47","html-slider-response","56","1868707","0.0-10.0-3.2","60","1","2025-07-09 09:07:18","7701e855f2ef39aa3fd6c71abdc6918a","105.245.233.173","Mozilla/5.0 (Windows NT 10.0; Win64; x64) AppleWebKit/537.36 (KHTML, like Gecko) Chrome/137.0.0.0 Safari/537.36","WebKit","Chrome","137.0.0.0","Windows","10.0","https://app.prolific.com/","en-US,en;q=0.9","650ac282d9578d72800bf303","686d226cabeef709c732f8e1","686e3113e93b13947e5de7a5","650ac282d9578d72800bf303","2025-07-09T09:38:28.319Z","","","","","","StressQ","","","","","","","","","","","","","","","","","","","","","","","","","","","","","","","","","","","","","","50"
"3857","","<div style=""width:500px;"">
  <p>What best describes how you currently feel?</p>
  </div>","62","html-slider-response","57","1872565","0.0-10.0-4.2","60","1","2025-07-09 09:07:18","7701e855f2ef39aa3fd6c71abdc6918a","105.245.233.173","Mozilla/5.0 (Windows NT 10.0; Win64; x64) AppleWebKit/537.36 (KHTML, like Gecko) Chrome/137.0.0.0 Safari/537.36","WebKit","Chrome","137.0.0.0","Windows","10.0","https://app.prolific.com/","en-US,en;q=0.9","650ac282d9578d72800bf303","686d226cabeef709c732f8e1","686e3113e93b13947e5de7a5","650ac282d9578d72800bf303","2025-07-09T09:38:32.177Z","","","","","","MotivationQ","","","","","","","","","","","","","","","","","","","","","","","","","","","","","","","","","","","","","","50"
"","","","","ctl-task-cpt","58","1905745","0.0-10.0-0.3","60","1","2025-07-09 09:07:18","7701e855f2ef39aa3fd6c71abdc6918a","105.245.233.173","Mozilla/5.0 (Windows NT 10.0; Win64; x64) AppleWebKit/537.36 (KHTML, like Gecko) Chrome/137.0.0.0 Safari/537.36","WebKit","Chrome","137.0.0.0","Windows","10.0","https://app.prolific.com/","en-US,en;q=0.9","650ac282d9578d72800bf303","686d226cabeef709c732f8e1","686e3113e93b13947e5de7a5","650ac282d9578d72800bf303","2025-07-09T09:39:05.357Z","","","","","","","","","","","","","","","","win-only","2","g1:SE,g2:NW","0.7","4","0","1875771.1","1630.1","6631.4","30156.3","1","4","8","6","2","-8","-8","0","6","0","1206.1","3000","-2980","[""left"",""up""]","{""num_key_presses"":6,""num_perfect"":4,""num_errors"":0,""num_randdir"":2,""num_randdir_good_moves"":0,""num_whilered"":0,""num_whileblue"":0,""num_blue"":1,""num_good_moves"":4}","[298.22232142857143,302.12857142857143,0.1,298.22232142857143,302.12857142857143,101.5,298.22232142857143,302.12857142857143,201.7,298.22232142857143,302.12857142857143,306.1,298.22232142857143,302.12857142857143,406.5,298.22232142857143,302.12857142857143,510.6,298.22232142857143,302.12857142857143,611.9,289.22232142857143,293.12857142857143,711.9,140.22232142857143,167.12857142857143,816.4,42.222321428571426,58.128571428571426,919.8,28.222321428571426,38.128571428571426,1021.7,28.222321428571426,33.128571428571426,1122,29.222321428571426,33.128571428571426,1225.9,29.222321428571426,33.128571428571426,1326.4,29.222321428571426,33.128571428571426,1426.8,38.222321428571426,35.128571428571426,1530.2,125.22232142857143,90.12857142857143,1633.3,217.22232142857143,167.12857142857143,1735.3,236.22232142857143,200.12857142857143,1836,237.22232142857143,202.12857142857143,1941.5,240.22232142857143,178.12857142857143,2046.1,240.22232142857143,178.12857142857143,2146.8,240.22232142857143,178.12857142857143,2250.9,240.22232142857143,178.12857142857143,2351.7,240.22232142857143,178.12857142857143,2451.7,240.22232142857143,178.12857142857143,2551.8,240.22232142857143,178.12857142857143,2652,240.22232142857143,178.12857142857143,2755.6,240.22232142857143,178.12857142857143,2856.1,240.22232142857143,178.12857142857143,2961.1,240.22232142857143,178.12857142857143,3065.6,240.22232142857143,178.12857142857143,3169.2,240.22232142857143,178.12857142857143,3270.8,240.22232142857143,178.12857142857143,3376,240.22232142857143,178.12857142857143,3481.8,240.22232142857143,178.12857142857143,3585.8,240.22232142857143,178.12857142857143,3690.3,240.22232142857143,178.12857142857143,3796.6,240.22232142857143,178.12857142857143,3901.8,240.22232142857143,178.12857142857143,4007,240.22232142857143,178.12857142857143,4110.9,240.22232142857143,178.12857142857143,4211.6,240.22232142857143,178.12857142857143,4315.9,240.22232142857143,178.12857142857143,4420.7,240.22232142857143,178.12857142857143,4521.5,240.22232142857143,178.12857142857143,4626.2,240.22232142857143,178.12857142857143,4726.7,240.22232142857143,178.12857142857143,4827.1,240.22232142857143,178.12857142857143,4930.1]","[1539.4,1539.4,1000,0,539.4,""smooth"",""left"",""left"",""good_move"",4931.4,3391.8,2916.6,1539.7,475.1,""oops"",""left"",""down"",""bad_move"",8048.7,3117,2442.4,4931.7,674.6,""smooth"",""left"",""left"",""good_move"",10893.6,2844.7,2372.7,8048.9,472,""oops"",""up"",""right"",""bad_move"",13734.3,2840.5,2400.2,10893.8,440.3,""smooth"",""up"",""up"",""good_move"",20339,6604.4,2269.4,17719.4,350.2,""smooth"",""up"",""up"",""good_move""]","",""
"7711","","<div style=""width:500px;"">
  <p>What determined the result of this run?</p>
  </div>","17","html-slider-response","59","1913457","0.0-10.0-1.3","60","1","2025-07-09 09:07:18","7701e855f2ef39aa3fd6c71abdc6918a","105.245.233.173","Mozilla/5.0 (Windows NT 10.0; Win64; x64) AppleWebKit/537.36 (KHTML, like Gecko) Chrome/137.0.0.0 Safari/537.36","WebKit","Chrome","137.0.0.0","Windows","10.0","https://app.prolific.com/","en-US,en;q=0.9","650ac282d9578d72800bf303","686d226cabeef709c732f8e1","686e3113e93b13947e5de7a5","650ac282d9578d72800bf303","2025-07-09T09:39:13.069Z","","","","","","AttribQ","","","","","","","","","","","","","","","","","","","","","","","","","","","","","","","","","","","","","","50"
"6524","","<div style=""width:500px;"">
  <p>How much control did you have over the ball?</p>
  </div>","18","html-slider-response","60","1919982","0.0-10.0-2.3","60","1","2025-07-09 09:07:18","7701e855f2ef39aa3fd6c71abdc6918a","105.245.233.173","Mozilla/5.0 (Windows NT 10.0; Win64; x64) AppleWebKit/537.36 (KHTML, like Gecko) Chrome/137.0.0.0 Safari/537.36","WebKit","Chrome","137.0.0.0","Windows","10.0","https://app.prolific.com/","en-US,en;q=0.9","650ac282d9578d72800bf303","686d226cabeef709c732f8e1","686e3113e93b13947e5de7a5","650ac282d9578d72800bf303","2025-07-09T09:39:19.594Z","","","","","","ControlQ","","","","","","","","","","","","","","","","","","","","","","","","","","","","","","","","","","","","","","50"
"4814","","<div style=""width:500px;"">
  <p>How would you describe your current emotional state?</p>
  </div>","55","html-slider-response","61","1924797","0.0-10.0-3.3","60","1","2025-07-09 09:07:18","7701e855f2ef39aa3fd6c71abdc6918a","105.245.233.173","Mozilla/5.0 (Windows NT 10.0; Win64; x64) AppleWebKit/537.36 (KHTML, like Gecko) Chrome/137.0.0.0 Safari/537.36","WebKit","Chrome","137.0.0.0","Windows","10.0","https://app.prolific.com/","en-US,en;q=0.9","650ac282d9578d72800bf303","686d226cabeef709c732f8e1","686e3113e93b13947e5de7a5","650ac282d9578d72800bf303","2025-07-09T09:39:24.409Z","","","","","","StressQ","","","","","","","","","","","","","","","","","","","","","","","","","","","","","","","","","","","","","","50"
"4463","","<div style=""width:500px;"">
  <p>What best describes how you currently feel?</p>
  </div>","58","html-slider-response","62","1929261","0.0-10.0-4.3","60","1","2025-07-09 09:07:18","7701e855f2ef39aa3fd6c71abdc6918a","105.245.233.173","Mozilla/5.0 (Windows NT 10.0; Win64; x64) AppleWebKit/537.36 (KHTML, like Gecko) Chrome/137.0.0.0 Safari/537.36","WebKit","Chrome","137.0.0.0","Windows","10.0","https://app.prolific.com/","en-US,en;q=0.9","650ac282d9578d72800bf303","686d226cabeef709c732f8e1","686e3113e93b13947e5de7a5","650ac282d9578d72800bf303","2025-07-09T09:39:28.873Z","","","","","","MotivationQ","","","","","","","","","","","","","","","","","","","","","","","","","","","","","","","","","","","","","","50"
"","","","","ctl-task-cpt","63","1963700","0.0-10.0-0.4","60","1","2025-07-09 09:07:18","7701e855f2ef39aa3fd6c71abdc6918a","105.245.233.173","Mozilla/5.0 (Windows NT 10.0; Win64; x64) AppleWebKit/537.36 (KHTML, like Gecko) Chrome/137.0.0.0 Safari/537.36","WebKit","Chrome","137.0.0.0","Windows","10.0","https://app.prolific.com/","en-US,en;q=0.9","650ac282d9578d72800bf303","686d226cabeef709c732f8e1","686e3113e93b13947e5de7a5","650ac282d9578d72800bf303","2025-07-09T09:40:03.312Z","","","","","","","","","","","","","","","","win-only","2","g1:SE,g2:NW","0.6","5","0","1932465.9","2714.2","7716.1","31421.6","1","4","8","6","1","1","0","0","0","0","1856.3","3000","35","[""down"",""right""]","{""num_key_presses"":7,""num_perfect"":5,""num_errors"":1,""num_randdir"":1,""num_randdir_good_moves"":0,""num_whilered"":0,""num_whileblue"":0,""num_blue"":1,""num_good_moves"":5}","[290.22232142857143,299.12857142857143,0.2,290.22232142857143,299.12857142857143,104.7,290.22232142857143,299.12857142857143,207.2,290.22232142857143,299.12857142857143,307.2,290.22232142857143,299.12857142857143,412.2,290.22232142857143,299.12857142857143,516.3,290.22232142857143,299.12857142857143,616.5,290.22232142857143,299.12857142857143,717,290.22232142857143,299.12857142857143,817.5,290.22232142857143,299.12857142857143,922.1,290.22232142857143,299.12857142857143,1022.6,290.22232142857143,299.12857142857143,1126.5,295.22232142857143,286.12857142857143,1226.6,500.22232142857143,456.12857142857143,1327.1,509.22232142857143,466.12857142857143,1432,533.2223214285714,524.1285714285714,1537.1,544.2223214285714,583.1285714285714,1643.1,544.2223214285714,586.1285714285714,1746.6,544.2223214285714,586.1285714285714,1851.3,544.2223214285714,586.1285714285714,1951.6,544.2223214285714,586.1285714285714,2052.9,544.2223214285714,586.1285714285714,2157.1,544.2223214285714,586.1285714285714,2258.2,544.2223214285714,586.1285714285714,2361.4,544.2223214285714,586.1285714285714,2461.6,544.2223214285714,586.1285714285714,2566.1,544.2223214285714,586.1285714285714,2666.4,544.2223214285714,586.1285714285714,2766.4,544.2223214285714,586.1285714285714,2867,544.2223214285714,586.1285714285714,2967.6,544.2223214285714,586.1285714285714,3072.3,544.2223214285714,586.1285714285714,3173.3,544.2223214285714,586.1285714285714,3276.5,544.2223214285714,586.1285714285714,3377.9,544.2223214285714,586.1285714285714,3482.2,544.2223214285714,586.1285714285714,3587.7,544.2223214285714,586.1285714285714,3691.3,544.2223214285714,586.1285714285714,3792.2,544.2223214285714,586.1285714285714,3896.5,544.2223214285714,586.1285714285714,3996.6,544.2223214285714,586.1285714285714,4101.8,544.2223214285714,586.1285714285714,4206.8,544.2223214285714,586.1285714285714,4311.3,544.2223214285714,586.1285714285714,4413,544.2223214285714,586.1285714285714,4516.1,544.2223214285714,586.1285714285714,4616.4,544.2223214285714,586.1285714285714,4716.6,544.2223214285714,586.1285714285714,4821.1,544.2223214285714,586.1285714285714,4921.8]","[348.3,348.4,1000,0,-651.6,""error"",""-"",""-"",""no_move"",3973.4,3625,2186.1,1350.6,436.8,""smooth"",""right"",""right"",""good_move"",11469.7,7496,2904.5,8110,455.2,""smooth"",""right"",""right"",""good_move"",14605,3135.1,2540.5,11469.9,594.6,""smooth"",""down"",""down"",""good_move"",17860.2,3254.9,2658,14605.3,596.9,""oops"",""down"",""up"",""bad_move"",20591.5,2731.2,2183.4,17860.3,547.8,""smooth"",""down"",""down"",""good_move"",23619.6,3028,2638.6,20591.6,389.4,""smooth"",""down"",""down"",""good_move""]","",""
"4113","","<div style=""width:500px;"">
  <p>What determined the result of this run?</p>
  </div>","44","html-slider-response","64","1967814","0.0-10.0-1.4","60","1","2025-07-09 09:07:18","7701e855f2ef39aa3fd6c71abdc6918a","105.245.233.173","Mozilla/5.0 (Windows NT 10.0; Win64; x64) AppleWebKit/537.36 (KHTML, like Gecko) Chrome/137.0.0.0 Safari/537.36","WebKit","Chrome","137.0.0.0","Windows","10.0","https://app.prolific.com/","en-US,en;q=0.9","650ac282d9578d72800bf303","686d226cabeef709c732f8e1","686e3113e93b13947e5de7a5","650ac282d9578d72800bf303","2025-07-09T09:40:07.426Z","","","","","","AttribQ","","","","","","","","","","","","","","","","","","","","","","","","","","","","","","","","","","","","","","50"
"3776","","<div style=""width:500px;"">
  <p>How much control did you have over the ball?</p>
  </div>","44","html-slider-response","65","1971591","0.0-10.0-2.4","60","1","2025-07-09 09:07:18","7701e855f2ef39aa3fd6c71abdc6918a","105.245.233.173","Mozilla/5.0 (Windows NT 10.0; Win64; x64) AppleWebKit/537.36 (KHTML, like Gecko) Chrome/137.0.0.0 Safari/537.36","WebKit","Chrome","137.0.0.0","Windows","10.0","https://app.prolific.com/","en-US,en;q=0.9","650ac282d9578d72800bf303","686d226cabeef709c732f8e1","686e3113e93b13947e5de7a5","650ac282d9578d72800bf303","2025-07-09T09:40:11.203Z","","","","","","ControlQ","","","","","","","","","","","","","","","","","","","","","","","","","","","","","","","","","","","","","","50"
"4711","","<div style=""width:500px;"">
  <p>How would you describe your current emotional state?</p>
  </div>","53","html-slider-response","66","1976303","0.0-10.0-3.4","60","1","2025-07-09 09:07:18","7701e855f2ef39aa3fd6c71abdc6918a","105.245.233.173","Mozilla/5.0 (Windows NT 10.0; Win64; x64) AppleWebKit/537.36 (KHTML, like Gecko) Chrome/137.0.0.0 Safari/537.36","WebKit","Chrome","137.0.0.0","Windows","10.0","https://app.prolific.com/","en-US,en;q=0.9","650ac282d9578d72800bf303","686d226cabeef709c732f8e1","686e3113e93b13947e5de7a5","650ac282d9578d72800bf303","2025-07-09T09:40:15.915Z","","","","","","StressQ","","","","","","","","","","","","","","","","","","","","","","","","","","","","","","","","","","","","","","50"
"7503","","<div style=""width:500px;"">
  <p>What best describes how you currently feel?</p>
  </div>","62","html-slider-response","67","1983808","0.0-10.0-4.4","60","1","2025-07-09 09:07:18","7701e855f2ef39aa3fd6c71abdc6918a","105.245.233.173","Mozilla/5.0 (Windows NT 10.0; Win64; x64) AppleWebKit/537.36 (KHTML, like Gecko) Chrome/137.0.0.0 Safari/537.36","WebKit","Chrome","137.0.0.0","Windows","10.0","https://app.prolific.com/","en-US,en;q=0.9","650ac282d9578d72800bf303","686d226cabeef709c732f8e1","686e3113e93b13947e5de7a5","650ac282d9578d72800bf303","2025-07-09T09:40:23.420Z","","","","","","MotivationQ","","","","","","","","","","","","","","","","","","","","","","","","","","","","","","","","","","","","","","50"
"","","","","ctl-task-cpt","68","2016597","0.0-10.0-0.5","60","1","2025-07-09 09:07:18","7701e855f2ef39aa3fd6c71abdc6918a","105.245.233.173","Mozilla/5.0 (Windows NT 10.0; Win64; x64) AppleWebKit/537.36 (KHTML, like Gecko) Chrome/137.0.0.0 Safari/537.36","WebKit","Chrome","137.0.0.0","Windows","10.0","https://app.prolific.com/","en-US,en;q=0.9","650ac282d9578d72800bf303","686d226cabeef709c732f8e1","686e3113e93b13947e5de7a5","650ac282d9578d72800bf303","2025-07-09T09:40:56.209Z","","","","","","","","","","","","","","","","win-only","3","g1:SW,g2:NE","0.5","6","0","1987013.1","1662.1","6665.9","29770.4","1","4","4","6","2","4","3","3","0","0.022727272727272728","1303.2","3000","180","[""up"",""right""]","{""num_key_presses"":7,""num_perfect"":3,""num_errors"":1,""num_randdir"":3,""num_randdir_good_moves"":3,""num_whilered"":0,""num_whileblue"":0,""num_blue"":1,""num_good_moves"":6}","[299.22232142857143,291.12857142857143,0.2,299.22232142857143,291.12857142857143,103.4,299.22232142857143,291.12857142857143,203.5,299.22232142857143,291.12857142857143,303.5,299.22232142857143,291.12857142857143,404.4,302.22232142857143,284.12857142857143,512.5,520.2223214285714,94.12857142857143,614,573.2223214285714,87.12857142857143,718.7,583.2223214285714,85.12857142857143,819.1,548.2223214285714,73.12857142857143,923.6,545.2223214285714,69.12857142857143,1023.8,545.2223214285714,69.12857142857143,1128.1,545.2223214285714,69.12857142857143,1229.4,545.2223214285714,69.12857142857143,1333.4,545.2223214285714,69.12857142857143,1438.2,545.2223214285714,69.12857142857143,1539.2,545.2223214285714,69.12857142857143,1639.3,545.2223214285714,69.12857142857143,1743.6,545.2223214285714,69.12857142857143,1848.7,545.2223214285714,69.12857142857143,1953.9,545.2223214285714,69.12857142857143,2058.1,545.2223214285714,69.12857142857143,2161.1,545.2223214285714,69.12857142857143,2262.7,545.2223214285714,69.12857142857143,2363.9,545.2223214285714,69.12857142857143,2468.3,545.2223214285714,69.12857142857143,2568.7,545.2223214285714,69.12857142857143,2668.8,545.2223214285714,69.12857142857143,2773.4,545.2223214285714,69.12857142857143,2873.8,545.2223214285714,69.12857142857143,2975.4,545.2223214285714,69.12857142857143,3078.8,545.2223214285714,69.12857142857143,3178.9,545.2223214285714,69.12857142857143,3279.8,545.2223214285714,69.12857142857143,3384.5,545.2223214285714,69.12857142857143,3488.8,545.2223214285714,69.12857142857143,3589.7,545.2223214285714,69.12857142857143,3689.9,545.2223214285714,69.12857142857143,3796.1,545.2223214285714,69.12857142857143,3897.7,545.2223214285714,69.12857142857143,3998.9,545.2223214285714,69.12857142857143,4104.5,545.2223214285714,69.12857142857143,4208.5,545.2223214285714,69.12857142857143,4311.5,545.2223214285714,69.12857142857143,4413.5,545.2223214285714,69.12857142857143,4514.4,545.2223214285714,69.12857142857143,4618.9,545.2223214285714,69.12857142857143,4723.6,545.2223214285714,69.12857142857143,4824.6,545.2223214285714,69.12857142857143,4928.3]","[449,449,1000,0,-551,""error"",""-"",""-"",""no_move"",3326.9,2877.7,1465.8,1450.2,410.9,""oops"",""up"",""up"",""good_move"",11092.8,7765.7,3290.3,7357.4,445.1,""oops"",""up"",""right"",""good_move"",14419.4,3326.4,2585.4,11093,741,""smooth"",""up"",""up"",""good_move"",17013.2,2593.4,1993.5,14419.8,599.9,""oops"",""right"",""right"",""good_move"",20288,3274.7,2951.7,17013.3,323,""smooth"",""right"",""right"",""good_move"",23005.1,2716.9,2335.2,20288.2,381.7,""smooth"",""up"",""up"",""good_move""]","",""
"4777","","<div style=""width:500px;"">
  <p>What determined the result of this run?</p>
  </div>","64","html-slider-response","69","2021375","0.0-10.0-1.5","60","1","2025-07-09 09:07:18","7701e855f2ef39aa3fd6c71abdc6918a","105.245.233.173","Mozilla/5.0 (Windows NT 10.0; Win64; x64) AppleWebKit/537.36 (KHTML, like Gecko) Chrome/137.0.0.0 Safari/537.36","WebKit","Chrome","137.0.0.0","Windows","10.0","https://app.prolific.com/","en-US,en;q=0.9","650ac282d9578d72800bf303","686d226cabeef709c732f8e1","686e3113e93b13947e5de7a5","650ac282d9578d72800bf303","2025-07-09T09:41:00.987Z","","","","","","AttribQ","","","","","","","","","","","","","","","","","","","","","","","","","","","","","","","","","","","","","","50"
"3092","","<div style=""width:500px;"">
  <p>How much control did you have over the ball?</p>
  </div>","63","html-slider-response","70","2024467","0.0-10.0-2.5","60","1","2025-07-09 09:07:18","7701e855f2ef39aa3fd6c71abdc6918a","105.245.233.173","Mozilla/5.0 (Windows NT 10.0; Win64; x64) AppleWebKit/537.36 (KHTML, like Gecko) Chrome/137.0.0.0 Safari/537.36","WebKit","Chrome","137.0.0.0","Windows","10.0","https://app.prolific.com/","en-US,en;q=0.9","650ac282d9578d72800bf303","686d226cabeef709c732f8e1","686e3113e93b13947e5de7a5","650ac282d9578d72800bf303","2025-07-09T09:41:04.079Z","","","","","","ControlQ","","","","","","","","","","","","","","","","","","","","","","","","","","","","","","","","","","","","","","50"
"3902","","<div style=""width:500px;"">
  <p>How would you describe your current emotional state?</p>
  </div>","58","html-slider-response","71","2028370","0.0-10.0-3.5","60","1","2025-07-09 09:07:18","7701e855f2ef39aa3fd6c71abdc6918a","105.245.233.173","Mozilla/5.0 (Windows NT 10.0; Win64; x64) AppleWebKit/537.36 (KHTML, like Gecko) Chrome/137.0.0.0 Safari/537.36","WebKit","Chrome","137.0.0.0","Windows","10.0","https://app.prolific.com/","en-US,en;q=0.9","650ac282d9578d72800bf303","686d226cabeef709c732f8e1","686e3113e93b13947e5de7a5","650ac282d9578d72800bf303","2025-07-09T09:41:07.982Z","","","","","","StressQ","","","","","","","","","","","","","","","","","","","","","","","","","","","","","","","","","","","","","","50"
"4337","","<div style=""width:500px;"">
  <p>What best describes how you currently feel?</p>
  </div>","62","html-slider-response","72","2032707","0.0-10.0-4.5","60","1","2025-07-09 09:07:18","7701e855f2ef39aa3fd6c71abdc6918a","105.245.233.173","Mozilla/5.0 (Windows NT 10.0; Win64; x64) AppleWebKit/537.36 (KHTML, like Gecko) Chrome/137.0.0.0 Safari/537.36","WebKit","Chrome","137.0.0.0","Windows","10.0","https://app.prolific.com/","en-US,en;q=0.9","650ac282d9578d72800bf303","686d226cabeef709c732f8e1","686e3113e93b13947e5de7a5","650ac282d9578d72800bf303","2025-07-09T09:41:12.320Z","","","","","","MotivationQ","","","","","","","","","","","","","","","","","","","","","","","","","","","","","","","","","","","","","","50"
"","","","","ctl-task-cpt","73","2063244","0.0-10.0-0.6","60","1","2025-07-09 09:07:18","7701e855f2ef39aa3fd6c71abdc6918a","105.245.233.173","Mozilla/5.0 (Windows NT 10.0; Win64; x64) AppleWebKit/537.36 (KHTML, like Gecko) Chrome/137.0.0.0 Safari/537.36","WebKit","Chrome","137.0.0.0","Windows","10.0","https://app.prolific.com/","en-US,en;q=0.9","650ac282d9578d72800bf303","686d226cabeef709c732f8e1","686e3113e93b13947e5de7a5","650ac282d9578d72800bf303","2025-07-09T09:41:42.856Z","","","","","","","","","","","","","","","","win-only","3","g1:SW,g2:NE","0.4","7","0","2035912.1","1580.6","6581.9","27515.5","1","4","8","6","2","-8","-8","0","3","0","1565.4","3000","-2955","[""up"",""right""]","{""num_key_presses"":7,""num_perfect"":3,""num_errors"":0,""num_randdir"":4,""num_randdir_good_moves"":3,""num_whilered"":0,""num_whileblue"":0,""num_blue"":0,""num_good_moves"":6}","[294.22232142857143,301.12857142857143,0.2,294.22232142857143,301.12857142857143,100.3,294.22232142857143,301.12857142857143,200.5,294.22232142857143,301.12857142857143,308,294.22232142857143,301.12857142857143,409.8,294.22232142857143,301.12857142857143,512.4,294.22232142857143,301.12857142857143,614.7,294.22232142857143,301.12857142857143,715,361.22232142857143,223.12857142857143,820,469.22232142857143,103.12857142857143,920,538.2223214285714,19.128571428571426,1022.4,563.2223214285714,7.128571428571426,1124.9,569.2223214285714,34.128571428571426,1226.7,554.2223214285714,48.128571428571426,1331.1,553.2223214285714,49.128571428571426,1435.9,553.2223214285714,49.128571428571426,1535.9,553.2223214285714,49.128571428571426,1635.9,553.2223214285714,49.128571428571426,1740.4,553.2223214285714,49.128571428571426,1840.4,553.2223214285714,49.128571428571426,1940.5,553.2223214285714,49.128571428571426,2045.3,553.2223214285714,49.128571428571426,2145.5,553.2223214285714,49.128571428571426,2245.8,553.2223214285714,49.128571428571426,2350,553.2223214285714,49.128571428571426,2454.6,553.2223214285714,49.128571428571426,2555.9,553.2223214285714,49.128571428571426,2661,553.2223214285714,49.128571428571426,2766.2,553.2223214285714,49.128571428571426,2871,553.2223214285714,49.128571428571426,2979.6,553.2223214285714,49.128571428571426,3080.2,553.2223214285714,49.128571428571426,3185.6,553.2223214285714,49.128571428571426,3289.8,553.2223214285714,49.128571428571426,3390.3,553.2223214285714,49.128571428571426,3491,553.2223214285714,49.128571428571426,3591.2,553.2223214285714,49.128571428571426,3694.7,553.2223214285714,49.128571428571426,3796,553.2223214285714,49.128571428571426,3896.2,553.2223214285714,49.128571428571426,3999.7,553.2223214285714,49.128571428571426,4101.7,553.2223214285714,49.128571428571426,4205.5,553.2223214285714,49.128571428571426,4310.2,553.2223214285714,49.128571428571426,4414.9,553.2223214285714,49.128571428571426,4514.9,553.2223214285714,49.128571428571426,4616.3,553.2223214285714,49.128571428571426,4716.3,553.2223214285714,49.128571428571426,4820.5,553.2223214285714,49.128571428571426,4930.4]","[1427.8,1427.8,1000,0,427.8,""smooth"",""up"",""up"",""good_move"",4729.4,3301.4,2851.8,1428.1,449.5,""smooth"",""right"",""right"",""good_move"",7549.7,2820,2353.5,4729.7,466.5,""oops"",""up"",""up"",""good_move"",10412.1,2862.1,2441.8,7550,420.3,""oops"",""right"",""down"",""bad_move"",12846.3,2433.9,1974.5,10412.4,459.4,""oops"",""up"",""up"",""good_move"",15846.2,2999.7,2685.6,12846.5,314.1,""oops"",""right"",""up"",""good_move"",18819,2972.6,2557.5,15846.4,415.1,""smooth"",""right"",""right"",""good_move""]","",""
"3793","","<div style=""width:500px;"">
  <p>What determined the result of this run?</p>
  </div>","21","html-slider-response","74","2067038","0.0-10.0-1.6","60","1","2025-07-09 09:07:18","7701e855f2ef39aa3fd6c71abdc6918a","105.245.233.173","Mozilla/5.0 (Windows NT 10.0; Win64; x64) AppleWebKit/537.36 (KHTML, like Gecko) Chrome/137.0.0.0 Safari/537.36","WebKit","Chrome","137.0.0.0","Windows","10.0","https://app.prolific.com/","en-US,en;q=0.9","650ac282d9578d72800bf303","686d226cabeef709c732f8e1","686e3113e93b13947e5de7a5","650ac282d9578d72800bf303","2025-07-09T09:41:46.650Z","","","","","","AttribQ","","","","","","","","","","","","","","","","","","","","","","","","","","","","","","","","","","","","","","50"
"3924","","<div style=""width:500px;"">
  <p>How much control did you have over the ball?</p>
  </div>","36","html-slider-response","75","2070963","0.0-10.0-2.6","60","1","2025-07-09 09:07:18","7701e855f2ef39aa3fd6c71abdc6918a","105.245.233.173","Mozilla/5.0 (Windows NT 10.0; Win64; x64) AppleWebKit/537.36 (KHTML, like Gecko) Chrome/137.0.0.0 Safari/537.36","WebKit","Chrome","137.0.0.0","Windows","10.0","https://app.prolific.com/","en-US,en;q=0.9","650ac282d9578d72800bf303","686d226cabeef709c732f8e1","686e3113e93b13947e5de7a5","650ac282d9578d72800bf303","2025-07-09T09:41:50.575Z","","","","","","ControlQ","","","","","","","","","","","","","","","","","","","","","","","","","","","","","","","","","","","","","","50"
"6853","","<div style=""width:500px;"">
  <p>How would you describe your current emotional state?</p>
  </div>","72","html-slider-response","76","2077817","0.0-10.0-3.6","60","1","2025-07-09 09:07:18","7701e855f2ef39aa3fd6c71abdc6918a","105.245.233.173","Mozilla/5.0 (Windows NT 10.0; Win64; x64) AppleWebKit/537.36 (KHTML, like Gecko) Chrome/137.0.0.0 Safari/537.36","WebKit","Chrome","137.0.0.0","Windows","10.0","https://app.prolific.com/","en-US,en;q=0.9","650ac282d9578d72800bf303","686d226cabeef709c732f8e1","686e3113e93b13947e5de7a5","650ac282d9578d72800bf303","2025-07-09T09:41:57.429Z","","","","","","StressQ","","","","","","","","","","","","","","","","","","","","","","","","","","","","","","","","","","","","","","50"
"4304","","<div style=""width:500px;"">
  <p>What best describes how you currently feel?</p>
  </div>","61","html-slider-response","77","2082123","0.0-10.0-4.6","60","1","2025-07-09 09:07:18","7701e855f2ef39aa3fd6c71abdc6918a","105.245.233.173","Mozilla/5.0 (Windows NT 10.0; Win64; x64) AppleWebKit/537.36 (KHTML, like Gecko) Chrome/137.0.0.0 Safari/537.36","WebKit","Chrome","137.0.0.0","Windows","10.0","https://app.prolific.com/","en-US,en;q=0.9","650ac282d9578d72800bf303","686d226cabeef709c732f8e1","686e3113e93b13947e5de7a5","650ac282d9578d72800bf303","2025-07-09T09:42:01.735Z","","","","","","MotivationQ","","","","","","","","","","","","","","","","","","","","","","","","","","","","","","","","","","","","","","50"
"","","","","ctl-task-cpt","78","2109070","0.0-10.0-0.7","60","1","2025-07-09 09:07:18","7701e855f2ef39aa3fd6c71abdc6918a","105.245.233.173","Mozilla/5.0 (Windows NT 10.0; Win64; x64) AppleWebKit/537.36 (KHTML, like Gecko) Chrome/137.0.0.0 Safari/537.36","WebKit","Chrome","137.0.0.0","Windows","10.0","https://app.prolific.com/","en-US,en;q=0.9","650ac282d9578d72800bf303","686d226cabeef709c732f8e1","686e3113e93b13947e5de7a5","650ac282d9578d72800bf303","2025-07-09T09:42:28.682Z","","","","","","","","","","","","","","","","win-only","0","g1:NW,g2:SE","0.3","8","0","2085327.4","1468.9","6471.8","23936.8","1","4","4","6","2","4","4","4","0","0.030303030303030304","1662.5","3000","620","[""down"",""right""]","{""num_key_presses"":6,""num_perfect"":2,""num_errors"":0,""num_randdir"":4,""num_randdir_good_moves"":4,""num_whilered"":0,""num_whileblue"":0,""num_blue"":1,""num_good_moves"":6}","[300.22232142857143,300.12857142857143,0.2,300.22232142857143,300.12857142857143,101.9,300.22232142857143,300.12857142857143,203.1,300.22232142857143,300.12857142857143,306.9,300.22232142857143,300.12857142857143,409.6,300.22232142857143,300.12857142857143,512.9,300.22232142857143,300.12857142857143,618.7,300.22232142857143,300.12857142857143,724.3,300.22232142857143,300.12857142857143,827.3,464.22232142857143,481.12857142857143,931.6,541.2223214285714,557.1285714285714,1031.6,571.2223214285714,577.1285714285714,1133.2,577.2223214285714,584.1285714285714,1241.3,542.2223214285714,540.1285714285714,1342.1,536.2223214285714,534.1285714285714,1442.3,536.2223214285714,533.1285714285714,1547.1,536.2223214285714,533.1285714285714,1652.9,536.2223214285714,533.1285714285714,1758.5,536.2223214285714,533.1285714285714,1861.3,536.2223214285714,533.1285714285714,1961.9,536.2223214285714,533.1285714285714,2062.2,536.2223214285714,533.1285714285714,2163.2,536.2223214285714,533.1285714285714,2266.4,536.2223214285714,533.1285714285714,2366.9,536.2223214285714,533.1285714285714,2467.2,536.2223214285714,533.1285714285714,2572.8,536.2223214285714,533.1285714285714,2678.3,536.2223214285714,533.1285714285714,2782.4,536.2223214285714,533.1285714285714,2891.1,536.2223214285714,533.1285714285714,2992.4,536.2223214285714,533.1285714285714,3096.5,536.2223214285714,533.1285714285714,3197.4,536.2223214285714,533.1285714285714,3301.4,536.2223214285714,533.1285714285714,3401.8,536.2223214285714,533.1285714285714,3502.7,536.2223214285714,533.1285714285714,3604.2,536.2223214285714,533.1285714285714,3706.9,536.2223214285714,533.1285714285714,3811.2,536.2223214285714,533.1285714285714,3911.5,536.2223214285714,533.1285714285714,4012.1,536.2223214285714,533.1285714285714,4112.1,536.2223214285714,533.1285714285714,4217.8,536.2223214285714,533.1285714285714,4325.6,536.2223214285714,533.1285714285714,4428.1,536.2223214285714,533.1285714285714,4532.8,536.2223214285714,533.1285714285714,4637.7,536.2223214285714,533.1285714285714,4741.2,536.2223214285714,533.1285714285714,4841.4,536.2223214285714,533.1285714285714,4942.1]","[1394.6,1394.6,1000,0,394.6,""oops"",""right"",""down"",""good_move"",4361.7,2966.9,2568.1,1394.8,398.8,""smooth"",""right"",""right"",""good_move"",6572.3,2210.3,1703.4,4362,506.9,""oops"",""right"",""right"",""good_move"",9307.8,2735.5,2314.9,6572.4,420.5,""oops"",""right"",""right"",""good_move"",12179.3,2871.4,2460.7,9307.9,410.7,""oops"",""down"",""down"",""good_move"",17368.2,5188.7,1990.6,14957.5,420.1,""smooth"",""down"",""down"",""good_move""]","",""
"3462","","<div style=""width:500px;"">
  <p>What determined the result of this run?</p>
  </div>","88","html-slider-response","79","2112533","0.0-10.0-1.7","60","1","2025-07-09 09:07:18","7701e855f2ef39aa3fd6c71abdc6918a","105.245.233.173","Mozilla/5.0 (Windows NT 10.0; Win64; x64) AppleWebKit/537.36 (KHTML, like Gecko) Chrome/137.0.0.0 Safari/537.36","WebKit","Chrome","137.0.0.0","Windows","10.0","https://app.prolific.com/","en-US,en;q=0.9","650ac282d9578d72800bf303","686d226cabeef709c732f8e1","686e3113e93b13947e5de7a5","650ac282d9578d72800bf303","2025-07-09T09:42:32.145Z","","","","","","AttribQ","","","","","","","","","","","","","","","","","","","","","","","","","","","","","","","","","","","","","","50"
"4463","","<div style=""width:500px;"">
  <p>How much control did you have over the ball?</p>
  </div>","77","html-slider-response","80","2116997","0.0-10.0-2.7","60","1","2025-07-09 09:07:18","7701e855f2ef39aa3fd6c71abdc6918a","105.245.233.173","Mozilla/5.0 (Windows NT 10.0; Win64; x64) AppleWebKit/537.36 (KHTML, like Gecko) Chrome/137.0.0.0 Safari/537.36","WebKit","Chrome","137.0.0.0","Windows","10.0","https://app.prolific.com/","en-US,en;q=0.9","650ac282d9578d72800bf303","686d226cabeef709c732f8e1","686e3113e93b13947e5de7a5","650ac282d9578d72800bf303","2025-07-09T09:42:36.609Z","","","","","","ControlQ","","","","","","","","","","","","","","","","","","","","","","","","","","","","","","","","","","","","","","50"
"6661","","<div style=""width:500px;"">
  <p>How would you describe your current emotional state?</p>
  </div>","46","html-slider-response","81","2123659","0.0-10.0-3.7","60","1","2025-07-09 09:07:18","7701e855f2ef39aa3fd6c71abdc6918a","105.245.233.173","Mozilla/5.0 (Windows NT 10.0; Win64; x64) AppleWebKit/537.36 (KHTML, like Gecko) Chrome/137.0.0.0 Safari/537.36","WebKit","Chrome","137.0.0.0","Windows","10.0","https://app.prolific.com/","en-US,en;q=0.9","650ac282d9578d72800bf303","686d226cabeef709c732f8e1","686e3113e93b13947e5de7a5","650ac282d9578d72800bf303","2025-07-09T09:42:43.271Z","","","","","","StressQ","","","","","","","","","","","","","","","","","","","","","","","","","","","","","","","","","","","","","","50"
"2690","","<div style=""width:500px;"">
  <p>What best describes how you currently feel?</p>
  </div>","56","html-slider-response","82","2126351","0.0-10.0-4.7","60","1","2025-07-09 09:07:18","7701e855f2ef39aa3fd6c71abdc6918a","105.245.233.173","Mozilla/5.0 (Windows NT 10.0; Win64; x64) AppleWebKit/537.36 (KHTML, like Gecko) Chrome/137.0.0.0 Safari/537.36","WebKit","Chrome","137.0.0.0","Windows","10.0","https://app.prolific.com/","en-US,en;q=0.9","650ac282d9578d72800bf303","686d226cabeef709c732f8e1","686e3113e93b13947e5de7a5","650ac282d9578d72800bf303","2025-07-09T09:42:45.963Z","","","","","","MotivationQ","","","","","","","","","","","","","","","","","","","","","","","","","","","","","","","","","","","","","","50"
"","","","","ctl-task-cpt","83","2163031","0.0-10.0-0.8","60","1","2025-07-09 09:07:18","7701e855f2ef39aa3fd6c71abdc6918a","105.245.233.173","Mozilla/5.0 (Windows NT 10.0; Win64; x64) AppleWebKit/537.36 (KHTML, like Gecko) Chrome/137.0.0.0 Safari/537.36","WebKit","Chrome","137.0.0.0","Windows","10.0","https://app.prolific.com/","en-US,en;q=0.9","650ac282d9578d72800bf303","686d226cabeef709c732f8e1","686e3113e93b13947e5de7a5","650ac282d9578d72800bf303","2025-07-09T09:43:22.643Z","","","","","","","","","","","","","","","","win-only","2","g1:SE,g2:NW","0.2","9","0","2129555.5","1221.4","6226.2","33663","1","4","4","6","2","-4","-5","0","4","0","1310.8","3000","-2955","[""left"",""up""]","{""num_key_presses"":7,""num_perfect"":2,""num_errors"":1,""num_randdir"":4,""num_randdir_good_moves"":0,""num_whilered"":0,""num_whileblue"":0,""num_blue"":2,""num_good_moves"":2}","[301.22232142857143,300.12857142857143,0.1,301.22232142857143,300.12857142857143,104.8,301.22232142857143,300.12857142857143,209.9,301.22232142857143,300.12857142857143,312.7,301.22232142857143,300.12857142857143,414.4,301.22232142857143,300.12857142857143,514.6,301.22232142857143,300.12857142857143,615.7,209.22232142857143,234.12857142857143,715.7,93.22232142857143,117.12857142857143,819.5,84.22232142857143,107.12857142857143,919.8,78.22232142857143,96.12857142857143,1024,71.22232142857143,79.12857142857143,1124.8,71.22232142857143,79.12857142857143,1229.7,71.22232142857143,79.12857142857143,1330,71.22232142857143,79.12857142857143,1434.9,71.22232142857143,79.12857142857143,1538.9,71.22232142857143,79.12857142857143,1644.2,71.22232142857143,79.12857142857143,1744.8,71.22232142857143,79.12857142857143,1848.9,71.22232142857143,79.12857142857143,1950.9,71.22232142857143,79.12857142857143,2055.4,71.22232142857143,79.12857142857143,2162.3,71.22232142857143,79.12857142857143,2264.2,71.22232142857143,79.12857142857143,2364.9,71.22232142857143,79.12857142857143,2469.7,71.22232142857143,79.12857142857143,2573.9,71.22232142857143,79.12857142857143,2677.4,71.22232142857143,79.12857142857143,2779.4,71.22232142857143,79.12857142857143,2885,71.22232142857143,79.12857142857143,2989.4,71.22232142857143,79.12857142857143,3089.6,71.22232142857143,79.12857142857143,3189.7,71.22232142857143,79.12857142857143,3290.4,71.22232142857143,79.12857142857143,3394.6,71.22232142857143,79.12857142857143,3500.9,71.22232142857143,79.12857142857143,3604.7,71.22232142857143,79.12857142857143,3705.8,71.22232142857143,79.12857142857143,3812.6,71.22232142857143,79.12857142857143,3912.9,71.22232142857143,79.12857142857143,4014.4,71.22232142857143,79.12857142857143,4115.2,71.22232142857143,79.12857142857143,4219.7,71.22232142857143,79.12857142857143,4319.7,71.22232142857143,79.12857142857143,4427.6,71.22232142857143,79.12857142857143,4529.6,71.22232142857143,79.12857142857143,4635.4,71.22232142857143,79.12857142857143,4740.1,71.22232142857143,79.12857142857143,4844.9,71.22232142857143,79.12857142857143,4949.5]","[597.6,597.7,1000,0,-402.3,""error"",""-"",""-"",""no_move"",3798.6,3200.5,1830,1599.6,369,""smooth"",""up"",""up"",""good_move"",9413.2,5614.4,2116.7,6844.2,452.3,""oops"",""up"",""down"",""bad_move"",12242.1,2828.7,2290.9,9413.4,537.8,""oops"",""up"",""down"",""bad_move"",18719.6,6477.3,2632.6,15575.9,511.1,""oops"",""left"",""down"",""bad_move"",21849.8,3130,2501.6,18719.8,628.4,""smooth"",""left"",""left"",""good_move"",24898,3048,2503.2,21850,544.8,""oops"",""left"",""right"",""bad_move""]","",""
"3580","","<div style=""width:500px;"">
  <p>What determined the result of this run?</p>
  </div>","3","html-slider-response","84","2166613","0.0-10.0-1.8","60","1","2025-07-09 09:07:18","7701e855f2ef39aa3fd6c71abdc6918a","105.245.233.173","Mozilla/5.0 (Windows NT 10.0; Win64; x64) AppleWebKit/537.36 (KHTML, like Gecko) Chrome/137.0.0.0 Safari/537.36","WebKit","Chrome","137.0.0.0","Windows","10.0","https://app.prolific.com/","en-US,en;q=0.9","650ac282d9578d72800bf303","686d226cabeef709c732f8e1","686e3113e93b13947e5de7a5","650ac282d9578d72800bf303","2025-07-09T09:43:26.225Z","","","","","","AttribQ","","","","","","","","","","","","","","","","","","","","","","","","","","","","","","","","","","","","","","50"
"4327","","<div style=""width:500px;"">
  <p>How much control did you have over the ball?</p>
  </div>","2","html-slider-response","85","2170941","0.0-10.0-2.8","60","1","2025-07-09 09:07:18","7701e855f2ef39aa3fd6c71abdc6918a","105.245.233.173","Mozilla/5.0 (Windows NT 10.0; Win64; x64) AppleWebKit/537.36 (KHTML, like Gecko) Chrome/137.0.0.0 Safari/537.36","WebKit","Chrome","137.0.0.0","Windows","10.0","https://app.prolific.com/","en-US,en;q=0.9","650ac282d9578d72800bf303","686d226cabeef709c732f8e1","686e3113e93b13947e5de7a5","650ac282d9578d72800bf303","2025-07-09T09:43:30.553Z","","","","","","ControlQ","","","","","","","","","","","","","","","","","","","","","","","","","","","","","","","","","","","","","","50"
"7550","","<div style=""width:500px;"">
  <p>How would you describe your current emotional state?</p>
  </div>","65","html-slider-response","86","2178492","0.0-10.0-3.8","60","1","2025-07-09 09:07:18","7701e855f2ef39aa3fd6c71abdc6918a","105.245.233.173","Mozilla/5.0 (Windows NT 10.0; Win64; x64) AppleWebKit/537.36 (KHTML, like Gecko) Chrome/137.0.0.0 Safari/537.36","WebKit","Chrome","137.0.0.0","Windows","10.0","https://app.prolific.com/","en-US,en;q=0.9","650ac282d9578d72800bf303","686d226cabeef709c732f8e1","686e3113e93b13947e5de7a5","650ac282d9578d72800bf303","2025-07-09T09:43:38.104Z","","","","","","StressQ","","","","","","","","","","","","","","","","","","","","","","","","","","","","","","","","","","","","","","50"
"4401","","<div style=""width:500px;"">
  <p>What best describes how you currently feel?</p>
  </div>","61","html-slider-response","87","2182894","0.0-10.0-4.8","60","1","2025-07-09 09:07:18","7701e855f2ef39aa3fd6c71abdc6918a","105.245.233.173","Mozilla/5.0 (Windows NT 10.0; Win64; x64) AppleWebKit/537.36 (KHTML, like Gecko) Chrome/137.0.0.0 Safari/537.36","WebKit","Chrome","137.0.0.0","Windows","10.0","https://app.prolific.com/","en-US,en;q=0.9","650ac282d9578d72800bf303","686d226cabeef709c732f8e1","686e3113e93b13947e5de7a5","650ac282d9578d72800bf303","2025-07-09T09:43:42.506Z","","","","","","MotivationQ","","","","","","","","","","","","","","","","","","","","","","","","","","","","","","","","","","","","","","50"
