"rt","response_timestamp","stimulus","response","trial_type","trial_index","time_elapsed","internal_node_id","run_id","condition","recorded_at","source_code_version","ip","user_agent","device","browser","browser_version","platform","platform_version","referer","accept_language","PROLIFIC_PID","STUDY_ID","SESSION_ID","prolific_id","realtime","view_history","question_order","consent","success","question_id","eventType","responses","item_order","radio_event_ids","radio_event_times","key_event_times","mouse_event_times","straightlining","zigzagging","honeypot","which_type","canvas_config","goals_layout","control_level","trial_number","tutorial_trial_number","trial_start_time","phase1_start_time","phase2_start_time","phase3_start_time","goal_1_value","goal_1_distance","goal_2_value","goal_2_distance","goal_selected","outcome","outcome_total","participant_final_score","participant_initial_score","participant_final_score_prop","goal_choice_rt","allocated_time","allocated_time_remaining","goal_direction","counts","mouse_movements","key_presses","correct","slider_start"
"11629","1752052113866","<p style='font-size:40px;line-height:1.25'><strong>Welcome to the experiment!</strong></p><p style='font-size:1.1em;line-height:1.25'>Thank you for your interest in our experiment! Before you begin, it is important that we obtain your informed consent to participate in the study.</p><p style='font-size:1.1em;line-height:1.25'>On the next screen will be an <strong>information sheet</strong> for you to read. To participate in the study we need you to read this information sheet and the following consent form carefully. If you agree with all the statements, please click the <strong>I agree</strong> button.</p><p style='font-size:1.1em;line-height:1.25'>Press <strong>Next</strong> to read the information sheet.</p>","0","custom-html-button-response","0","11636","0.0-0.0","113","1","2025-07-09 09:08:20","7701e855f2ef39aa3fd6c71abdc6918a","37.6.92.240","Mozilla/5.0 (Windows NT 10.0; Win64; x64; rv:140.0) Gecko/20100101 Firefox/140.0","","Firefox","140.0","Windows","10.0","https://app.prolific.com/","en-US,en;q=0.5","56e4b2e044b184000b894159","686d226cabeef709c732f8e1","686e3131676ad18fc3c407ed","56e4b2e044b184000b894159","2025-07-09T09:08:33.866Z","","","","","","","","","","","","","","","","","","","","","","","","","","","","","","","","","","","","","","","","","","","",""
"123196","","","","instructions","1","134833","0.0-1.0","113","1","2025-07-09 09:08:20","7701e855f2ef39aa3fd6c71abdc6918a","37.6.92.240","Mozilla/5.0 (Windows NT 10.0; Win64; x64; rv:140.0) Gecko/20100101 Firefox/140.0","","Firefox","140.0","Windows","10.0","https://app.prolific.com/","en-US,en;q=0.5","56e4b2e044b184000b894159","686d226cabeef709c732f8e1","686e3131676ad18fc3c407ed","56e4b2e044b184000b894159","","[{""page_index"":0,""viewing_time"":101817},{""page_index"":1,""viewing_time"":21379}]","","","","","","","","","","","","","","","","","","","","","","","","","","","","","","","","","","","","","","","","","","",""
"23984","","","{""Q0"":"""",""Q1"":"""",""Q2"":"""",""Q3"":"""",""Q4"":"""",""Q5"":"""",""Q6"":""I agree""}","survey-multi-choice","2","158820","0.0-2.0","113","1","2025-07-09 09:08:20","7701e855f2ef39aa3fd6c71abdc6918a","37.6.92.240","Mozilla/5.0 (Windows NT 10.0; Win64; x64; rv:140.0) Gecko/20100101 Firefox/140.0","","Firefox","140.0","Windows","10.0","https://app.prolific.com/","en-US,en;q=0.5","56e4b2e044b184000b894159","686d226cabeef709c732f8e1","686e3131676ad18fc3c407ed","56e4b2e044b184000b894159","","","[0,1,2,3,4,5,6]","true","","","","","","","","","","","","","","","","","","","","","","","","","","","","","","","","","","","","","","","","",""
"15816","","","","fullscreen","3","175644","0.0-4.0","113","1","2025-07-09 09:08:20","7701e855f2ef39aa3fd6c71abdc6918a","37.6.92.240","Mozilla/5.0 (Windows NT 10.0; Win64; x64; rv:140.0) Gecko/20100101 Firefox/140.0","","Firefox","140.0","Windows","10.0","https://app.prolific.com/","en-US,en;q=0.5","56e4b2e044b184000b894159","686d226cabeef709c732f8e1","686e3131676ad18fc3c407ed","56e4b2e044b184000b894159","","","","","true","","","","","","","","","","","","","","","","","","","","","","","","","","","","","","","","","","","","","","","",""
"7734","1752052285610"," <p style='font-size:1.1em;line-height:1.25'>Thank you for completing the consent form and closing all other tabs.</p><p style='font-size:1.1em;line-height:1.25'>We will now invite you to fill in some demographic information and questionnaires, before starting the game.<br>This will take about 5 minutes.<br></p><p style='font-size:1.1em;line-height:1.25'>Press the <strong>Next</strong> button to continue.</p>","0","custom-html-button-response","4","183380","0.0-5.0","113","1","2025-07-09 09:08:20","7701e855f2ef39aa3fd6c71abdc6918a","37.6.92.240","Mozilla/5.0 (Windows NT 10.0; Win64; x64; rv:140.0) Gecko/20100101 Firefox/140.0","","Firefox","140.0","Windows","10.0","https://app.prolific.com/","en-US,en;q=0.5","56e4b2e044b184000b894159","686d226cabeef709c732f8e1","686e3131676ad18fc3c407ed","56e4b2e044b184000b894159","2025-07-09T09:11:25.610Z","","","","","","","","","","","","","","","","","","","","","","","","","","","","","","","","","","","","","","","","","","","",""
"4450","","","{""age"":""36""}","survey-text","5","187856","0.0-6.0-0.0","113","1","2025-07-09 09:08:20","7701e855f2ef39aa3fd6c71abdc6918a","37.6.92.240","Mozilla/5.0 (Windows NT 10.0; Win64; x64; rv:140.0) Gecko/20100101 Firefox/140.0","","Firefox","140.0","Windows","10.0","https://app.prolific.com/","en-US,en;q=0.5","56e4b2e044b184000b894159","686d226cabeef709c732f8e1","686e3131676ad18fc3c407ed","56e4b2e044b184000b894159","","","","","","0","demographics","","","","","","","","","","","","","","","","","","","","","","","","","","","","","","","","","","","","","",""
"9227","","","{""gender_identity"":""female/woman""}","survey-multi-choice","6","197084","0.0-6.0-1.0","113","1","2025-07-09 09:08:20","7701e855f2ef39aa3fd6c71abdc6918a","37.6.92.240","Mozilla/5.0 (Windows NT 10.0; Win64; x64; rv:140.0) Gecko/20100101 Firefox/140.0","","Firefox","140.0","Windows","10.0","https://app.prolific.com/","en-US,en;q=0.5","56e4b2e044b184000b894159","686d226cabeef709c732f8e1","686e3131676ad18fc3c407ed","56e4b2e044b184000b894159","","","[0]","","","1","demographics","","","","","","","","","","","","","","","","","","","","","","","","","","","","","","","","","","","","","",""
"5113","","","{""assigned_sex"":""female""}","survey-multi-choice","7","202198","0.0-6.0-2.0","113","1","2025-07-09 09:08:20","7701e855f2ef39aa3fd6c71abdc6918a","37.6.92.240","Mozilla/5.0 (Windows NT 10.0; Win64; x64; rv:140.0) Gecko/20100101 Firefox/140.0","","Firefox","140.0","Windows","10.0","https://app.prolific.com/","en-US,en;q=0.5","56e4b2e044b184000b894159","686d226cabeef709c732f8e1","686e3131676ad18fc3c407ed","56e4b2e044b184000b894159","","","[0]","","","2","demographics","","","","","","","","","","","","","","","","","","","","","","","","","","","","","","","","","","","","","",""
"14592","","","{""menstrual_cycle"":""Yes""}","survey-multi-choice","8","216791","0.0-6.0-3.0","113","1","2025-07-09 09:08:20","7701e855f2ef39aa3fd6c71abdc6918a","37.6.92.240","Mozilla/5.0 (Windows NT 10.0; Win64; x64; rv:140.0) Gecko/20100101 Firefox/140.0","","Firefox","140.0","Windows","10.0","https://app.prolific.com/","en-US,en;q=0.5","56e4b2e044b184000b894159","686d226cabeef709c732f8e1","686e3131676ad18fc3c407ed","56e4b2e044b184000b894159","","","[0]","","","4","demographics","","","","","","","","","","","","","","","","","","","","","","","","","","","","","","","","","","","","","",""
"84677","","","{""education"":""Others""}","survey-multi-choice","9","301470","0.0-6.0-4.0","113","1","2025-07-09 09:08:20","7701e855f2ef39aa3fd6c71abdc6918a","37.6.92.240","Mozilla/5.0 (Windows NT 10.0; Win64; x64; rv:140.0) Gecko/20100101 Firefox/140.0","","Firefox","140.0","Windows","10.0","https://app.prolific.com/","en-US,en;q=0.5","56e4b2e044b184000b894159","686d226cabeef709c732f8e1","686e3131676ad18fc3c407ed","56e4b2e044b184000b894159","","","[0]","","","5","demographics","","","","","","","","","","","","","","","","","","","","","","","","","","","","","","","","","","","","","",""
"11689","","","{""education"":""Others""}","survey-multi-choice","10","313159","0.0-6.0-5.0","113","1","2025-07-09 09:08:20","7701e855f2ef39aa3fd6c71abdc6918a","37.6.92.240","Mozilla/5.0 (Windows NT 10.0; Win64; x64; rv:140.0) Gecko/20100101 Firefox/140.0","","Firefox","140.0","Windows","10.0","https://app.prolific.com/","en-US,en;q=0.5","56e4b2e044b184000b894159","686d226cabeef709c732f8e1","686e3131676ad18fc3c407ed","56e4b2e044b184000b894159","2025-07-09T09:13:35.389Z","","[0]","","","6","demographics","","","","","","","","","","","","","","","","","","","","","","","","","","","","","","","","","","","","","",""
"49879","","","{""mental_health_condition"":""No"",""mental_health_treatment"":""No"",""psychiatric_medication"":""I'm not taking any psychiatric medication""}","survey-text","11","363049","0.0-7.0-0.0","113","1","2025-07-09 09:08:20","7701e855f2ef39aa3fd6c71abdc6918a","37.6.92.240","Mozilla/5.0 (Windows NT 10.0; Win64; x64; rv:140.0) Gecko/20100101 Firefox/140.0","","Firefox","140.0","Windows","10.0","https://app.prolific.com/","en-US,en;q=0.5","56e4b2e044b184000b894159","686d226cabeef709c732f8e1","686e3131676ad18fc3c407ed","56e4b2e044b184000b894159","2025-07-09T09:14:25.279Z","","","","","1","mental_health","","","","","","","","","","","","","","","","","","","","","","","","","","","","","","","","","","","","","",""
"9682","","","{""depression_history"":[""Yes""]}","survey-multi-select","12","372732","0.0-7.0-1.0","113","1","2025-07-09 09:08:20","7701e855f2ef39aa3fd6c71abdc6918a","37.6.92.240","Mozilla/5.0 (Windows NT 10.0; Win64; x64; rv:140.0) Gecko/20100101 Firefox/140.0","","Firefox","140.0","Windows","10.0","https://app.prolific.com/","en-US,en;q=0.5","56e4b2e044b184000b894159","686d226cabeef709c732f8e1","686e3131676ad18fc3c407ed","56e4b2e044b184000b894159","","","[0]","","","","mental_health","","","","","","","","","","","","","","","","","","","","","","","","","","","","","","","","","","","","","",""
"31225","","","{""depression_episodes"":""3-5"",""depression_recent"":""More than 1 year ago""}","survey-multi-choice","13","403959","0.0-7.0-2.0-0.0","113","1","2025-07-09 09:08:20","7701e855f2ef39aa3fd6c71abdc6918a","37.6.92.240","Mozilla/5.0 (Windows NT 10.0; Win64; x64; rv:140.0) Gecko/20100101 Firefox/140.0","","Firefox","140.0","Windows","10.0","https://app.prolific.com/","en-US,en;q=0.5","56e4b2e044b184000b894159","686d226cabeef709c732f8e1","686e3131676ad18fc3c407ed","56e4b2e044b184000b894159","2025-07-09T09:15:06.190Z","","[0,1]","","","3","mental_health","","","","","","","","","","","","","","","","","","","","","","","","","","","","","","","","","","","","","",""
"108693","","","","survey-template","14","512657","0.0-7.0-3.0","113","1","2025-07-09 09:08:20","7701e855f2ef39aa3fd6c71abdc6918a","37.6.92.240","Mozilla/5.0 (Windows NT 10.0; Win64; x64; rv:140.0) Gecko/20100101 Firefox/140.0","","Firefox","140.0","Windows","10.0","https://app.prolific.com/","en-US,en;q=0.5","56e4b2e044b184000b894159","686d226cabeef709c732f8e1","686e3131676ad18fc3c407ed","56e4b2e044b184000b894159","2025-07-09T09:16:54.887Z","","","","","","ius","{""Q01"":""1"",""Q02"":""3"",""Q03"":""1"",""Q04"":""2"",""Q05"":""1"",""Q06"":""0"",""Q07"":""1"",""Q08"":""0"",""Q09"":""3"",""Q10"":""1"",""Q11"":""1"",""Q12"":""2"",""Q13"":""1""}","[0,1,2,3,4,5,6,7,8,9,10,11,12]","[""Q01"",""Q02"",""Q03"",""Q04"",""Q05"",""Q01"",""Q06"",""Q07"",""Q08"",""Q09"",""Q10"",""Q11"",""Q12"",""Q13""]","[8935,19130,27810,32759,47740,49048,60012,69553,74882,80875,86567,92457,97793,106444]","[]","[8935,19130,27810,32759,47740,49048,60012,69553,74882,80875,86567,92457,97793,106444,108693]","0.5384615384615384","0.5833333333333334","0","","","","","","","","","","","","","","","","","","","","","","","","","","","","",""
"3458","1752052618346","<p style='font-size:1.1em;line-height:1.25'>In the following, we will ask you a few questions relating to your experiences over the past month.<br></p><p style='font-size:1.1em;line-height:1.25'>Press the <strong>Next</strong> button to continue.</p>","0","custom-html-button-response","15","516116","0.0-7.0-4.0","113","1","2025-07-09 09:08:20","7701e855f2ef39aa3fd6c71abdc6918a","37.6.92.240","Mozilla/5.0 (Windows NT 10.0; Win64; x64; rv:140.0) Gecko/20100101 Firefox/140.0","","Firefox","140.0","Windows","10.0","https://app.prolific.com/","en-US,en;q=0.5","56e4b2e044b184000b894159","686d226cabeef709c732f8e1","686e3131676ad18fc3c407ed","56e4b2e044b184000b894159","2025-07-09T09:16:58.346Z","","","","","","","","","","","","","","","","","","","","","","","","","","","","","","","","","","","","","","","","","","","",""
"97667","","","","survey-template","16","613785","0.0-7.0-5.0","113","1","2025-07-09 09:08:20","7701e855f2ef39aa3fd6c71abdc6918a","37.6.92.240","Mozilla/5.0 (Windows NT 10.0; Win64; x64; rv:140.0) Gecko/20100101 Firefox/140.0","","Firefox","140.0","Windows","10.0","https://app.prolific.com/","en-US,en;q=0.5","56e4b2e044b184000b894159","686d226cabeef709c732f8e1","686e3131676ad18fc3c407ed","56e4b2e044b184000b894159","2025-07-09T09:18:36.015Z","","","","","","pss","{""Q01"":""1"",""Q02"":""2"",""Q03"":""2"",""Q04"":""1"",""Q05"":""2"",""Q06"":""0"",""Q07"":""0"",""Q08"":""1"",""Q09"":""1"",""Q10"":""0""}","[0,1,2,3,4,5,6,7,8,9]","[""Q01"",""Q02"",""Q03"",""Q04"",""Q05"",""Q06"",""Q07"",""Q08"",""Q09"",""Q10""]","[18869,28889,36171,43755,51304,66115,74262,84516,90760,96140]","[]","[1,18869,28889,36171,43755,51304,66115,74262,84516,90760,96140,97667]","0.3","0.6666666666666666","0","","","","","","","","","","","","","","","","","","","","","","","","","","","","",""
"3387","1752052719403","<p style='font-size:1.1em;line-height:1.25'>Thank you for your answers! Now we will ask you a few more questions relating to your feelings in the last 24 hours.<br></p><p style='font-size:1.1em;line-height:1.25'>Press the <strong>Next</strong> button to continue.</p>","0","custom-html-button-response","17","617173","0.0-7.0-6.0","113","1","2025-07-09 09:08:20","7701e855f2ef39aa3fd6c71abdc6918a","37.6.92.240","Mozilla/5.0 (Windows NT 10.0; Win64; x64; rv:140.0) Gecko/20100101 Firefox/140.0","","Firefox","140.0","Windows","10.0","https://app.prolific.com/","en-US,en;q=0.5","56e4b2e044b184000b894159","686d226cabeef709c732f8e1","686e3131676ad18fc3c407ed","56e4b2e044b184000b894159","2025-07-09T09:18:39.403Z","","","","","","","","","","","","","","","","","","","","","","","","","","","","","","","","","","","","","","","","","","","",""
"106571","","","","survey-template","18","723747","0.0-7.0-7.0","113","1","2025-07-09 09:08:20","7701e855f2ef39aa3fd6c71abdc6918a","37.6.92.240","Mozilla/5.0 (Windows NT 10.0; Win64; x64; rv:140.0) Gecko/20100101 Firefox/140.0","","Firefox","140.0","Windows","10.0","https://app.prolific.com/","en-US,en;q=0.5","56e4b2e044b184000b894159","686d226cabeef709c732f8e1","686e3131676ad18fc3c407ed","56e4b2e044b184000b894159","2025-07-09T09:20:25.977Z","","","","","","drsp","{""Q01"":""1"",""Q02"":""0"",""Q03"":""0"",""Q04"":""1"",""Q05"":""0"",""Q06"":""0"",""Q07"":""1"",""Q08"":""0"",""Q09"":""2"",""Q10"":""0"",""Q11"":""1"",""Q12"":""1"",""Q13"":""1"",""Q14"":""0"",""Q15"":""3"",""Q16"":""0"",""Q17"":""0"",""Q18"":""2"",""Q19"":""0"",""Q20"":""1"",""Q21"":""1""}","[0,1,2,3,4,5,6,7,8,9,10,11,12,13,14,15,16,17,18,19,20]","[""Q01"",""Q02"",""Q03"",""Q04"",""Q05"",""Q06"",""Q07"",""Q08"",""Q09"",""Q10"",""Q11"",""Q12"",""Q13"",""Q14"",""Q15"",""Q16"",""Q17"",""Q18"",""Q19"",""Q20"",""Q21""]","[4597,6872,10118,13575,20256,26340,29076,40594,43856,46298,48753,52959,54932,61841,67111,69683,71525,77373,83036,90882,103908]","[]","[0,4597,6872,10118,13575,20256,26340,29076,40594,43856,46298,48753,52959,54932,61841,66435,67111,69683,71525,77373,83036,90882,103908,106570]","0.47619047619047616","0.4","0","","","","","","","","","","","","","","","","","","","","","","","","","","","","",""
"31016","","","","survey-template","19","754766","0.0-7.0-8.0","113","1","2025-07-09 09:08:20","7701e855f2ef39aa3fd6c71abdc6918a","37.6.92.240","Mozilla/5.0 (Windows NT 10.0; Win64; x64; rv:140.0) Gecko/20100101 Firefox/140.0","","Firefox","140.0","Windows","10.0","https://app.prolific.com/","en-US,en;q=0.5","56e4b2e044b184000b894159","686d226cabeef709c732f8e1","686e3131676ad18fc3c407ed","56e4b2e044b184000b894159","2025-07-09T09:20:56.996Z","","","","","","stress","{""Q01"":""1"",""Q02"":""2"",""Q03"":""0""}","[0,1,2]","[""Q01"",""Q02"",""Q03""]","[7421,17688,29754]","[]","[7421,17688,28992,29754,31016]","0.3333333333333333","0","0","","","","","","","","","","","","","","","","","","","","","","","","","","","","",""
"95249","","","","instructions","20","850015","0.0-8.0-0.0","113","1","2025-07-09 09:08:20","7701e855f2ef39aa3fd6c71abdc6918a","37.6.92.240","Mozilla/5.0 (Windows NT 10.0; Win64; x64; rv:140.0) Gecko/20100101 Firefox/140.0","","Firefox","140.0","Windows","10.0","https://app.prolific.com/","en-US,en;q=0.5","56e4b2e044b184000b894159","686d226cabeef709c732f8e1","686e3131676ad18fc3c407ed","56e4b2e044b184000b894159","","[{""page_index"":0,""viewing_time"":23608},{""page_index"":1,""viewing_time"":29690},{""page_index"":2,""viewing_time"":19949},{""page_index"":3,""viewing_time"":22002}]","","","","","","","","","","","","","","","","","","","","","","","","","","","","","","","","","","","","","","","","","","",""
"","","","","ctl-task-cpt","21","880799","0.0-8.0-1.0","113","1","2025-07-09 09:08:20","7701e855f2ef39aa3fd6c71abdc6918a","37.6.92.240","Mozilla/5.0 (Windows NT 10.0; Win64; x64; rv:140.0) Gecko/20100101 Firefox/140.0","","Firefox","140.0","Windows","10.0","https://app.prolific.com/","en-US,en;q=0.5","56e4b2e044b184000b894159","686d226cabeef709c732f8e1","686e3131676ad18fc3c407ed","56e4b2e044b184000b894159","","","","","","","","","","","","","","","","","win-only","2","g1:SE,g2:NW","1","0","1","851672","4525","8538","27778","2","4","4","6","1","2","0","0","0","0","2316","4000","3235","[""down"",""right""]","{""num_key_presses"":7,""num_perfect"":4,""num_errors"":2,""num_randdir"":0,""num_randdir_good_moves"":0,""num_whilered"":1,""num_whileblue"":0,""num_blue"":1,""num_good_moves"":4}","[417.8214133126395,423.8214362008231,0,417.8214133126395,423.8214362008231,104,417.8214133126395,423.8214362008231,212,417.8214133126395,423.8214362008231,321,417.8214133126395,423.8214362008231,429,417.8214133126395,423.8214362008231,537,417.8214133126395,423.8214362008231,646,417.8214133126395,423.8214362008231,755,417.8214133126395,423.8214362008231,867,417.8214133126395,423.8214362008231,975,417.8214133126395,423.8214362008231,1083,417.8214133126395,423.8214362008231,1194,417.8214133126395,423.8214362008231,1302,459.0714133126395,447.5714362008231,1410,466.5714133126395,500.0714362008231,1518,459.0714133126395,473.8214362008231,1628,339.0714133126395,332.5714362008231,1736,319.0714133126395,321.3214362008231,1844,645.3214133126395,658.8214362008231,1954,819.0714133126395,745.0714362008231,2064,807.8214133126395,745.0714362008231,2171,795.3214133126395,751.3214362008231,2280,795.3214133126395,753.8214362008231,2389,795.3214133126395,753.8214362008231,2498,795.3214133126395,753.8214362008231,2608,795.3214133126395,753.8214362008231,2716,795.3214133126395,753.8214362008231,2825,795.3214133126395,753.8214362008231,2933,795.3214133126395,753.8214362008231,3042,795.3214133126395,753.8214362008231,3151,795.3214133126395,753.8214362008231,3259,795.3214133126395,753.8214362008231,3368,774.0714133126395,743.8214362008231,3480,736.5714133126395,728.8214362008231,3588,481.5714133126395,526.3214362008231,3699,479.0714133126395,522.5714362008231,3810,477.8214133126395,520.0714362008231,3919]","[589,589,1000,0,-411,""error"",""-"",""-"",""no_move"",1063,474,1000,0,63,""while_red"",""-"",""-"",""no_move"",4347,3758,2149,1596,602,""smooth"",""down"",""down"",""good_move"",4651,304,2280.2,4347,-1976.2,""error"",""-"",""-"",""no_move"",12500,7849,2688.5,9234,577.5,""smooth"",""down"",""down"",""good_move"",15717,3217,2646.9,12500,570.1,""smooth"",""right"",""right"",""good_move"",18962,3245,2545,15717,700,""smooth"",""right"",""right"",""good_move""]","",""
"14807","","","","instructions","22","895606","0.0-8.0-2.0","113","1","2025-07-09 09:08:20","7701e855f2ef39aa3fd6c71abdc6918a","37.6.92.240","Mozilla/5.0 (Windows NT 10.0; Win64; x64; rv:140.0) Gecko/20100101 Firefox/140.0","","Firefox","140.0","Windows","10.0","https://app.prolific.com/","en-US,en;q=0.5","56e4b2e044b184000b894159","686d226cabeef709c732f8e1","686e3131676ad18fc3c407ed","56e4b2e044b184000b894159","","[{""page_index"":0,""viewing_time"":14806}]","","","","","","","","","","","","","","","","","","","","","","","","","","","","","","","","","","","","","","","","","","",""
"","","","","ctl-task-cpt","23","949586","0.0-8.0-3.0","113","1","2025-07-09 09:08:20","7701e855f2ef39aa3fd6c71abdc6918a","37.6.92.240","Mozilla/5.0 (Windows NT 10.0; Win64; x64; rv:140.0) Gecko/20100101 Firefox/140.0","","Firefox","140.0","Windows","10.0","https://app.prolific.com/","en-US,en;q=0.5","56e4b2e044b184000b894159","686d226cabeef709c732f8e1","686e3131676ad18fc3c407ed","56e4b2e044b184000b894159","","","","","","","","","","","","","","","","","win-only","2","g1:SE,g2:NW","0.35","0","3","897262","2632","6647","50976","2","4","8","6","2","8","8","8","0","0.06060606060606061","1876","4000","2235","[""left"",""up""]","{""num_key_presses"":12,""num_perfect"":6,""num_errors"":0,""num_randdir"":6,""num_randdir_good_moves"":3,""num_whilered"":0,""num_whileblue"":0,""num_blue"":2,""num_good_moves"":9}","[420.3214133126395,411.3214362008231,0,420.3214133126395,411.3214362008231,103,420.3214133126395,411.3214362008231,215,395.3214133126395,538.8214362008231,326,395.3214133126395,538.8214362008231,435,374.0714133126395,491.3214362008231,541,306.5714133126395,418.8214362008231,648,249.0714133126395,308.8214362008231,757,232.8214133126395,268.8214362008231,866,210.3214133126395,238.8214362008231,977,175.3214133126395,188.8214362008231,1086,150.3214133126395,135.0714362008231,1195,117.8214133126395,86.3214362008231,1304,96.5714133126395,77.5714362008231,1413,90.3214133126395,72.5714362008231,1521,90.3214133126395,72.5714362008231,1632,90.3214133126395,72.5714362008231,1741,90.3214133126395,72.5714362008231,1850,90.3214133126395,72.5714362008231,1959,87.8214133126395,71.3214362008231,2070,95.3214133126395,77.5714362008231,2177,400.3214133126395,233.8214362008231,2286,510.3214133126395,325.0714362008231,2397,512.8214133126395,328.8214362008231,2504,512.8214133126395,328.8214362008231,2611,514.0714133126395,328.8214362008231,2721,514.0714133126395,328.8214362008231,2831,514.0714133126395,328.8214362008231,2941,514.0714133126395,328.8214362008231,3051,514.0714133126395,328.8214362008231,3160,514.0714133126395,328.8214362008231,3270,514.0714133126395,328.8214362008231,3379,514.0714133126395,328.8214362008231,3487,514.0714133126395,328.8214362008231,3594,514.0714133126395,328.8214362008231,3703,514.0714133126395,328.8214362008231,3814,514.0714133126395,328.8214362008231,3922]","[1587,1587,1000,0,587,""oops"",""left"",""left"",""good_move"",4753,3166,2047.4,1587,1118.6,""smooth"",""left"",""left"",""good_move"",7837,3084,2009,4753,1075,""oops"",""up"",""right"",""bad_move"",11085,3248,2762,7837,486,""smooth"",""up"",""up"",""good_move"",14280,3195,2718.5,11085,476.5,""smooth"",""up"",""up"",""good_move"",17414,3134,2520.8,14280,613.2,""smooth"",""up"",""up"",""good_move"",24637,7223,2572.1,21707,357.9,""oops"",""left"",""down"",""bad_move"",27298,2661,2261.1,24637,399.9,""oops"",""left"",""down"",""bad_move"",30645,3347,2970,27298,377,""oops"",""left"",""up"",""good_move"",33830,3184,2709.7,30646,474.3,""oops"",""left"",""left"",""good_move"",40641,6811,2751.4,37485,404.6,""smooth"",""left"",""left"",""good_move"",44062,3421,2715.9,40641,705.1,""smooth"",""up"",""up"",""good_move""]","",""
"40106","","","","instructions","24","989693","0.0-8.0-4.0","113","1","2025-07-09 09:08:20","7701e855f2ef39aa3fd6c71abdc6918a","37.6.92.240","Mozilla/5.0 (Windows NT 10.0; Win64; x64; rv:140.0) Gecko/20100101 Firefox/140.0","","Firefox","140.0","Windows","10.0","https://app.prolific.com/","en-US,en;q=0.5","56e4b2e044b184000b894159","686d226cabeef709c732f8e1","686e3131676ad18fc3c407ed","56e4b2e044b184000b894159","","[{""page_index"":0,""viewing_time"":14369},{""page_index"":1,""viewing_time"":25737}]","","","","","","","","","","","","","","","","","","","","","","","","","","","","","","","","","","","","","","","","","","",""
"15380","","","{""green_ball"":[""Ball sometimes shakes and moves in a random direction""]}","survey-multi-select","25","1005075","0.0-8.0-5.0-0.0","113","1","2025-07-09 09:08:20","7701e855f2ef39aa3fd6c71abdc6918a","37.6.92.240","Mozilla/5.0 (Windows NT 10.0; Win64; x64; rv:140.0) Gecko/20100101 Firefox/140.0","","Firefox","140.0","Windows","10.0","https://app.prolific.com/","en-US,en;q=0.5","56e4b2e044b184000b894159","686d226cabeef709c732f8e1","686e3131676ad18fc3c407ed","56e4b2e044b184000b894159","","","[0]","","","","quiz","","","","","","","","","","","","","","","","","","","","","","","","","","","","","","","","","","","","","true",""
"2323","","<p align='center'><b>CORRECT!</b> Indeed, the green ball may sometimes shake and move in a random direction.</p>","0","html-button-response","26","1007398","0.0-8.0-5.0-1.0","113","1","2025-07-09 09:08:20","7701e855f2ef39aa3fd6c71abdc6918a","37.6.92.240","Mozilla/5.0 (Windows NT 10.0; Win64; x64; rv:140.0) Gecko/20100101 Firefox/140.0","","Firefox","140.0","Windows","10.0","https://app.prolific.com/","en-US,en;q=0.5","56e4b2e044b184000b894159","686d226cabeef709c732f8e1","686e3131676ad18fc3c407ed","56e4b2e044b184000b894159","","","","","","","","","","","","","","","","","","","","","","","","","","","","","","","","","","","","","","","","","","","","",""
"11644","","","{""yellow_ball"":[""Ball doesn‘t move and I get -1 penalty point""]}","survey-multi-select","27","1019044","0.0-8.0-6.0-0.0","113","1","2025-07-09 09:08:20","7701e855f2ef39aa3fd6c71abdc6918a","37.6.92.240","Mozilla/5.0 (Windows NT 10.0; Win64; x64; rv:140.0) Gecko/20100101 Firefox/140.0","","Firefox","140.0","Windows","10.0","https://app.prolific.com/","en-US,en;q=0.5","56e4b2e044b184000b894159","686d226cabeef709c732f8e1","686e3131676ad18fc3c407ed","56e4b2e044b184000b894159","","","[0]","","","","quiz","","","","","","","","","","","","","","","","","","","","","","","","","","","","","","","","","","","","","true",""
"1606","","<p align='center'><b>CORRECT!</b> Indeed, the yellow ball never moves and you receive a penalty.</p>","0","html-button-response","28","1020651","0.0-8.0-6.0-1.0","113","1","2025-07-09 09:08:20","7701e855f2ef39aa3fd6c71abdc6918a","37.6.92.240","Mozilla/5.0 (Windows NT 10.0; Win64; x64; rv:140.0) Gecko/20100101 Firefox/140.0","","Firefox","140.0","Windows","10.0","https://app.prolific.com/","en-US,en;q=0.5","56e4b2e044b184000b894159","686d226cabeef709c732f8e1","686e3131676ad18fc3c407ed","56e4b2e044b184000b894159","","","","","","","","","","","","","","","","","","","","","","","","","","","","","","","","","","","","","","","","","","","","",""
"9662","","","{""blue_ball"":[""Ball doesn‘t move and I get -1 penalty point""]}","survey-multi-select","29","1030314","0.0-8.0-7.0-0.0","113","1","2025-07-09 09:08:20","7701e855f2ef39aa3fd6c71abdc6918a","37.6.92.240","Mozilla/5.0 (Windows NT 10.0; Win64; x64; rv:140.0) Gecko/20100101 Firefox/140.0","","Firefox","140.0","Windows","10.0","https://app.prolific.com/","en-US,en;q=0.5","56e4b2e044b184000b894159","686d226cabeef709c732f8e1","686e3131676ad18fc3c407ed","56e4b2e044b184000b894159","","","[0]","","","","quiz","","","","","","","","","","","","","","","","","","","","","","","","","","","","","","","","","","","","","false",""
"7568","","<p align='center'><b>INCORRECT.</b> The blue ball always shakes and moves randomly.</p>","0","html-button-response","30","1037882","0.0-8.0-7.0-1.0","113","1","2025-07-09 09:08:20","7701e855f2ef39aa3fd6c71abdc6918a","37.6.92.240","Mozilla/5.0 (Windows NT 10.0; Win64; x64; rv:140.0) Gecko/20100101 Firefox/140.0","","Firefox","140.0","Windows","10.0","https://app.prolific.com/","en-US,en;q=0.5","56e4b2e044b184000b894159","686d226cabeef709c732f8e1","686e3131676ad18fc3c407ed","56e4b2e044b184000b894159","","","","","","","","","","","","","","","","","","","","","","","","","","","","","","","","","","","","","","","","","","","","",""
"6515","","","{""blue_ball"":[""Ball always shakes and moves in a random direction""]}","survey-multi-select","31","1044399","0.0-8.0-7.1-0.1","113","1","2025-07-09 09:08:20","7701e855f2ef39aa3fd6c71abdc6918a","37.6.92.240","Mozilla/5.0 (Windows NT 10.0; Win64; x64; rv:140.0) Gecko/20100101 Firefox/140.0","","Firefox","140.0","Windows","10.0","https://app.prolific.com/","en-US,en;q=0.5","56e4b2e044b184000b894159","686d226cabeef709c732f8e1","686e3131676ad18fc3c407ed","56e4b2e044b184000b894159","","","[0]","","","","quiz","","","","","","","","","","","","","","","","","","","","","","","","","","","","","","","","","","","","","true",""
"4581","","<p align='center'><b>CORRECT!</b> Indeed, the blue ball always shakes and moves in a random direction. Also there is a penalty of -1 point.</p>","0","html-button-response","32","1048981","0.0-8.0-7.1-1.1","113","1","2025-07-09 09:08:20","7701e855f2ef39aa3fd6c71abdc6918a","37.6.92.240","Mozilla/5.0 (Windows NT 10.0; Win64; x64; rv:140.0) Gecko/20100101 Firefox/140.0","","Firefox","140.0","Windows","10.0","https://app.prolific.com/","en-US,en;q=0.5","56e4b2e044b184000b894159","686d226cabeef709c732f8e1","686e3131676ad18fc3c407ed","56e4b2e044b184000b894159","","","","","","","","","","","","","","","","","","","","","","","","","","","","","","","","","","","","","","","","","","","","",""
"12355","","","{""bonus"":[""When I reach 50% of points""]}","survey-multi-select","33","1061336","0.0-8.0-8.0-0.0","113","1","2025-07-09 09:08:20","7701e855f2ef39aa3fd6c71abdc6918a","37.6.92.240","Mozilla/5.0 (Windows NT 10.0; Win64; x64; rv:140.0) Gecko/20100101 Firefox/140.0","","Firefox","140.0","Windows","10.0","https://app.prolific.com/","en-US,en;q=0.5","56e4b2e044b184000b894159","686d226cabeef709c732f8e1","686e3131676ad18fc3c407ed","56e4b2e044b184000b894159","","","[0]","","","","quiz","","","","","","","","","","","","","","","","","","","","","","","","","","","","","","","","","","","","","true",""
"2678","","<p align='center'><b>CORRECT!</b> Indeed, you receive 2 pounds extra when you reach 50% of points.</p>","0","html-button-response","34","1064014","0.0-8.0-8.0-1.0","113","1","2025-07-09 09:08:20","7701e855f2ef39aa3fd6c71abdc6918a","37.6.92.240","Mozilla/5.0 (Windows NT 10.0; Win64; x64; rv:140.0) Gecko/20100101 Firefox/140.0","","Firefox","140.0","Windows","10.0","https://app.prolific.com/","en-US,en;q=0.5","56e4b2e044b184000b894159","686d226cabeef709c732f8e1","686e3131676ad18fc3c407ed","56e4b2e044b184000b894159","","","","","","","","","","","","","","","","","","","","","","","","","","","","","","","","","","","","","","","","","","","","",""
"8423","","","","instructions","35","1072437","0.0-8.0-9.0","113","1","2025-07-09 09:08:20","7701e855f2ef39aa3fd6c71abdc6918a","37.6.92.240","Mozilla/5.0 (Windows NT 10.0; Win64; x64; rv:140.0) Gecko/20100101 Firefox/140.0","","Firefox","140.0","Windows","10.0","https://app.prolific.com/","en-US,en;q=0.5","56e4b2e044b184000b894159","686d226cabeef709c732f8e1","686e3131676ad18fc3c407ed","56e4b2e044b184000b894159","","[{""page_index"":0,""viewing_time"":8423}]","","","","","","","","","","","","","","","","","","","","","","","","","","","","","","","","","","","","","","","","","","",""
"20861","","<p>Before you start with this game please answer the following three questions yourself. </p>
  <p>Through this game, we measure several aspects of your cognitive performance, such as reaction times, multi-tasking capabilities </p>
  <p>and the ability to assess the situation you are in.</p>
  <p></p>
  <p><b>How good do you usually are in such tasks?</b></p>","85","html-slider-response","36","1093300","0.0-9.0-0.0","113","1","2025-07-09 09:08:20","7701e855f2ef39aa3fd6c71abdc6918a","37.6.92.240","Mozilla/5.0 (Windows NT 10.0; Win64; x64; rv:140.0) Gecko/20100101 Firefox/140.0","","Firefox","140.0","Windows","10.0","https://app.prolific.com/","en-US,en;q=0.5","56e4b2e044b184000b894159","686d226cabeef709c732f8e1","686e3131676ad18fc3c407ed","56e4b2e044b184000b894159","2025-07-09T09:26:35.530Z","","","","","","PreSkillQ","","","","","","","","","","","","","","","","","","","","","","","","","","","","","","","","","","","","","","50"
"18547","","<div style=""width:500px;"">
  <p>How well do you think you will perform in this task compared to other participants?</p>
  </div>","65","html-slider-response","37","1111848","0.0-9.0-1.0","113","1","2025-07-09 09:08:20","7701e855f2ef39aa3fd6c71abdc6918a","37.6.92.240","Mozilla/5.0 (Windows NT 10.0; Win64; x64; rv:140.0) Gecko/20100101 Firefox/140.0","","Firefox","140.0","Windows","10.0","https://app.prolific.com/","en-US,en;q=0.5","56e4b2e044b184000b894159","686d226cabeef709c732f8e1","686e3131676ad18fc3c407ed","56e4b2e044b184000b894159","2025-07-09T09:26:54.078Z","","","","","","PrePerfQ","","","","","","","","","","","","","","","","","","","","","","","","","","","","","","","","","","","","","","50"
"10894","","<div style=""width:500px;"">
  <p>What best describes how you currently feel?</p>
  </div>","81","html-slider-response","38","1122743","0.0-9.0-2.0","113","1","2025-07-09 09:08:20","7701e855f2ef39aa3fd6c71abdc6918a","37.6.92.240","Mozilla/5.0 (Windows NT 10.0; Win64; x64; rv:140.0) Gecko/20100101 Firefox/140.0","","Firefox","140.0","Windows","10.0","https://app.prolific.com/","en-US,en;q=0.5","56e4b2e044b184000b894159","686d226cabeef709c732f8e1","686e3131676ad18fc3c407ed","56e4b2e044b184000b894159","2025-07-09T09:27:04.973Z","","","","","","PreMotivationQ","","","","","","","","","","","","","","","","","","","","","","","","","","","","","","","","","","","","","","50"
"","","","","ctl-task-cpt","39","1150282","0.0-10.0-0.0","113","1","2025-07-09 09:08:20","7701e855f2ef39aa3fd6c71abdc6918a","37.6.92.240","Mozilla/5.0 (Windows NT 10.0; Win64; x64; rv:140.0) Gecko/20100101 Firefox/140.0","","Firefox","140.0","Windows","10.0","https://app.prolific.com/","en-US,en;q=0.5","56e4b2e044b184000b894159","686d226cabeef709c732f8e1","686e3131676ad18fc3c407ed","56e4b2e044b184000b894159","2025-07-09T09:27:32.512Z","","","","","","","","","","","","","","","","win-only","1","g1:NE,g2:SW","1","1","0","1124399","2570","7572","24532","1","4","4","6","2","4","4","4","0","0.030303030303030304","1187","3000","1990","[""down"",""left""]","{""num_key_presses"":6,""num_perfect"":6,""num_errors"":0,""num_randdir"":0,""num_randdir_good_moves"":0,""num_whilered"":0,""num_whileblue"":0,""num_blue"":0,""num_good_moves"":6}","[416.5714133126395,413.8214362008231,0,416.5714133126395,413.8214362008231,108,417.8214133126395,413.8214362008231,219,419.0714133126395,413.8214362008231,330,419.0714133126395,413.8214362008231,442,419.0714133126395,413.8214362008231,557,411.5714133126395,423.8214362008231,669,251.5714133126395,583.8214362008231,780,167.8214133126395,662.5714362008231,891,80.3214133126395,723.8214362008231,1002,51.57141331263951,760.0714362008231,1113,49.07141331263951,763.8214362008231,1225,49.07141331263951,763.8214362008231,1337,171.5714133126395,706.3214362008231,1445,540.3214133126395,651.3214362008231,1554,541.5714133126395,647.5714362008231,1664,541.5714133126395,647.5714362008231,1774,541.5714133126395,641.3214362008231,1883,566.5714133126395,603.8214362008231,1992,566.5714133126395,603.8214362008231,2099,566.5714133126395,603.8214362008231,2208,566.5714133126395,603.8214362008231,2319,566.5714133126395,603.8214362008231,2428,566.5714133126395,603.8214362008231,2536,566.5714133126395,603.8214362008231,2644,566.5714133126395,603.8214362008231,2751,566.5714133126395,603.8214362008231,2861,566.5714133126395,603.8214362008231,2970,566.5714133126395,603.8214362008231,3078,584.0714133126395,602.5714362008231,3188,607.8214133126395,602.5714362008231,3295,607.8214133126395,602.5714362008231,3407,607.8214133126395,602.5714362008231,3518,607.8214133126395,602.5714362008231,3629,607.8214133126395,602.5714362008231,3741,607.8214133126395,602.5714362008231,3852,607.8214133126395,602.5714362008231,3964,607.8214133126395,602.5714362008231,4076,607.8214133126395,602.5714362008231,4187,607.8214133126395,602.5714362008231,4298,607.8214133126395,602.5714362008231,4410,607.8214133126395,602.5714362008231,4523,607.8214133126395,602.5714362008231,4634,607.8214133126395,602.5714362008231,4745,607.8214133126395,602.5714362008231,4858,607.8214133126395,602.5714362008231,4971]","[1539,1539,1000,0,539,""smooth"",""left"",""left"",""good_move"",5121,3582,3021.2,1539,560.8,""smooth"",""down"",""down"",""good_move"",7912,2791,2310.1,5121,480.9,""smooth"",""down"",""down"",""good_move"",10481,2569,1970.9,7912,598.1,""smooth"",""down"",""down"",""good_move"",13362,2880,2421.7,10482,458.3,""smooth"",""left"",""left"",""good_move"",16681,3319,2607.2,13362,711.8,""smooth"",""left"",""left"",""good_move""]","",""
"5594","","<div style=""width:500px;"">
  <p>What determined the result of this run?</p>
  </div>","100","html-slider-response","40","1155877","0.0-10.0-1.0","113","1","2025-07-09 09:08:20","7701e855f2ef39aa3fd6c71abdc6918a","37.6.92.240","Mozilla/5.0 (Windows NT 10.0; Win64; x64; rv:140.0) Gecko/20100101 Firefox/140.0","","Firefox","140.0","Windows","10.0","https://app.prolific.com/","en-US,en;q=0.5","56e4b2e044b184000b894159","686d226cabeef709c732f8e1","686e3131676ad18fc3c407ed","56e4b2e044b184000b894159","2025-07-09T09:27:38.107Z","","","","","","AttribQ","","","","","","","","","","","","","","","","","","","","","","","","","","","","","","","","","","","","","","50"
"4773","","<div style=""width:500px;"">
  <p>How much control did you have over the ball?</p>
  </div>","100","html-slider-response","41","1160652","0.0-10.0-2.0","113","1","2025-07-09 09:08:20","7701e855f2ef39aa3fd6c71abdc6918a","37.6.92.240","Mozilla/5.0 (Windows NT 10.0; Win64; x64; rv:140.0) Gecko/20100101 Firefox/140.0","","Firefox","140.0","Windows","10.0","https://app.prolific.com/","en-US,en;q=0.5","56e4b2e044b184000b894159","686d226cabeef709c732f8e1","686e3131676ad18fc3c407ed","56e4b2e044b184000b894159","2025-07-09T09:27:42.882Z","","","","","","ControlQ","","","","","","","","","","","","","","","","","","","","","","","","","","","","","","","","","","","","","","50"
"7608","","<div style=""width:500px;"">
  <p>How would you describe your current emotional state?</p>
  </div>","0","html-slider-response","42","1168260","0.0-10.0-3.0","113","1","2025-07-09 09:08:20","7701e855f2ef39aa3fd6c71abdc6918a","37.6.92.240","Mozilla/5.0 (Windows NT 10.0; Win64; x64; rv:140.0) Gecko/20100101 Firefox/140.0","","Firefox","140.0","Windows","10.0","https://app.prolific.com/","en-US,en;q=0.5","56e4b2e044b184000b894159","686d226cabeef709c732f8e1","686e3131676ad18fc3c407ed","56e4b2e044b184000b894159","2025-07-09T09:27:50.490Z","","","","","","StressQ","","","","","","","","","","","","","","","","","","","","","","","","","","","","","","","","","","","","","","50"
"5292","","<div style=""width:500px;"">
  <p>What best describes how you currently feel?</p>
  </div>","100","html-slider-response","43","1173554","0.0-10.0-4.0","113","1","2025-07-09 09:08:20","7701e855f2ef39aa3fd6c71abdc6918a","37.6.92.240","Mozilla/5.0 (Windows NT 10.0; Win64; x64; rv:140.0) Gecko/20100101 Firefox/140.0","","Firefox","140.0","Windows","10.0","https://app.prolific.com/","en-US,en;q=0.5","56e4b2e044b184000b894159","686d226cabeef709c732f8e1","686e3131676ad18fc3c407ed","56e4b2e044b184000b894159","2025-07-09T09:27:55.784Z","","","","","","MotivationQ","","","","","","","","","","","","","","","","","","","","","","","","","","","","","","","","","","","","","","50"
"","","","","ctl-task-cpt","44","1233071","0.0-10.0-0.1","113","1","2025-07-09 09:08:20","7701e855f2ef39aa3fd6c71abdc6918a","37.6.92.240","Mozilla/5.0 (Windows NT 10.0; Win64; x64; rv:140.0) Gecko/20100101 Firefox/140.0","","Firefox","140.0","Windows","10.0","https://app.prolific.com/","en-US,en;q=0.5","56e4b2e044b184000b894159","686d226cabeef709c732f8e1","686e3131676ad18fc3c407ed","56e4b2e044b184000b894159","2025-07-09T09:28:55.301Z","","","","","","","","","","","","","","","","win-only","1","g1:NE,g2:SW","0.9","2","0","1175209","1277","6285","56507","1","4","8","6","2","8","8","12","4","0.09090909090909091","1022","3000","1520","[""down"",""left""]","{""num_key_presses"":8,""num_perfect"":7,""num_errors"":0,""num_randdir"":1,""num_randdir_good_moves"":0,""num_whilered"":0,""num_whileblue"":0,""num_blue"":7,""num_good_moves"":7}","[415.3214133126395,406.3214362008231,0,415.3214133126395,406.3214362008231,114,426.5714133126395,411.3214362008231,226,447.8214133126395,442.5714362008231,337,444.0714133126395,447.5714362008231,448,434.0714133126395,468.8214362008231,560,124.0714133126395,726.3214362008231,671,55.32141331263951,778.8214362008231,783,49.07141331263951,777.5714362008231,895,84.0714133126395,763.8214362008231,1005,84.0714133126395,762.5714362008231,1115,84.0714133126395,762.5714362008231,1227,84.0714133126395,762.5714362008231,1339,84.0714133126395,762.5714362008231,1449,84.0714133126395,762.5714362008231,1560,84.0714133126395,762.5714362008231,1672,110.3214133126395,748.8214362008231,1784,182.8214133126395,733.8214362008231,1887,252.8214133126395,708.8214362008231,1999,374.0714133126395,623.8214362008231,2110,374.0714133126395,623.8214362008231,2222,374.0714133126395,623.8214362008231,2333,374.0714133126395,623.8214362008231,2445,374.0714133126395,623.8214362008231,2557,374.0714133126395,623.8214362008231,2668,374.0714133126395,623.8214362008231,2780,374.0714133126395,623.8214362008231,2892,374.0714133126395,623.8214362008231,3003,374.0714133126395,623.8214362008231,3114,374.0714133126395,623.8214362008231,3226,374.0714133126395,623.8214362008231,3338,374.0714133126395,623.8214362008231,3449,374.0714133126395,623.8214362008231,3561,374.0714133126395,623.8214362008231,3672,374.0714133126395,623.8214362008231,3782,374.0714133126395,623.8214362008231,3893,374.0714133126395,623.8214362008231,4001,374.0714133126395,623.8214362008231,4110,374.0714133126395,623.8214362008231,4218,374.0714133126395,623.8214362008231,4326,374.0714133126395,623.8214362008231,4432,374.0714133126395,623.8214362008231,4541,374.0714133126395,623.8214362008231,4649,374.0714133126395,623.8214362008231,4759,374.0714133126395,623.8214362008231,4868,374.0714133126395,623.8214362008231,4976]","[1407,1407,1000,0,407,""smooth"",""down"",""down"",""good_move"",16542,15135,3534.5,12333,674.5,""smooth"",""down"",""down"",""good_move"",27230,10688,2952.7,23664,613.3,""oops"",""down"",""right"",""bad_move"",30639,3409,2583.7,27230,825.3,""smooth"",""down"",""down"",""good_move"",34191,3552,3017.5,30639,534.5,""smooth"",""left"",""left"",""good_move"",37444,3253,2051,34191,1202,""smooth"",""left"",""left"",""good_move"",43664,6220,2000.8,41085,578.2,""smooth"",""left"",""left"",""good_move"",49945,6281,2069.6,47309,566.4,""smooth"",""left"",""left"",""good_move""]","",""
"5041","","<div style=""width:500px;"">
  <p>What determined the result of this run?</p>
  </div>","100","html-slider-response","45","1238113","0.0-10.0-1.1","113","1","2025-07-09 09:08:20","7701e855f2ef39aa3fd6c71abdc6918a","37.6.92.240","Mozilla/5.0 (Windows NT 10.0; Win64; x64; rv:140.0) Gecko/20100101 Firefox/140.0","","Firefox","140.0","Windows","10.0","https://app.prolific.com/","en-US,en;q=0.5","56e4b2e044b184000b894159","686d226cabeef709c732f8e1","686e3131676ad18fc3c407ed","56e4b2e044b184000b894159","2025-07-09T09:29:00.343Z","","","","","","AttribQ","","","","","","","","","","","","","","","","","","","","","","","","","","","","","","","","","","","","","","50"
"5554","","<div style=""width:500px;"">
  <p>How much control did you have over the ball?</p>
  </div>","91","html-slider-response","46","1243669","0.0-10.0-2.1","113","1","2025-07-09 09:08:20","7701e855f2ef39aa3fd6c71abdc6918a","37.6.92.240","Mozilla/5.0 (Windows NT 10.0; Win64; x64; rv:140.0) Gecko/20100101 Firefox/140.0","","Firefox","140.0","Windows","10.0","https://app.prolific.com/","en-US,en;q=0.5","56e4b2e044b184000b894159","686d226cabeef709c732f8e1","686e3131676ad18fc3c407ed","56e4b2e044b184000b894159","2025-07-09T09:29:05.899Z","","","","","","ControlQ","","","","","","","","","","","","","","","","","","","","","","","","","","","","","","","","","","","","","","50"
"4790","","<div style=""width:500px;"">
  <p>How would you describe your current emotional state?</p>
  </div>","0","html-slider-response","47","1248460","0.0-10.0-3.1","113","1","2025-07-09 09:08:20","7701e855f2ef39aa3fd6c71abdc6918a","37.6.92.240","Mozilla/5.0 (Windows NT 10.0; Win64; x64; rv:140.0) Gecko/20100101 Firefox/140.0","","Firefox","140.0","Windows","10.0","https://app.prolific.com/","en-US,en;q=0.5","56e4b2e044b184000b894159","686d226cabeef709c732f8e1","686e3131676ad18fc3c407ed","56e4b2e044b184000b894159","2025-07-09T09:29:10.690Z","","","","","","StressQ","","","","","","","","","","","","","","","","","","","","","","","","","","","","","","","","","","","","","","50"
"4457","","<div style=""width:500px;"">
  <p>What best describes how you currently feel?</p>
  </div>","100","html-slider-response","48","1252918","0.0-10.0-4.1","113","1","2025-07-09 09:08:20","7701e855f2ef39aa3fd6c71abdc6918a","37.6.92.240","Mozilla/5.0 (Windows NT 10.0; Win64; x64; rv:140.0) Gecko/20100101 Firefox/140.0","","Firefox","140.0","Windows","10.0","https://app.prolific.com/","en-US,en;q=0.5","56e4b2e044b184000b894159","686d226cabeef709c732f8e1","686e3131676ad18fc3c407ed","56e4b2e044b184000b894159","2025-07-09T09:29:15.148Z","","","","","","MotivationQ","","","","","","","","","","","","","","","","","","","","","","","","","","","","","","","","","","","","","","50"
"","","","","ctl-task-cpt","49","1281376","0.0-10.0-0.2","113","1","2025-07-09 09:08:20","7701e855f2ef39aa3fd6c71abdc6918a","37.6.92.240","Mozilla/5.0 (Windows NT 10.0; Win64; x64; rv:140.0) Gecko/20100101 Firefox/140.0","","Firefox","140.0","Windows","10.0","https://app.prolific.com/","en-US,en;q=0.5","56e4b2e044b184000b894159","686d226cabeef709c732f8e1","686e3131676ad18fc3c407ed","56e4b2e044b184000b894159","2025-07-09T09:29:43.607Z","","","","","","","","","","","","","","","","win-only","3","g1:SW,g2:NE","0.8","3","0","1254573","2531","7547","25458","1","4","8","6","2","8","8","20","12","0.15151515151515152","1274","3000","2100","[""up"",""right""]","{""num_key_presses"":6,""num_perfect"":6,""num_errors"":0,""num_randdir"":0,""num_randdir_good_moves"":0,""num_whilered"":0,""num_whileblue"":0,""num_blue"":0,""num_good_moves"":6}","[414.0714133126395,417.5714362008231,0,414.0714133126395,417.5714362008231,115,414.0714133126395,417.5714362008231,227,414.0714133126395,417.5714362008231,339,414.0714133126395,417.5714362008231,451,414.0714133126395,417.5714362008231,561,414.0714133126395,417.5714362008231,675,454.0714133126395,416.3214362008231,786,567.8214133126395,348.8214362008231,896,814.0714133126395,152.5714362008231,1006,814.0714133126395,132.5714362008231,1117,789.0714133126395,108.8214362008231,1222,779.0714133126395,93.8214362008231,1333,746.5714133126395,152.5714362008231,1444,696.5714133126395,268.8214362008231,1556,651.5714133126395,325.0714362008231,1666,629.0714133126395,362.5714362008231,1777,629.0714133126395,363.8214362008231,1889,627.8214133126395,363.8214362008231,2001,627.8214133126395,363.8214362008231,2112,627.8214133126395,363.8214362008231,2223,559.0714133126395,483.8214362008231,2334,516.5714133126395,581.3214362008231,2445,512.8214133126395,587.5714362008231,2558,512.8214133126395,595.0714362008231,2670,512.8214133126395,595.0714362008231,2781,512.8214133126395,595.0714362008231,2893,512.8214133126395,595.0714362008231,3006,512.8214133126395,595.0714362008231,3117,512.8214133126395,595.0714362008231,3226,512.8214133126395,595.0714362008231,3335,512.8214133126395,595.0714362008231,3444,512.8214133126395,595.0714362008231,3552,512.8214133126395,595.0714362008231,3663,512.8214133126395,595.0714362008231,3771,512.8214133126395,595.0714362008231,3881,512.8214133126395,595.0714362008231,3990,512.8214133126395,595.0714362008231,4099,512.8214133126395,595.0714362008231,4208,512.8214133126395,595.0714362008231,4318,512.8214133126395,595.0714362008231,4426,512.8214133126395,595.0714362008231,4534,512.8214133126395,595.0714362008231,4643,512.8214133126395,595.0714362008231,4752,512.8214133126395,595.0714362008231,4861,512.8214133126395,595.0714362008231,4968]","[1475,1475,1000,0,475,""smooth"",""right"",""right"",""good_move"",5273,3798,3232.8,1475,565.2,""smooth"",""right"",""right"",""good_move"",7652,2378,1921.2,5274,456.8,""smooth"",""right"",""right"",""good_move"",11281,3629,3121.7,7652,507.3,""smooth"",""up"",""up"",""good_move"",14462,3181,2689.7,11281,491.3,""smooth"",""up"",""up"",""good_move"",17609,3147,2523.6,14462,623.4,""smooth"",""up"",""up"",""good_move""]","",""
"4685","","<div style=""width:500px;"">
  <p>What determined the result of this run?</p>
  </div>","100","html-slider-response","50","1286063","0.0-10.0-1.2","113","1","2025-07-09 09:08:20","7701e855f2ef39aa3fd6c71abdc6918a","37.6.92.240","Mozilla/5.0 (Windows NT 10.0; Win64; x64; rv:140.0) Gecko/20100101 Firefox/140.0","","Firefox","140.0","Windows","10.0","https://app.prolific.com/","en-US,en;q=0.5","56e4b2e044b184000b894159","686d226cabeef709c732f8e1","686e3131676ad18fc3c407ed","56e4b2e044b184000b894159","2025-07-09T09:29:48.293Z","","","","","","AttribQ","","","","","","","","","","","","","","","","","","","","","","","","","","","","","","","","","","","","","","50"
"3383","","<div style=""width:500px;"">
  <p>How much control did you have over the ball?</p>
  </div>","100","html-slider-response","51","1289446","0.0-10.0-2.2","113","1","2025-07-09 09:08:20","7701e855f2ef39aa3fd6c71abdc6918a","37.6.92.240","Mozilla/5.0 (Windows NT 10.0; Win64; x64; rv:140.0) Gecko/20100101 Firefox/140.0","","Firefox","140.0","Windows","10.0","https://app.prolific.com/","en-US,en;q=0.5","56e4b2e044b184000b894159","686d226cabeef709c732f8e1","686e3131676ad18fc3c407ed","56e4b2e044b184000b894159","2025-07-09T09:29:51.676Z","","","","","","ControlQ","","","","","","","","","","","","","","","","","","","","","","","","","","","","","","","","","","","","","","50"
"3273","","<div style=""width:500px;"">
  <p>How would you describe your current emotional state?</p>
  </div>","0","html-slider-response","52","1292719","0.0-10.0-3.2","113","1","2025-07-09 09:08:20","7701e855f2ef39aa3fd6c71abdc6918a","37.6.92.240","Mozilla/5.0 (Windows NT 10.0; Win64; x64; rv:140.0) Gecko/20100101 Firefox/140.0","","Firefox","140.0","Windows","10.0","https://app.prolific.com/","en-US,en;q=0.5","56e4b2e044b184000b894159","686d226cabeef709c732f8e1","686e3131676ad18fc3c407ed","56e4b2e044b184000b894159","2025-07-09T09:29:54.949Z","","","","","","StressQ","","","","","","","","","","","","","","","","","","","","","","","","","","","","","","","","","","","","","","50"
"3751","","<div style=""width:500px;"">
  <p>What best describes how you currently feel?</p>
  </div>","100","html-slider-response","53","1296471","0.0-10.0-4.2","113","1","2025-07-09 09:08:20","7701e855f2ef39aa3fd6c71abdc6918a","37.6.92.240","Mozilla/5.0 (Windows NT 10.0; Win64; x64; rv:140.0) Gecko/20100101 Firefox/140.0","","Firefox","140.0","Windows","10.0","https://app.prolific.com/","en-US,en;q=0.5","56e4b2e044b184000b894159","686d226cabeef709c732f8e1","686e3131676ad18fc3c407ed","56e4b2e044b184000b894159","2025-07-09T09:29:58.701Z","","","","","","MotivationQ","","","","","","","","","","","","","","","","","","","","","","","","","","","","","","","","","","","","","","50"
"","","","","ctl-task-cpt","54","1358296","0.0-10.0-0.3","113","1","2025-07-09 09:08:20","7701e855f2ef39aa3fd6c71abdc6918a","37.6.92.240","Mozilla/5.0 (Windows NT 10.0; Win64; x64; rv:140.0) Gecko/20100101 Firefox/140.0","","Firefox","140.0","Windows","10.0","https://app.prolific.com/","en-US,en;q=0.5","56e4b2e044b184000b894159","686d226cabeef709c732f8e1","686e3131676ad18fc3c407ed","56e4b2e044b184000b894159","2025-07-09T09:31:00.526Z","","","","","","","","","","","","","","","","win-only","3","g1:SW,g2:NE","0.7","4","0","1298125","1176","6186","58813","1","4","4","6","2","4","4","24","20","0.18181818181818182","1292","3000","980","[""up"",""right""]","{""num_key_presses"":12,""num_perfect"":8,""num_errors"":0,""num_randdir"":4,""num_randdir_good_moves"":1,""num_whilered"":0,""num_whileblue"":0,""num_blue"":5,""num_good_moves"":9}","[420.3214133126395,413.8214362008231,0,420.3214133126395,413.8214362008231,110,420.3214133126395,413.8214362008231,210,420.3214133126395,413.8214362008231,321,420.3214133126395,413.8214362008231,432,420.3214133126395,413.8214362008231,544,352.8214133126395,481.3214362008231,656,420.3214133126395,428.8214362008231,766,735.3214133126395,11.3214362008231,877,806.5714133126395,-46.1785637991769,987,804.0714133126395,-1.1785637991768994,1096,781.5714133126395,38.8214362008231,1204,777.8214133126395,50.0714362008231,1312,777.8214133126395,53.8214362008231,1420,794.0714133126395,148.8214362008231,1530,761.5714133126395,357.5714362008231,1639,761.5714133126395,357.5714362008231,1749,761.5714133126395,357.5714362008231,1858,772.8214133126395,337.5714362008231,1965,779.0714133126395,333.8214362008231,2075,779.0714133126395,333.8214362008231,2183,779.0714133126395,333.8214362008231,2293,779.0714133126395,333.8214362008231,2400,779.0714133126395,333.8214362008231,2510,779.0714133126395,333.8214362008231,2619,779.0714133126395,333.8214362008231,2728,779.0714133126395,333.8214362008231,2836,779.0714133126395,333.8214362008231,2946,779.0714133126395,333.8214362008231,3057,779.0714133126395,333.8214362008231,3168,779.0714133126395,333.8214362008231,3280,779.0714133126395,333.8214362008231,3392,779.0714133126395,333.8214362008231,3504,779.0714133126395,333.8214362008231,3615,779.0714133126395,333.8214362008231,3728,779.0714133126395,333.8214362008231,3841,779.0714133126395,333.8214362008231,3952,779.0714133126395,333.8214362008231,4064,779.0714133126395,333.8214362008231,4175,779.0714133126395,333.8214362008231,4291,779.0714133126395,333.8214362008231,4401,779.0714133126395,333.8214362008231,4513,779.0714133126395,333.8214362008231,4626,779.0714133126395,333.8214362008231,4738,779.0714133126395,333.8214362008231,4848,779.0714133126395,333.8214362008231,4962]","[1481,1481,1000,0,481,""smooth"",""right"",""right"",""good_move"",4435,2954,2421.5,1481,532.5,""oops"",""right"",""down"",""bad_move"",7955,3519,3064.1,4436,454.9,""smooth"",""right"",""right"",""good_move"",10465,2510,1855.5,7955,654.5,""smooth"",""right"",""right"",""good_move"",20140,9675,1542,18134,464,""oops"",""up"",""left"",""bad_move"",23438,3298,2722.4,20140,575.6,""smooth"",""up"",""up"",""good_move"",26776,3338,2789.6,23438,548.4,""smooth"",""up"",""up"",""good_move"",33586,6810,2406.9,30639,540.1,""smooth"",""up"",""up"",""good_move"",36693,3107,2338.4,33586,768.6,""smooth"",""right"",""right"",""good_move"",39320,2627,1894.1,36693,732.9,""oops"",""up"",""left"",""bad_move"",45628,6308,2030.5,43045,552.5,""oops"",""up"",""up"",""good_move"",52333,6704,2440.5,49338,554.5,""smooth"",""right"",""right"",""good_move""]","",""
"4499","","<div style=""width:500px;"">
  <p>What determined the result of this run?</p>
  </div>","100","html-slider-response","55","1362796","0.0-10.0-1.3","113","1","2025-07-09 09:08:20","7701e855f2ef39aa3fd6c71abdc6918a","37.6.92.240","Mozilla/5.0 (Windows NT 10.0; Win64; x64; rv:140.0) Gecko/20100101 Firefox/140.0","","Firefox","140.0","Windows","10.0","https://app.prolific.com/","en-US,en;q=0.5","56e4b2e044b184000b894159","686d226cabeef709c732f8e1","686e3131676ad18fc3c407ed","56e4b2e044b184000b894159","2025-07-09T09:31:05.026Z","","","","","","AttribQ","","","","","","","","","","","","","","","","","","","","","","","","","","","","","","","","","","","","","","50"
"4895","","<div style=""width:500px;"">
  <p>How much control did you have over the ball?</p>
  </div>","91","html-slider-response","56","1367693","0.0-10.0-2.3","113","1","2025-07-09 09:08:20","7701e855f2ef39aa3fd6c71abdc6918a","37.6.92.240","Mozilla/5.0 (Windows NT 10.0; Win64; x64; rv:140.0) Gecko/20100101 Firefox/140.0","","Firefox","140.0","Windows","10.0","https://app.prolific.com/","en-US,en;q=0.5","56e4b2e044b184000b894159","686d226cabeef709c732f8e1","686e3131676ad18fc3c407ed","56e4b2e044b184000b894159","2025-07-09T09:31:09.923Z","","","","","","ControlQ","","","","","","","","","","","","","","","","","","","","","","","","","","","","","","","","","","","","","","50"
"3127","","<div style=""width:500px;"">
  <p>How would you describe your current emotional state?</p>
  </div>","0","html-slider-response","57","1370820","0.0-10.0-3.3","113","1","2025-07-09 09:08:20","7701e855f2ef39aa3fd6c71abdc6918a","37.6.92.240","Mozilla/5.0 (Windows NT 10.0; Win64; x64; rv:140.0) Gecko/20100101 Firefox/140.0","","Firefox","140.0","Windows","10.0","https://app.prolific.com/","en-US,en;q=0.5","56e4b2e044b184000b894159","686d226cabeef709c732f8e1","686e3131676ad18fc3c407ed","56e4b2e044b184000b894159","2025-07-09T09:31:13.050Z","","","","","","StressQ","","","","","","","","","","","","","","","","","","","","","","","","","","","","","","","","","","","","","","50"
"2956","","<div style=""width:500px;"">
  <p>What best describes how you currently feel?</p>
  </div>","100","html-slider-response","58","1373777","0.0-10.0-4.3","113","1","2025-07-09 09:08:20","7701e855f2ef39aa3fd6c71abdc6918a","37.6.92.240","Mozilla/5.0 (Windows NT 10.0; Win64; x64; rv:140.0) Gecko/20100101 Firefox/140.0","","Firefox","140.0","Windows","10.0","https://app.prolific.com/","en-US,en;q=0.5","56e4b2e044b184000b894159","686d226cabeef709c732f8e1","686e3131676ad18fc3c407ed","56e4b2e044b184000b894159","2025-07-09T09:31:16.007Z","","","","","","MotivationQ","","","","","","","","","","","","","","","","","","","","","","","","","","","","","","","","","","","","","","50"
"","","","","ctl-task-cpt","59","1423949","0.0-10.0-0.4","113","1","2025-07-09 09:08:20","7701e855f2ef39aa3fd6c71abdc6918a","37.6.92.240","Mozilla/5.0 (Windows NT 10.0; Win64; x64; rv:140.0) Gecko/20100101 Firefox/140.0","","Firefox","140.0","Windows","10.0","https://app.prolific.com/","en-US,en;q=0.5","56e4b2e044b184000b894159","686d226cabeef709c732f8e1","686e3131676ad18fc3c407ed","56e4b2e044b184000b894159","2025-07-09T09:32:06.179Z","","","","","","","","","","","","","","","","win-only","0","g1:NW,g2:SE","0.6","5","0","1375433","1462","6468","47164","1","4","4","6","2","4","4","28","24","0.21212121212121213","1105","3000","1605","[""down"",""right""]","{""num_key_presses"":8,""num_perfect"":6,""num_errors"":0,""num_randdir"":2,""num_randdir_good_moves"":1,""num_whilered"":0,""num_whileblue"":0,""num_blue"":5,""num_good_moves"":7}","[426.5714133126395,413.8214362008231,0,426.5714133126395,413.8214362008231,101,426.5714133126395,413.8214362008231,207,426.5714133126395,413.8214362008231,319,426.5714133126395,413.8214362008231,425,426.5714133126395,413.8214362008231,534,426.5714133126395,413.8214362008231,643,636.5714133126395,751.3214362008231,753,720.3214133126395,838.8214362008231,863,735.3214133126395,827.5714362008231,973,767.8214133126395,778.8214362008231,1083,765.3214133126395,773.8214362008231,1193,765.3214133126395,773.8214362008231,1302,762.8214133126395,770.0714362008231,1415,762.8214133126395,763.8214362008231,1527,762.8214133126395,762.5714362008231,1638,762.8214133126395,762.5714362008231,1750,759.0714133126395,761.3214362008231,1862,757.8214133126395,761.3214362008231,1974,757.8214133126395,761.3214362008231,2085,757.8214133126395,761.3214362008231,2197,754.0714133126395,763.8214362008231,2307,754.0714133126395,763.8214362008231,2419,754.0714133126395,763.8214362008231,2532,754.0714133126395,763.8214362008231,2644,754.0714133126395,765.0714362008231,2754,754.0714133126395,765.0714362008231,2867,754.0714133126395,765.0714362008231,2978,754.0714133126395,765.0714362008231,3090,754.0714133126395,765.0714362008231,3202,754.0714133126395,765.0714362008231,3302,754.0714133126395,765.0714362008231,3411,754.0714133126395,765.0714362008231,3521,754.0714133126395,765.0714362008231,3629,754.0714133126395,765.0714362008231,3737,754.0714133126395,765.0714362008231,3846,754.0714133126395,765.0714362008231,3954,754.0714133126395,765.0714362008231,4063,754.0714133126395,765.0714362008231,4173,754.0714133126395,765.0714362008231,4283,754.0714133126395,765.0714362008231,4390,754.0714133126395,765.0714362008231,4499,754.0714133126395,765.0714362008231,4608,754.0714133126395,765.0714362008231,4716,754.0714133126395,765.0714362008231,4823,754.0714133126395,765.0714362008231,4931]","[4989,4989,2425.3,2022,541.7,""smooth"",""down"",""down"",""good_move"",12042,7053,2645.9,8887,509.1,""smooth"",""down"",""down"",""good_move"",15254,3212,2458.2,12042,753.8,""smooth"",""down"",""down"",""good_move"",18211,2957,2342,15254,615,""smooth"",""right"",""right"",""good_move"",24731,6520,2961.2,21209,560.8,""oops"",""right"",""up"",""bad_move"",32268,7536,3194.4,28449,624.6,""smooth"",""right"",""right"",""good_move"",37750,5482,2131.8,35159,459.2,""smooth"",""right"",""right"",""good_move"",40397,2647,2174.5,37750,472.5,""oops"",""down"",""down"",""good_move""]","",""
"5237","","<div style=""width:500px;"">
  <p>What determined the result of this run?</p>
  </div>","100","html-slider-response","60","1429186","0.0-10.0-1.4","113","1","2025-07-09 09:08:20","7701e855f2ef39aa3fd6c71abdc6918a","37.6.92.240","Mozilla/5.0 (Windows NT 10.0; Win64; x64; rv:140.0) Gecko/20100101 Firefox/140.0","","Firefox","140.0","Windows","10.0","https://app.prolific.com/","en-US,en;q=0.5","56e4b2e044b184000b894159","686d226cabeef709c732f8e1","686e3131676ad18fc3c407ed","56e4b2e044b184000b894159","2025-07-09T09:32:11.416Z","","","","","","AttribQ","","","","","","","","","","","","","","","","","","","","","","","","","","","","","","","","","","","","","","50"
"4407","","<div style=""width:500px;"">
  <p>How much control did you have over the ball?</p>
  </div>","94","html-slider-response","61","1433594","0.0-10.0-2.4","113","1","2025-07-09 09:08:20","7701e855f2ef39aa3fd6c71abdc6918a","37.6.92.240","Mozilla/5.0 (Windows NT 10.0; Win64; x64; rv:140.0) Gecko/20100101 Firefox/140.0","","Firefox","140.0","Windows","10.0","https://app.prolific.com/","en-US,en;q=0.5","56e4b2e044b184000b894159","686d226cabeef709c732f8e1","686e3131676ad18fc3c407ed","56e4b2e044b184000b894159","2025-07-09T09:32:15.824Z","","","","","","ControlQ","","","","","","","","","","","","","","","","","","","","","","","","","","","","","","","","","","","","","","50"
"5061","","<div style=""width:500px;"">
  <p>How would you describe your current emotional state?</p>
  </div>","0","html-slider-response","62","1438656","0.0-10.0-3.4","113","1","2025-07-09 09:08:20","7701e855f2ef39aa3fd6c71abdc6918a","37.6.92.240","Mozilla/5.0 (Windows NT 10.0; Win64; x64; rv:140.0) Gecko/20100101 Firefox/140.0","","Firefox","140.0","Windows","10.0","https://app.prolific.com/","en-US,en;q=0.5","56e4b2e044b184000b894159","686d226cabeef709c732f8e1","686e3131676ad18fc3c407ed","56e4b2e044b184000b894159","2025-07-09T09:32:20.886Z","","","","","","StressQ","","","","","","","","","","","","","","","","","","","","","","","","","","","","","","","","","","","","","","50"
"2781","","<div style=""width:500px;"">
  <p>What best describes how you currently feel?</p>
  </div>","100","html-slider-response","63","1441439","0.0-10.0-4.4","113","1","2025-07-09 09:08:20","7701e855f2ef39aa3fd6c71abdc6918a","37.6.92.240","Mozilla/5.0 (Windows NT 10.0; Win64; x64; rv:140.0) Gecko/20100101 Firefox/140.0","","Firefox","140.0","Windows","10.0","https://app.prolific.com/","en-US,en;q=0.5","56e4b2e044b184000b894159","686d226cabeef709c732f8e1","686e3131676ad18fc3c407ed","56e4b2e044b184000b894159","2025-07-09T09:32:23.669Z","","","","","","MotivationQ","","","","","","","","","","","","","","","","","","","","","","","","","","","","","","","","","","","","","","50"
"","","","","ctl-task-cpt","64","1479394","0.0-10.0-0.5","113","1","2025-07-09 09:08:20","7701e855f2ef39aa3fd6c71abdc6918a","37.6.92.240","Mozilla/5.0 (Windows NT 10.0; Win64; x64; rv:140.0) Gecko/20100101 Firefox/140.0","","Firefox","140.0","Windows","10.0","https://app.prolific.com/","en-US,en;q=0.5","56e4b2e044b184000b894159","686d226cabeef709c732f8e1","686e3131676ad18fc3c407ed","56e4b2e044b184000b894159","2025-07-09T09:33:01.624Z","","","","","","","","","","","","","","","","win-only","2","g1:SE,g2:NW","0.5","6","0","1443094","1132","6139","34944","1","4","8","6","2","8","8","36","28","0.2727272727272727","839","3000","1990","[""left"",""up""]","{""num_key_presses"":6,""num_perfect"":5,""num_errors"":0,""num_randdir"":1,""num_randdir_good_moves"":1,""num_whilered"":0,""num_whileblue"":0,""num_blue"":3,""num_good_moves"":6}","[419.0714133126395,425.0714362008231,0,419.0714133126395,425.0714362008231,100,419.0714133126395,425.0714362008231,211,419.0714133126395,425.0714362008231,322,412.8214133126395,398.8214362008231,432,246.5714133126395,190.0714362008231,543,132.8214133126395,118.8214362008231,654,104.0714133126395,91.3214362008231,765,99.0714133126395,77.5714362008231,876,107.8214133126395,91.3214362008231,987,282.8214133126395,248.8214362008231,1099,315.3214133126395,263.8214362008231,1210,329.0714133126395,271.3214362008231,1321,329.0714133126395,271.3214362008231,1435,329.0714133126395,271.3214362008231,1546,336.5714133126395,278.8214362008231,1657,344.0714133126395,268.8214362008231,1768,346.5714133126395,268.8214362008231,1879,346.5714133126395,268.8214362008231,1990,346.5714133126395,268.8214362008231,2101,346.5714133126395,268.8214362008231,2208,346.5714133126395,268.8214362008231,2318,346.5714133126395,268.8214362008231,2425,346.5714133126395,268.8214362008231,2534,346.5714133126395,268.8214362008231,2642,346.5714133126395,268.8214362008231,2750,429.0714133126395,236.3214362008231,2859,436.5714133126395,236.3214362008231,2968,436.5714133126395,236.3214362008231,3073,437.8214133126395,235.0714362008231,3182,437.8214133126395,235.0714362008231,3293,437.8214133126395,235.0714362008231,3402,437.8214133126395,235.0714362008231,3510,789.0714133126395,36.3214362008231,3618,1375.3214133126396,-118.6785637991769,3728,1375.3214133126396,-118.6785637991769,3837,1375.3214133126396,-118.6785637991769,3944,1375.3214133126396,-118.6785637991769,4056,1375.3214133126396,-118.6785637991769,4162,1375.3214133126396,-118.6785637991769,4274,1375.3214133126396,-118.6785637991769,4386,1375.3214133126396,-118.6785637991769,4497,1375.3214133126396,-118.6785637991769,4609,1375.3214133126396,-118.6785637991769,4721,1375.3214133126396,-118.6785637991769,4832,1375.3214133126396,-118.6785637991769,4944]","[1552,1552,1000,0,552,""smooth"",""left"",""left"",""good_move"",12489,10937,2690.5,9271,527.5,""smooth"",""left"",""left"",""good_move"",18684,6195,2085.6,16145,453.4,""smooth"",""left"",""left"",""good_move"",21986,3302,2633.7,18684,668.3,""oops"",""up"",""up"",""good_move"",25334,3348,2757.9,21986,590.1,""smooth"",""up"",""up"",""good_move"",28514,3180,2356,25334,824,""smooth"",""up"",""up"",""good_move""]","",""
"4794","","<div style=""width:500px;"">
  <p>What determined the result of this run?</p>
  </div>","100","html-slider-response","65","1484189","0.0-10.0-1.5","113","1","2025-07-09 09:08:20","7701e855f2ef39aa3fd6c71abdc6918a","37.6.92.240","Mozilla/5.0 (Windows NT 10.0; Win64; x64; rv:140.0) Gecko/20100101 Firefox/140.0","","Firefox","140.0","Windows","10.0","https://app.prolific.com/","en-US,en;q=0.5","56e4b2e044b184000b894159","686d226cabeef709c732f8e1","686e3131676ad18fc3c407ed","56e4b2e044b184000b894159","2025-07-09T09:33:06.419Z","","","","","","AttribQ","","","","","","","","","","","","","","","","","","","","","","","","","","","","","","","","","","","","","","50"
"4310","","<div style=""width:500px;"">
  <p>How much control did you have over the ball?</p>
  </div>","98","html-slider-response","66","1488499","0.0-10.0-2.5","113","1","2025-07-09 09:08:20","7701e855f2ef39aa3fd6c71abdc6918a","37.6.92.240","Mozilla/5.0 (Windows NT 10.0; Win64; x64; rv:140.0) Gecko/20100101 Firefox/140.0","","Firefox","140.0","Windows","10.0","https://app.prolific.com/","en-US,en;q=0.5","56e4b2e044b184000b894159","686d226cabeef709c732f8e1","686e3131676ad18fc3c407ed","56e4b2e044b184000b894159","2025-07-09T09:33:10.729Z","","","","","","ControlQ","","","","","","","","","","","","","","","","","","","","","","","","","","","","","","","","","","","","","","50"
"2875","","<div style=""width:500px;"">
  <p>How would you describe your current emotional state?</p>
  </div>","0","html-slider-response","67","1491375","0.0-10.0-3.5","113","1","2025-07-09 09:08:20","7701e855f2ef39aa3fd6c71abdc6918a","37.6.92.240","Mozilla/5.0 (Windows NT 10.0; Win64; x64; rv:140.0) Gecko/20100101 Firefox/140.0","","Firefox","140.0","Windows","10.0","https://app.prolific.com/","en-US,en;q=0.5","56e4b2e044b184000b894159","686d226cabeef709c732f8e1","686e3131676ad18fc3c407ed","56e4b2e044b184000b894159","2025-07-09T09:33:13.605Z","","","","","","StressQ","","","","","","","","","","","","","","","","","","","","","","","","","","","","","","","","","","","","","","50"
"2737","","<div style=""width:500px;"">
  <p>What best describes how you currently feel?</p>
  </div>","100","html-slider-response","68","1494113","0.0-10.0-4.5","113","1","2025-07-09 09:08:20","7701e855f2ef39aa3fd6c71abdc6918a","37.6.92.240","Mozilla/5.0 (Windows NT 10.0; Win64; x64; rv:140.0) Gecko/20100101 Firefox/140.0","","Firefox","140.0","Windows","10.0","https://app.prolific.com/","en-US,en;q=0.5","56e4b2e044b184000b894159","686d226cabeef709c732f8e1","686e3131676ad18fc3c407ed","56e4b2e044b184000b894159","2025-07-09T09:33:16.343Z","","","","","","MotivationQ","","","","","","","","","","","","","","","","","","","","","","","","","","","","","","","","","","","","","","50"
"","","","","ctl-task-cpt","69","1552612","0.0-10.0-0.6","113","1","2025-07-09 09:08:20","7701e855f2ef39aa3fd6c71abdc6918a","37.6.92.240","Mozilla/5.0 (Windows NT 10.0; Win64; x64; rv:140.0) Gecko/20100101 Firefox/140.0","","Firefox","140.0","Windows","10.0","https://app.prolific.com/","en-US,en;q=0.5","56e4b2e044b184000b894159","686d226cabeef709c732f8e1","686e3131676ad18fc3c407ed","56e4b2e044b184000b894159","2025-07-09T09:34:14.842Z","","","","","","","","","","","","","","","","win-only","0","g1:NW,g2:SE","0.4","7","0","1495769","1037","6047","55498","1","4","4","6","2","4","4","40","36","0.30303030303030304","837","3000","605","[""down"",""right""]","{""num_key_presses"":16,""num_perfect"":8,""num_errors"":0,""num_randdir"":8,""num_randdir_good_moves"":3,""num_whilered"":0,""num_whileblue"":0,""num_blue"":0,""num_good_moves"":11}","[414.0714133126395,412.5714362008231,0,414.0714133126395,412.5714362008231,114,414.0714133126395,412.5714362008231,223,414.0714133126395,412.5714362008231,330,506.5714133126395,510.0714362008231,440,664.0714133126395,640.0714362008231,548,710.3214133126395,705.0714362008231,656,769.0714133126395,780.0714362008231,764,771.5714133126395,783.8214362008231,876,770.3214133126395,782.5714362008231,984,770.3214133126395,782.5714362008231,1092,770.3214133126395,782.5714362008231,1202,770.3214133126395,782.5714362008231,1311,771.5714133126395,792.5714362008231,1420,909.0714133126395,788.8214362008231,1520,1160.3214133126396,673.8214362008231,1632,1177.8214133126396,623.8214362008231,1742,1154.0714133126396,568.8214362008231,1853,1154.0714133126396,568.8214362008231,1963,1154.0714133126396,568.8214362008231,2075,1154.0714133126396,568.8214362008231,2185,1154.0714133126396,568.8214362008231,2298,1154.0714133126396,568.8214362008231,2408,1154.0714133126396,568.8214362008231,2520,1154.0714133126396,568.8214362008231,2631,1154.0714133126396,568.8214362008231,2743,1154.0714133126396,568.8214362008231,2856,1154.0714133126396,568.8214362008231,2966,1154.0714133126396,568.8214362008231,3077,1154.0714133126396,568.8214362008231,3189,1154.0714133126396,568.8214362008231,3300,1154.0714133126396,568.8214362008231,3411,1154.0714133126396,568.8214362008231,3524,1154.0714133126396,568.8214362008231,3632,1154.0714133126396,568.8214362008231,3740,1154.0714133126396,568.8214362008231,3848,1154.0714133126396,568.8214362008231,3957,1154.0714133126396,568.8214362008231,4065,1154.0714133126396,568.8214362008231,4174,1154.0714133126396,568.8214362008231,4283,1154.0714133126396,568.8214362008231,4392,1154.0714133126396,568.8214362008231,4500,1154.0714133126396,568.8214362008231,4608,1154.0714133126396,568.8214362008231,4716,1154.0714133126396,568.8214362008231,4826,1154.0714133126396,568.8214362008231,4932]","[1505,1505,1000,0,505,""smooth"",""down"",""down"",""good_move"",5320,3815,3244,1505,571,""smooth"",""down"",""down"",""good_move"",8466,3146,2713.1,5320,432.9,""smooth"",""down"",""down"",""good_move"",11802,3336,2927.6,8466,408.4,""oops"",""right"",""right"",""good_move"",15460,3658,3143.8,11802,514.2,""oops"",""right"",""left"",""bad_move"",18618,3158,2715.6,15460,442.4,""smooth"",""right"",""right"",""good_move"",21815,3197,2795.6,18618,401.4,""oops"",""right"",""left"",""bad_move"",25333,3518,2494,21815,1024,""oops"",""right"",""up"",""bad_move"",28434,3101,2178.6,25333,922.4,""oops"",""right"",""up"",""bad_move"",31506,3072,1850.9,28434,1221.1,""oops"",""down"",""left"",""bad_move"",34719,3213,2716,31506,497,""smooth"",""right"",""right"",""good_move"",37412,2693,2228.5,34719,464.5,""oops"",""right"",""right"",""good_move"",40294,2882,2561.2,37412,320.8,""oops"",""right"",""right"",""good_move"",43051,2757,2046.4,40294,710.6,""smooth"",""right"",""right"",""good_move"",45737,2686,2290.6,43051,395.4,""smooth"",""down"",""down"",""good_move"",49165,3428,2904.2,45737,523.8,""smooth"",""down"",""down"",""good_move""]","",""
"10404","","<div style=""width:500px;"">
  <p>What determined the result of this run?</p>
  </div>","92","html-slider-response","70","1563017","0.0-10.0-1.6","113","1","2025-07-09 09:08:20","7701e855f2ef39aa3fd6c71abdc6918a","37.6.92.240","Mozilla/5.0 (Windows NT 10.0; Win64; x64; rv:140.0) Gecko/20100101 Firefox/140.0","","Firefox","140.0","Windows","10.0","https://app.prolific.com/","en-US,en;q=0.5","56e4b2e044b184000b894159","686d226cabeef709c732f8e1","686e3131676ad18fc3c407ed","56e4b2e044b184000b894159","2025-07-09T09:34:25.247Z","","","","","","AttribQ","","","","","","","","","","","","","","","","","","","","","","","","","","","","","","","","","","","","","","50"
"5947","","<div style=""width:500px;"">
  <p>How much control did you have over the ball?</p>
  </div>","84","html-slider-response","71","1568965","0.0-10.0-2.6","113","1","2025-07-09 09:08:20","7701e855f2ef39aa3fd6c71abdc6918a","37.6.92.240","Mozilla/5.0 (Windows NT 10.0; Win64; x64; rv:140.0) Gecko/20100101 Firefox/140.0","","Firefox","140.0","Windows","10.0","https://app.prolific.com/","en-US,en;q=0.5","56e4b2e044b184000b894159","686d226cabeef709c732f8e1","686e3131676ad18fc3c407ed","56e4b2e044b184000b894159","2025-07-09T09:34:31.195Z","","","","","","ControlQ","","","","","","","","","","","","","","","","","","","","","","","","","","","","","","","","","","","","","","50"
"2827","","<div style=""width:500px;"">
  <p>How would you describe your current emotional state?</p>
  </div>","0","html-slider-response","72","1571792","0.0-10.0-3.6","113","1","2025-07-09 09:08:20","7701e855f2ef39aa3fd6c71abdc6918a","37.6.92.240","Mozilla/5.0 (Windows NT 10.0; Win64; x64; rv:140.0) Gecko/20100101 Firefox/140.0","","Firefox","140.0","Windows","10.0","https://app.prolific.com/","en-US,en;q=0.5","56e4b2e044b184000b894159","686d226cabeef709c732f8e1","686e3131676ad18fc3c407ed","56e4b2e044b184000b894159","2025-07-09T09:34:34.022Z","","","","","","StressQ","","","","","","","","","","","","","","","","","","","","","","","","","","","","","","","","","","","","","","50"
"2461","","<div style=""width:500px;"">
  <p>What best describes how you currently feel?</p>
  </div>","100","html-slider-response","73","1574255","0.0-10.0-4.6","113","1","2025-07-09 09:08:20","7701e855f2ef39aa3fd6c71abdc6918a","37.6.92.240","Mozilla/5.0 (Windows NT 10.0; Win64; x64; rv:140.0) Gecko/20100101 Firefox/140.0","","Firefox","140.0","Windows","10.0","https://app.prolific.com/","en-US,en;q=0.5","56e4b2e044b184000b894159","686d226cabeef709c732f8e1","686e3131676ad18fc3c407ed","56e4b2e044b184000b894159","2025-07-09T09:34:36.485Z","","","","","","MotivationQ","","","","","","","","","","","","","","","","","","","","","","","","","","","","","","","","","","","","","","50"
"","","","","ctl-task-cpt","74","1626177","0.0-10.0-0.7","113","1","2025-07-09 09:08:20","7701e855f2ef39aa3fd6c71abdc6918a","37.6.92.240","Mozilla/5.0 (Windows NT 10.0; Win64; x64; rv:140.0) Gecko/20100101 Firefox/140.0","","Firefox","140.0","Windows","10.0","https://app.prolific.com/","en-US,en;q=0.5","56e4b2e044b184000b894159","686d226cabeef709c732f8e1","686e3131676ad18fc3c407ed","56e4b2e044b184000b894159","2025-07-09T09:35:28.408Z","","","","","","","","","","","","","","","","win-only","0","g1:NW,g2:SE","0.3","8","0","1575911","931","5944","48909","1","4","8","6","2","8","8","48","40","0.36363636363636365","948","3000","1185","[""down"",""right""]","{""num_key_presses"":12,""num_perfect"":5,""num_errors"":0,""num_randdir"":7,""num_randdir_good_moves"":4,""num_whilered"":0,""num_whileblue"":0,""num_blue"":2,""num_good_moves"":9}","[412.8214133126395,427.5714362008231,0,412.8214133126395,427.5714362008231,107,412.8214133126395,427.5714362008231,215,412.8214133126395,427.5714362008231,324,412.8214133126395,427.5714362008231,432,574.0714133126395,546.3214362008231,541,721.5714133126395,671.3214362008231,650,741.5714133126395,726.3214362008231,758,754.0714133126395,763.8214362008231,866,762.8214133126395,786.3214362008231,974,762.8214133126395,786.3214362008231,1082,762.8214133126395,786.3214362008231,1192,762.8214133126395,782.5714362008231,1299,770.3214133126395,773.8214362008231,1407,782.8214133126395,765.0714362008231,1516,927.8214133126395,666.3214362008231,1627,1030.3214133126396,620.0714362008231,1738,1136.5714133126396,558.8214362008231,1849,1139.0714133126396,555.0714362008231,1960,1139.0714133126396,555.0714362008231,2069,1139.0714133126396,555.0714362008231,2174,1139.0714133126396,555.0714362008231,2286,1139.0714133126396,555.0714362008231,2398,1139.0714133126396,555.0714362008231,2509,1139.0714133126396,555.0714362008231,2621,1139.0714133126396,555.0714362008231,2731,1139.0714133126396,555.0714362008231,2843,1139.0714133126396,555.0714362008231,2955,1139.0714133126396,555.0714362008231,3065,1139.0714133126396,555.0714362008231,3177,1139.0714133126396,555.0714362008231,3290,1139.0714133126396,555.0714362008231,3403,1139.0714133126396,555.0714362008231,3512,1139.0714133126396,555.0714362008231,3619,1139.0714133126396,555.0714362008231,3727,1139.0714133126396,555.0714362008231,3836,1139.0714133126396,555.0714362008231,3945,1139.0714133126396,555.0714362008231,4053,1139.0714133126396,555.0714362008231,4163,1139.0714133126396,555.0714362008231,4271,1139.0714133126396,555.0714362008231,4379,1139.0714133126396,555.0714362008231,4487,1139.0714133126396,555.0714362008231,4596,1139.0714133126396,555.0714362008231,4706,1139.0714133126396,555.0714362008231,4813,1139.0714133126396,555.0714362008231,4920]","[1428,1428,1000,0,428,""oops"",""down"",""up"",""bad_move"",4571,3143,1792.7,1428,1350.3,""oops"",""right"",""up"",""bad_move"",7574,3003,1725.5,4571,1277.5,""oops"",""right"",""right"",""good_move"",11601,4027,3514.4,7574,512.6,""smooth"",""right"",""right"",""good_move"",14288,2687,2126.8,11601,560.2,""oops"",""right"",""left"",""bad_move"",17335,3047,2445.3,14288,601.7,""smooth"",""right"",""right"",""good_move"",19852,2517,1878.1,17335,638.9,""oops"",""right"",""right"",""good_move"",29606,9754,2420.7,26684,501.3,""smooth"",""down"",""down"",""good_move"",32722,3116,2617.9,29606,498.1,""oops"",""down"",""down"",""good_move"",35619,2897,2390.7,32722,506.3,""oops"",""down"",""down"",""good_move"",38644,3025,2592.7,35619,432.3,""smooth"",""down"",""down"",""good_move"",42667,4023,3448.2,38644,574.8,""smooth"",""down"",""down"",""good_move""]","",""
"5246","","<div style=""width:500px;"">
  <p>What determined the result of this run?</p>
  </div>","93","html-slider-response","75","1631425","0.0-10.0-1.7","113","1","2025-07-09 09:08:20","7701e855f2ef39aa3fd6c71abdc6918a","37.6.92.240","Mozilla/5.0 (Windows NT 10.0; Win64; x64; rv:140.0) Gecko/20100101 Firefox/140.0","","Firefox","140.0","Windows","10.0","https://app.prolific.com/","en-US,en;q=0.5","56e4b2e044b184000b894159","686d226cabeef709c732f8e1","686e3131676ad18fc3c407ed","56e4b2e044b184000b894159","2025-07-09T09:35:33.655Z","","","","","","AttribQ","","","","","","","","","","","","","","","","","","","","","","","","","","","","","","","","","","","","","","50"
"6119","","<div style=""width:500px;"">
  <p>How much control did you have over the ball?</p>
  </div>","78","html-slider-response","76","1637546","0.0-10.0-2.7","113","1","2025-07-09 09:08:20","7701e855f2ef39aa3fd6c71abdc6918a","37.6.92.240","Mozilla/5.0 (Windows NT 10.0; Win64; x64; rv:140.0) Gecko/20100101 Firefox/140.0","","Firefox","140.0","Windows","10.0","https://app.prolific.com/","en-US,en;q=0.5","56e4b2e044b184000b894159","686d226cabeef709c732f8e1","686e3131676ad18fc3c407ed","56e4b2e044b184000b894159","2025-07-09T09:35:39.776Z","","","","","","ControlQ","","","","","","","","","","","","","","","","","","","","","","","","","","","","","","","","","","","","","","50"
"9062","","<div style=""width:500px;"">
  <p>How would you describe your current emotional state?</p>
  </div>","5","html-slider-response","77","1646610","0.0-10.0-3.7","113","1","2025-07-09 09:08:20","7701e855f2ef39aa3fd6c71abdc6918a","37.6.92.240","Mozilla/5.0 (Windows NT 10.0; Win64; x64; rv:140.0) Gecko/20100101 Firefox/140.0","","Firefox","140.0","Windows","10.0","https://app.prolific.com/","en-US,en;q=0.5","56e4b2e044b184000b894159","686d226cabeef709c732f8e1","686e3131676ad18fc3c407ed","56e4b2e044b184000b894159","2025-07-09T09:35:48.840Z","","","","","","StressQ","","","","","","","","","","","","","","","","","","","","","","","","","","","","","","","","","","","","","","50"
"2804","","<div style=""width:500px;"">
  <p>What best describes how you currently feel?</p>
  </div>","100","html-slider-response","78","1649415","0.0-10.0-4.7","113","1","2025-07-09 09:08:20","7701e855f2ef39aa3fd6c71abdc6918a","37.6.92.240","Mozilla/5.0 (Windows NT 10.0; Win64; x64; rv:140.0) Gecko/20100101 Firefox/140.0","","Firefox","140.0","Windows","10.0","https://app.prolific.com/","en-US,en;q=0.5","56e4b2e044b184000b894159","686d226cabeef709c732f8e1","686e3131676ad18fc3c407ed","56e4b2e044b184000b894159","2025-07-09T09:35:51.645Z","","","","","","MotivationQ","","","","","","","","","","","","","","","","","","","","","","","","","","","","","","","","","","","","","","50"
"","","","","ctl-task-cpt","79","1735595","0.0-10.0-0.8","113","1","2025-07-09 09:08:20","7701e855f2ef39aa3fd6c71abdc6918a","37.6.92.240","Mozilla/5.0 (Windows NT 10.0; Win64; x64; rv:140.0) Gecko/20100101 Firefox/140.0","","Firefox","140.0","Windows","10.0","https://app.prolific.com/","en-US,en;q=0.5","56e4b2e044b184000b894159","686d226cabeef709c732f8e1","686e3131676ad18fc3c407ed","56e4b2e044b184000b894159","2025-07-09T09:37:17.825Z","","","","","","","","","","","","","","","","win-only","3","g1:SW,g2:NE","0.2","9","0","1651072","818","5828","83167","1","4","4","6","2","4","4","52","48","0.3939393939393939","901","3000","20","[""up"",""right""]","{""num_key_presses"":22,""num_perfect"":4,""num_errors"":0,""num_randdir"":18,""num_randdir_good_moves"":10,""num_whilered"":0,""num_whileblue"":0,""num_blue"":3,""num_good_moves"":14}","[415.3214133126395,408.8214362008231,1,415.3214133126395,408.8214362008231,106,415.3214133126395,408.8214362008231,207,415.3214133126395,408.8214362008231,320,416.5714133126395,408.8214362008231,421,604.0714133126395,295.0714362008231,531,721.5714133126395,215.0714362008231,641,794.0714133126395,148.8214362008231,753,815.3214133126395,98.8214362008231,863,815.3214133126395,98.8214362008231,975,815.3214133126395,98.8214362008231,1086,804.0714133126395,121.3214362008231,1197,979.0714133126395,245.0714362008231,1309,1049.0714133126396,271.3214362008231,1421,1049.0714133126396,271.3214362008231,1533,1042.8214133126396,277.5714362008231,1644,1024.0714133126396,298.8214362008231,1755,1012.8214133126395,308.8214362008231,1865,1114.0714133126396,143.8214362008231,1977,1114.0714133126396,143.8214362008231,2090,1114.0714133126396,143.8214362008231,2200,1114.0714133126396,143.8214362008231,2312,1114.0714133126396,143.8214362008231,2423,1114.0714133126396,143.8214362008231,2531,1114.0714133126396,143.8214362008231,2638,1114.0714133126396,143.8214362008231,2747,1114.0714133126396,143.8214362008231,2856,1114.0714133126396,143.8214362008231,2963,1114.0714133126396,143.8214362008231,3072,1114.0714133126396,143.8214362008231,3179,1114.0714133126396,143.8214362008231,3288,1114.0714133126396,143.8214362008231,3396,1114.0714133126396,143.8214362008231,3502,1114.0714133126396,143.8214362008231,3612,1114.0714133126396,143.8214362008231,3721,1114.0714133126396,143.8214362008231,3830,1114.0714133126396,143.8214362008231,3940,1114.0714133126396,143.8214362008231,4047,1114.0714133126396,143.8214362008231,4156,1114.0714133126396,143.8214362008231,4265,1114.0714133126396,143.8214362008231,4374,1114.0714133126396,143.8214362008231,4484,1114.0714133126396,143.8214362008231,4594,1114.0714133126396,143.8214362008231,4703,1114.0714133126396,143.8214362008231,4810,1114.0714133126396,143.8214362008231,4918]","[1365,1365,1000,0,365,""oops"",""right"",""down"",""bad_move"",8561,7196,2998.8,5022,540.2,""smooth"",""right"",""right"",""good_move"",11682,3121,2566.3,8561,554.7,""oops"",""right"",""left"",""bad_move"",14887,3205,2122.5,11682,1082.5,""oops"",""right"",""up"",""good_move"",21662,6775,2574.7,18603,484.3,""oops"",""up"",""up"",""good_move"",24869,3207,2264.2,21662,942.8,""smooth"",""up"",""up"",""good_move"",28658,3789,3335.6,24869,453.4,""oops"",""up"",""up"",""good_move"",32063,3405,2998.6,28658,406.4,""oops"",""right"",""left"",""bad_move"",35111,3047,2594.2,32064,452.8,""oops"",""right"",""left"",""bad_move"",38229,3118,2189.5,35111,928.5,""oops"",""right"",""right"",""good_move"",40920,2691,2268.4,38229,422.6,""oops"",""right"",""down"",""bad_move"",43974,3054,2510.3,40920,543.7,""oops"",""right"",""up"",""good_move"",50234,6260,2069,47698,467,""smooth"",""right"",""right"",""good_move"",53819,3585,3072.2,50234,512.8,""oops"",""right"",""left"",""bad_move"",56867,3048,2588.8,53819,459.2,""oops"",""right"",""down"",""bad_move"",59862,2995,2618.5,56867,376.5,""oops"",""right"",""right"",""good_move"",62245,2383,1874.9,59862,508.1,""oops"",""right"",""right"",""good_move"",65858,3613,3267.3,62245,345.7,""oops"",""right"",""up"",""good_move"",68928,3070,2157.4,65858,912.6,""oops"",""right"",""left"",""bad_move"",71965,3037,2654.4,68928,382.6,""smooth"",""right"",""right"",""good_move"",74454,2489,2158.8,71965,330.2,""oops"",""right"",""right"",""good_move"",77052,2598,2232,74454,366,""oops"",""right"",""right"",""good_move""]","",""
"14870","","<div style=""width:500px;"">
  <p>What determined the result of this run?</p>
  </div>","37","html-slider-response","80","1750467","0.0-10.0-1.8","113","1","2025-07-09 09:08:20","7701e855f2ef39aa3fd6c71abdc6918a","37.6.92.240","Mozilla/5.0 (Windows NT 10.0; Win64; x64; rv:140.0) Gecko/20100101 Firefox/140.0","","Firefox","140.0","Windows","10.0","https://app.prolific.com/","en-US,en;q=0.5","56e4b2e044b184000b894159","686d226cabeef709c732f8e1","686e3131676ad18fc3c407ed","56e4b2e044b184000b894159","2025-07-09T09:37:32.697Z","","","","","","AttribQ","","","","","","","","","","","","","","","","","","","","","","","","","","","","","","","","","","","","","","50"
"10894","","<div style=""width:500px;"">
  <p>How much control did you have over the ball?</p>
  </div>","27","html-slider-response","81","1761362","0.0-10.0-2.8","113","1","2025-07-09 09:08:20","7701e855f2ef39aa3fd6c71abdc6918a","37.6.92.240","Mozilla/5.0 (Windows NT 10.0; Win64; x64; rv:140.0) Gecko/20100101 Firefox/140.0","","Firefox","140.0","Windows","10.0","https://app.prolific.com/","en-US,en;q=0.5","56e4b2e044b184000b894159","686d226cabeef709c732f8e1","686e3131676ad18fc3c407ed","56e4b2e044b184000b894159","2025-07-09T09:37:43.592Z","","","","","","ControlQ","","","","","","","","","","","","","","","","","","","","","","","","","","","","","","","","","","","","","","50"
"10264","","<div style=""width:500px;"">
  <p>How would you describe your current emotional state?</p>
  </div>","18","html-slider-response","82","1771627","0.0-10.0-3.8","113","1","2025-07-09 09:08:20","7701e855f2ef39aa3fd6c71abdc6918a","37.6.92.240","Mozilla/5.0 (Windows NT 10.0; Win64; x64; rv:140.0) Gecko/20100101 Firefox/140.0","","Firefox","140.0","Windows","10.0","https://app.prolific.com/","en-US,en;q=0.5","56e4b2e044b184000b894159","686d226cabeef709c732f8e1","686e3131676ad18fc3c407ed","56e4b2e044b184000b894159","2025-07-09T09:37:53.857Z","","","","","","StressQ","","","","","","","","","","","","","","","","","","","","","","","","","","","","","","","","","","","","","","50"
"2923","","<div style=""width:500px;"">
  <p>What best describes how you currently feel?</p>
  </div>","100","html-slider-response","83","1774551","0.0-10.0-4.8","113","1","2025-07-09 09:08:20","7701e855f2ef39aa3fd6c71abdc6918a","37.6.92.240","Mozilla/5.0 (Windows NT 10.0; Win64; x64; rv:140.0) Gecko/20100101 Firefox/140.0","","Firefox","140.0","Windows","10.0","https://app.prolific.com/","en-US,en;q=0.5","56e4b2e044b184000b894159","686d226cabeef709c732f8e1","686e3131676ad18fc3c407ed","56e4b2e044b184000b894159","2025-07-09T09:37:56.781Z","","","","","","MotivationQ","","","","","","","","","","","","","","","","","","","","","","","","","","","","","","","","","","","","","","50"
"","","","","ctl-task-cpt","84","1842729","0.0-10.0-0.9","113","1","2025-07-09 09:08:20","7701e855f2ef39aa3fd6c71abdc6918a","37.6.92.240","Mozilla/5.0 (Windows NT 10.0; Win64; x64; rv:140.0) Gecko/20100101 Firefox/140.0","","Firefox","140.0","Windows","10.0","https://app.prolific.com/","en-US,en;q=0.5","56e4b2e044b184000b894159","686d226cabeef709c732f8e1","686e3131676ad18fc3c407ed","56e4b2e044b184000b894159","2025-07-09T09:39:04.959Z","","","","","","","","","","","","","","","","win-only","2","g1:SE,g2:NW","0.4","10","0","1776207","1491","6502","65166","1","4","8","6","2","8","8","60","52","0.45454545454545453","997","3000","610","[""left"",""up""]","{""num_key_presses"":16,""num_perfect"":5,""num_errors"":0,""num_randdir"":11,""num_randdir_good_moves"":6,""num_whilered"":0,""num_whileblue"":0,""num_blue"":3,""num_good_moves"":11}","[414.0714133126395,427.5714362008231,0,414.0714133126395,427.5714362008231,105,411.5714133126395,425.0714362008231,215,402.8214133126395,425.0714362008231,326,499.0714133126395,493.8214362008231,437,-5.928586687360493,231.3214362008231,548,-25.928586687360493,147.5714362008231,660,-15.928586687360493,130.0714362008231,771,32.82141331263951,98.8214362008231,882,65.3214133126395,81.3214362008231,992,65.3214133126395,81.3214362008231,1103,67.8214133126395,96.3214362008231,1214,-110.9285866873605,288.8214362008231,1325,-175.9285866873605,353.8214362008231,1435,-174.6785866873605,357.5714362008231,1547,-174.6785866873605,357.5714362008231,1658,-174.6785866873605,357.5714362008231,1769,-174.6785866873605,357.5714362008231,1882,-174.6785866873605,357.5714362008231,1994,-174.6785866873605,357.5714362008231,2105,-174.6785866873605,357.5714362008231,2218,-174.6785866873605,357.5714362008231,2329,-174.6785866873605,357.5714362008231,2439,-174.6785866873605,357.5714362008231,2551,-174.6785866873605,357.5714362008231,2662,-174.6785866873605,357.5714362008231,2770,-174.6785866873605,357.5714362008231,2879,-174.6785866873605,357.5714362008231,2989,-174.6785866873605,357.5714362008231,3100,-174.6785866873605,357.5714362008231,3210,-174.6785866873605,357.5714362008231,3320,-174.6785866873605,357.5714362008231,3431,-174.6785866873605,357.5714362008231,3538,-174.6785866873605,357.5714362008231,3644,-174.6785866873605,357.5714362008231,3752,-174.6785866873605,357.5714362008231,3859,-174.6785866873605,357.5714362008231,3968,-174.6785866873605,357.5714362008231,4076,-174.6785866873605,357.5714362008231,4186,-174.6785866873605,357.5714362008231,4294,-174.6785866873605,357.5714362008231,4404,-174.6785866873605,357.5714362008231,4513,-174.6785866873605,357.5714362008231,4613,-174.6785866873605,357.5714362008231,4724,-174.6785866873605,357.5714362008231,4836,-174.6785866873605,357.5714362008231,4947]","[1411,1411,1000,0,411,""smooth"",""left"",""left"",""good_move"",4532,3121,2483.7,1411,637.3,""smooth"",""left"",""left"",""good_move"",8120,3588,3196.6,4532,391.4,""smooth"",""left"",""left"",""good_move"",11291,3171,2742,8120,429,""smooth"",""up"",""up"",""good_move"",14579,3287,2817.2,11292,469.8,""oops"",""up"",""down"",""bad_move"",17357,2777,2241.4,14580,535.6,""oops"",""up"",""up"",""good_move"",20418,3061,1516,17357,1545,""oops"",""up"",""right"",""bad_move"",23206,2788,2228.3,20418,559.7,""oops"",""up"",""down"",""bad_move"",33750,10544,2832.1,30363,554.9,""oops"",""left"",""left"",""good_move"",36806,3056,2479,33750,577,""oops"",""up"",""right"",""bad_move"",43214,6408,2699.2,40121,393.8,""oops"",""up"",""left"",""good_move"",46388,3174,2703.8,43214,470.2,""oops"",""up"",""up"",""good_move"",49722,3334,2837.8,46388,496.2,""oops"",""up"",""up"",""good_move"",52804,3081,2496.2,49723,584.8,""oops"",""up"",""right"",""bad_move"",54847,2043,1114.5,52804,928.5,""smooth"",""left"",""left"",""good_move"",58396,3549,3080.4,54847,468.6,""oops"",""up"",""up"",""good_move""]","",""
"10026","","<div style=""width:500px;"">
  <p>What determined the result of this run?</p>
  </div>","68","html-slider-response","85","1852757","0.0-10.0-1.9","113","1","2025-07-09 09:08:20","7701e855f2ef39aa3fd6c71abdc6918a","37.6.92.240","Mozilla/5.0 (Windows NT 10.0; Win64; x64; rv:140.0) Gecko/20100101 Firefox/140.0","","Firefox","140.0","Windows","10.0","https://app.prolific.com/","en-US,en;q=0.5","56e4b2e044b184000b894159","686d226cabeef709c732f8e1","686e3131676ad18fc3c407ed","56e4b2e044b184000b894159","2025-07-09T09:39:14.987Z","","","","","","AttribQ","","","","","","","","","","","","","","","","","","","","","","","","","","","","","","","","","","","","","","50"
"4787","","<div style=""width:500px;"">
  <p>How much control did you have over the ball?</p>
  </div>","63","html-slider-response","86","1857544","0.0-10.0-2.9","113","1","2025-07-09 09:08:20","7701e855f2ef39aa3fd6c71abdc6918a","37.6.92.240","Mozilla/5.0 (Windows NT 10.0; Win64; x64; rv:140.0) Gecko/20100101 Firefox/140.0","","Firefox","140.0","Windows","10.0","https://app.prolific.com/","en-US,en;q=0.5","56e4b2e044b184000b894159","686d226cabeef709c732f8e1","686e3131676ad18fc3c407ed","56e4b2e044b184000b894159","2025-07-09T09:39:19.774Z","","","","","","ControlQ","","","","","","","","","","","","","","","","","","","","","","","","","","","","","","","","","","","","","","50"
"6216","","<div style=""width:500px;"">
  <p>How would you describe your current emotional state?</p>
  </div>","10","html-slider-response","87","1863760","0.0-10.0-3.9","113","1","2025-07-09 09:08:20","7701e855f2ef39aa3fd6c71abdc6918a","37.6.92.240","Mozilla/5.0 (Windows NT 10.0; Win64; x64; rv:140.0) Gecko/20100101 Firefox/140.0","","Firefox","140.0","Windows","10.0","https://app.prolific.com/","en-US,en;q=0.5","56e4b2e044b184000b894159","686d226cabeef709c732f8e1","686e3131676ad18fc3c407ed","56e4b2e044b184000b894159","2025-07-09T09:39:25.990Z","","","","","","StressQ","","","","","","","","","","","","","","","","","","","","","","","","","","","","","","","","","","","","","","50"
"2525","","<div style=""width:500px;"">
  <p>What best describes how you currently feel?</p>
  </div>","100","html-slider-response","88","1866286","0.0-10.0-4.9","113","1","2025-07-09 09:08:20","7701e855f2ef39aa3fd6c71abdc6918a","37.6.92.240","Mozilla/5.0 (Windows NT 10.0; Win64; x64; rv:140.0) Gecko/20100101 Firefox/140.0","","Firefox","140.0","Windows","10.0","https://app.prolific.com/","en-US,en;q=0.5","56e4b2e044b184000b894159","686d226cabeef709c732f8e1","686e3131676ad18fc3c407ed","56e4b2e044b184000b894159","2025-07-09T09:39:28.516Z","","","","","","MotivationQ","","","","","","","","","","","","","","","","","","","","","","","","","","","","","","","","","","","","","","50"
