"rt","response_timestamp","stimulus","response","trial_type","trial_index","time_elapsed","internal_node_id","run_id","condition","recorded_at","source_code_version","ip","user_agent","device","browser","browser_version","platform","platform_version","referer","accept_language","PROLIFIC_PID","STUDY_ID","SESSION_ID","prolific_id","realtime","view_history","question_order","consent","success","question_id","eventType","responses","item_order","radio_event_ids","radio_event_times","key_event_times","mouse_event_times","straightlining","zigzagging","honeypot","which_type","canvas_config","goals_layout","control_level","trial_number","tutorial_trial_number","trial_start_time","phase1_start_time","phase2_start_time","phase3_start_time","goal_1_value","goal_1_distance","goal_2_value","goal_2_distance","goal_selected","outcome","outcome_total","participant_final_score","participant_initial_score","participant_final_score_prop","goal_choice_rt","allocated_time","allocated_time_remaining","goal_direction","counts","mouse_movements","key_presses","correct","slider_start"
"3043","1752052186124","<p style='font-size:40px;line-height:1.25'><strong>Welcome to the experiment!</strong></p><p style='font-size:1.1em;line-height:1.25'>Thank you for your interest in our experiment! Before you begin, it is important that we obtain your informed consent to participate in the study.</p><p style='font-size:1.1em;line-height:1.25'>On the next screen will be an <strong>information sheet</strong> for you to read. To participate in the study we need you to read this information sheet and the following consent form carefully. If you agree with all the statements, please click the <strong>I agree</strong> button.</p><p style='font-size:1.1em;line-height:1.25'>Press <strong>Next</strong> to read the information sheet.</p>","0","custom-html-button-response","0","3048","0.0-0.0","151","1","2025-07-09 09:09:41","7701e855f2ef39aa3fd6c71abdc6918a","95.146.241.52","Mozilla/5.0 (Windows NT 10.0; Win64; x64) AppleWebKit/537.36 (KHTML, like Gecko) Chrome/137.0.0.0 Safari/537.36","WebKit","Chrome","137.0.0.0","Windows","10.0","https://app.prolific.com/","en-US,en;q=0.9","60056657125e50465c15533e","686d226cabeef709c732f8e1","686e3103a290d611970d7ad7","60056657125e50465c15533e","2025-07-09T09:09:46.126Z","","","","","","","","","","","","","","","","","","","","","","","","","","","","","","","","","","","","","","","","","","","",""
"6204","","","","instructions","1","9257","0.0-1.0","151","1","2025-07-09 09:09:41","7701e855f2ef39aa3fd6c71abdc6918a","95.146.241.52","Mozilla/5.0 (Windows NT 10.0; Win64; x64) AppleWebKit/537.36 (KHTML, like Gecko) Chrome/137.0.0.0 Safari/537.36","WebKit","Chrome","137.0.0.0","Windows","10.0","https://app.prolific.com/","en-US,en;q=0.9","60056657125e50465c15533e","686d226cabeef709c732f8e1","686e3103a290d611970d7ad7","60056657125e50465c15533e","","[{""page_index"":0,""viewing_time"":3520},{""page_index"":1,""viewing_time"":2684}]","","","","","","","","","","","","","","","","","","","","","","","","","","","","","","","","","","","","","","","","","","",""
"5048","","","{""Q0"":"""",""Q1"":"""",""Q2"":"""",""Q3"":"""",""Q4"":"""",""Q5"":"""",""Q6"":""I agree""}","survey-multi-choice","2","14311","0.0-2.0","151","1","2025-07-09 09:09:41","7701e855f2ef39aa3fd6c71abdc6918a","95.146.241.52","Mozilla/5.0 (Windows NT 10.0; Win64; x64) AppleWebKit/537.36 (KHTML, like Gecko) Chrome/137.0.0.0 Safari/537.36","WebKit","Chrome","137.0.0.0","Windows","10.0","https://app.prolific.com/","en-US,en;q=0.9","60056657125e50465c15533e","686d226cabeef709c732f8e1","686e3103a290d611970d7ad7","60056657125e50465c15533e","","","[0,1,2,3,4,5,6]","true","","","","","","","","","","","","","","","","","","","","","","","","","","","","","","","","","","","","","","","","",""
"13111","","","","fullscreen","3","28444","0.0-4.0","151","1","2025-07-09 09:09:41","7701e855f2ef39aa3fd6c71abdc6918a","95.146.241.52","Mozilla/5.0 (Windows NT 10.0; Win64; x64) AppleWebKit/537.36 (KHTML, like Gecko) Chrome/137.0.0.0 Safari/537.36","WebKit","Chrome","137.0.0.0","Windows","10.0","https://app.prolific.com/","en-US,en;q=0.9","60056657125e50465c15533e","686d226cabeef709c732f8e1","686e3103a290d611970d7ad7","60056657125e50465c15533e","","","","","true","","","","","","","","","","","","","","","","","","","","","","","","","","","","","","","","","","","","","","","",""
"2560","1752052214085"," <p style='font-size:1.1em;line-height:1.25'>Thank you for completing the consent form and closing all other tabs.</p><p style='font-size:1.1em;line-height:1.25'>We will now invite you to fill in some demographic information and questionnaires, before starting the game.<br>This will take about 5 minutes.<br></p><p style='font-size:1.1em;line-height:1.25'>Press the <strong>Next</strong> button to continue.</p>","0","custom-html-button-response","4","31010","0.0-5.0","151","1","2025-07-09 09:09:41","7701e855f2ef39aa3fd6c71abdc6918a","95.146.241.52","Mozilla/5.0 (Windows NT 10.0; Win64; x64) AppleWebKit/537.36 (KHTML, like Gecko) Chrome/137.0.0.0 Safari/537.36","WebKit","Chrome","137.0.0.0","Windows","10.0","https://app.prolific.com/","en-US,en;q=0.9","60056657125e50465c15533e","686d226cabeef709c732f8e1","686e3103a290d611970d7ad7","60056657125e50465c15533e","2025-07-09T09:10:14.088Z","","","","","","","","","","","","","","","","","","","","","","","","","","","","","","","","","","","","","","","","","","","",""
"3746","","","{""age"":""29""}","survey-text","5","34792","0.0-6.0-0.0","151","1","2025-07-09 09:09:41","7701e855f2ef39aa3fd6c71abdc6918a","95.146.241.52","Mozilla/5.0 (Windows NT 10.0; Win64; x64) AppleWebKit/537.36 (KHTML, like Gecko) Chrome/137.0.0.0 Safari/537.36","WebKit","Chrome","137.0.0.0","Windows","10.0","https://app.prolific.com/","en-US,en;q=0.9","60056657125e50465c15533e","686d226cabeef709c732f8e1","686e3103a290d611970d7ad7","60056657125e50465c15533e","","","","","","0","demographics","","","","","","","","","","","","","","","","","","","","","","","","","","","","","","","","","","","","","",""
"3605","","","{""gender_identity"":""female/woman""}","survey-multi-choice","6","38402","0.0-6.0-1.0","151","1","2025-07-09 09:09:41","7701e855f2ef39aa3fd6c71abdc6918a","95.146.241.52","Mozilla/5.0 (Windows NT 10.0; Win64; x64) AppleWebKit/537.36 (KHTML, like Gecko) Chrome/137.0.0.0 Safari/537.36","WebKit","Chrome","137.0.0.0","Windows","10.0","https://app.prolific.com/","en-US,en;q=0.9","60056657125e50465c15533e","686d226cabeef709c732f8e1","686e3103a290d611970d7ad7","60056657125e50465c15533e","","","[0]","","","1","demographics","","","","","","","","","","","","","","","","","","","","","","","","","","","","","","","","","","","","","",""
"3007","","","{""assigned_sex"":""female""}","survey-multi-choice","7","41417","0.0-6.0-2.0","151","1","2025-07-09 09:09:41","7701e855f2ef39aa3fd6c71abdc6918a","95.146.241.52","Mozilla/5.0 (Windows NT 10.0; Win64; x64) AppleWebKit/537.36 (KHTML, like Gecko) Chrome/137.0.0.0 Safari/537.36","WebKit","Chrome","137.0.0.0","Windows","10.0","https://app.prolific.com/","en-US,en;q=0.9","60056657125e50465c15533e","686d226cabeef709c732f8e1","686e3103a290d611970d7ad7","60056657125e50465c15533e","","","[0]","","","2","demographics","","","","","","","","","","","","","","","","","","","","","","","","","","","","","","","","","","","","","",""
"3224","","","{""menstrual_cycle"":""Yes""}","survey-multi-choice","8","44647","0.0-6.0-3.0","151","1","2025-07-09 09:09:41","7701e855f2ef39aa3fd6c71abdc6918a","95.146.241.52","Mozilla/5.0 (Windows NT 10.0; Win64; x64) AppleWebKit/537.36 (KHTML, like Gecko) Chrome/137.0.0.0 Safari/537.36","WebKit","Chrome","137.0.0.0","Windows","10.0","https://app.prolific.com/","en-US,en;q=0.9","60056657125e50465c15533e","686d226cabeef709c732f8e1","686e3103a290d611970d7ad7","60056657125e50465c15533e","","","[0]","","","4","demographics","","","","","","","","","","","","","","","","","","","","","","","","","","","","","","","","","","","","","",""
"6211","","","{""education"":""A-level/National Diploma/Highers""}","survey-multi-choice","9","50859","0.0-6.0-4.0","151","1","2025-07-09 09:09:41","7701e855f2ef39aa3fd6c71abdc6918a","95.146.241.52","Mozilla/5.0 (Windows NT 10.0; Win64; x64) AppleWebKit/537.36 (KHTML, like Gecko) Chrome/137.0.0.0 Safari/537.36","WebKit","Chrome","137.0.0.0","Windows","10.0","https://app.prolific.com/","en-US,en;q=0.9","60056657125e50465c15533e","686d226cabeef709c732f8e1","686e3103a290d611970d7ad7","60056657125e50465c15533e","","","[0]","","","5","demographics","","","","","","","","","","","","","","","","","","","","","","","","","","","","","","","","","","","","","",""
"8644","","","{""education"":""GCSE/Standard Grades""}","survey-multi-choice","10","59506","0.0-6.0-5.0","151","1","2025-07-09 09:09:41","7701e855f2ef39aa3fd6c71abdc6918a","95.146.241.52","Mozilla/5.0 (Windows NT 10.0; Win64; x64) AppleWebKit/537.36 (KHTML, like Gecko) Chrome/137.0.0.0 Safari/537.36","WebKit","Chrome","137.0.0.0","Windows","10.0","https://app.prolific.com/","en-US,en;q=0.9","60056657125e50465c15533e","686d226cabeef709c732f8e1","686e3103a290d611970d7ad7","60056657125e50465c15533e","2025-07-09T09:10:42.584Z","","[0]","","","6","demographics","","","","","","","","","","","","","","","","","","","","","","","","","","","","","","","","","","","","","",""
"9810","","","{""mental_health_condition"":""No"",""mental_health_treatment"":""No"",""psychiatric_medication"":""No""}","survey-text","11","69321","0.0-7.0-0.0","151","1","2025-07-09 09:09:41","7701e855f2ef39aa3fd6c71abdc6918a","95.146.241.52","Mozilla/5.0 (Windows NT 10.0; Win64; x64) AppleWebKit/537.36 (KHTML, like Gecko) Chrome/137.0.0.0 Safari/537.36","WebKit","Chrome","137.0.0.0","Windows","10.0","https://app.prolific.com/","en-US,en;q=0.9","60056657125e50465c15533e","686d226cabeef709c732f8e1","686e3103a290d611970d7ad7","60056657125e50465c15533e","2025-07-09T09:10:52.400Z","","","","","1","mental_health","","","","","","","","","","","","","","","","","","","","","","","","","","","","","","","","","","","","","",""
"6497","","","{""depression_history"":[""Yes""]}","survey-multi-select","12","75834","0.0-7.0-1.0","151","1","2025-07-09 09:09:41","7701e855f2ef39aa3fd6c71abdc6918a","95.146.241.52","Mozilla/5.0 (Windows NT 10.0; Win64; x64) AppleWebKit/537.36 (KHTML, like Gecko) Chrome/137.0.0.0 Safari/537.36","WebKit","Chrome","137.0.0.0","Windows","10.0","https://app.prolific.com/","en-US,en;q=0.9","60056657125e50465c15533e","686d226cabeef709c732f8e1","686e3103a290d611970d7ad7","60056657125e50465c15533e","","","[0]","","","","mental_health","","","","","","","","","","","","","","","","","","","","","","","","","","","","","","","","","","","","","",""
"8826","","","{""depression_episodes"":""3-5"",""depression_recent"":""More than 1 year ago""}","survey-multi-choice","13","84668","0.0-7.0-2.0-0.0","151","1","2025-07-09 09:09:41","7701e855f2ef39aa3fd6c71abdc6918a","95.146.241.52","Mozilla/5.0 (Windows NT 10.0; Win64; x64) AppleWebKit/537.36 (KHTML, like Gecko) Chrome/137.0.0.0 Safari/537.36","WebKit","Chrome","137.0.0.0","Windows","10.0","https://app.prolific.com/","en-US,en;q=0.9","60056657125e50465c15533e","686d226cabeef709c732f8e1","686e3103a290d611970d7ad7","60056657125e50465c15533e","2025-07-09T09:11:07.746Z","","[0,1]","","","3","mental_health","","","","","","","","","","","","","","","","","","","","","","","","","","","","","","","","","","","","","",""
"42851.09999990463","","","","survey-template","14","127565","0.0-7.0-3.0","151","1","2025-07-09 09:09:41","7701e855f2ef39aa3fd6c71abdc6918a","95.146.241.52","Mozilla/5.0 (Windows NT 10.0; Win64; x64) AppleWebKit/537.36 (KHTML, like Gecko) Chrome/137.0.0.0 Safari/537.36","WebKit","Chrome","137.0.0.0","Windows","10.0","https://app.prolific.com/","en-US,en;q=0.9","60056657125e50465c15533e","686d226cabeef709c732f8e1","686e3103a290d611970d7ad7","60056657125e50465c15533e","2025-07-09T09:11:50.645Z","","","","","","ius","{""Q01"":""2"",""Q02"":""3"",""Q03"":""1"",""Q04"":""2"",""Q05"":""2"",""Q06"":""3"",""Q07"":""2"",""Q08"":""0"",""Q09"":""2"",""Q10"":""2"",""Q11"":""2"",""Q12"":""3"",""Q13"":""2""}","[0,1,2,3,4,5,6,7,8,9,10,11,12]","[""Q01"",""Q02"",""Q03"",""Q04"",""Q04"",""Q05"",""Q06"",""Q07"",""Q08"",""Q09"",""Q10"",""Q11"",""Q12"",""Q13""]","[5341.599999904633,6992.5,9241,11822,13992.799999952316,17219.89999985695,23024.699999809265,24663.89999985695,27079.89999985695,32355.599999904633,35953,37864.09999990463,39362.09999990463,41995.59999990463]","[]","[5341.599999904633,6992.5,9241,11822,13992.799999952316,17219.89999985695,23024.699999809265,24663.89999985695,27079.89999985695,32355.599999904633,35953,37864.09999990463,39362.09999990463,41995.59999990463,42844.699999809265]","0.6153846153846154","0.5","0","","","","","","","","","","","","","","","","","","","","","","","","","","","","",""
"1383","1752052312037","<p style='font-size:1.1em;line-height:1.25'>In the following, we will ask you a few questions relating to your experiences over the past month.<br></p><p style='font-size:1.1em;line-height:1.25'>Press the <strong>Next</strong> button to continue.</p>","0","custom-html-button-response","15","128963","0.0-7.0-4.0","151","1","2025-07-09 09:09:41","7701e855f2ef39aa3fd6c71abdc6918a","95.146.241.52","Mozilla/5.0 (Windows NT 10.0; Win64; x64) AppleWebKit/537.36 (KHTML, like Gecko) Chrome/137.0.0.0 Safari/537.36","WebKit","Chrome","137.0.0.0","Windows","10.0","https://app.prolific.com/","en-US,en;q=0.9","60056657125e50465c15533e","686d226cabeef709c732f8e1","686e3103a290d611970d7ad7","60056657125e50465c15533e","2025-07-09T09:11:52.041Z","","","","","","","","","","","","","","","","","","","","","","","","","","","","","","","","","","","","","","","","","","","",""
"36179.90000009537","","","","survey-template","16","165150","0.0-7.0-5.0","151","1","2025-07-09 09:09:41","7701e855f2ef39aa3fd6c71abdc6918a","95.146.241.52","Mozilla/5.0 (Windows NT 10.0; Win64; x64) AppleWebKit/537.36 (KHTML, like Gecko) Chrome/137.0.0.0 Safari/537.36","WebKit","Chrome","137.0.0.0","Windows","10.0","https://app.prolific.com/","en-US,en;q=0.9","60056657125e50465c15533e","686d226cabeef709c732f8e1","686e3103a290d611970d7ad7","60056657125e50465c15533e","2025-07-09T09:12:28.229Z","","","","","","pss","{""Q01"":""2"",""Q02"":""3"",""Q03"":""4"",""Q04"":""1"",""Q05"":""3"",""Q06"":""2"",""Q07"":""2"",""Q08"":""2"",""Q09"":""2"",""Q10"":""3""}","[0,1,2,3,4,5,6,7,8,9]","[""Q01"",""Q02"",""Q03"",""Q04"",""Q05"",""Q06"",""Q07"",""Q08"",""Q09"",""Q10""]","[7457.599999904633,11433.900000095367,13297.799999952316,16027.099999904633,18655.900000095367,23691.400000095367,26589.299999952316,29078,32522.900000095367,35516.200000047684]","[]","[19.700000047683716,7457.599999904633,11433.900000095367,13297.799999952316,16027.099999904633,18655.900000095367,23691.400000095367,26589.299999952316,29078,31688,32522.900000095367,35516.200000047684,36174.59999990463]","0.5","0.5555555555555556","0","","","","","","","","","","","","","","","","","","","","","","","","","","","","",""
"1689","1752052349921","<p style='font-size:1.1em;line-height:1.25'>Thank you for your answers! Now we will ask you a few more questions relating to your feelings in the last 24 hours.<br></p><p style='font-size:1.1em;line-height:1.25'>Press the <strong>Next</strong> button to continue.</p>","0","custom-html-button-response","17","166844","0.0-7.0-6.0","151","1","2025-07-09 09:09:41","7701e855f2ef39aa3fd6c71abdc6918a","95.146.241.52","Mozilla/5.0 (Windows NT 10.0; Win64; x64) AppleWebKit/537.36 (KHTML, like Gecko) Chrome/137.0.0.0 Safari/537.36","WebKit","Chrome","137.0.0.0","Windows","10.0","https://app.prolific.com/","en-US,en;q=0.9","60056657125e50465c15533e","686d226cabeef709c732f8e1","686e3103a290d611970d7ad7","60056657125e50465c15533e","2025-07-09T09:12:29.922Z","","","","","","","","","","","","","","","","","","","","","","","","","","","","","","","","","","","","","","","","","","","",""
"59697.09999990463","","","","survey-template","18","226554","0.0-7.0-7.0","151","1","2025-07-09 09:09:41","7701e855f2ef39aa3fd6c71abdc6918a","95.146.241.52","Mozilla/5.0 (Windows NT 10.0; Win64; x64) AppleWebKit/537.36 (KHTML, like Gecko) Chrome/137.0.0.0 Safari/537.36","WebKit","Chrome","137.0.0.0","Windows","10.0","https://app.prolific.com/","en-US,en;q=0.9","60056657125e50465c15533e","686d226cabeef709c732f8e1","686e3103a290d611970d7ad7","60056657125e50465c15533e","2025-07-09T09:13:29.633Z","","","","","","drsp","{""Q01"":""0"",""Q02"":""0"",""Q03"":""0"",""Q04"":""2"",""Q05"":""1"",""Q06"":""2"",""Q07"":""0"",""Q08"":""0"",""Q09"":""2"",""Q10"":""4"",""Q11"":""5"",""Q12"":""2"",""Q13"":""3"",""Q14"":""1"",""Q15"":""5"",""Q16"":""5"",""Q17"":""1"",""Q18"":""2"",""Q19"":""3"",""Q20"":""5"",""Q21"":""1""}","[0,1,2,3,4,5,6,7,8,9,10,11,12,13,14,15,16,17,18,19,20]","[""Q01"",""Q02"",""Q03"",""Q04"",""Q05"",""Q06"",""Q07"",""Q08"",""Q09"",""Q10"",""Q11"",""Q12"",""Q13"",""Q14"",""Q15"",""Q16"",""Q17"",""Q18"",""Q18"",""Q19"",""Q20"",""Q21""]","[4135.400000095367,5318.400000095367,6381.900000095367,7515.5,9579,13089.099999904633,14274.900000095367,15031.599999904633,19682.5,20670,23291.900000095367,24462.5,25857.799999952316,28474.099999904633,30295.700000047684,33195.200000047684,35209.59999990463,38025.700000047684,39699.09999990463,53170.09999990463,55624.09999990463,58424.200000047684]","[]","[31.40000009536743,4135.400000095367,5318.400000095367,6381.900000095367,7515.5,9579,13089.099999904633,14274.900000095367,15031.599999904633,19682.5,20670,22093.599999904633,23291.900000095367,24462.5,25857.799999952316,28474.099999904633,30295.700000047684,33195.200000047684,35209.59999990463,38025.700000047684,39699.09999990463,53170.09999990463,55624.09999990463,58424.200000047684,59687.700000047684]","0.23809523809523808","0.3","0","","","","","","","","","","","","","","","","","","","","","","","","","","","","",""
"6105.100000143051","","","","survey-template","19","232665","0.0-7.0-8.0","151","1","2025-07-09 09:09:41","7701e855f2ef39aa3fd6c71abdc6918a","95.146.241.52","Mozilla/5.0 (Windows NT 10.0; Win64; x64) AppleWebKit/537.36 (KHTML, like Gecko) Chrome/137.0.0.0 Safari/537.36","WebKit","Chrome","137.0.0.0","Windows","10.0","https://app.prolific.com/","en-US,en;q=0.9","60056657125e50465c15533e","686d226cabeef709c732f8e1","686e3103a290d611970d7ad7","60056657125e50465c15533e","2025-07-09T09:13:35.743Z","","","","","","stress","{""Q01"":""5"",""Q02"":""3"",""Q03"":""3""}","[0,1,2]","[""Q01"",""Q02"",""Q03""]","[2593.4000000953674,4047.7000000476837,5515.200000047684]","[]","[2593.4000000953674,4047.7000000476837,5515.200000047684,6103.200000047684]","0.3333333333333333","0.5","0","","","","","","","","","","","","","","","","","","","","","","","","","","","","",""
"55198","","","","instructions","20","287868","0.0-8.0-0.0","151","1","2025-07-09 09:09:41","7701e855f2ef39aa3fd6c71abdc6918a","95.146.241.52","Mozilla/5.0 (Windows NT 10.0; Win64; x64) AppleWebKit/537.36 (KHTML, like Gecko) Chrome/137.0.0.0 Safari/537.36","WebKit","Chrome","137.0.0.0","Windows","10.0","https://app.prolific.com/","en-US,en;q=0.9","60056657125e50465c15533e","686d226cabeef709c732f8e1","686e3103a290d611970d7ad7","60056657125e50465c15533e","","[{""page_index"":0,""viewing_time"":11969},{""page_index"":1,""viewing_time"":17292},{""page_index"":2,""viewing_time"":13024},{""page_index"":3,""viewing_time"":12911}]","","","","","","","","","","","","","","","","","","","","","","","","","","","","","","","","","","","","","","","","","","",""
"","","","","ctl-task-cpt","21","297218","0.0-8.0-1.0","151","1","2025-07-09 09:09:41","7701e855f2ef39aa3fd6c71abdc6918a","95.146.241.52","Mozilla/5.0 (Windows NT 10.0; Win64; x64) AppleWebKit/537.36 (KHTML, like Gecko) Chrome/137.0.0.0 Safari/537.36","WebKit","Chrome","137.0.0.0","Windows","10.0","https://app.prolific.com/","en-US,en;q=0.9","60056657125e50465c15533e","686d226cabeef709c732f8e1","686e3103a290d611970d7ad7","60056657125e50465c15533e","","","","","","","","","","","","","","","","","win-only","1","g1:NE,g2:SW","1","0","1","289711.8","2280.3","-9999","6297.3","2","4","4","6","-9999","-4","-4","0","0","0","-9999","4000","4000","[]","{""num_key_presses"":0,""num_perfect"":0,""num_errors"":0,""num_randdir"":0,""num_randdir_good_moves"":0,""num_whilered"":0,""num_whileblue"":0,""num_blue"":0,""num_good_moves"":0}","[419.57142857142856,413.1808016640799,3.9,419.57142857142856,413.1808016640799,250.1,419.57142857142856,413.1808016640799,351.8,419.57142857142856,413.1808016640799,456.2,419.57142857142856,413.1808016640799,563.1,419.57142857142856,413.1808016640799,670,419.57142857142856,413.1808016640799,776.6,419.57142857142856,413.1808016640799,877.2,419.57142857142856,413.1808016640799,984,419.57142857142856,413.1808016640799,1090.3,419.57142857142856,413.1808016640799,1191.9,419.57142857142856,413.1808016640799,1292.6,419.57142857142856,413.1808016640799,1397.9,419.57142857142856,413.1808016640799,1503.7,419.57142857142856,413.1808016640799,1604.1,419.57142857142856,413.1808016640799,1709.8,419.57142857142856,413.1808016640799,1816.1,419.57142857142856,413.1808016640799,1918.2,419.57142857142856,413.1808016640799,2026,419.57142857142856,413.1808016640799,2134.8,419.57142857142856,413.1808016640799,2234.8,419.57142857142856,413.1808016640799,2341.9,419.57142857142856,413.1808016640799,2450.3,419.57142857142856,413.1808016640799,2551.5,419.57142857142856,413.1808016640799,2657.8,419.57142857142856,413.1808016640799,2764.4,419.57142857142856,413.1808016640799,2872.8,419.57142857142856,413.1808016640799,2976.4,419.57142857142856,413.1808016640799,3076.4,419.57142857142856,413.1808016640799,3178.9,419.57142857142856,413.1808016640799,3281.9,419.57142857142856,413.1808016640799,3391.2,419.57142857142856,413.1808016640799,3491.2,419.57142857142856,413.1808016640799,3591.4,419.57142857142856,413.1808016640799,3695.5,419.57142857142856,413.1808016640799,3802.9,419.57142857142856,413.1808016640799,3903]","[]","",""
"9067","","","","instructions","22","306287","0.0-8.0-2.0","151","1","2025-07-09 09:09:41","7701e855f2ef39aa3fd6c71abdc6918a","95.146.241.52","Mozilla/5.0 (Windows NT 10.0; Win64; x64) AppleWebKit/537.36 (KHTML, like Gecko) Chrome/137.0.0.0 Safari/537.36","WebKit","Chrome","137.0.0.0","Windows","10.0","https://app.prolific.com/","en-US,en;q=0.9","60056657125e50465c15533e","686d226cabeef709c732f8e1","686e3103a290d611970d7ad7","60056657125e50465c15533e","","[{""page_index"":0,""viewing_time"":9065}]","","","","","","","","","","","","","","","","","","","","","","","","","","","","","","","","","","","","","","","","","","",""
"","","","","ctl-task-cpt","23","382388","0.0-8.0-3.0","151","1","2025-07-09 09:09:41","7701e855f2ef39aa3fd6c71abdc6918a","95.146.241.52","Mozilla/5.0 (Windows NT 10.0; Win64; x64) AppleWebKit/537.36 (KHTML, like Gecko) Chrome/137.0.0.0 Safari/537.36","WebKit","Chrome","137.0.0.0","Windows","10.0","https://app.prolific.com/","en-US,en;q=0.9","60056657125e50465c15533e","686d226cabeef709c732f8e1","686e3103a290d611970d7ad7","60056657125e50465c15533e","","","","","","","","","","","","","","","","","win-only","1","g1:NE,g2:SW","0.35","0","3","308094.2","2033.3","6044.7","73087.3","2","4","8","6","2","-8","-14","0","0","0","4011.4","4000","-2315","[""down"",""left""]","{""num_key_presses"":19,""num_perfect"":6,""num_errors"":6,""num_randdir"":7,""num_randdir_good_moves"":1,""num_whilered"":0,""num_whileblue"":1,""num_blue"":5,""num_good_moves"":6}","[416.57142857142856,408.6808016640799,0.6,416.57142857142856,408.6808016640799,100.7,416.57142857142856,408.6808016640799,204.7,416.57142857142856,408.6808016640799,315.8,416.57142857142856,408.6808016640799,422.1,416.57142857142856,408.6808016640799,527.4,416.57142857142856,408.6808016640799,627.8,416.57142857142856,408.6808016640799,728.1,416.57142857142856,408.6808016640799,828.3,416.57142857142856,408.6808016640799,932.8,416.57142857142856,408.6808016640799,1033.3,416.57142857142856,408.6808016640799,1141.7,416.57142857142856,408.6808016640799,1249.7,416.57142857142856,408.6808016640799,1356.5,416.57142857142856,408.6808016640799,1462.8,416.57142857142856,408.6808016640799,1623.3,416.57142857142856,408.6808016640799,1728.7,416.57142857142856,408.6808016640799,1833.3,416.57142857142856,408.6808016640799,1934.4,416.57142857142856,408.6808016640799,2040,416.57142857142856,408.6808016640799,2148,416.57142857142856,408.6808016640799,2248.8,416.57142857142856,408.6808016640799,2351,416.57142857142856,408.6808016640799,2457.8,416.57142857142856,408.6808016640799,2564.3,416.57142857142856,408.6808016640799,2672,416.57142857142856,408.6808016640799,2772.1,416.57142857142856,408.6808016640799,2874.3,416.57142857142856,408.6808016640799,2981,416.57142857142856,408.6808016640799,3086.7,416.57142857142856,408.6808016640799,3194.2,416.57142857142856,408.6808016640799,3299.6,416.57142857142856,408.6808016640799,3406.7,416.57142857142856,408.6808016640799,3511.4,416.57142857142856,408.6808016640799,3618.5,416.57142857142856,408.6808016640799,3724.5,416.57142857142856,408.6808016640799,3824.6,416.57142857142856,408.6808016640799,3929.8]","[61.8,61.8,1000,0,-938.2,""error"",""-"",""-"",""no_move"",3982.7,3920.5,2571.4,1071.3,340.1,""smooth"",""down"",""down"",""good_move"",4593.9,607.9,2605.3,3986,-1997.4,""error"",""-"",""-"",""no_move"",9027.9,4433.4,3061.2,5599,367.7,""oops"",""down"",""up"",""bad_move"",11940.5,2911.3,2384.5,9029.2,526.8,""oops"",""down"",""up"",""bad_move"",14146.6,2204.6,1914.6,11942.2,289.8,""smooth"",""up"",""up"",""bad_move"",16486.9,2339.8,1997.1,14147.1,342.7,""oops"",""down"",""right"",""bad_move"",18915.4,2426.8,3331.2,16488.7,-904.5,""error"",""-"",""-"",""no_move"",31054.7,12138.6,3119.6,27608.2,326.9,""oops"",""down"",""right"",""bad_move"",33807,2750.6,2068.8,31056.5,681.7,""smooth"",""up"",""left"",""good_move"",37035.4,3227.6,2891.8,33807.9,335.8,""smooth"",""up"",""right"",""bad_move"",40390.5,3354.4,2879.5,37036.3,474.8,""oops"",""right"",""down"",""good_move"",42870.8,2479.8,2082.6,40391,397.2,""oops"",""right"",""up"",""bad_move"",47260,4388.8,2249,47211.6,-2200.5,""error"",""-"",""-"",""no_move"",51457.7,4195.6,2641.7,48265.1,550.9,""while_blue"",""right"",""down"",""good_move"",54969,3509.9,2979.8,51459.1,530.1,""smooth"",""right"",""down"",""good_move"",58023.9,3054,2699.2,54969.9,354.8,""oops"",""left"",""up"",""bad_move"",61256.6,3232.3,2840.7,61068.7,-2652.8,""error"",""-"",""-"",""no_move"",64549.7,3292.7,1956.5,62258.9,334.3,""smooth"",""down"",""down"",""good_move""]","",""
"29181","","","","instructions","24","411572","0.0-8.0-4.0","151","1","2025-07-09 09:09:41","7701e855f2ef39aa3fd6c71abdc6918a","95.146.241.52","Mozilla/5.0 (Windows NT 10.0; Win64; x64) AppleWebKit/537.36 (KHTML, like Gecko) Chrome/137.0.0.0 Safari/537.36","WebKit","Chrome","137.0.0.0","Windows","10.0","https://app.prolific.com/","en-US,en;q=0.9","60056657125e50465c15533e","686d226cabeef709c732f8e1","686e3103a290d611970d7ad7","60056657125e50465c15533e","","[{""page_index"":0,""viewing_time"":2731},{""page_index"":1,""viewing_time"":1253},{""page_index"":0,""viewing_time"":4339},{""page_index"":1,""viewing_time"":20853}]","","","","","","","","","","","","","","","","","","","","","","","","","","","","","","","","","","","","","","","","","","",""
"22381","","","{""green_ball"":[""Ball sometimes shakes and moves in a random direction""]}","survey-multi-select","25","434028","0.0-8.0-5.0-0.0","151","1","2025-07-09 09:09:41","7701e855f2ef39aa3fd6c71abdc6918a","95.146.241.52","Mozilla/5.0 (Windows NT 10.0; Win64; x64) AppleWebKit/537.36 (KHTML, like Gecko) Chrome/137.0.0.0 Safari/537.36","WebKit","Chrome","137.0.0.0","Windows","10.0","https://app.prolific.com/","en-US,en;q=0.9","60056657125e50465c15533e","686d226cabeef709c732f8e1","686e3103a290d611970d7ad7","60056657125e50465c15533e","","","[0]","","","","quiz","","","","","","","","","","","","","","","","","","","","","","","","","","","","","","","","","","","","","true",""
"1843","","<p align='center'><b>CORRECT!</b> Indeed, the green ball may sometimes shake and move in a random direction.</p>","0","html-button-response","26","435880","0.0-8.0-5.0-1.0","151","1","2025-07-09 09:09:41","7701e855f2ef39aa3fd6c71abdc6918a","95.146.241.52","Mozilla/5.0 (Windows NT 10.0; Win64; x64) AppleWebKit/537.36 (KHTML, like Gecko) Chrome/137.0.0.0 Safari/537.36","WebKit","Chrome","137.0.0.0","Windows","10.0","https://app.prolific.com/","en-US,en;q=0.9","60056657125e50465c15533e","686d226cabeef709c732f8e1","686e3103a290d611970d7ad7","60056657125e50465c15533e","","","","","","","","","","","","","","","","","","","","","","","","","","","","","","","","","","","","","","","","","","","","",""
"15675","","","{""yellow_ball"":[""Ball doesn‘t move and I get -1 penalty point""]}","survey-multi-select","27","451563","0.0-8.0-6.0-0.0","151","1","2025-07-09 09:09:41","7701e855f2ef39aa3fd6c71abdc6918a","95.146.241.52","Mozilla/5.0 (Windows NT 10.0; Win64; x64) AppleWebKit/537.36 (KHTML, like Gecko) Chrome/137.0.0.0 Safari/537.36","WebKit","Chrome","137.0.0.0","Windows","10.0","https://app.prolific.com/","en-US,en;q=0.9","60056657125e50465c15533e","686d226cabeef709c732f8e1","686e3103a290d611970d7ad7","60056657125e50465c15533e","","","[0]","","","","quiz","","","","","","","","","","","","","","","","","","","","","","","","","","","","","","","","","","","","","true",""
"1419","","<p align='center'><b>CORRECT!</b> Indeed, the yellow ball never moves and you receive a penalty.</p>","0","html-button-response","28","452986","0.0-8.0-6.0-1.0","151","1","2025-07-09 09:09:41","7701e855f2ef39aa3fd6c71abdc6918a","95.146.241.52","Mozilla/5.0 (Windows NT 10.0; Win64; x64) AppleWebKit/537.36 (KHTML, like Gecko) Chrome/137.0.0.0 Safari/537.36","WebKit","Chrome","137.0.0.0","Windows","10.0","https://app.prolific.com/","en-US,en;q=0.9","60056657125e50465c15533e","686d226cabeef709c732f8e1","686e3103a290d611970d7ad7","60056657125e50465c15533e","","","","","","","","","","","","","","","","","","","","","","","","","","","","","","","","","","","","","","","","","","","","",""
"19349","","","{""blue_ball"":[""Ball doesn‘t move and I get -1 penalty point""]}","survey-multi-select","29","472337","0.0-8.0-7.0-0.0","151","1","2025-07-09 09:09:41","7701e855f2ef39aa3fd6c71abdc6918a","95.146.241.52","Mozilla/5.0 (Windows NT 10.0; Win64; x64) AppleWebKit/537.36 (KHTML, like Gecko) Chrome/137.0.0.0 Safari/537.36","WebKit","Chrome","137.0.0.0","Windows","10.0","https://app.prolific.com/","en-US,en;q=0.9","60056657125e50465c15533e","686d226cabeef709c732f8e1","686e3103a290d611970d7ad7","60056657125e50465c15533e","","","[0]","","","","quiz","","","","","","","","","","","","","","","","","","","","","","","","","","","","","","","","","","","","","false",""
"1715","","<p align='center'><b>INCORRECT.</b> The blue ball always shakes and moves randomly.</p>","0","html-button-response","30","474057","0.0-8.0-7.0-1.0","151","1","2025-07-09 09:09:41","7701e855f2ef39aa3fd6c71abdc6918a","95.146.241.52","Mozilla/5.0 (Windows NT 10.0; Win64; x64) AppleWebKit/537.36 (KHTML, like Gecko) Chrome/137.0.0.0 Safari/537.36","WebKit","Chrome","137.0.0.0","Windows","10.0","https://app.prolific.com/","en-US,en;q=0.9","60056657125e50465c15533e","686d226cabeef709c732f8e1","686e3103a290d611970d7ad7","60056657125e50465c15533e","","","","","","","","","","","","","","","","","","","","","","","","","","","","","","","","","","","","","","","","","","","","",""
"9203","","","{""blue_ball"":[""Ball always shakes and moves in a random direction""]}","survey-multi-select","31","483268","0.0-8.0-7.1-0.1","151","1","2025-07-09 09:09:41","7701e855f2ef39aa3fd6c71abdc6918a","95.146.241.52","Mozilla/5.0 (Windows NT 10.0; Win64; x64) AppleWebKit/537.36 (KHTML, like Gecko) Chrome/137.0.0.0 Safari/537.36","WebKit","Chrome","137.0.0.0","Windows","10.0","https://app.prolific.com/","en-US,en;q=0.9","60056657125e50465c15533e","686d226cabeef709c732f8e1","686e3103a290d611970d7ad7","60056657125e50465c15533e","","","[0]","","","","quiz","","","","","","","","","","","","","","","","","","","","","","","","","","","","","","","","","","","","","true",""
"1406","","<p align='center'><b>CORRECT!</b> Indeed, the blue ball always shakes and moves in a random direction. Also there is a penalty of -1 point.</p>","0","html-button-response","32","484676","0.0-8.0-7.1-1.1","151","1","2025-07-09 09:09:41","7701e855f2ef39aa3fd6c71abdc6918a","95.146.241.52","Mozilla/5.0 (Windows NT 10.0; Win64; x64) AppleWebKit/537.36 (KHTML, like Gecko) Chrome/137.0.0.0 Safari/537.36","WebKit","Chrome","137.0.0.0","Windows","10.0","https://app.prolific.com/","en-US,en;q=0.9","60056657125e50465c15533e","686d226cabeef709c732f8e1","686e3103a290d611970d7ad7","60056657125e50465c15533e","","","","","","","","","","","","","","","","","","","","","","","","","","","","","","","","","","","","","","","","","","","","",""
"4128","","","{""bonus"":[""When I reach 50% of points""]}","survey-multi-select","33","488807","0.0-8.0-8.0-0.0","151","1","2025-07-09 09:09:41","7701e855f2ef39aa3fd6c71abdc6918a","95.146.241.52","Mozilla/5.0 (Windows NT 10.0; Win64; x64) AppleWebKit/537.36 (KHTML, like Gecko) Chrome/137.0.0.0 Safari/537.36","WebKit","Chrome","137.0.0.0","Windows","10.0","https://app.prolific.com/","en-US,en;q=0.9","60056657125e50465c15533e","686d226cabeef709c732f8e1","686e3103a290d611970d7ad7","60056657125e50465c15533e","","","[0]","","","","quiz","","","","","","","","","","","","","","","","","","","","","","","","","","","","","","","","","","","","","true",""
"1370","","<p align='center'><b>CORRECT!</b> Indeed, you receive 2 pounds extra when you reach 50% of points.</p>","0","html-button-response","34","490179","0.0-8.0-8.0-1.0","151","1","2025-07-09 09:09:41","7701e855f2ef39aa3fd6c71abdc6918a","95.146.241.52","Mozilla/5.0 (Windows NT 10.0; Win64; x64) AppleWebKit/537.36 (KHTML, like Gecko) Chrome/137.0.0.0 Safari/537.36","WebKit","Chrome","137.0.0.0","Windows","10.0","https://app.prolific.com/","en-US,en;q=0.9","60056657125e50465c15533e","686d226cabeef709c732f8e1","686e3103a290d611970d7ad7","60056657125e50465c15533e","","","","","","","","","","","","","","","","","","","","","","","","","","","","","","","","","","","","","","","","","","","","",""
"2790","","","","instructions","35","492970","0.0-8.0-9.0","151","1","2025-07-09 09:09:41","7701e855f2ef39aa3fd6c71abdc6918a","95.146.241.52","Mozilla/5.0 (Windows NT 10.0; Win64; x64) AppleWebKit/537.36 (KHTML, like Gecko) Chrome/137.0.0.0 Safari/537.36","WebKit","Chrome","137.0.0.0","Windows","10.0","https://app.prolific.com/","en-US,en;q=0.9","60056657125e50465c15533e","686d226cabeef709c732f8e1","686e3103a290d611970d7ad7","60056657125e50465c15533e","","[{""page_index"":0,""viewing_time"":2789}]","","","","","","","","","","","","","","","","","","","","","","","","","","","","","","","","","","","","","","","","","","",""
"5600","","<p>Before you start with this game please answer the following three questions yourself. </p>
  <p>Through this game, we measure several aspects of your cognitive performance, such as reaction times, multi-tasking capabilities </p>
  <p>and the ability to assess the situation you are in.</p>
  <p></p>
  <p><b>How good do you usually are in such tasks?</b></p>","28","html-slider-response","36","498588","0.0-9.0-0.0","151","1","2025-07-09 09:09:41","7701e855f2ef39aa3fd6c71abdc6918a","95.146.241.52","Mozilla/5.0 (Windows NT 10.0; Win64; x64) AppleWebKit/537.36 (KHTML, like Gecko) Chrome/137.0.0.0 Safari/537.36","WebKit","Chrome","137.0.0.0","Windows","10.0","https://app.prolific.com/","en-US,en;q=0.9","60056657125e50465c15533e","686d226cabeef709c732f8e1","686e3103a290d611970d7ad7","60056657125e50465c15533e","2025-07-09T09:18:01.668Z","","","","","","PreSkillQ","","","","","","","","","","","","","","","","","","","","","","","","","","","","","","","","","","","","","","50"
"3150","","<div style=""width:500px;"">
  <p>How well do you think you will perform in this task compared to other participants?</p>
  </div>","39","html-slider-response","37","501753","0.0-9.0-1.0","151","1","2025-07-09 09:09:41","7701e855f2ef39aa3fd6c71abdc6918a","95.146.241.52","Mozilla/5.0 (Windows NT 10.0; Win64; x64) AppleWebKit/537.36 (KHTML, like Gecko) Chrome/137.0.0.0 Safari/537.36","WebKit","Chrome","137.0.0.0","Windows","10.0","https://app.prolific.com/","en-US,en;q=0.9","60056657125e50465c15533e","686d226cabeef709c732f8e1","686e3103a290d611970d7ad7","60056657125e50465c15533e","2025-07-09T09:18:04.831Z","","","","","","PrePerfQ","","","","","","","","","","","","","","","","","","","","","","","","","","","","","","","","","","","","","","50"
"2999","","<div style=""width:500px;"">
  <p>What best describes how you currently feel?</p>
  </div>","63","html-slider-response","38","504754","0.0-9.0-2.0","151","1","2025-07-09 09:09:41","7701e855f2ef39aa3fd6c71abdc6918a","95.146.241.52","Mozilla/5.0 (Windows NT 10.0; Win64; x64) AppleWebKit/537.36 (KHTML, like Gecko) Chrome/137.0.0.0 Safari/537.36","WebKit","Chrome","137.0.0.0","Windows","10.0","https://app.prolific.com/","en-US,en;q=0.9","60056657125e50465c15533e","686d226cabeef709c732f8e1","686e3103a290d611970d7ad7","60056657125e50465c15533e","2025-07-09T09:18:07.832Z","","","","","","PreMotivationQ","","","","","","","","","","","","","","","","","","","","","","","","","","","","","","","","","","","","","","50"
"","","","","ctl-task-cpt","39","533709","0.0-10.0-0.0","151","1","2025-07-09 09:09:41","7701e855f2ef39aa3fd6c71abdc6918a","95.146.241.52","Mozilla/5.0 (Windows NT 10.0; Win64; x64) AppleWebKit/537.36 (KHTML, like Gecko) Chrome/137.0.0.0 Safari/537.36","WebKit","Chrome","137.0.0.0","Windows","10.0","https://app.prolific.com/","en-US,en;q=0.9","60056657125e50465c15533e","686d226cabeef709c732f8e1","686e3103a290d611970d7ad7","60056657125e50465c15533e","2025-07-09T09:18:36.787Z","","","","","","","","","","","","","","","","win-only","3","g1:SW,g2:NE","1","1","0","506605","1644.1","6658.3","25902.2","1","4","8","6","2","8","8","8","0","0.06060606060606061","5014.2","3000","1525","[""up"",""right""]","{""num_key_presses"":6,""num_perfect"":6,""num_errors"":0,""num_randdir"":0,""num_randdir_good_moves"":0,""num_whilered"":0,""num_whileblue"":0,""num_blue"":1,""num_good_moves"":6}","[413.57142857142856,419.1808016640799,3.6,413.57142857142856,419.1808016640799,102.6,413.57142857142856,419.1808016640799,205.3,413.57142857142856,419.1808016640799,308.7,413.57142857142856,419.1808016640799,416,572.5714285714286,411.6808016640799,517.2,581.5714285714286,411.6808016640799,618.7,581.5714285714286,411.6808016640799,719.2,581.5714285714286,411.6808016640799,824.7,581.5714285714286,411.6808016640799,932.2,581.5714285714286,411.6808016640799,1035.7,581.5714285714286,411.6808016640799,1136.1,581.5714285714286,411.6808016640799,1244.5,581.5714285714286,411.6808016640799,1351.3,581.5714285714286,411.6808016640799,1453.5,581.5714285714286,411.6808016640799,1556.2,581.5714285714286,411.6808016640799,1657.6,581.5714285714286,411.6808016640799,1767.7,581.5714285714286,411.6808016640799,1874.8,581.5714285714286,411.6808016640799,1975.5,581.5714285714286,411.6808016640799,2078.1,581.5714285714286,411.6808016640799,2186.5,581.5714285714286,411.6808016640799,2291.4,581.5714285714286,411.6808016640799,2391.8,581.5714285714286,411.6808016640799,2496.6,581.5714285714286,411.6808016640799,2597.6,581.5714285714286,411.6808016640799,2701.5,581.5714285714286,411.6808016640799,2807.5,581.5714285714286,411.6808016640799,2912.6,581.5714285714286,411.6808016640799,3014,581.5714285714286,411.6808016640799,3118.8,581.5714285714286,411.6808016640799,3230.4,581.5714285714286,411.6808016640799,3335.4,581.5714285714286,411.6808016640799,3445.8,581.5714285714286,411.6808016640799,3549.3,581.5714285714286,411.6808016640799,3653.3,581.5714285714286,411.6808016640799,3757.3,581.5714285714286,411.6808016640799,3857.8,581.5714285714286,411.6808016640799,3964.2,581.5714285714286,411.6808016640799,4067.1,581.5714285714286,411.6808016640799,4172.4,581.5714285714286,411.6808016640799,4273.3,581.5714285714286,411.6808016640799,4376.8,581.5714285714286,411.6808016640799,4481.7,581.5714285714286,411.6808016640799,4586.7,581.5714285714286,411.6808016640799,4695.8,581.5714285714286,411.6808016640799,4796,581.5714285714286,411.6808016640799,4896.5,581.5714285714286,411.6808016640799,4997.5]","[1470.1,1470.1,1000,0,470.1,""smooth"",""right"",""right"",""good_move"",7819.6,6349.1,3239,4278.3,302.4,""smooth"",""right"",""right"",""good_move"",10198.6,2377.7,1875.3,7820.9,502.4,""smooth"",""right"",""right"",""good_move"",13200.6,3000.8,2672.3,10199.8,328.5,""smooth"",""up"",""up"",""good_move"",15992.3,2790.5,2516.5,13201.9,274,""smooth"",""up"",""up"",""good_move"",19117.5,3122.7,2800.5,15994.8,322.2,""smooth"",""up"",""up"",""good_move""]","",""
"3867","","<div style=""width:500px;"">
  <p>What determined the result of this run?</p>
  </div>","95","html-slider-response","40","537580","0.0-10.0-1.0","151","1","2025-07-09 09:09:41","7701e855f2ef39aa3fd6c71abdc6918a","95.146.241.52","Mozilla/5.0 (Windows NT 10.0; Win64; x64) AppleWebKit/537.36 (KHTML, like Gecko) Chrome/137.0.0.0 Safari/537.36","WebKit","Chrome","137.0.0.0","Windows","10.0","https://app.prolific.com/","en-US,en;q=0.9","60056657125e50465c15533e","686d226cabeef709c732f8e1","686e3103a290d611970d7ad7","60056657125e50465c15533e","2025-07-09T09:18:40.658Z","","","","","","AttribQ","","","","","","","","","","","","","","","","","","","","","","","","","","","","","","","","","","","","","","50"
"3056","","<div style=""width:500px;"">
  <p>How much control did you have over the ball?</p>
  </div>","100","html-slider-response","41","540638","0.0-10.0-2.0","151","1","2025-07-09 09:09:41","7701e855f2ef39aa3fd6c71abdc6918a","95.146.241.52","Mozilla/5.0 (Windows NT 10.0; Win64; x64) AppleWebKit/537.36 (KHTML, like Gecko) Chrome/137.0.0.0 Safari/537.36","WebKit","Chrome","137.0.0.0","Windows","10.0","https://app.prolific.com/","en-US,en;q=0.9","60056657125e50465c15533e","686d226cabeef709c732f8e1","686e3103a290d611970d7ad7","60056657125e50465c15533e","2025-07-09T09:18:43.716Z","","","","","","ControlQ","","","","","","","","","","","","","","","","","","","","","","","","","","","","","","","","","","","","","","50"
"4727","","<div style=""width:500px;"">
  <p>How would you describe your current emotional state?</p>
  </div>","27","html-slider-response","42","545367","0.0-10.0-3.0","151","1","2025-07-09 09:09:41","7701e855f2ef39aa3fd6c71abdc6918a","95.146.241.52","Mozilla/5.0 (Windows NT 10.0; Win64; x64) AppleWebKit/537.36 (KHTML, like Gecko) Chrome/137.0.0.0 Safari/537.36","WebKit","Chrome","137.0.0.0","Windows","10.0","https://app.prolific.com/","en-US,en;q=0.9","60056657125e50465c15533e","686d226cabeef709c732f8e1","686e3103a290d611970d7ad7","60056657125e50465c15533e","2025-07-09T09:18:48.445Z","","","","","","StressQ","","","","","","","","","","","","","","","","","","","","","","","","","","","","","","","","","","","","","","50"
"3102","","<div style=""width:500px;"">
  <p>What best describes how you currently feel?</p>
  </div>","64","html-slider-response","43","548473","0.0-10.0-4.0","151","1","2025-07-09 09:09:41","7701e855f2ef39aa3fd6c71abdc6918a","95.146.241.52","Mozilla/5.0 (Windows NT 10.0; Win64; x64) AppleWebKit/537.36 (KHTML, like Gecko) Chrome/137.0.0.0 Safari/537.36","WebKit","Chrome","137.0.0.0","Windows","10.0","https://app.prolific.com/","en-US,en;q=0.9","60056657125e50465c15533e","686d226cabeef709c732f8e1","686e3103a290d611970d7ad7","60056657125e50465c15533e","2025-07-09T09:18:51.551Z","","","","","","MotivationQ","","","","","","","","","","","","","","","","","","","","","","","","","","","","","","","","","","","","","","50"
"","","","","ctl-task-cpt","44","572538","0.0-10.0-0.1","151","1","2025-07-09 09:09:41","7701e855f2ef39aa3fd6c71abdc6918a","95.146.241.52","Mozilla/5.0 (Windows NT 10.0; Win64; x64) AppleWebKit/537.36 (KHTML, like Gecko) Chrome/137.0.0.0 Safari/537.36","WebKit","Chrome","137.0.0.0","Windows","10.0","https://app.prolific.com/","en-US,en;q=0.9","60056657125e50465c15533e","686d226cabeef709c732f8e1","686e3103a290d611970d7ad7","60056657125e50465c15533e","2025-07-09T09:19:15.617Z","","","","","","","","","","","","","","","","win-only","2","g1:SE,g2:NW","0.9","2","0","550283.5","1298.4","6310.6","21040.3","1","4","4","6","2","4","4","12","8","0.09090909090909091","5012.2","3000","1735","[""left"",""up""]","{""num_key_presses"":6,""num_perfect"":6,""num_errors"":0,""num_randdir"":0,""num_randdir_good_moves"":0,""num_whilered"":0,""num_whileblue"":0,""num_blue"":0,""num_good_moves"":6}","[419.57142857142856,420.6808016640799,0.4,419.57142857142856,420.6808016640799,104,419.57142857142856,420.6808016640799,204.2,419.57142857142856,420.6808016640799,314.7,464.57142857142856,677.1808016640799,423.1,466.07142857142856,680.1808016640799,530.8,466.07142857142856,680.1808016640799,638.9,466.07142857142856,680.1808016640799,739.6,466.07142857142856,680.1808016640799,840.4,466.07142857142856,680.1808016640799,948.2,466.07142857142856,680.1808016640799,1054.8,466.07142857142856,680.1808016640799,1155.7,466.07142857142856,680.1808016640799,1256.4,466.07142857142856,680.1808016640799,1358,466.07142857142856,680.1808016640799,1467.8,466.07142857142856,680.1808016640799,1574.1,466.07142857142856,680.1808016640799,1674.4,466.07142857142856,680.1808016640799,1776.1,466.07142857142856,680.1808016640799,1881.8,466.07142857142856,680.1808016640799,1983.8,466.07142857142856,680.1808016640799,2083.9,466.07142857142856,680.1808016640799,2189.1,466.07142857142856,680.1808016640799,2298.4,466.07142857142856,680.1808016640799,2400.7,466.07142857142856,680.1808016640799,2513.6,466.07142857142856,680.1808016640799,2614.8,466.07142857142856,680.1808016640799,2714.8,466.07142857142856,680.1808016640799,2830.5,466.07142857142856,680.1808016640799,2933.1,466.07142857142856,680.1808016640799,3037.8,466.07142857142856,680.1808016640799,3149.6,466.07142857142856,680.1808016640799,3262.7,466.07142857142856,680.1808016640799,3364.1,466.07142857142856,680.1808016640799,3467,466.07142857142856,680.1808016640799,3568.6,466.07142857142856,680.1808016640799,3672,466.07142857142856,680.1808016640799,3772.8,466.07142857142856,680.1808016640799,3884.9,466.07142857142856,680.1808016640799,3986.1,466.07142857142856,680.1808016640799,4087.6,466.07142857142856,680.1808016640799,4187.9,466.07142857142856,680.1808016640799,4288,466.07142857142856,680.1808016640799,4388.2,466.07142857142856,680.1808016640799,4495.7,466.07142857142856,680.1808016640799,4598.6,466.07142857142856,680.1808016640799,4703.8,466.07142857142856,680.1808016640799,4809,466.07142857142856,680.1808016640799,4914]","[1414.5,1414.5,1000,0,414.5,""smooth"",""left"",""left"",""good_move"",3714.1,2299.2,1959.8,1415,339.3,""smooth"",""left"",""left"",""good_move"",6464.2,2748.9,2471.9,3715.3,277,""smooth"",""left"",""left"",""good_move"",8895.3,2430.4,2113.5,6464.9,316.9,""smooth"",""up"",""up"",""good_move"",11288.2,2392.5,2117.5,8895.7,275,""smooth"",""up"",""up"",""good_move"",14618.6,3330.1,3067.3,11288.5,262.8,""smooth"",""up"",""up"",""good_move""]","",""
"5422","","<div style=""width:500px;"">
  <p>What determined the result of this run?</p>
  </div>","78","html-slider-response","45","577962","0.0-10.0-1.1","151","1","2025-07-09 09:09:41","7701e855f2ef39aa3fd6c71abdc6918a","95.146.241.52","Mozilla/5.0 (Windows NT 10.0; Win64; x64) AppleWebKit/537.36 (KHTML, like Gecko) Chrome/137.0.0.0 Safari/537.36","WebKit","Chrome","137.0.0.0","Windows","10.0","https://app.prolific.com/","en-US,en;q=0.9","60056657125e50465c15533e","686d226cabeef709c732f8e1","686e3103a290d611970d7ad7","60056657125e50465c15533e","2025-07-09T09:19:21.040Z","","","","","","AttribQ","","","","","","","","","","","","","","","","","","","","","","","","","","","","","","","","","","","","","","50"
"4475","","<div style=""width:500px;"">
  <p>How much control did you have over the ball?</p>
  </div>","74","html-slider-response","46","582445","0.0-10.0-2.1","151","1","2025-07-09 09:09:41","7701e855f2ef39aa3fd6c71abdc6918a","95.146.241.52","Mozilla/5.0 (Windows NT 10.0; Win64; x64) AppleWebKit/537.36 (KHTML, like Gecko) Chrome/137.0.0.0 Safari/537.36","WebKit","Chrome","137.0.0.0","Windows","10.0","https://app.prolific.com/","en-US,en;q=0.9","60056657125e50465c15533e","686d226cabeef709c732f8e1","686e3103a290d611970d7ad7","60056657125e50465c15533e","2025-07-09T09:19:25.524Z","","","","","","ControlQ","","","","","","","","","","","","","","","","","","","","","","","","","","","","","","","","","","","","","","50"
"4421","","<div style=""width:500px;"">
  <p>How would you describe your current emotional state?</p>
  </div>","39","html-slider-response","47","586883","0.0-10.0-3.1","151","1","2025-07-09 09:09:41","7701e855f2ef39aa3fd6c71abdc6918a","95.146.241.52","Mozilla/5.0 (Windows NT 10.0; Win64; x64) AppleWebKit/537.36 (KHTML, like Gecko) Chrome/137.0.0.0 Safari/537.36","WebKit","Chrome","137.0.0.0","Windows","10.0","https://app.prolific.com/","en-US,en;q=0.9","60056657125e50465c15533e","686d226cabeef709c732f8e1","686e3103a290d611970d7ad7","60056657125e50465c15533e","2025-07-09T09:19:29.961Z","","","","","","StressQ","","","","","","","","","","","","","","","","","","","","","","","","","","","","","","","","","","","","","","50"
"3612","","<div style=""width:500px;"">
  <p>What best describes how you currently feel?</p>
  </div>","71","html-slider-response","48","590497","0.0-10.0-4.1","151","1","2025-07-09 09:09:41","7701e855f2ef39aa3fd6c71abdc6918a","95.146.241.52","Mozilla/5.0 (Windows NT 10.0; Win64; x64) AppleWebKit/537.36 (KHTML, like Gecko) Chrome/137.0.0.0 Safari/537.36","WebKit","Chrome","137.0.0.0","Windows","10.0","https://app.prolific.com/","en-US,en;q=0.9","60056657125e50465c15533e","686d226cabeef709c732f8e1","686e3103a290d611970d7ad7","60056657125e50465c15533e","2025-07-09T09:19:33.576Z","","","","","","MotivationQ","","","","","","","","","","","","","","","","","","","","","","","","","","","","","","","","","","","","","","50"
"","","","","ctl-task-cpt","49","637710","0.0-10.0-0.2","151","1","2025-07-09 09:09:41","7701e855f2ef39aa3fd6c71abdc6918a","95.146.241.52","Mozilla/5.0 (Windows NT 10.0; Win64; x64) AppleWebKit/537.36 (KHTML, like Gecko) Chrome/137.0.0.0 Safari/537.36","WebKit","Chrome","137.0.0.0","Windows","10.0","https://app.prolific.com/","en-US,en;q=0.9","60056657125e50465c15533e","686d226cabeef709c732f8e1","686e3103a290d611970d7ad7","60056657125e50465c15533e","2025-07-09T09:20:20.788Z","","","","","","","","","","","","","","","","win-only","1","g1:NE,g2:SW","0.8","3","0","592303.2","1243.3","6244.1","44193.2","1","4","8","6","2","-8","-9","3","12","0.022727272727272728","5000.8","3000","-2020","[""down"",""left""]","{""num_key_presses"":12,""num_perfect"":8,""num_errors"":1,""num_randdir"":3,""num_randdir_good_moves"":2,""num_whilered"":0,""num_whileblue"":1,""num_blue"":1,""num_good_moves"":5}","[416.57142857142856,413.1808016640799,0.2,416.57142857142856,413.1808016640799,114.1,416.57142857142856,413.1808016640799,214.2,416.57142857142856,413.1808016640799,315.5,499.07142857142856,548.1808016640799,416,518.5714285714286,572.1808016640799,518.4,518.5714285714286,572.1808016640799,622.2,518.5714285714286,572.1808016640799,730.8,518.5714285714286,572.1808016640799,834,518.5714285714286,572.1808016640799,934.2,518.5714285714286,572.1808016640799,1041.1,518.5714285714286,572.1808016640799,1141.6,518.5714285714286,572.1808016640799,1249.2,518.5714285714286,572.1808016640799,1349.4,518.5714285714286,572.1808016640799,1454.8,518.5714285714286,572.1808016640799,1564.7,518.5714285714286,572.1808016640799,1672.8,518.5714285714286,572.1808016640799,1783.5,518.5714285714286,572.1808016640799,1888.4,518.5714285714286,572.1808016640799,1989,518.5714285714286,572.1808016640799,2099.1,518.5714285714286,572.1808016640799,2202.3,518.5714285714286,572.1808016640799,2303.2,518.5714285714286,572.1808016640799,2407,518.5714285714286,572.1808016640799,2518.5,518.5714285714286,572.1808016640799,2632.9,518.5714285714286,572.1808016640799,2733.3,518.5714285714286,572.1808016640799,2841.4,518.5714285714286,572.1808016640799,2942,518.5714285714286,572.1808016640799,3043.5,518.5714285714286,572.1808016640799,3144.6,518.5714285714286,572.1808016640799,3247.1,518.5714285714286,572.1808016640799,3351.1,518.5714285714286,572.1808016640799,3452.4,518.5714285714286,572.1808016640799,3567.7,518.5714285714286,572.1808016640799,3681.7,518.5714285714286,572.1808016640799,3787.7,518.5714285714286,572.1808016640799,3889,518.5714285714286,572.1808016640799,3996.6,518.5714285714286,572.1808016640799,4099.3,518.5714285714286,572.1808016640799,4202.3,518.5714285714286,572.1808016640799,4305.6,518.5714285714286,572.1808016640799,4405.6,518.5714285714286,572.1808016640799,4507.3,518.5714285714286,572.1808016640799,4608.8,518.5714285714286,572.1808016640799,4712.2,518.5714285714286,572.1808016640799,4815.7,518.5714285714286,572.1808016640799,4921.3]","[1348.2,1348.2,1000,0,348.2,""smooth"",""down"",""down"",""good_move"",4442.7,3093.3,2804.7,1349.5,288.5,""oops"",""down"",""right"",""bad_move"",8200.7,3757.3,3426.9,4443.4,330.4,""smooth"",""right"",""right"",""bad_move"",10573,2371.5,1880.6,8201.5,490.9,""smooth"",""up"",""up"",""bad_move"",13900.2,3326.6,2925.6,10573.6,401,""while_blue"",""down"",""up"",""bad_move"",16203.7,2301.5,1777.8,13902.2,523.7,""smooth"",""up"",""up"",""bad_move"",19843.6,3639.6,3269.5,16204,370.1,""smooth"",""up"",""left"",""good_move"",22143.6,2299.2,1790.2,19844.4,509,""smooth"",""up"",""right"",""bad_move"",24974.6,2830.6,2466,22144,364.6,""oops"",""up"",""left"",""good_move"",28231.3,3256.4,2770.4,24975,486,""smooth"",""right"",""right"",""bad_move"",30890.9,2659.1,2288.4,28231.9,370.6,""smooth"",""left"",""left"",""good_move"",34518.4,3627,3306.6,30891.4,320.5,""oops"",""left"",""left"",""good_move""]","",""
"5428","","<div style=""width:500px;"">
  <p>What determined the result of this run?</p>
  </div>","0","html-slider-response","50","643141","0.0-10.0-1.2","151","1","2025-07-09 09:09:41","7701e855f2ef39aa3fd6c71abdc6918a","95.146.241.52","Mozilla/5.0 (Windows NT 10.0; Win64; x64) AppleWebKit/537.36 (KHTML, like Gecko) Chrome/137.0.0.0 Safari/537.36","WebKit","Chrome","137.0.0.0","Windows","10.0","https://app.prolific.com/","en-US,en;q=0.9","60056657125e50465c15533e","686d226cabeef709c732f8e1","686e3103a290d611970d7ad7","60056657125e50465c15533e","2025-07-09T09:20:26.220Z","","","","","","AttribQ","","","","","","","","","","","","","","","","","","","","","","","","","","","","","","","","","","","","","","50"
"4301","","<div style=""width:500px;"">
  <p>How much control did you have over the ball?</p>
  </div>","0","html-slider-response","51","647447","0.0-10.0-2.2","151","1","2025-07-09 09:09:41","7701e855f2ef39aa3fd6c71abdc6918a","95.146.241.52","Mozilla/5.0 (Windows NT 10.0; Win64; x64) AppleWebKit/537.36 (KHTML, like Gecko) Chrome/137.0.0.0 Safari/537.36","WebKit","Chrome","137.0.0.0","Windows","10.0","https://app.prolific.com/","en-US,en;q=0.9","60056657125e50465c15533e","686d226cabeef709c732f8e1","686e3103a290d611970d7ad7","60056657125e50465c15533e","2025-07-09T09:20:30.525Z","","","","","","ControlQ","","","","","","","","","","","","","","","","","","","","","","","","","","","","","","","","","","","","","","50"
"2917","","<div style=""width:500px;"">
  <p>How would you describe your current emotional state?</p>
  </div>","97","html-slider-response","52","650367","0.0-10.0-3.2","151","1","2025-07-09 09:09:41","7701e855f2ef39aa3fd6c71abdc6918a","95.146.241.52","Mozilla/5.0 (Windows NT 10.0; Win64; x64) AppleWebKit/537.36 (KHTML, like Gecko) Chrome/137.0.0.0 Safari/537.36","WebKit","Chrome","137.0.0.0","Windows","10.0","https://app.prolific.com/","en-US,en;q=0.9","60056657125e50465c15533e","686d226cabeef709c732f8e1","686e3103a290d611970d7ad7","60056657125e50465c15533e","2025-07-09T09:20:33.445Z","","","","","","StressQ","","","","","","","","","","","","","","","","","","","","","","","","","","","","","","","","","","","","","","50"
"4376","","<div style=""width:500px;"">
  <p>What best describes how you currently feel?</p>
  </div>","74","html-slider-response","53","654747","0.0-10.0-4.2","151","1","2025-07-09 09:09:41","7701e855f2ef39aa3fd6c71abdc6918a","95.146.241.52","Mozilla/5.0 (Windows NT 10.0; Win64; x64) AppleWebKit/537.36 (KHTML, like Gecko) Chrome/137.0.0.0 Safari/537.36","WebKit","Chrome","137.0.0.0","Windows","10.0","https://app.prolific.com/","en-US,en;q=0.9","60056657125e50465c15533e","686d226cabeef709c732f8e1","686e3103a290d611970d7ad7","60056657125e50465c15533e","2025-07-09T09:20:37.825Z","","","","","","MotivationQ","","","","","","","","","","","","","","","","","","","","","","","","","","","","","","","","","","","","","","50"
"","","","","ctl-task-cpt","54","696068","0.0-10.0-0.3","151","1","2025-07-09 09:09:41","7701e855f2ef39aa3fd6c71abdc6918a","95.146.241.52","Mozilla/5.0 (Windows NT 10.0; Win64; x64) AppleWebKit/537.36 (KHTML, like Gecko) Chrome/137.0.0.0 Safari/537.36","WebKit","Chrome","137.0.0.0","Windows","10.0","https://app.prolific.com/","en-US,en;q=0.9","60056657125e50465c15533e","686d226cabeef709c732f8e1","686e3103a290d611970d7ad7","60056657125e50465c15533e","2025-07-09T09:21:19.146Z","","","","","","","","","","","","","","","","win-only","0","g1:NW,g2:SE","0.7","4","0","656580.2","1193.6","6197","38282.5","1","4","4","6","2","4","4","7","3","0.05303030303030303","5003.4","3000","1075","[""down"",""right""]","{""num_key_presses"":8,""num_perfect"":6,""num_errors"":0,""num_randdir"":2,""num_randdir_good_moves"":1,""num_whilered"":0,""num_whileblue"":0,""num_blue"":3,""num_good_moves"":7}","[410.57142857142856,407.1808016640799,2.9,410.57142857142856,407.1808016640799,102.1,410.57142857142856,407.1808016640799,202.8,410.57142857142856,407.1808016640799,307.5,917.5714285714286,324.6808016640799,408.2,1352.5714285714287,293.1808016640799,515.4,1316.5714285714287,311.1808016640799,616.2,1303.0714285714287,318.6808016640799,722.7,1235.5714285714287,338.1808016640799,823.8,1235.5714285714287,338.1808016640799,936.9,1235.5714285714287,338.1808016640799,1039,1235.5714285714287,338.1808016640799,1140.3,1235.5714285714287,338.1808016640799,1242.9,1235.5714285714287,338.1808016640799,1343.5,1235.5714285714287,338.1808016640799,1453,1235.5714285714287,338.1808016640799,1561.3,1235.5714285714287,338.1808016640799,1670.3,1235.5714285714287,338.1808016640799,1773.2,1235.5714285714287,338.1808016640799,1886.7,1235.5714285714287,338.1808016640799,1988.8,1235.5714285714287,338.1808016640799,2092.6,1235.5714285714287,338.1808016640799,2194,1235.5714285714287,338.1808016640799,2295.3,1235.5714285714287,338.1808016640799,2404.5,1235.5714285714287,338.1808016640799,2511.8,1235.5714285714287,338.1808016640799,2613.1,1235.5714285714287,338.1808016640799,2722.9,1235.5714285714287,338.1808016640799,2836.7,1235.5714285714287,338.1808016640799,2937.6,1235.5714285714287,338.1808016640799,3038.8,1235.5714285714287,338.1808016640799,3140.6,1235.5714285714287,338.1808016640799,3242.5,1235.5714285714287,338.1808016640799,3345.8,1235.5714285714287,338.1808016640799,3446.3,1235.5714285714287,338.1808016640799,3550.5,1235.5714285714287,338.1808016640799,3651.9,1235.5714285714287,338.1808016640799,3759.3,1235.5714285714287,338.1808016640799,3868,1235.5714285714287,338.1808016640799,3972.2,1235.5714285714287,338.1808016640799,4073.3,1235.5714285714287,338.1808016640799,4187.9,1235.5714285714287,338.1808016640799,4303.1,1235.5714285714287,338.1808016640799,4403.8,1235.5714285714287,338.1808016640799,4505,1235.5714285714287,338.1808016640799,4612.2,1235.5714285714287,338.1808016640799,4713.6,1235.5714285714287,338.1808016640799,4814.2,1235.5714285714287,338.1808016640799,4915.6]","[1379.9,1379.9,1000,0,379.9,""smooth"",""down"",""down"",""good_move"",8406.4,7026.2,2417,5689.5,299.9,""smooth"",""down"",""down"",""good_move"",13244.3,4837.6,1997.7,10840.4,406.2,""smooth"",""down"",""down"",""good_move"",15987.5,2742.8,2174.9,13244.7,567.9,""smooth"",""right"",""right"",""good_move"",18939.2,2951.1,2534.6,15988.1,416.5,""oops"",""right"",""up"",""bad_move"",21643.6,2703.5,2324.3,18940.1,379.2,""smooth"",""right"",""right"",""good_move"",24662.6,3018.7,2583.6,21643.9,435.1,""smooth"",""right"",""right"",""good_move"",31960.1,7297.1,3282.3,28371.8,306,""oops"",""down"",""down"",""good_move""]","",""
"4669","","<div style=""width:500px;"">
  <p>What determined the result of this run?</p>
  </div>","68","html-slider-response","55","700744","0.0-10.0-1.3","151","1","2025-07-09 09:09:41","7701e855f2ef39aa3fd6c71abdc6918a","95.146.241.52","Mozilla/5.0 (Windows NT 10.0; Win64; x64) AppleWebKit/537.36 (KHTML, like Gecko) Chrome/137.0.0.0 Safari/537.36","WebKit","Chrome","137.0.0.0","Windows","10.0","https://app.prolific.com/","en-US,en;q=0.9","60056657125e50465c15533e","686d226cabeef709c732f8e1","686e3103a290d611970d7ad7","60056657125e50465c15533e","2025-07-09T09:21:23.822Z","","","","","","AttribQ","","","","","","","","","","","","","","","","","","","","","","","","","","","","","","","","","","","","","","50"
"3213","","<div style=""width:500px;"">
  <p>How much control did you have over the ball?</p>
  </div>","63","html-slider-response","56","703959","0.0-10.0-2.3","151","1","2025-07-09 09:09:41","7701e855f2ef39aa3fd6c71abdc6918a","95.146.241.52","Mozilla/5.0 (Windows NT 10.0; Win64; x64) AppleWebKit/537.36 (KHTML, like Gecko) Chrome/137.0.0.0 Safari/537.36","WebKit","Chrome","137.0.0.0","Windows","10.0","https://app.prolific.com/","en-US,en;q=0.9","60056657125e50465c15533e","686d226cabeef709c732f8e1","686e3103a290d611970d7ad7","60056657125e50465c15533e","2025-07-09T09:21:27.037Z","","","","","","ControlQ","","","","","","","","","","","","","","","","","","","","","","","","","","","","","","","","","","","","","","50"
"4271","","<div style=""width:500px;"">
  <p>How would you describe your current emotional state?</p>
  </div>","70","html-slider-response","57","708243","0.0-10.0-3.3","151","1","2025-07-09 09:09:41","7701e855f2ef39aa3fd6c71abdc6918a","95.146.241.52","Mozilla/5.0 (Windows NT 10.0; Win64; x64) AppleWebKit/537.36 (KHTML, like Gecko) Chrome/137.0.0.0 Safari/537.36","WebKit","Chrome","137.0.0.0","Windows","10.0","https://app.prolific.com/","en-US,en;q=0.9","60056657125e50465c15533e","686d226cabeef709c732f8e1","686e3103a290d611970d7ad7","60056657125e50465c15533e","2025-07-09T09:21:31.324Z","","","","","","StressQ","","","","","","","","","","","","","","","","","","","","","","","","","","","","","","","","","","","","","","50"
"3283","","<div style=""width:500px;"">
  <p>What best describes how you currently feel?</p>
  </div>","63","html-slider-response","58","711548","0.0-10.0-4.3","151","1","2025-07-09 09:09:41","7701e855f2ef39aa3fd6c71abdc6918a","95.146.241.52","Mozilla/5.0 (Windows NT 10.0; Win64; x64) AppleWebKit/537.36 (KHTML, like Gecko) Chrome/137.0.0.0 Safari/537.36","WebKit","Chrome","137.0.0.0","Windows","10.0","https://app.prolific.com/","en-US,en;q=0.9","60056657125e50465c15533e","686d226cabeef709c732f8e1","686e3103a290d611970d7ad7","60056657125e50465c15533e","2025-07-09T09:21:34.627Z","","","","","","MotivationQ","","","","","","","","","","","","","","","","","","","","","","","","","","","","","","","","","","","","","","50"
"","","","","ctl-task-cpt","59","768020","0.0-10.0-0.4","151","1","2025-07-09 09:09:41","7701e855f2ef39aa3fd6c71abdc6918a","95.146.241.52","Mozilla/5.0 (Windows NT 10.0; Win64; x64) AppleWebKit/537.36 (KHTML, like Gecko) Chrome/137.0.0.0 Safari/537.36","WebKit","Chrome","137.0.0.0","Windows","10.0","https://app.prolific.com/","en-US,en;q=0.9","60056657125e50465c15533e","686d226cabeef709c732f8e1","686e3103a290d611970d7ad7","60056657125e50465c15533e","2025-07-09T09:22:31.098Z","","","","","","","","","","","","","","","","win-only","2","g1:SE,g2:NW","0.6","5","0","713359.4","17343.1","22348.9","53445.2","1","4","4","6","2","4","4","11","7","0.08333333333333333","1080.5","3000","1015","[""left"",""up""]","{""num_key_presses"":10,""num_perfect"":6,""num_errors"":0,""num_randdir"":4,""num_randdir_good_moves"":2,""num_whilered"":0,""num_whileblue"":0,""num_blue"":1,""num_good_moves"":8}","[416.57142857142856,413.1808016640799,2,416.57142857142856,413.1808016640799,102.1,416.57142857142856,413.1808016640799,205.5,416.57142857142856,413.1808016640799,310.7,416.57142857142856,413.1808016640799,414.7,335.57142857142856,375.6808016640799,526.6,145.07142857142856,231.68080166407992,635.4,82.07142857142857,177.68080166407992,740,77.57142857142857,99.68080166407994,851.5,71.57142857142857,86.18080166407994,956.9,71.57142857142857,86.18080166407994,1069.8,71.57142857142857,86.18080166407994,1175.8,71.57142857142857,86.18080166407994,1285.3,71.57142857142857,86.18080166407994,1388.7,71.57142857142857,86.18080166407994,1496.1,388.07142857142856,225.68080166407992,1601.2,949.0714285714286,320.1808016640799,1711.5,949.0714285714286,320.1808016640799,1821.5,949.0714285714286,320.1808016640799,1922.5,949.0714285714286,320.1808016640799,2025.9,949.0714285714286,320.1808016640799,2138.1,949.0714285714286,320.1808016640799,2239.5,949.0714285714286,320.1808016640799,2352.7,949.0714285714286,320.1808016640799,2453.1,949.0714285714286,320.1808016640799,2568,949.0714285714286,320.1808016640799,2671.2,949.0714285714286,320.1808016640799,2783.8,949.0714285714286,320.1808016640799,2888.4,949.0714285714286,320.1808016640799,2997.8,949.0714285714286,320.1808016640799,3103.6,949.0714285714286,320.1808016640799,3217.9,949.0714285714286,320.1808016640799,3319.2,949.0714285714286,320.1808016640799,3420.6,949.0714285714286,320.1808016640799,3523.2,949.0714285714286,320.1808016640799,3629.7,949.0714285714286,320.1808016640799,3730.1,949.0714285714286,320.1808016640799,3833.5,949.0714285714286,320.1808016640799,3936.5,949.0714285714286,320.1808016640799,4048.1,949.0714285714286,320.1808016640799,4149.3,949.0714285714286,320.1808016640799,4249.3,949.0714285714286,320.1808016640799,4349.9,949.0714285714286,320.1808016640799,4462.1,949.0714285714286,320.1808016640799,4567.3,949.0714285714286,320.1808016640799,4672.1,949.0714285714286,320.1808016640799,4775,949.0714285714286,320.1808016640799,4886.6,949.0714285714286,320.1808016640799,4993.1]","[1429.7,1429.7,1000,0,429.7,""smooth"",""left"",""left"",""good_move"",4153.3,2722.7,2303.7,1430.6,419,""smooth"",""left"",""left"",""good_move"",10518.7,6365,3018.7,7164.1,335.9,""smooth"",""left"",""left"",""good_move"",13126.9,2607.9,2187.7,10519,420.2,""oops"",""up"",""up"",""good_move"",15968,2840.6,2488,13127.5,352.5,""oops"",""up"",""right"",""bad_move"",18167.9,2199.4,1818.3,15968.5,381.1,""smooth"",""up"",""up"",""good_move"",21503,3334.7,3012.3,18168.3,322.4,""smooth"",""left"",""left"",""good_move"",24405.1,2901.8,2592.6,21503.3,309.2,""oops"",""up"",""right"",""bad_move"",27838,3432.8,3126.7,24405.3,306.1,""smooth"",""left"",""left"",""good_move"",30949.9,3109.5,2824.7,27840.5,284.8,""oops"",""up"",""up"",""good_move""]","",""
"3382","","<div style=""width:500px;"">
  <p>What determined the result of this run?</p>
  </div>","38","html-slider-response","60","771413","0.0-10.0-1.4","151","1","2025-07-09 09:09:41","7701e855f2ef39aa3fd6c71abdc6918a","95.146.241.52","Mozilla/5.0 (Windows NT 10.0; Win64; x64) AppleWebKit/537.36 (KHTML, like Gecko) Chrome/137.0.0.0 Safari/537.36","WebKit","Chrome","137.0.0.0","Windows","10.0","https://app.prolific.com/","en-US,en;q=0.9","60056657125e50465c15533e","686d226cabeef709c732f8e1","686e3103a290d611970d7ad7","60056657125e50465c15533e","2025-07-09T09:22:34.492Z","","","","","","AttribQ","","","","","","","","","","","","","","","","","","","","","","","","","","","","","","","","","","","","","","50"
"2796","","<div style=""width:500px;"">
  <p>How much control did you have over the ball?</p>
  </div>","41","html-slider-response","61","774228","0.0-10.0-2.4","151","1","2025-07-09 09:09:41","7701e855f2ef39aa3fd6c71abdc6918a","95.146.241.52","Mozilla/5.0 (Windows NT 10.0; Win64; x64) AppleWebKit/537.36 (KHTML, like Gecko) Chrome/137.0.0.0 Safari/537.36","WebKit","Chrome","137.0.0.0","Windows","10.0","https://app.prolific.com/","en-US,en;q=0.9","60056657125e50465c15533e","686d226cabeef709c732f8e1","686e3103a290d611970d7ad7","60056657125e50465c15533e","2025-07-09T09:22:37.307Z","","","","","","ControlQ","","","","","","","","","","","","","","","","","","","","","","","","","","","","","","","","","","","","","","50"
"2774","","<div style=""width:500px;"">
  <p>How would you describe your current emotional state?</p>
  </div>","81","html-slider-response","62","777025","0.0-10.0-3.4","151","1","2025-07-09 09:09:41","7701e855f2ef39aa3fd6c71abdc6918a","95.146.241.52","Mozilla/5.0 (Windows NT 10.0; Win64; x64) AppleWebKit/537.36 (KHTML, like Gecko) Chrome/137.0.0.0 Safari/537.36","WebKit","Chrome","137.0.0.0","Windows","10.0","https://app.prolific.com/","en-US,en;q=0.9","60056657125e50465c15533e","686d226cabeef709c732f8e1","686e3103a290d611970d7ad7","60056657125e50465c15533e","2025-07-09T09:22:40.105Z","","","","","","StressQ","","","","","","","","","","","","","","","","","","","","","","","","","","","","","","","","","","","","","","50"
"3590","","<div style=""width:500px;"">
  <p>What best describes how you currently feel?</p>
  </div>","46","html-slider-response","63","780650","0.0-10.0-4.4","151","1","2025-07-09 09:09:41","7701e855f2ef39aa3fd6c71abdc6918a","95.146.241.52","Mozilla/5.0 (Windows NT 10.0; Win64; x64) AppleWebKit/537.36 (KHTML, like Gecko) Chrome/137.0.0.0 Safari/537.36","WebKit","Chrome","137.0.0.0","Windows","10.0","https://app.prolific.com/","en-US,en;q=0.9","60056657125e50465c15533e","686d226cabeef709c732f8e1","686e3103a290d611970d7ad7","60056657125e50465c15533e","2025-07-09T09:22:43.729Z","","","","","","MotivationQ","","","","","","","","","","","","","","","","","","","","","","","","","","","","","","","","","","","","","","50"
"","","","","ctl-task-cpt","64","812764","0.0-10.0-0.5","151","1","2025-07-09 09:09:41","7701e855f2ef39aa3fd6c71abdc6918a","95.146.241.52","Mozilla/5.0 (Windows NT 10.0; Win64; x64) AppleWebKit/537.36 (KHTML, like Gecko) Chrome/137.0.0.0 Safari/537.36","WebKit","Chrome","137.0.0.0","Windows","10.0","https://app.prolific.com/","en-US,en;q=0.9","60056657125e50465c15533e","686d226cabeef709c732f8e1","686e3103a290d611970d7ad7","60056657125e50465c15533e","2025-07-09T09:23:15.842Z","","","","","","","","","","","","","","","","win-only","1","g1:NE,g2:SW","0.5","6","0","782473.8","1659.1","6669.5","29076.5","1","4","8","6","2","8","8","19","11","0.14393939393939395","1433.5","3000","1125","[""down"",""left""]","{""num_key_presses"":8,""num_perfect"":5,""num_errors"":0,""num_randdir"":3,""num_randdir_good_moves"":2,""num_whilered"":0,""num_whileblue"":0,""num_blue"":0,""num_good_moves"":7}","[413.57142857142856,426.6808016640799,0.2,413.57142857142856,426.6808016640799,114.5,413.57142857142856,426.6808016640799,232,413.57142857142856,426.6808016640799,351.2,485.57142857142856,425.1808016640799,455.7,649.0714285714286,434.1808016640799,562.9,632.5714285714286,351.6808016640799,671.6,70.07142857142857,828.6808016640799,786.2,-27.42857142857143,960.6808016640799,893.5,-22.92857142857143,884.1808016640799,998.1,-7.928571428571431,842.1808016640799,1104.9,31.07142857142857,803.1808016640799,1205.6,53.57142857142857,791.1808016640799,1306.7,53.57142857142857,791.1808016640799,1410.6,53.57142857142857,791.1808016640799,1515.6,53.57142857142857,791.1808016640799,1620.2,53.57142857142857,791.1808016640799,1727.3,53.57142857142857,791.1808016640799,1827.9,509.57142857142856,650.1808016640799,1931.3,854.5714285714286,527.1808016640799,2048.5,854.5714285714286,527.1808016640799,2160.3,854.5714285714286,527.1808016640799,2262.5,854.5714285714286,527.1808016640799,2370.4,854.5714285714286,527.1808016640799,2475.6,854.5714285714286,527.1808016640799,2577,854.5714285714286,527.1808016640799,2679.2,854.5714285714286,527.1808016640799,2785.7,854.5714285714286,527.1808016640799,2888.7,854.5714285714286,527.1808016640799,2996.6,854.5714285714286,527.1808016640799,3098.4,854.5714285714286,527.1808016640799,3217,854.5714285714286,527.1808016640799,3333.4,854.5714285714286,527.1808016640799,3433.9,854.5714285714286,527.1808016640799,3536,854.5714285714286,527.1808016640799,3645.5,854.5714285714286,527.1808016640799,3749.8,854.5714285714286,527.1808016640799,3864.4,854.5714285714286,527.1808016640799,3968.1,854.5714285714286,527.1808016640799,4071.9,854.5714285714286,527.1808016640799,4173.7,854.5714285714286,527.1808016640799,4283.3,854.5714285714286,527.1808016640799,4391.8,854.5714285714286,527.1808016640799,4497.7,854.5714285714286,527.1808016640799,4598.3,854.5714285714286,527.1808016640799,4699.1,854.5714285714286,527.1808016640799,4804.8,854.5714285714286,527.1808016640799,4907.9]","[1432.1,1432.1,1000,0,432.1,""smooth"",""down"",""down"",""good_move"",4209.9,2777.2,2431.4,1432.7,345.8,""smooth"",""down"",""down"",""good_move"",7495,3284.9,2951.9,4210.1,333,""smooth"",""down"",""down"",""good_move"",9643.2,2145.4,1753.2,7497.9,392.1,""oops"",""left"",""up"",""bad_move"",12869.5,3225.9,2922.4,9643.7,303.5,""oops"",""down"",""down"",""good_move"",15580.1,2710.2,2359,12869.9,351.3,""smooth"",""left"",""left"",""good_move"",19170,3587.7,3248,15582.3,339.7,""oops"",""left"",""left"",""good_move"",22237.3,3067,1917.4,19170.3,1149.6,""smooth"",""left"",""left"",""good_move""]","",""
"3421","","<div style=""width:500px;"">
  <p>What determined the result of this run?</p>
  </div>","58","html-slider-response","65","816189","0.0-10.0-1.5","151","1","2025-07-09 09:09:41","7701e855f2ef39aa3fd6c71abdc6918a","95.146.241.52","Mozilla/5.0 (Windows NT 10.0; Win64; x64) AppleWebKit/537.36 (KHTML, like Gecko) Chrome/137.0.0.0 Safari/537.36","WebKit","Chrome","137.0.0.0","Windows","10.0","https://app.prolific.com/","en-US,en;q=0.9","60056657125e50465c15533e","686d226cabeef709c732f8e1","686e3103a290d611970d7ad7","60056657125e50465c15533e","2025-07-09T09:23:19.267Z","","","","","","AttribQ","","","","","","","","","","","","","","","","","","","","","","","","","","","","","","","","","","","","","","50"
"4211","","<div style=""width:500px;"">
  <p>How much control did you have over the ball?</p>
  </div>","63","html-slider-response","66","820407","0.0-10.0-2.5","151","1","2025-07-09 09:09:41","7701e855f2ef39aa3fd6c71abdc6918a","95.146.241.52","Mozilla/5.0 (Windows NT 10.0; Win64; x64) AppleWebKit/537.36 (KHTML, like Gecko) Chrome/137.0.0.0 Safari/537.36","WebKit","Chrome","137.0.0.0","Windows","10.0","https://app.prolific.com/","en-US,en;q=0.9","60056657125e50465c15533e","686d226cabeef709c732f8e1","686e3103a290d611970d7ad7","60056657125e50465c15533e","2025-07-09T09:23:23.486Z","","","","","","ControlQ","","","","","","","","","","","","","","","","","","","","","","","","","","","","","","","","","","","","","","50"
"4110","","<div style=""width:500px;"">
  <p>How would you describe your current emotional state?</p>
  </div>","68","html-slider-response","67","824534","0.0-10.0-3.5","151","1","2025-07-09 09:09:41","7701e855f2ef39aa3fd6c71abdc6918a","95.146.241.52","Mozilla/5.0 (Windows NT 10.0; Win64; x64) AppleWebKit/537.36 (KHTML, like Gecko) Chrome/137.0.0.0 Safari/537.36","WebKit","Chrome","137.0.0.0","Windows","10.0","https://app.prolific.com/","en-US,en;q=0.9","60056657125e50465c15533e","686d226cabeef709c732f8e1","686e3103a290d611970d7ad7","60056657125e50465c15533e","2025-07-09T09:23:27.614Z","","","","","","StressQ","","","","","","","","","","","","","","","","","","","","","","","","","","","","","","","","","","","","","","50"
"4991","","<div style=""width:500px;"">
  <p>What best describes how you currently feel?</p>
  </div>","43","html-slider-response","68","829533","0.0-10.0-4.5","151","1","2025-07-09 09:09:41","7701e855f2ef39aa3fd6c71abdc6918a","95.146.241.52","Mozilla/5.0 (Windows NT 10.0; Win64; x64) AppleWebKit/537.36 (KHTML, like Gecko) Chrome/137.0.0.0 Safari/537.36","WebKit","Chrome","137.0.0.0","Windows","10.0","https://app.prolific.com/","en-US,en;q=0.9","60056657125e50465c15533e","686d226cabeef709c732f8e1","686e3103a290d611970d7ad7","60056657125e50465c15533e","2025-07-09T09:23:32.611Z","","","","","","MotivationQ","","","","","","","","","","","","","","","","","","","","","","","","","","","","","","","","","","","","","","50"
"","","","","ctl-task-cpt","69","892324","0.0-10.0-0.6","151","1","2025-07-09 09:09:41","7701e855f2ef39aa3fd6c71abdc6918a","95.146.241.52","Mozilla/5.0 (Windows NT 10.0; Win64; x64) AppleWebKit/537.36 (KHTML, like Gecko) Chrome/137.0.0.0 Safari/537.36","WebKit","Chrome","137.0.0.0","Windows","10.0","https://app.prolific.com/","en-US,en;q=0.9","60056657125e50465c15533e","686d226cabeef709c732f8e1","686e3103a290d611970d7ad7","60056657125e50465c15533e","2025-07-09T09:24:35.402Z","","","","","","","","","","","","","","","","win-only","2","g1:SE,g2:NW","0.4","7","0","831338.4","1258.6","6266.9","59775.2","1","4","8","6","2","-8","-10","9","19","0.06818181818181818","1078.7","3000","-1500","[""left"",""up""]","{""num_key_presses"":15,""num_perfect"":5,""num_errors"":2,""num_randdir"":8,""num_randdir_good_moves"":3,""num_whilered"":0,""num_whileblue"":1,""num_blue"":4,""num_good_moves"":9}","[421.07142857142856,425.1808016640799,0.4,421.07142857142856,425.1808016640799,114.7,421.07142857142856,425.1808016640799,218.6,421.07142857142856,425.1808016640799,327.8,421.07142857142856,425.1808016640799,437.3,421.07142857142856,425.1808016640799,540.6,212.57142857142856,164.18080166407992,643.6,142.07142857142856,75.68080166407994,748.5,101.57142857142857,57.68080166407994,851.7,77.57142857142857,53.18080166407994,965.5,77.57142857142857,53.18080166407994,1077.2,77.57142857142857,53.18080166407994,1184.1,77.57142857142857,53.18080166407994,1290.7,77.57142857142857,53.18080166407994,1396.5,77.57142857142857,53.18080166407994,1498.2,449.57142857142856,149.18080166407992,1600.4,545.5714285714286,185.18080166407992,1703.5,545.5714285714286,185.18080166407992,1813.7,545.5714285714286,185.18080166407992,1922.4,545.5714285714286,185.18080166407992,2030.6,545.5714285714286,185.18080166407992,2132.2,545.5714285714286,185.18080166407992,2237.4,545.5714285714286,185.18080166407992,2347.5,545.5714285714286,185.18080166407992,2451.6,545.5714285714286,185.18080166407992,2559.3,545.5714285714286,185.18080166407992,2667.2,545.5714285714286,185.18080166407992,2777.7,545.5714285714286,185.18080166407992,2889.5,545.5714285714286,185.18080166407992,2990.2,545.5714285714286,185.18080166407992,3096.8,545.5714285714286,185.18080166407992,3205.5,545.5714285714286,185.18080166407992,3313.1,545.5714285714286,185.18080166407992,3416.7,545.5714285714286,185.18080166407992,3523.3,545.5714285714286,185.18080166407992,3627.3,545.5714285714286,185.18080166407992,3738.9,545.5714285714286,185.18080166407992,3853,545.5714285714286,185.18080166407992,3971.4,545.5714285714286,185.18080166407992,4074.6,545.5714285714286,185.18080166407992,4181.2,545.5714285714286,185.18080166407992,4283.4,545.5714285714286,185.18080166407992,4383.5,545.5714285714286,185.18080166407992,4487.2,545.5714285714286,185.18080166407992,4601.3,545.5714285714286,185.18080166407992,4702.7,545.5714285714286,185.18080166407992,4803.8,545.5714285714286,185.18080166407992,4920.3]","[8447.8,8447.8,1892.6,6132.4,422.8,""oops"",""left"",""down"",""bad_move"",11128.1,2677.5,2116.7,8450.6,560.8,""oops"",""left"",""right"",""bad_move"",13338.9,2209.7,1707.3,11129.3,502.4,""smooth"",""left"",""left"",""good_move"",15813.5,2473.9,2137.6,13339.6,336.3,""smooth"",""left"",""left"",""good_move"",18381.3,2567.5,2264.4,15813.8,303.1,""oops"",""left"",""up"",""good_move"",21278.2,2893.3,2548.1,18385,345.1,""smooth"",""left"",""left"",""good_move"",24185.9,2906.9,2609.4,21279,297.5,""oops"",""left"",""right"",""bad_move"",27189.3,3002.8,2514.4,24186.5,488.4,""oops"",""left"",""up"",""good_move"",30014.5,2824.9,2493.8,27189.7,331.1,""while_blue"",""left"",""up"",""good_move"",35361.2,5344.6,1949,32979.7,432.5,""smooth"",""left"",""left"",""good_move"",38236.7,2874,2479.8,35362.8,394.1,""oops"",""left"",""up"",""good_move"",41309.5,3071.6,2727,38237.9,344.6,""oops"",""left"",""down"",""bad_move"",43953.5,2643.6,2347.1,41309.9,296.5,""smooth"",""left"",""left"",""good_move"",46168.7,2212,2566.4,43956.7,-354.4,""error"",""-"",""-"",""no_move"",51012.2,4843.1,3411.7,47190.2,410.4,""oops"",""up"",""right"",""bad_move""]","",""
"5772","","<div style=""width:500px;"">
  <p>What determined the result of this run?</p>
  </div>","9","html-slider-response","70","898111","0.0-10.0-1.6","151","1","2025-07-09 09:09:41","7701e855f2ef39aa3fd6c71abdc6918a","95.146.241.52","Mozilla/5.0 (Windows NT 10.0; Win64; x64) AppleWebKit/537.36 (KHTML, like Gecko) Chrome/137.0.0.0 Safari/537.36","WebKit","Chrome","137.0.0.0","Windows","10.0","https://app.prolific.com/","en-US,en;q=0.9","60056657125e50465c15533e","686d226cabeef709c732f8e1","686e3103a290d611970d7ad7","60056657125e50465c15533e","2025-07-09T09:24:41.191Z","","","","","","AttribQ","","","","","","","","","","","","","","","","","","","","","","","","","","","","","","","","","","","","","","50"
"22487","","<div style=""width:500px;"">
  <p>How much control did you have over the ball?</p>
  </div>","17","html-slider-response","71","920617","0.0-10.0-2.6","151","1","2025-07-09 09:09:41","7701e855f2ef39aa3fd6c71abdc6918a","95.146.241.52","Mozilla/5.0 (Windows NT 10.0; Win64; x64) AppleWebKit/537.36 (KHTML, like Gecko) Chrome/137.0.0.0 Safari/537.36","WebKit","Chrome","137.0.0.0","Windows","10.0","https://app.prolific.com/","en-US,en;q=0.9","60056657125e50465c15533e","686d226cabeef709c732f8e1","686e3103a290d611970d7ad7","60056657125e50465c15533e","2025-07-09T09:25:03.695Z","","","","","","ControlQ","","","","","","","","","","","","","","","","","","","","","","","","","","","","","","","","","","","","","","50"
"4893","","<div style=""width:500px;"">
  <p>How would you describe your current emotional state?</p>
  </div>","93","html-slider-response","72","925517","0.0-10.0-3.6","151","1","2025-07-09 09:09:41","7701e855f2ef39aa3fd6c71abdc6918a","95.146.241.52","Mozilla/5.0 (Windows NT 10.0; Win64; x64) AppleWebKit/537.36 (KHTML, like Gecko) Chrome/137.0.0.0 Safari/537.36","WebKit","Chrome","137.0.0.0","Windows","10.0","https://app.prolific.com/","en-US,en;q=0.9","60056657125e50465c15533e","686d226cabeef709c732f8e1","686e3103a290d611970d7ad7","60056657125e50465c15533e","2025-07-09T09:25:08.599Z","","","","","","StressQ","","","","","","","","","","","","","","","","","","","","","","","","","","","","","","","","","","","","","","50"
"4089","","<div style=""width:500px;"">
  <p>What best describes how you currently feel?</p>
  </div>","36","html-slider-response","73","929633","0.0-10.0-4.6","151","1","2025-07-09 09:09:41","7701e855f2ef39aa3fd6c71abdc6918a","95.146.241.52","Mozilla/5.0 (Windows NT 10.0; Win64; x64) AppleWebKit/537.36 (KHTML, like Gecko) Chrome/137.0.0.0 Safari/537.36","WebKit","Chrome","137.0.0.0","Windows","10.0","https://app.prolific.com/","en-US,en;q=0.9","60056657125e50465c15533e","686d226cabeef709c732f8e1","686e3103a290d611970d7ad7","60056657125e50465c15533e","2025-07-09T09:25:12.712Z","","","","","","MotivationQ","","","","","","","","","","","","","","","","","","","","","","","","","","","","","","","","","","","","","","50"
"","","","","ctl-task-cpt","74","969586","0.0-10.0-0.7","151","1","2025-07-09 09:09:41","7701e855f2ef39aa3fd6c71abdc6918a","95.146.241.52","Mozilla/5.0 (Windows NT 10.0; Win64; x64) AppleWebKit/537.36 (KHTML, like Gecko) Chrome/137.0.0.0 Safari/537.36","WebKit","Chrome","137.0.0.0","Windows","10.0","https://app.prolific.com/","en-US,en;q=0.9","60056657125e50465c15533e","686d226cabeef709c732f8e1","686e3103a290d611970d7ad7","60056657125e50465c15533e","2025-07-09T09:25:52.669Z","","","","","","","","","","","","","","","","win-only","2","g1:SE,g2:NW","0.3","8","0","931550.2","1589.7","6610.5","36802.2","1","4","4","6","2","4","3","12","9","0.09090909090909091","1606.9","3000","1560","[""left"",""up""]","{""num_key_presses"":10,""num_perfect"":3,""num_errors"":1,""num_randdir"":6,""num_randdir_good_moves"":4,""num_whilered"":0,""num_whileblue"":1,""num_blue"":2,""num_good_moves"":8}","[413.57142857142856,420.6808016640799,5.6,413.57142857142856,420.6808016640799,116,413.57142857142856,420.6808016640799,216.3,413.57142857142856,420.6808016640799,321.1,413.57142857142856,420.6808016640799,431.1,628.0714285714286,588.6808016640799,538.8,724.0714285714286,672.6808016640799,639,724.0714285714286,672.6808016640799,744.6,724.0714285714286,672.6808016640799,845,497.57142857142856,551.1808016640799,945.8,122.57142857142857,260.1808016640799,1056.3,10.07142857142857,125.18080166407994,1161.8,-12.42857142857143,71.18080166407994,1269.3,-12.42857142857143,66.68080166407994,1373.1,26.57142857142857,80.18080166407994,1493.5,26.57142857142857,80.18080166407994,1609.1,26.57142857142857,80.18080166407994,1720.1,26.57142857142857,80.18080166407994,1840.2,26.57142857142857,80.18080166407994,1940.4,137.57142857142856,101.18080166407994,2046.6,547.0714285714286,188.18080166407992,2148.1,605.5714285714286,198.68080166407992,2253.9,605.5714285714286,198.68080166407992,2362.6,605.5714285714286,198.68080166407992,2468.9,605.5714285714286,198.68080166407992,2573.7,605.5714285714286,198.68080166407992,2678.1,605.5714285714286,198.68080166407992,2787.7,605.5714285714286,198.68080166407992,2892.5,605.5714285714286,198.68080166407992,2995.7,605.5714285714286,198.68080166407992,3110.6,605.5714285714286,198.68080166407992,3225.2,605.5714285714286,198.68080166407992,3332.8,605.5714285714286,198.68080166407992,3434.9,605.5714285714286,198.68080166407992,3538.7,605.5714285714286,198.68080166407992,3642.4,605.5714285714286,198.68080166407992,3743.1,605.5714285714286,198.68080166407992,3846.6,605.5714285714286,198.68080166407992,3960.5,605.5714285714286,198.68080166407992,4065.5,605.5714285714286,198.68080166407992,4171.5,605.5714285714286,198.68080166407992,4283.1,605.5714285714286,198.68080166407992,4386.8,605.5714285714286,198.68080166407992,4494.2,605.5714285714286,198.68080166407992,4599.8,605.5714285714286,198.68080166407992,4700.8,605.5714285714286,198.68080166407992,4800.9,605.5714285714286,198.68080166407992,4901.1]","[1685.4,1685.4,1000,0,685.4,""oops"",""left"",""down"",""bad_move"",4347.5,2661.5,2323.6,1686.5,337.4,""smooth"",""left"",""left"",""good_move"",7730.3,3381.6,3066.7,4348.7,314.9,""oops"",""left"",""left"",""good_move"",9976.3,2245.5,1778.7,7730.9,466.8,""oops"",""left"",""left"",""good_move"",12979.1,3002.1,2689.7,9977,312.4,""smooth"",""up"",""up"",""good_move"",15295.8,2314.7,2029.1,12981.3,285.4,""smooth"",""up"",""up"",""good_move"",18267.7,2971.5,2678.2,15296.2,293.3,""oops"",""up"",""up"",""good_move"",20849.4,2578.6,2121.6,18270.9,457,""oops"",""up"",""down"",""bad_move"",23763,2909.2,2627.6,20853.8,281.6,""while_blue"",""up"",""up"",""good_move"",30004.4,6238.8,2551.2,27052.5,400.7,""oops"",""up"",""up"",""good_move""]","",""
"10976","","<div style=""width:500px;"">
  <p>What determined the result of this run?</p>
  </div>","24","html-slider-response","75","980629","0.0-10.0-1.7","151","1","2025-07-09 09:09:41","7701e855f2ef39aa3fd6c71abdc6918a","95.146.241.52","Mozilla/5.0 (Windows NT 10.0; Win64; x64) AppleWebKit/537.36 (KHTML, like Gecko) Chrome/137.0.0.0 Safari/537.36","WebKit","Chrome","137.0.0.0","Windows","10.0","https://app.prolific.com/","en-US,en;q=0.9","60056657125e50465c15533e","686d226cabeef709c732f8e1","686e3103a290d611970d7ad7","60056657125e50465c15533e","2025-07-09T09:26:03.711Z","","","","","","AttribQ","","","","","","","","","","","","","","","","","","","","","","","","","","","","","","","","","","","","","","50"
"3917","","<div style=""width:500px;"">
  <p>How much control did you have over the ball?</p>
  </div>","33","html-slider-response","76","984583","0.0-10.0-2.7","151","1","2025-07-09 09:09:41","7701e855f2ef39aa3fd6c71abdc6918a","95.146.241.52","Mozilla/5.0 (Windows NT 10.0; Win64; x64) AppleWebKit/537.36 (KHTML, like Gecko) Chrome/137.0.0.0 Safari/537.36","WebKit","Chrome","137.0.0.0","Windows","10.0","https://app.prolific.com/","en-US,en;q=0.9","60056657125e50465c15533e","686d226cabeef709c732f8e1","686e3103a290d611970d7ad7","60056657125e50465c15533e","2025-07-09T09:26:07.663Z","","","","","","ControlQ","","","","","","","","","","","","","","","","","","","","","","","","","","","","","","","","","","","","","","50"
"9357","","<div style=""width:500px;"">
  <p>How would you describe your current emotional state?</p>
  </div>","75","html-slider-response","77","993955","0.0-10.0-3.7","151","1","2025-07-09 09:09:41","7701e855f2ef39aa3fd6c71abdc6918a","95.146.241.52","Mozilla/5.0 (Windows NT 10.0; Win64; x64) AppleWebKit/537.36 (KHTML, like Gecko) Chrome/137.0.0.0 Safari/537.36","WebKit","Chrome","137.0.0.0","Windows","10.0","https://app.prolific.com/","en-US,en;q=0.9","60056657125e50465c15533e","686d226cabeef709c732f8e1","686e3103a290d611970d7ad7","60056657125e50465c15533e","2025-07-09T09:26:17.033Z","","","","","","StressQ","","","","","","","","","","","","","","","","","","","","","","","","","","","","","","","","","","","","","","50"
"4354","","<div style=""width:500px;"">
  <p>What best describes how you currently feel?</p>
  </div>","39","html-slider-response","78","998310","0.0-10.0-4.7","151","1","2025-07-09 09:09:41","7701e855f2ef39aa3fd6c71abdc6918a","95.146.241.52","Mozilla/5.0 (Windows NT 10.0; Win64; x64) AppleWebKit/537.36 (KHTML, like Gecko) Chrome/137.0.0.0 Safari/537.36","WebKit","Chrome","137.0.0.0","Windows","10.0","https://app.prolific.com/","en-US,en;q=0.9","60056657125e50465c15533e","686d226cabeef709c732f8e1","686e3103a290d611970d7ad7","60056657125e50465c15533e","2025-07-09T09:26:21.388Z","","","","","","MotivationQ","","","","","","","","","","","","","","","","","","","","","","","","","","","","","","","","","","","","","","50"
"","","","","ctl-task-cpt","79","1018165","0.0-10.0-0.8","151","1","2025-07-09 09:09:41","7701e855f2ef39aa3fd6c71abdc6918a","95.146.241.52","Mozilla/5.0 (Windows NT 10.0; Win64; x64) AppleWebKit/537.36 (KHTML, like Gecko) Chrome/137.0.0.0 Safari/537.36","WebKit","Chrome","137.0.0.0","Windows","10.0","https://app.prolific.com/","en-US,en;q=0.9","60056657125e50465c15533e","686d226cabeef709c732f8e1","686e3103a290d611970d7ad7","60056657125e50465c15533e","2025-07-09T09:26:41.243Z","","","","","","","","","","","","","","","","win-only","3","g1:SW,g2:NE","0.2","9","0","1000136.1","1319.3","6329.9","16810.6","1","4","4","6","1","1","1","13","12","0.09848484848484848","1109.8","3000","2555","[""down"",""left""]","{""num_key_presses"":4,""num_perfect"":2,""num_errors"":0,""num_randdir"":2,""num_randdir_good_moves"":2,""num_whilered"":0,""num_whileblue"":0,""num_blue"":0,""num_good_moves"":4}","[419.57142857142856,413.1808016640799,1.9,419.57142857142856,413.1808016640799,104.3,419.57142857142856,413.1808016640799,217,419.57142857142856,413.1808016640799,317.9,419.57142857142856,413.1808016640799,418.6,419.57142857142856,413.1808016640799,521.9,266.57142857142856,551.1808016640799,633.3,152.57142857142856,665.1808016640799,740.3,100.07142857142857,725.1808016640799,850.9,86.57142857142857,741.6808016640799,953.8,86.57142857142857,741.6808016640799,1068.7,86.57142857142857,741.6808016640799,1171.5,86.57142857142857,741.6808016640799,1287.8,86.57142857142857,741.6808016640799,1390,86.57142857142857,741.6808016640799,1508.5,86.57142857142857,741.6808016640799,1613.5,353.57142857142856,683.1808016640799,1730.6,533.5714285714286,647.1808016640799,1832.4,533.5714285714286,647.1808016640799,1933.5,533.5714285714286,647.1808016640799,2035.5,533.5714285714286,647.1808016640799,2136.5,533.5714285714286,647.1808016640799,2250,533.5714285714286,647.1808016640799,2366.7,533.5714285714286,647.1808016640799,2469,533.5714285714286,647.1808016640799,2576.4,533.5714285714286,647.1808016640799,2681.3,533.5714285714286,647.1808016640799,2781.7,533.5714285714286,647.1808016640799,2894.9,533.5714285714286,647.1808016640799,3005.7,533.5714285714286,647.1808016640799,3123.7,533.5714285714286,647.1808016640799,3225.1,533.5714285714286,647.1808016640799,3338.1,533.5714285714286,647.1808016640799,3454.2,533.5714285714286,647.1808016640799,3558.6,533.5714285714286,647.1808016640799,3669.5,533.5714285714286,647.1808016640799,3769.8,533.5714285714286,647.1808016640799,3875.3,533.5714285714286,647.1808016640799,3991.8,533.5714285714286,647.1808016640799,4107.8,533.5714285714286,647.1808016640799,4224.6,533.5714285714286,647.1808016640799,4350.5,533.5714285714286,647.1808016640799,4457.6,533.5714285714286,647.1808016640799,4576.9,533.5714285714286,647.1808016640799,4694.7,533.5714285714286,647.1808016640799,4799.4,533.5714285714286,647.1808016640799,4916.7]","[1337.7,1337.7,1000,0,337.7,""smooth"",""down"",""down"",""good_move"",5039.3,3700.7,3247.1,1338.6,453.6,""oops"",""left"",""left"",""good_move"",7998.2,2958.3,1832.4,5039.9,1125.9,""oops"",""left"",""down"",""good_move"",10231.1,2232.7,1736.2,7998.4,496.5,""smooth"",""left"",""left"",""good_move""]","",""
"5488","","<div style=""width:500px;"">
  <p>What determined the result of this run?</p>
  </div>","61","html-slider-response","80","1023655","0.0-10.0-1.8","151","1","2025-07-09 09:09:41","7701e855f2ef39aa3fd6c71abdc6918a","95.146.241.52","Mozilla/5.0 (Windows NT 10.0; Win64; x64) AppleWebKit/537.36 (KHTML, like Gecko) Chrome/137.0.0.0 Safari/537.36","WebKit","Chrome","137.0.0.0","Windows","10.0","https://app.prolific.com/","en-US,en;q=0.9","60056657125e50465c15533e","686d226cabeef709c732f8e1","686e3103a290d611970d7ad7","60056657125e50465c15533e","2025-07-09T09:26:46.733Z","","","","","","AttribQ","","","","","","","","","","","","","","","","","","","","","","","","","","","","","","","","","","","","","","50"
"4359","","<div style=""width:500px;"">
  <p>How much control did you have over the ball?</p>
  </div>","40","html-slider-response","81","1028017","0.0-10.0-2.8","151","1","2025-07-09 09:09:41","7701e855f2ef39aa3fd6c71abdc6918a","95.146.241.52","Mozilla/5.0 (Windows NT 10.0; Win64; x64) AppleWebKit/537.36 (KHTML, like Gecko) Chrome/137.0.0.0 Safari/537.36","WebKit","Chrome","137.0.0.0","Windows","10.0","https://app.prolific.com/","en-US,en;q=0.9","60056657125e50465c15533e","686d226cabeef709c732f8e1","686e3103a290d611970d7ad7","60056657125e50465c15533e","2025-07-09T09:26:51.095Z","","","","","","ControlQ","","","","","","","","","","","","","","","","","","","","","","","","","","","","","","","","","","","","","","50"
"5111","","<div style=""width:500px;"">
  <p>How would you describe your current emotional state?</p>
  </div>","63","html-slider-response","82","1033131","0.0-10.0-3.8","151","1","2025-07-09 09:09:41","7701e855f2ef39aa3fd6c71abdc6918a","95.146.241.52","Mozilla/5.0 (Windows NT 10.0; Win64; x64) AppleWebKit/537.36 (KHTML, like Gecko) Chrome/137.0.0.0 Safari/537.36","WebKit","Chrome","137.0.0.0","Windows","10.0","https://app.prolific.com/","en-US,en;q=0.9","60056657125e50465c15533e","686d226cabeef709c732f8e1","686e3103a290d611970d7ad7","60056657125e50465c15533e","2025-07-09T09:26:56.209Z","","","","","","StressQ","","","","","","","","","","","","","","","","","","","","","","","","","","","","","","","","","","","","","","50"
"2145","","<div style=""width:500px;"">
  <p>What best describes how you currently feel?</p>
  </div>","40","html-slider-response","83","1035278","0.0-10.0-4.8","151","1","2025-07-09 09:09:41","7701e855f2ef39aa3fd6c71abdc6918a","95.146.241.52","Mozilla/5.0 (Windows NT 10.0; Win64; x64) AppleWebKit/537.36 (KHTML, like Gecko) Chrome/137.0.0.0 Safari/537.36","WebKit","Chrome","137.0.0.0","Windows","10.0","https://app.prolific.com/","en-US,en;q=0.9","60056657125e50465c15533e","686d226cabeef709c732f8e1","686e3103a290d611970d7ad7","60056657125e50465c15533e","2025-07-09T09:26:58.356Z","","","","","","MotivationQ","","","","","","","","","","","","","","","","","","","","","","","","","","","","","","","","","","","","","","50"
"","","","","ctl-task-cpt","84","1094294","0.0-10.0-0.9","151","1","2025-07-09 09:09:41","7701e855f2ef39aa3fd6c71abdc6918a","95.146.241.52","Mozilla/5.0 (Windows NT 10.0; Win64; x64) AppleWebKit/537.36 (KHTML, like Gecko) Chrome/137.0.0.0 Safari/537.36","WebKit","Chrome","137.0.0.0","Windows","10.0","https://app.prolific.com/","en-US,en;q=0.9","60056657125e50465c15533e","686d226cabeef709c732f8e1","686e3103a290d611970d7ad7","60056657125e50465c15533e","2025-07-09T09:27:57.376Z","","","","","","","","","","","","","","","","win-only","3","g1:SW,g2:NE","0.4","10","0","1037084.5","1206.5","6213.6","55905.2","1","4","8","6","2","8","8","21","13","0.1590909090909091","1212.8","3000","2290","[""up"",""right""]","{""num_key_presses"":10,""num_perfect"":4,""num_errors"":0,""num_randdir"":6,""num_randdir_good_moves"":4,""num_whilered"":0,""num_whileblue"":0,""num_blue"":2,""num_good_moves"":8}","[413.57142857142856,416.1808016640799,0.2,413.57142857142856,416.1808016640799,127.5,413.57142857142856,416.1808016640799,243.5,413.57142857142856,416.1808016640799,365.5,413.57142857142856,416.1808016640799,466.5,413.57142857142856,416.1808016640799,580.7,556.0714285714286,246.68080166407992,685.5,725.5714285714286,77.18080166407994,805.8,742.0714285714286,68.18080166407994,909.2,752.5714285714286,65.18080166407994,1033.3,752.5714285714286,65.18080166407994,1135.3,752.5714285714286,65.18080166407994,1248.8,752.5714285714286,65.18080166407994,1356.1,752.5714285714286,65.18080166407994,1480.7,752.5714285714286,65.18080166407994,1587.2,752.5714285714286,65.18080166407994,1692.2,947.5714285714286,149.18080166407992,1803.4,1018.0714285714286,182.18080166407992,1909.1,1018.0714285714286,182.18080166407992,2026.1,1018.0714285714286,182.18080166407992,2144.8,1018.0714285714286,182.18080166407992,2265.9,1018.0714285714286,182.18080166407992,2373.6,1018.0714285714286,182.18080166407992,2484.5,1018.0714285714286,182.18080166407992,2588.5,1018.0714285714286,182.18080166407992,2691.8,1018.0714285714286,182.18080166407992,2807.1,1018.0714285714286,182.18080166407992,2930.5,1018.0714285714286,182.18080166407992,3047.1,1018.0714285714286,182.18080166407992,3164.3,1018.0714285714286,182.18080166407992,3282.8,1018.0714285714286,182.18080166407992,3392.9,1018.0714285714286,182.18080166407992,3514.6,1018.0714285714286,182.18080166407992,3620.6,1018.0714285714286,182.18080166407992,3731.8,1018.0714285714286,182.18080166407992,3850.9,1018.0714285714286,182.18080166407992,3979.8,1018.0714285714286,182.18080166407992,4080.4,1018.0714285714286,182.18080166407992,4190.8,1018.0714285714286,182.18080166407992,4294.3,1018.0714285714286,182.18080166407992,4412.1,1018.0714285714286,182.18080166407992,4521.7,1018.0714285714286,182.18080166407992,4651.2,1018.0714285714286,182.18080166407992,4764.3,1018.0714285714286,182.18080166407992,4868.6,1018.0714285714286,182.18080166407992,4972.7]","[1483.7,1483.7,1000,0,483.7,""smooth"",""right"",""right"",""good_move"",5044.3,3560,2810.3,1484.4,749.7,""oops"",""right"",""left"",""bad_move"",14714.7,9669.9,2419.6,11818.2,476.9,""smooth"",""right"",""right"",""good_move"",17744.9,3029.8,2198.8,14715.1,831,""oops"",""right"",""up"",""good_move"",24138,6392.3,2811.9,17745.7,3580.4,""oops"",""right"",""up"",""good_move"",32702.2,8563.9,2208.4,30023.3,470.5,""smooth"",""right"",""right"",""good_move"",35163.4,2461,1954.7,32702.4,506.3,""oops"",""right"",""down"",""bad_move"",38038.9,2875.2,2425.5,35163.8,449.6,""oops"",""right"",""right"",""good_move"",41118.1,3079,2545.2,38039.1,533.8,""smooth"",""up"",""up"",""good_move"",48976.5,7858.1,1983.6,41118.5,5874.4,""oops"",""up"",""up"",""good_move""]","",""
"3572","","<div style=""width:500px;"">
  <p>What determined the result of this run?</p>
