"rt","response_timestamp","stimulus","response","trial_type","trial_index","time_elapsed","internal_node_id","run_id","condition","recorded_at","source_code_version","ip","user_agent","device","browser","browser_version","platform","platform_version","referer","accept_language","PROLIFIC_PID","STUDY_ID","SESSION_ID","prolific_id","realtime","view_history","question_order","consent","success","question_id","eventType","responses","item_order","radio_event_ids","radio_event_times","key_event_times","mouse_event_times","straightlining","zigzagging","honeypot","which_type","canvas_config","goals_layout","control_level","trial_number","tutorial_trial_number","trial_start_time","phase1_start_time","phase2_start_time","phase3_start_time","goal_1_value","goal_1_distance","goal_2_value","goal_2_distance","goal_selected","outcome","outcome_total","participant_final_score","participant_initial_score","participant_final_score_prop","goal_choice_rt","allocated_time","allocated_time_remaining","goal_direction","counts","mouse_movements","key_presses","correct","slider_start"
"17822","1752052496820","<p style='font-size:40px;line-height:1.25'><strong>Welcome to the experiment!</strong></p><p style='font-size:1.1em;line-height:1.25'>Thank you for your interest in our experiment! Before you begin, it is important that we obtain your informed consent to participate in the study.</p><p style='font-size:1.1em;line-height:1.25'>On the next screen will be an <strong>information sheet</strong> for you to read. To participate in the study we need you to read this information sheet and the following consent form carefully. If you agree with all the statements, please click the <strong>I agree</strong> button.</p><p style='font-size:1.1em;line-height:1.25'>Press <strong>Next</strong> to read the information sheet.</p>","0","custom-html-button-response","0","17854","0.0-0.0","186","1","2025-07-09 09:14:31","7701e855f2ef39aa3fd6c71abdc6918a","41.150.35.125","Mozilla/5.0 (Windows NT 10.0; Win64; x64) AppleWebKit/537.36 (KHTML, like Gecko) Chrome/134.0.0.0 Safari/537.36 OPR/119.0.0.0","WebKit","Opera","119.0.0.0","Windows","10.0","https://app.prolific.com/","en-US,en;q=0.9","67ebf5f66613712faf39ec94","686d226cabeef709c732f8e1","686e314adbbfb2a228bc63ea","67ebf5f66613712faf39ec94","2025-07-09T09:14:56.823Z","","","","","","","","","","","","","","","","","","","","","","","","","","","","","","","","","","","","","","","","","","","",""
"4256041","","","","instructions","1","4273936","0.0-1.0","186","1","2025-07-09 09:14:31","7701e855f2ef39aa3fd6c71abdc6918a","41.150.35.125","Mozilla/5.0 (Windows NT 10.0; Win64; x64) AppleWebKit/537.36 (KHTML, like Gecko) Chrome/134.0.0.0 Safari/537.36 OPR/119.0.0.0","WebKit","Opera","119.0.0.0","Windows","10.0","https://app.prolific.com/","en-US,en;q=0.9","67ebf5f66613712faf39ec94","686d226cabeef709c732f8e1","686e314adbbfb2a228bc63ea","67ebf5f66613712faf39ec94","","[{""page_index"":0,""viewing_time"":4254807},{""page_index"":1,""viewing_time"":1213}]","","","","","","","","","","","","","","","","","","","","","","","","","","","","","","","","","","","","","","","","","","",""
"6488","","","{""Q0"":"""",""Q1"":"""",""Q2"":"""",""Q3"":"""",""Q4"":"""",""Q5"":"""",""Q6"":""I agree""}","survey-multi-choice","2","4280469","0.0-2.0","186","1","2025-07-09 09:14:31","7701e855f2ef39aa3fd6c71abdc6918a","41.150.35.125","Mozilla/5.0 (Windows NT 10.0; Win64; x64) AppleWebKit/537.36 (KHTML, like Gecko) Chrome/134.0.0.0 Safari/537.36 OPR/119.0.0.0","WebKit","Opera","119.0.0.0","Windows","10.0","https://app.prolific.com/","en-US,en;q=0.9","67ebf5f66613712faf39ec94","686d226cabeef709c732f8e1","686e314adbbfb2a228bc63ea","67ebf5f66613712faf39ec94","","","[0,1,2,3,4,5,6]","true","","","","","","","","","","","","","","","","","","","","","","","","","","","","","","","","","","","","","","","","",""
"1769","","","","fullscreen","3","4283368","0.0-4.0","186","1","2025-07-09 09:14:31","7701e855f2ef39aa3fd6c71abdc6918a","41.150.35.125","Mozilla/5.0 (Windows NT 10.0; Win64; x64) AppleWebKit/537.36 (KHTML, like Gecko) Chrome/134.0.0.0 Safari/537.36 OPR/119.0.0.0","WebKit","Opera","119.0.0.0","Windows","10.0","https://app.prolific.com/","en-US,en;q=0.9","67ebf5f66613712faf39ec94","686d226cabeef709c732f8e1","686e314adbbfb2a228bc63ea","67ebf5f66613712faf39ec94","","","","","true","","","","","","","","","","","","","","","","","","","","","","","","","","","","","","","","","","","","","","","",""
"11083","1752056773423"," <p style='font-size:1.1em;line-height:1.25'>Thank you for completing the consent form and closing all other tabs.</p><p style='font-size:1.1em;line-height:1.25'>We will now invite you to fill in some demographic information and questionnaires, before starting the game.<br>This will take about 5 minutes.<br></p><p style='font-size:1.1em;line-height:1.25'>Press the <strong>Next</strong> button to continue.</p>","0","custom-html-button-response","4","4294456","0.0-5.0","186","1","2025-07-09 09:14:31","7701e855f2ef39aa3fd6c71abdc6918a","41.150.35.125","Mozilla/5.0 (Windows NT 10.0; Win64; x64) AppleWebKit/537.36 (KHTML, like Gecko) Chrome/134.0.0.0 Safari/537.36 OPR/119.0.0.0","WebKit","Opera","119.0.0.0","Windows","10.0","https://app.prolific.com/","en-US,en;q=0.9","67ebf5f66613712faf39ec94","686d226cabeef709c732f8e1","686e314adbbfb2a228bc63ea","67ebf5f66613712faf39ec94","2025-07-09T10:26:13.425Z","","","","","","","","","","","","","","","","","","","","","","","","","","","","","","","","","","","","","","","","","","","",""
"7833","","","{""age"":""22""}","survey-text","5","4302407","0.0-6.0-0.0","186","1","2025-07-09 09:14:31","7701e855f2ef39aa3fd6c71abdc6918a","41.150.35.125","Mozilla/5.0 (Windows NT 10.0; Win64; x64) AppleWebKit/537.36 (KHTML, like Gecko) Chrome/134.0.0.0 Safari/537.36 OPR/119.0.0.0","WebKit","Opera","119.0.0.0","Windows","10.0","https://app.prolific.com/","en-US,en;q=0.9","67ebf5f66613712faf39ec94","686d226cabeef709c732f8e1","686e314adbbfb2a228bc63ea","67ebf5f66613712faf39ec94","","","","","","0","demographics","","","","","","","","","","","","","","","","","","","","","","","","","","","","","","","","","","","","","",""
"6240","","","{""gender_identity"":""female/woman""}","survey-multi-choice","6","4308651","0.0-6.0-1.0","186","1","2025-07-09 09:14:31","7701e855f2ef39aa3fd6c71abdc6918a","41.150.35.125","Mozilla/5.0 (Windows NT 10.0; Win64; x64) AppleWebKit/537.36 (KHTML, like Gecko) Chrome/134.0.0.0 Safari/537.36 OPR/119.0.0.0","WebKit","Opera","119.0.0.0","Windows","10.0","https://app.prolific.com/","en-US,en;q=0.9","67ebf5f66613712faf39ec94","686d226cabeef709c732f8e1","686e314adbbfb2a228bc63ea","67ebf5f66613712faf39ec94","","","[0]","","","1","demographics","","","","","","","","","","","","","","","","","","","","","","","","","","","","","","","","","","","","","",""
"2466","","","{""assigned_sex"":""female""}","survey-multi-choice","7","4311158","0.0-6.0-2.0","186","1","2025-07-09 09:14:31","7701e855f2ef39aa3fd6c71abdc6918a","41.150.35.125","Mozilla/5.0 (Windows NT 10.0; Win64; x64) AppleWebKit/537.36 (KHTML, like Gecko) Chrome/134.0.0.0 Safari/537.36 OPR/119.0.0.0","WebKit","Opera","119.0.0.0","Windows","10.0","https://app.prolific.com/","en-US,en;q=0.9","67ebf5f66613712faf39ec94","686d226cabeef709c732f8e1","686e314adbbfb2a228bc63ea","67ebf5f66613712faf39ec94","","","[0]","","","2","demographics","","","","","","","","","","","","","","","","","","","","","","","","","","","","","","","","","","","","","",""
"3042","","","{""menstrual_cycle"":""Yes""}","survey-multi-choice","8","4314204","0.0-6.0-3.0","186","1","2025-07-09 09:14:31","7701e855f2ef39aa3fd6c71abdc6918a","41.150.35.125","Mozilla/5.0 (Windows NT 10.0; Win64; x64) AppleWebKit/537.36 (KHTML, like Gecko) Chrome/134.0.0.0 Safari/537.36 OPR/119.0.0.0","WebKit","Opera","119.0.0.0","Windows","10.0","https://app.prolific.com/","en-US,en;q=0.9","67ebf5f66613712faf39ec94","686d226cabeef709c732f8e1","686e314adbbfb2a228bc63ea","67ebf5f66613712faf39ec94","","","[0]","","","4","demographics","","","","","","","","","","","","","","","","","","","","","","","","","","","","","","","","","","","","","",""
"9914","","","{""education"":""Bachelor's Degree (e.g., BA)""}","survey-multi-choice","9","4324123","0.0-6.0-4.0","186","1","2025-07-09 09:14:31","7701e855f2ef39aa3fd6c71abdc6918a","41.150.35.125","Mozilla/5.0 (Windows NT 10.0; Win64; x64) AppleWebKit/537.36 (KHTML, like Gecko) Chrome/134.0.0.0 Safari/537.36 OPR/119.0.0.0","WebKit","Opera","119.0.0.0","Windows","10.0","https://app.prolific.com/","en-US,en;q=0.9","67ebf5f66613712faf39ec94","686d226cabeef709c732f8e1","686e314adbbfb2a228bc63ea","67ebf5f66613712faf39ec94","","","[0]","","","5","demographics","","","","","","","","","","","","","","","","","","","","","","","","","","","","","","","","","","","","","",""
"2058","","","{""education"":""Bachelor's Degree (e.g., BA)""}","survey-multi-choice","10","4326186","0.0-6.0-5.0","186","1","2025-07-09 09:14:31","7701e855f2ef39aa3fd6c71abdc6918a","41.150.35.125","Mozilla/5.0 (Windows NT 10.0; Win64; x64) AppleWebKit/537.36 (KHTML, like Gecko) Chrome/134.0.0.0 Safari/537.36 OPR/119.0.0.0","WebKit","Opera","119.0.0.0","Windows","10.0","https://app.prolific.com/","en-US,en;q=0.9","67ebf5f66613712faf39ec94","686d226cabeef709c732f8e1","686e314adbbfb2a228bc63ea","67ebf5f66613712faf39ec94","2025-07-09T10:26:45.156Z","","[0]","","","6","demographics","","","","","","","","","","","","","","","","","","","","","","","","","","","","","","","","","","","","","",""
"15236","","","{""mental_health_condition"":""no"",""mental_health_treatment"":""no"",""psychiatric_medication"":""no""}","survey-text","11","4341455","0.0-7.0-0.0","186","1","2025-07-09 09:14:31","7701e855f2ef39aa3fd6c71abdc6918a","41.150.35.125","Mozilla/5.0 (Windows NT 10.0; Win64; x64) AppleWebKit/537.36 (KHTML, like Gecko) Chrome/134.0.0.0 Safari/537.36 OPR/119.0.0.0","WebKit","Opera","119.0.0.0","Windows","10.0","https://app.prolific.com/","en-US,en;q=0.9","67ebf5f66613712faf39ec94","686d226cabeef709c732f8e1","686e314adbbfb2a228bc63ea","67ebf5f66613712faf39ec94","2025-07-09T10:27:00.424Z","","","","","1","mental_health","","","","","","","","","","","","","","","","","","","","","","","","","","","","","","","","","","","","","",""
"7998","","","{""depression_history"":[""Yes""]}","survey-multi-select","12","4349485","0.0-7.0-1.0","186","1","2025-07-09 09:14:31","7701e855f2ef39aa3fd6c71abdc6918a","41.150.35.125","Mozilla/5.0 (Windows NT 10.0; Win64; x64) AppleWebKit/537.36 (KHTML, like Gecko) Chrome/134.0.0.0 Safari/537.36 OPR/119.0.0.0","WebKit","Opera","119.0.0.0","Windows","10.0","https://app.prolific.com/","en-US,en;q=0.9","67ebf5f66613712faf39ec94","686d226cabeef709c732f8e1","686e314adbbfb2a228bc63ea","67ebf5f66613712faf39ec94","","","[0]","","","","mental_health","","","","","","","","","","","","","","","","","","","","","","","","","","","","","","","","","","","","","",""
"9767","","","{""depression_episodes"":""1-2"",""depression_recent"":""Within the past year""}","survey-multi-choice","13","4359256","0.0-7.0-2.0-0.0","186","1","2025-07-09 09:14:31","7701e855f2ef39aa3fd6c71abdc6918a","41.150.35.125","Mozilla/5.0 (Windows NT 10.0; Win64; x64) AppleWebKit/537.36 (KHTML, like Gecko) Chrome/134.0.0.0 Safari/537.36 OPR/119.0.0.0","WebKit","Opera","119.0.0.0","Windows","10.0","https://app.prolific.com/","en-US,en;q=0.9","67ebf5f66613712faf39ec94","686d226cabeef709c732f8e1","686e314adbbfb2a228bc63ea","67ebf5f66613712faf39ec94","2025-07-09T10:27:18.225Z","","[0,1]","","","3","mental_health","","","","","","","","","","","","","","","","","","","","","","","","","","","","","","","","","","","","","",""
"46466.699999999255","","","","survey-template","14","4405762","0.0-7.0-3.0","186","1","2025-07-09 09:14:31","7701e855f2ef39aa3fd6c71abdc6918a","41.150.35.125","Mozilla/5.0 (Windows NT 10.0; Win64; x64) AppleWebKit/537.36 (KHTML, like Gecko) Chrome/134.0.0.0 Safari/537.36 OPR/119.0.0.0","WebKit","Opera","119.0.0.0","Windows","10.0","https://app.prolific.com/","en-US,en;q=0.9","67ebf5f66613712faf39ec94","686d226cabeef709c732f8e1","686e314adbbfb2a228bc63ea","67ebf5f66613712faf39ec94","2025-07-09T10:28:04.731Z","","","","","","ius","{""Q01"":""3"",""Q02"":""3"",""Q03"":""2"",""Q04"":""3"",""Q05"":""3"",""Q06"":""1"",""Q07"":""2"",""Q08"":""0"",""Q09"":""3"",""Q10"":""2"",""Q11"":""1"",""Q12"":""4"",""Q13"":""2""}","[0,1,2,3,4,5,6,7,8,9,10,11,12]","[""Q01"",""Q02"",""Q03"",""Q04"",""Q05"",""Q06"",""Q07"",""Q08"",""Q09"",""Q10"",""Q11"",""Q12"",""Q13""]","[6273.5999999996275,8640.599999999627,10614.900000000373,12669.900000000373,15170.299999998882,17883.599999999627,26536.599999999627,28748.699999999255,33620.699999999255,34856.199999999255,37022.90000000037,40408.90000000037,45400.5]","[]","[6273.5999999996275,8640.599999999627,10614.900000000373,12669.900000000373,15170.299999998882,17883.599999999627,26536.599999999627,28748.699999999255,31861.099999999627,33620.699999999255,34856.199999999255,37022.90000000037,39027.199999999255,40408.90000000037,45400.5,46460.09999999963]","0.38461538461538464","0.4166666666666667","0","","","","","","","","","","","","","","","","","","","","","","","","","","","","",""
"1708","1752056886441","<p style='font-size:1.1em;line-height:1.25'>In the following, we will ask you a few questions relating to your experiences over the past month.<br></p><p style='font-size:1.1em;line-height:1.25'>Press the <strong>Next</strong> button to continue.</p>","0","custom-html-button-response","15","4407473","0.0-7.0-4.0","186","1","2025-07-09 09:14:31","7701e855f2ef39aa3fd6c71abdc6918a","41.150.35.125","Mozilla/5.0 (Windows NT 10.0; Win64; x64) AppleWebKit/537.36 (KHTML, like Gecko) Chrome/134.0.0.0 Safari/537.36 OPR/119.0.0.0","WebKit","Opera","119.0.0.0","Windows","10.0","https://app.prolific.com/","en-US,en;q=0.9","67ebf5f66613712faf39ec94","686d226cabeef709c732f8e1","686e314adbbfb2a228bc63ea","67ebf5f66613712faf39ec94","2025-07-09T10:28:06.442Z","","","","","","","","","","","","","","","","","","","","","","","","","","","","","","","","","","","","","","","","","","","",""
"35867.199999999255","","","","survey-template","16","4443346","0.0-7.0-5.0","186","1","2025-07-09 09:14:31","7701e855f2ef39aa3fd6c71abdc6918a","41.150.35.125","Mozilla/5.0 (Windows NT 10.0; Win64; x64) AppleWebKit/537.36 (KHTML, like Gecko) Chrome/134.0.0.0 Safari/537.36 OPR/119.0.0.0","WebKit","Opera","119.0.0.0","Windows","10.0","https://app.prolific.com/","en-US,en;q=0.9","67ebf5f66613712faf39ec94","686d226cabeef709c732f8e1","686e314adbbfb2a228bc63ea","67ebf5f66613712faf39ec94","2025-07-09T10:28:42.315Z","","","","","","pss","{""Q01"":""3"",""Q02"":""2"",""Q03"":""2"",""Q04"":""1"",""Q05"":""1"",""Q06"":""3"",""Q07"":""2"",""Q08"":""1"",""Q09"":""2"",""Q10"":""2""}","[0,1,2,3,4,5,6,7,8,9]","[""Q01"",""Q02"",""Q03"",""Q04"",""Q05"",""Q06"",""Q07"",""Q08"",""Q09"",""Q10""]","[4175.300000000745,6045.9000000003725,9848.099999999627,12568.099999999627,14350.199999999255,17004.699999999255,19290.599999999627,25323.5,28341.099999999627,34959.5]","[]","[0.30000000074505806,4175.300000000745,6045.9000000003725,9848.099999999627,12568.099999999627,14350.199999999255,17004.699999999255,19290.599999999627,25323.5,28341.099999999627,34959.5,35861.59999999963]","0.5","0.5555555555555556","0","","","","","","","","","","","","","","","","","","","","","","","","","","","","",""
"1648","1752056923969","<p style='font-size:1.1em;line-height:1.25'>Thank you for your answers! Now we will ask you a few more questions relating to your feelings in the last 24 hours.<br></p><p style='font-size:1.1em;line-height:1.25'>Press the <strong>Next</strong> button to continue.</p>","0","custom-html-button-response","17","4445001","0.0-7.0-6.0","186","1","2025-07-09 09:14:31","7701e855f2ef39aa3fd6c71abdc6918a","41.150.35.125","Mozilla/5.0 (Windows NT 10.0; Win64; x64) AppleWebKit/537.36 (KHTML, like Gecko) Chrome/134.0.0.0 Safari/537.36 OPR/119.0.0.0","WebKit","Opera","119.0.0.0","Windows","10.0","https://app.prolific.com/","en-US,en;q=0.9","67ebf5f66613712faf39ec94","686d226cabeef709c732f8e1","686e314adbbfb2a228bc63ea","67ebf5f66613712faf39ec94","2025-07-09T10:28:43.970Z","","","","","","","","","","","","","","","","","","","","","","","","","","","","","","","","","","","","","","","","","","","",""
"57245.699999999255","","","","survey-template","18","4502252","0.0-7.0-7.0","186","1","2025-07-09 09:14:31","7701e855f2ef39aa3fd6c71abdc6918a","41.150.35.125","Mozilla/5.0 (Windows NT 10.0; Win64; x64) AppleWebKit/537.36 (KHTML, like Gecko) Chrome/134.0.0.0 Safari/537.36 OPR/119.0.0.0","WebKit","Opera","119.0.0.0","Windows","10.0","https://app.prolific.com/","en-US,en;q=0.9","67ebf5f66613712faf39ec94","686d226cabeef709c732f8e1","686e314adbbfb2a228bc63ea","67ebf5f66613712faf39ec94","2025-07-09T10:29:41.221Z","","","","","","drsp","{""Q01"":""1"",""Q02"":""0"",""Q03"":""0"",""Q04"":""1"",""Q05"":""0"",""Q06"":""0"",""Q07"":""0"",""Q08"":""0"",""Q09"":""1"",""Q10"":""1"",""Q11"":""1"",""Q12"":""0"",""Q13"":""0"",""Q14"":""0"",""Q15"":""0"",""Q16"":""0"",""Q17"":""0"",""Q18"":""0"",""Q19"":""1"",""Q20"":""1"",""Q21"":""0""}","[0,1,2,3,4,5,6,7,8,9,10,11,12,13,14,15,16,17,18,19,20]","[""Q01"",""Q02"",""Q03"",""Q04"",""Q05"",""Q06"",""Q04"",""Q07"",""Q08"",""Q09"",""Q10"",""Q11"",""Q13"",""Q12"",""Q14"",""Q15"",""Q16"",""Q17"",""Q18"",""Q19"",""Q19"",""Q20"",""Q20"",""Q21""]","[7733,9749.699999999255,10917.799999998882,11984.199999999255,14483,15656.299999998882,20108.699999999255,21958.299999998882,22999.699999999255,24663.199999999255,30260.099999999627,31724.199999999255,34668.59999999963,35554.29999999888,36892.29999999888,38541.199999999255,39901.59999999963,42369.79999999888,43488.59999999963,48271.29999999888,50164.199999999255,51672.29999999888,52849.199999999255,55733.09999999963]","[]","[0.7999999988824129,7733,8774.199999999255,9749.699999999255,10917.799999998882,11984.199999999255,14483,15656.299999998882,20108.699999999255,21958.299999998882,22999.699999999255,24663.199999999255,30260.099999999627,31724.199999999255,33381.79999999888,34668.59999999963,35554.29999999888,36892.29999999888,38541.199999999255,39901.59999999963,42369.79999999888,43488.59999999963,48271.29999999888,50164.199999999255,51672.29999999888,52849.199999999255,54913.40000000037,55733.09999999963,57240.699999999255]","0.6666666666666666","0.35","0","","","","","","","","","","","","","","","","","","","","","","","","","","","","",""
"12995","","","","survey-template","19","4515251","0.0-7.0-8.0","186","1","2025-07-09 09:14:31","7701e855f2ef39aa3fd6c71abdc6918a","41.150.35.125","Mozilla/5.0 (Windows NT 10.0; Win64; x64) AppleWebKit/537.36 (KHTML, like Gecko) Chrome/134.0.0.0 Safari/537.36 OPR/119.0.0.0","WebKit","Opera","119.0.0.0","Windows","10.0","https://app.prolific.com/","en-US,en;q=0.9","67ebf5f66613712faf39ec94","686d226cabeef709c732f8e1","686e314adbbfb2a228bc63ea","67ebf5f66613712faf39ec94","2025-07-09T10:29:54.220Z","","","","","","stress","{""Q01"":""1"",""Q02"":""1"",""Q03"":""1""}","[0,1,2]","[""Q01"",""Q02"",""Q03""]","[3206,6659.0999999996275,11102.699999999255]","[]","[3206,6659.0999999996275,9565,11102.699999999255,12989.400000000373]","0.6666666666666666","0","0","","","","","","","","","","","","","","","","","","","","","","","","","","","","",""
"10688","","","","instructions","20","4525943","0.0-8.0-0.0","186","1","2025-07-09 09:14:31","7701e855f2ef39aa3fd6c71abdc6918a","41.150.35.125","Mozilla/5.0 (Windows NT 10.0; Win64; x64) AppleWebKit/537.36 (KHTML, like Gecko) Chrome/134.0.0.0 Safari/537.36 OPR/119.0.0.0","WebKit","Opera","119.0.0.0","Windows","10.0","https://app.prolific.com/","en-US,en;q=0.9","67ebf5f66613712faf39ec94","686d226cabeef709c732f8e1","686e314adbbfb2a228bc63ea","67ebf5f66613712faf39ec94","","[{""page_index"":0,""viewing_time"":3560},{""page_index"":1,""viewing_time"":2396},{""page_index"":2,""viewing_time"":2720},{""page_index"":3,""viewing_time"":2012}]","","","","","","","","","","","","","","","","","","","","","","","","","","","","","","","","","","","","","","","","","","",""
"","","","","ctl-task-cpt","21","4550194","0.0-8.0-1.0","186","1","2025-07-09 09:14:31","7701e855f2ef39aa3fd6c71abdc6918a","41.150.35.125","Mozilla/5.0 (Windows NT 10.0; Win64; x64) AppleWebKit/537.36 (KHTML, like Gecko) Chrome/134.0.0.0 Safari/537.36 OPR/119.0.0.0","WebKit","Opera","119.0.0.0","Windows","10.0","https://app.prolific.com/","en-US,en;q=0.9","67ebf5f66613712faf39ec94","686d226cabeef709c732f8e1","686e314adbbfb2a228bc63ea","67ebf5f66613712faf39ec94","","","","","","","","","","","","","","","","","win-only","3","g1:SW,g2:NE","1","0","1","4535495","2576.9","6578.5","21090.4","2","4","4","6","1","2","2","2","0","0.015151515151515152","2245.6","4000","1720","[""down"",""left""]","{""num_key_presses"":4,""num_perfect"":4,""num_errors"":0,""num_randdir"":0,""num_randdir_good_moves"":0,""num_whilered"":0,""num_whileblue"":0,""num_blue"":1,""num_good_moves"":4}","[297.22232142857143,297.12857142857143,19.3,297.22232142857143,297.12857142857143,105,297.22232142857143,297.12857142857143,205.2,297.22232142857143,297.12857142857143,311.1,297.22232142857143,297.12857142857143,415.6,297.22232142857143,297.12857142857143,519.9,297.22232142857143,297.12857142857143,624.3,297.22232142857143,297.12857142857143,724.9,297.22232142857143,297.12857142857143,829.9,297.22232142857143,297.12857142857143,934.5,297.22232142857143,297.12857142857143,1035,297.22232142857143,297.12857142857143,1135.1,297.22232142857143,297.12857142857143,1240.1,295.22232142857143,297.12857142857143,1347.1,232.22232142857143,364.12857142857143,1449.5,131.22232142857143,449.12857142857143,1555.7,84.22232142857143,492.12857142857143,1655.7,62.222321428571426,560.1285714285714,1756.2,57.222321428571426,569.1285714285714,1859,54.222321428571426,569.1285714285714,1962.2,54.222321428571426,569.1285714285714,2113.2,54.222321428571426,569.1285714285714,2215.5,54.222321428571426,569.1285714285714,2320.5,54.222321428571426,569.1285714285714,2425.2,54.222321428571426,569.1285714285714,2530,54.222321428571426,569.1285714285714,2635.3,54.222321428571426,569.1285714285714,2735.8,54.222321428571426,569.1285714285714,2838.8,54.222321428571426,569.1285714285714,2939.1,54.222321428571426,569.1285714285714,3039.5,54.222321428571426,569.1285714285714,3145.8,54.222321428571426,569.1285714285714,3249.7,54.222321428571426,569.1285714285714,3349.7,54.222321428571426,569.1285714285714,3450,54.222321428571426,569.1285714285714,3554.6,54.222321428571426,569.1285714285714,3654.9,54.222321428571426,569.1285714285714,3755.5,54.222321428571426,569.1285714285714,3860.7,54.222321428571426,569.1285714285714,3966.3]","[1704.2,1704.3,1000,0,704.3,""smooth"",""down"",""down"",""good_move"",5038.9,3333.2,2798.3,1705.7,534.9,""smooth"",""down"",""down"",""good_move"",8253.5,3213.4,2599.5,5040.2,613.8,""smooth"",""left"",""left"",""good_move"",14409.8,6154.9,2777.3,11119.3,513.3,""smooth"",""left"",""left"",""good_move""]","",""
"4114","","","","instructions","22","4554309","0.0-8.0-2.0","186","1","2025-07-09 09:14:31","7701e855f2ef39aa3fd6c71abdc6918a","41.150.35.125","Mozilla/5.0 (Windows NT 10.0; Win64; x64) AppleWebKit/537.36 (KHTML, like Gecko) Chrome/134.0.0.0 Safari/537.36 OPR/119.0.0.0","WebKit","Opera","119.0.0.0","Windows","10.0","https://app.prolific.com/","en-US,en;q=0.9","67ebf5f66613712faf39ec94","686d226cabeef709c732f8e1","686e314adbbfb2a228bc63ea","67ebf5f66613712faf39ec94","","[{""page_index"":0,""viewing_time"":4113}]","","","","","","","","","","","","","","","","","","","","","","","","","","","","","","","","","","","","","","","","","","",""
"","","","","ctl-task-cpt","23","4592355","0.0-8.0-3.0","186","1","2025-07-09 09:14:31","7701e855f2ef39aa3fd6c71abdc6918a","41.150.35.125","Mozilla/5.0 (Windows NT 10.0; Win64; x64) AppleWebKit/537.36 (KHTML, like Gecko) Chrome/134.0.0.0 Safari/537.36 OPR/119.0.0.0","WebKit","Opera","119.0.0.0","Windows","10.0","https://app.prolific.com/","en-US,en;q=0.9","67ebf5f66613712faf39ec94","686d226cabeef709c732f8e1","686e314adbbfb2a228bc63ea","67ebf5f66613712faf39ec94","","","","","","","","","","","","","","","","","win-only","3","g1:SW,g2:NE","0.35","0","3","4563705.5","2163.6","6167.6","35037.9","2","4","8","6","1","-2","-2","0","0","0","2254.8","4000","-2985","[""down"",""left""]","{""num_key_presses"":7,""num_perfect"":2,""num_errors"":0,""num_randdir"":5,""num_randdir_good_moves"":1,""num_whilered"":0,""num_whileblue"":0,""num_blue"":2,""num_good_moves"":3}","[296.22232142857143,295.12857142857143,11.3,296.22232142857143,295.12857142857143,103.3,296.22232142857143,295.12857142857143,203.8,296.22232142857143,295.12857142857143,307.2,296.22232142857143,295.12857142857143,408.4,296.22232142857143,295.12857142857143,509.9,296.22232142857143,295.12857142857143,614,296.22232142857143,295.12857142857143,718,296.22232142857143,295.12857142857143,822.5,296.22232142857143,295.12857142857143,928.4,296.22232142857143,295.12857142857143,1030.5,296.22232142857143,295.12857142857143,1131.1,296.22232142857143,295.12857142857143,1232.8,296.22232142857143,295.12857142857143,1337.4,279.22232142857143,298.12857142857143,1438.5,186.22232142857143,341.12857142857143,1538.7,103.22232142857143,395.12857142857143,1645.8,42.222321428571426,502.12857142857143,1752.5,41.222321428571426,507.12857142857143,1853.2,41.222321428571426,507.12857142857143,1958.5,41.222321428571426,507.12857142857143,2065.8,41.222321428571426,507.12857142857143,2167.6,41.222321428571426,507.12857142857143,2268.9,41.222321428571426,507.12857142857143,2372.9,41.222321428571426,507.12857142857143,2474,41.222321428571426,507.12857142857143,2573.9,41.222321428571426,507.12857142857143,2677.7,41.222321428571426,507.12857142857143,2780.5,41.222321428571426,507.12857142857143,2884.2,41.222321428571426,507.12857142857143,2987.7,41.222321428571426,507.12857142857143,3088.4,41.222321428571426,507.12857142857143,3193.7,41.222321428571426,507.12857142857143,3294.2,41.222321428571426,507.12857142857143,3395.6,41.222321428571426,507.12857142857143,3502.7,41.222321428571426,507.12857142857143,3605.3,41.222321428571426,507.12857142857143,3709.4,41.222321428571426,507.12857142857143,3816.2,41.222321428571426,507.12857142857143,3918.7]","[1626.4,1626.3,1000,0.1,626.3,""oops"",""down"",""down"",""good_move"",4234,2606.1,1973.1,1628,633,""smooth"",""left"",""left"",""good_move"",10822.7,6586.7,2380.4,7915.2,527.2,""oops"",""down"",""up"",""bad_move"",14023.6,3199.6,2535.2,10824,664.4,""oops"",""down"",""up"",""bad_move"",17019.3,2993.9,2473.8,14025.4,520.1,""oops"",""left"",""up"",""bad_move"",19674.1,2653.2,2149.5,17020.9,503.7,""oops"",""down"",""up"",""bad_move"",26008.1,6331.4,2816.7,22736,455.4,""smooth"",""left"",""left"",""good_move""]","",""
"8959","","","","instructions","24","4601316","0.0-8.0-4.0","186","1","2025-07-09 09:14:31","7701e855f2ef39aa3fd6c71abdc6918a","41.150.35.125","Mozilla/5.0 (Windows NT 10.0; Win64; x64) AppleWebKit/537.36 (KHTML, like Gecko) Chrome/134.0.0.0 Safari/537.36 OPR/119.0.0.0","WebKit","Opera","119.0.0.0","Windows","10.0","https://app.prolific.com/","en-US,en;q=0.9","67ebf5f66613712faf39ec94","686d226cabeef709c732f8e1","686e314adbbfb2a228bc63ea","67ebf5f66613712faf39ec94","","[{""page_index"":0,""viewing_time"":5143},{""page_index"":1,""viewing_time"":3816}]","","","","","","","","","","","","","","","","","","","","","","","","","","","","","","","","","","","","","","","","","","",""
"9128","","","{""green_ball"":[""Ball sometimes shakes and moves in a random direction""]}","survey-multi-select","25","4610448","0.0-8.0-5.0-0.0","186","1","2025-07-09 09:14:31","7701e855f2ef39aa3fd6c71abdc6918a","41.150.35.125","Mozilla/5.0 (Windows NT 10.0; Win64; x64) AppleWebKit/537.36 (KHTML, like Gecko) Chrome/134.0.0.0 Safari/537.36 OPR/119.0.0.0","WebKit","Opera","119.0.0.0","Windows","10.0","https://app.prolific.com/","en-US,en;q=0.9","67ebf5f66613712faf39ec94","686d226cabeef709c732f8e1","686e314adbbfb2a228bc63ea","67ebf5f66613712faf39ec94","","","[0]","","","","quiz","","","","","","","","","","","","","","","","","","","","","","","","","","","","","","","","","","","","","true",""
"1934","","<p align='center'><b>CORRECT!</b> Indeed, the green ball may sometimes shake and move in a random direction.</p>","0","html-button-response","26","4612435","0.0-8.0-5.0-1.0","186","1","2025-07-09 09:14:31","7701e855f2ef39aa3fd6c71abdc6918a","41.150.35.125","Mozilla/5.0 (Windows NT 10.0; Win64; x64) AppleWebKit/537.36 (KHTML, like Gecko) Chrome/134.0.0.0 Safari/537.36 OPR/119.0.0.0","WebKit","Opera","119.0.0.0","Windows","10.0","https://app.prolific.com/","en-US,en;q=0.9","67ebf5f66613712faf39ec94","686d226cabeef709c732f8e1","686e314adbbfb2a228bc63ea","67ebf5f66613712faf39ec94","","","","","","","","","","","","","","","","","","","","","","","","","","","","","","","","","","","","","","","","","","","","",""
"7479","","","{""yellow_ball"":[""Ball doesn‘t move and I get -1 penalty point""]}","survey-multi-select","27","4619917","0.0-8.0-6.0-0.0","186","1","2025-07-09 09:14:31","7701e855f2ef39aa3fd6c71abdc6918a","41.150.35.125","Mozilla/5.0 (Windows NT 10.0; Win64; x64) AppleWebKit/537.36 (KHTML, like Gecko) Chrome/134.0.0.0 Safari/537.36 OPR/119.0.0.0","WebKit","Opera","119.0.0.0","Windows","10.0","https://app.prolific.com/","en-US,en;q=0.9","67ebf5f66613712faf39ec94","686d226cabeef709c732f8e1","686e314adbbfb2a228bc63ea","67ebf5f66613712faf39ec94","","","[0]","","","","quiz","","","","","","","","","","","","","","","","","","","","","","","","","","","","","","","","","","","","","true",""
"1600","","<p align='center'><b>CORRECT!</b> Indeed, the yellow ball never moves and you receive a penalty.</p>","0","html-button-response","28","4621520","0.0-8.0-6.0-1.0","186","1","2025-07-09 09:14:31","7701e855f2ef39aa3fd6c71abdc6918a","41.150.35.125","Mozilla/5.0 (Windows NT 10.0; Win64; x64) AppleWebKit/537.36 (KHTML, like Gecko) Chrome/134.0.0.0 Safari/537.36 OPR/119.0.0.0","WebKit","Opera","119.0.0.0","Windows","10.0","https://app.prolific.com/","en-US,en;q=0.9","67ebf5f66613712faf39ec94","686d226cabeef709c732f8e1","686e314adbbfb2a228bc63ea","67ebf5f66613712faf39ec94","","","","","","","","","","","","","","","","","","","","","","","","","","","","","","","","","","","","","","","","","","","","",""
"14517","","","{""blue_ball"":[""Ball always shakes and moves in a random direction""]}","survey-multi-select","29","4636040","0.0-8.0-7.0-0.0","186","1","2025-07-09 09:14:31","7701e855f2ef39aa3fd6c71abdc6918a","41.150.35.125","Mozilla/5.0 (Windows NT 10.0; Win64; x64) AppleWebKit/537.36 (KHTML, like Gecko) Chrome/134.0.0.0 Safari/537.36 OPR/119.0.0.0","WebKit","Opera","119.0.0.0","Windows","10.0","https://app.prolific.com/","en-US,en;q=0.9","67ebf5f66613712faf39ec94","686d226cabeef709c732f8e1","686e314adbbfb2a228bc63ea","67ebf5f66613712faf39ec94","","","[0]","","","","quiz","","","","","","","","","","","","","","","","","","","","","","","","","","","","","","","","","","","","","true",""
"1710","","<p align='center'><b>CORRECT!</b> Indeed, the blue ball always shakes and moves in a random direction. Also there is a penalty of -1 point.</p>","0","html-button-response","30","4637754","0.0-8.0-7.0-1.0","186","1","2025-07-09 09:14:31","7701e855f2ef39aa3fd6c71abdc6918a","41.150.35.125","Mozilla/5.0 (Windows NT 10.0; Win64; x64) AppleWebKit/537.36 (KHTML, like Gecko) Chrome/134.0.0.0 Safari/537.36 OPR/119.0.0.0","WebKit","Opera","119.0.0.0","Windows","10.0","https://app.prolific.com/","en-US,en;q=0.9","67ebf5f66613712faf39ec94","686d226cabeef709c732f8e1","686e314adbbfb2a228bc63ea","67ebf5f66613712faf39ec94","","","","","","","","","","","","","","","","","","","","","","","","","","","","","","","","","","","","","","","","","","","","",""
"3500","","","{""bonus"":[""When I reach 50% of points""]}","survey-multi-select","31","4641257","0.0-8.0-8.0-0.0","186","1","2025-07-09 09:14:31","7701e855f2ef39aa3fd6c71abdc6918a","41.150.35.125","Mozilla/5.0 (Windows NT 10.0; Win64; x64) AppleWebKit/537.36 (KHTML, like Gecko) Chrome/134.0.0.0 Safari/537.36 OPR/119.0.0.0","WebKit","Opera","119.0.0.0","Windows","10.0","https://app.prolific.com/","en-US,en;q=0.9","67ebf5f66613712faf39ec94","686d226cabeef709c732f8e1","686e314adbbfb2a228bc63ea","67ebf5f66613712faf39ec94","","","[0]","","","","quiz","","","","","","","","","","","","","","","","","","","","","","","","","","","","","","","","","","","","","true",""
"1453","","<p align='center'><b>CORRECT!</b> Indeed, you receive 2 pounds extra when you reach 50% of points.</p>","0","html-button-response","32","4642713","0.0-8.0-8.0-1.0","186","1","2025-07-09 09:14:31","7701e855f2ef39aa3fd6c71abdc6918a","41.150.35.125","Mozilla/5.0 (Windows NT 10.0; Win64; x64) AppleWebKit/537.36 (KHTML, like Gecko) Chrome/134.0.0.0 Safari/537.36 OPR/119.0.0.0","WebKit","Opera","119.0.0.0","Windows","10.0","https://app.prolific.com/","en-US,en;q=0.9","67ebf5f66613712faf39ec94","686d226cabeef709c732f8e1","686e314adbbfb2a228bc63ea","67ebf5f66613712faf39ec94","","","","","","","","","","","","","","","","","","","","","","","","","","","","","","","","","","","","","","","","","","","","",""
"4194","","","","instructions","33","4646908","0.0-8.0-9.0","186","1","2025-07-09 09:14:31","7701e855f2ef39aa3fd6c71abdc6918a","41.150.35.125","Mozilla/5.0 (Windows NT 10.0; Win64; x64) AppleWebKit/537.36 (KHTML, like Gecko) Chrome/134.0.0.0 Safari/537.36 OPR/119.0.0.0","WebKit","Opera","119.0.0.0","Windows","10.0","https://app.prolific.com/","en-US,en;q=0.9","67ebf5f66613712faf39ec94","686d226cabeef709c732f8e1","686e314adbbfb2a228bc63ea","67ebf5f66613712faf39ec94","","[{""page_index"":0,""viewing_time"":4191}]","","","","","","","","","","","","","","","","","","","","","","","","","","","","","","","","","","","","","","","","","","",""
"3393","","<p>Before you start with this game please answer the following three questions yourself. </p>
  <p>Through this game, we measure several aspects of your cognitive performance, such as reaction times, multi-tasking capabilities </p>
  <p>and the ability to assess the situation you are in.</p>
  <p></p>
  <p><b>How good do you usually are in such tasks?</b></p>","100","html-slider-response","34","4650386","0.0-9.0-0.0","186","1","2025-07-09 09:14:31","7701e855f2ef39aa3fd6c71abdc6918a","41.150.35.125","Mozilla/5.0 (Windows NT 10.0; Win64; x64) AppleWebKit/537.36 (KHTML, like Gecko) Chrome/134.0.0.0 Safari/537.36 OPR/119.0.0.0","WebKit","Opera","119.0.0.0","Windows","10.0","https://app.prolific.com/","en-US,en;q=0.9","67ebf5f66613712faf39ec94","686d226cabeef709c732f8e1","686e314adbbfb2a228bc63ea","67ebf5f66613712faf39ec94","2025-07-09T10:32:09.356Z","","","","","","PreSkillQ","","","","","","","","","","","","","","","","","","","","","","","","","","","","","","","","","","","","","","50"
"3848","","<div style=""width:500px;"">
  <p>How well do you think you will perform in this task compared to other participants?</p>
  </div>","94","html-slider-response","35","4654238","0.0-9.0-1.0","186","1","2025-07-09 09:14:31","7701e855f2ef39aa3fd6c71abdc6918a","41.150.35.125","Mozilla/5.0 (Windows NT 10.0; Win64; x64) AppleWebKit/537.36 (KHTML, like Gecko) Chrome/134.0.0.0 Safari/537.36 OPR/119.0.0.0","WebKit","Opera","119.0.0.0","Windows","10.0","https://app.prolific.com/","en-US,en;q=0.9","67ebf5f66613712faf39ec94","686d226cabeef709c732f8e1","686e314adbbfb2a228bc63ea","67ebf5f66613712faf39ec94","2025-07-09T10:32:13.207Z","","","","","","PrePerfQ","","","","","","","","","","","","","","","","","","","","","","","","","","","","","","","","","","","","","","50"
"4136","","<div style=""width:500px;"">
  <p>What best describes how you currently feel?</p>
  </div>","100","html-slider-response","36","4658376","0.0-9.0-2.0","186","1","2025-07-09 09:14:31","7701e855f2ef39aa3fd6c71abdc6918a","41.150.35.125","Mozilla/5.0 (Windows NT 10.0; Win64; x64) AppleWebKit/537.36 (KHTML, like Gecko) Chrome/134.0.0.0 Safari/537.36 OPR/119.0.0.0","WebKit","Opera","119.0.0.0","Windows","10.0","https://app.prolific.com/","en-US,en;q=0.9","67ebf5f66613712faf39ec94","686d226cabeef709c732f8e1","686e314adbbfb2a228bc63ea","67ebf5f66613712faf39ec94","2025-07-09T10:32:17.345Z","","","","","","PreMotivationQ","","","","","","","","","","","","","","","","","","","","","","","","","","","","","","","","","","","","","","50"
"","","","","ctl-task-cpt","37","4688668","0.0-10.0-0.0","186","1","2025-07-09 09:14:31","7701e855f2ef39aa3fd6c71abdc6918a","41.150.35.125","Mozilla/5.0 (Windows NT 10.0; Win64; x64) AppleWebKit/537.36 (KHTML, like Gecko) Chrome/134.0.0.0 Safari/537.36 OPR/119.0.0.0","WebKit","Opera","119.0.0.0","Windows","10.0","https://app.prolific.com/","en-US,en;q=0.9","67ebf5f66613712faf39ec94","686d226cabeef709c732f8e1","686e314adbbfb2a228bc63ea","67ebf5f66613712faf39ec94","2025-07-09T10:32:47.637Z","","","","","","","","","","","","","","","","win-only","1","g1:NE,g2:SW","1","1","0","4667776.1","1517.8","6526.1","27278","1","4","8","6","1","-1","-2","0","0","0","2035.6","3000","-2840","[""up"",""right""]","{""num_key_presses"":4,""num_perfect"":3,""num_errors"":1,""num_randdir"":0,""num_randdir_good_moves"":0,""num_whilered"":0,""num_whileblue"":0,""num_blue"":2,""num_good_moves"":3}","[296.22232142857143,291.12857142857143,0.6,296.22232142857143,291.12857142857143,103.7,296.22232142857143,291.12857142857143,205.8,296.22232142857143,291.12857142857143,309.9,296.22232142857143,291.12857142857143,412.9,296.22232142857143,291.12857142857143,516.1,296.22232142857143,291.12857142857143,618.8,296.22232142857143,291.12857142857143,723.6,296.22232142857143,291.12857142857143,824.4,296.22232142857143,291.12857142857143,924.8,296.22232142857143,291.12857142857143,1028.7,296.22232142857143,291.12857142857143,1129.5,296.22232142857143,291.12857142857143,1236,296.22232142857143,291.12857142857143,1337.2,430.22232142857143,176.12857142857143,1440.7,507.22232142857143,85.12857142857143,1545.4,518.2223214285714,67.12857142857143,1650.8,523.2223214285714,59.128571428571426,1756.1,524.2223214285714,57.128571428571426,1856.2,524.2223214285714,57.128571428571426,1959.3,524.2223214285714,57.128571428571426,2065.9,524.2223214285714,57.128571428571426,2169.1,524.2223214285714,57.128571428571426,2269.7,524.2223214285714,57.128571428571426,2372.7,524.2223214285714,57.128571428571426,2474.3,524.2223214285714,57.128571428571426,2578.7,524.2223214285714,57.128571428571426,2686.1,524.2223214285714,57.128571428571426,2789.9,524.2223214285714,57.128571428571426,2895,524.2223214285714,57.128571428571426,3000.8,524.2223214285714,57.128571428571426,3103.9,524.2223214285714,57.128571428571426,3206.1,524.2223214285714,57.128571428571426,3308.2,524.2223214285714,57.128571428571426,3408.7,524.2223214285714,57.128571428571426,3509.1,524.2223214285714,57.128571428571426,3609.7,524.2223214285714,57.128571428571426,3713.7,524.2223214285714,57.128571428571426,3813.8,524.2223214285714,57.128571428571426,3923.4,524.2223214285714,57.128571428571426,4024.8,524.2223214285714,57.128571428571426,4129.2,524.2223214285714,57.128571428571426,4236.2,524.2223214285714,57.128571428571426,4336.5,524.2223214285714,57.128571428571426,4437.6,524.2223214285714,57.128571428571426,4538.7,524.2223214285714,57.128571428571426,4642,524.2223214285714,57.128571428571426,4744.5,524.2223214285714,57.128571428571426,4851.3,524.2223214285714,57.128571428571426,4956.6]","[868.1,868.1,1000,0,-131.9,""error"",""-"",""-"",""no_move"",8956.8,8087.8,2334.3,5178.1,1444.4,""smooth"",""up"",""up"",""good_move"",11423.8,2465.4,1368.1,8958.4,1097.3,""smooth"",""up"",""up"",""good_move"",17974,6547.8,3038,14090.8,845.2,""smooth"",""right"",""right"",""good_move""]","",""
"5985","","<div style=""width:500px;"">
  <p>What determined the result of this run?</p>
  </div>","68","html-slider-response","38","4694656","0.0-10.0-1.0","186","1","2025-07-09 09:14:31","7701e855f2ef39aa3fd6c71abdc6918a","41.150.35.125","Mozilla/5.0 (Windows NT 10.0; Win64; x64) AppleWebKit/537.36 (KHTML, like Gecko) Chrome/134.0.0.0 Safari/537.36 OPR/119.0.0.0","WebKit","Opera","119.0.0.0","Windows","10.0","https://app.prolific.com/","en-US,en;q=0.9","67ebf5f66613712faf39ec94","686d226cabeef709c732f8e1","686e314adbbfb2a228bc63ea","67ebf5f66613712faf39ec94","2025-07-09T10:32:53.626Z","","","","","","AttribQ","","","","","","","","","","","","","","","","","","","","","","","","","","","","","","","","","","","","","","50"
"3221","","<div style=""width:500px;"">
  <p>How much control did you have over the ball?</p>
  </div>","68","html-slider-response","39","4697881","0.0-10.0-2.0","186","1","2025-07-09 09:14:31","7701e855f2ef39aa3fd6c71abdc6918a","41.150.35.125","Mozilla/5.0 (Windows NT 10.0; Win64; x64) AppleWebKit/537.36 (KHTML, like Gecko) Chrome/134.0.0.0 Safari/537.36 OPR/119.0.0.0","WebKit","Opera","119.0.0.0","Windows","10.0","https://app.prolific.com/","en-US,en;q=0.9","67ebf5f66613712faf39ec94","686d226cabeef709c732f8e1","686e314adbbfb2a228bc63ea","67ebf5f66613712faf39ec94","2025-07-09T10:32:56.850Z","","","","","","ControlQ","","","","","","","","","","","","","","","","","","","","","","","","","","","","","","","","","","","","","","50"
"2738","","<div style=""width:500px;"">
  <p>How would you describe your current emotional state?</p>
  </div>","23","html-slider-response","40","4700621","0.0-10.0-3.0","186","1","2025-07-09 09:14:31","7701e855f2ef39aa3fd6c71abdc6918a","41.150.35.125","Mozilla/5.0 (Windows NT 10.0; Win64; x64) AppleWebKit/537.36 (KHTML, like Gecko) Chrome/134.0.0.0 Safari/537.36 OPR/119.0.0.0","WebKit","Opera","119.0.0.0","Windows","10.0","https://app.prolific.com/","en-US,en;q=0.9","67ebf5f66613712faf39ec94","686d226cabeef709c732f8e1","686e314adbbfb2a228bc63ea","67ebf5f66613712faf39ec94","2025-07-09T10:32:59.591Z","","","","","","StressQ","","","","","","","","","","","","","","","","","","","","","","","","","","","","","","","","","","","","","","50"
"3404","","<div style=""width:500px;"">
  <p>What best describes how you currently feel?</p>
  </div>","84","html-slider-response","41","4704029","0.0-10.0-4.0","186","1","2025-07-09 09:14:31","7701e855f2ef39aa3fd6c71abdc6918a","41.150.35.125","Mozilla/5.0 (Windows NT 10.0; Win64; x64) AppleWebKit/537.36 (KHTML, like Gecko) Chrome/134.0.0.0 Safari/537.36 OPR/119.0.0.0","WebKit","Opera","119.0.0.0","Windows","10.0","https://app.prolific.com/","en-US,en;q=0.9","67ebf5f66613712faf39ec94","686d226cabeef709c732f8e1","686e314adbbfb2a228bc63ea","67ebf5f66613712faf39ec94","2025-07-09T10:33:02.998Z","","","","","","MotivationQ","","","","","","","","","","","","","","","","","","","","","","","","","","","","","","","","","","","","","","50"
"","","","","ctl-task-cpt","42","4736121","0.0-10.0-0.1","186","1","2025-07-09 09:14:31","7701e855f2ef39aa3fd6c71abdc6918a","41.150.35.125","Mozilla/5.0 (Windows NT 10.0; Win64; x64) AppleWebKit/537.36 (KHTML, like Gecko) Chrome/134.0.0.0 Safari/537.36 OPR/119.0.0.0","WebKit","Opera","119.0.0.0","Windows","10.0","https://app.prolific.com/","en-US,en;q=0.9","67ebf5f66613712faf39ec94","686d226cabeef709c732f8e1","686e314adbbfb2a228bc63ea","67ebf5f66613712faf39ec94","2025-07-09T10:33:35.090Z","","","","","","","","","","","","","","","","win-only","0","g1:NW,g2:SE","0.9","2","0","4713429","4747.3","9757.5","29081","1","4","4","6","2","-4","-4","0","0","0","2040.5","3000","-2570","[""down"",""right""]","{""num_key_presses"":5,""num_perfect"":5,""num_errors"":0,""num_randdir"":0,""num_randdir_good_moves"":0,""num_whilered"":0,""num_whileblue"":0,""num_blue"":1,""num_good_moves"":5}","[298.22232142857143,289.12857142857143,2.1,298.22232142857143,289.12857142857143,104.4,298.22232142857143,289.12857142857143,205,298.22232142857143,289.12857142857143,310.5,298.22232142857143,289.12857142857143,413.7,298.22232142857143,289.12857142857143,515.5,298.22232142857143,289.12857142857143,618.9,298.22232142857143,289.12857142857143,733.8,298.22232142857143,289.12857142857143,834.9,298.22232142857143,289.12857142857143,944.4,298.22232142857143,289.12857142857143,1047.8,306.22232142857143,301.12857142857143,1152.3,416.22232142857143,433.12857142857143,1258.3,443.22232142857143,469.12857142857143,1360.4,519.2223214285714,549.1285714285714,1462.2,546.2223214285714,566.1285714285714,1565.1,548.2223214285714,566.1285714285714,1665.3,550.2223214285714,558.1285714285714,1767,550.2223214285714,557.1285714285714,1869.7,550.2223214285714,557.1285714285714,1984.1,550.2223214285714,557.1285714285714,2084.8,550.2223214285714,557.1285714285714,2185,550.2223214285714,557.1285714285714,2285.4,550.2223214285714,557.1285714285714,2401.3,550.2223214285714,557.1285714285714,2512.7,550.2223214285714,557.1285714285714,2614.7,550.2223214285714,557.1285714285714,2718.3,550.2223214285714,557.1285714285714,2823.4,550.2223214285714,557.1285714285714,2924.7,550.2223214285714,557.1285714285714,3033.5,550.2223214285714,557.1285714285714,3140.6,550.2223214285714,557.1285714285714,3242.5,547.2223214285714,550.1285714285714,3348.6,532.2223214285714,526.1285714285714,3449.9,503.22232142857143,455.12857142857143,3556.7,461.22232142857143,352.12857142857143,3684.9,461.22232142857143,352.12857142857143,3785,461.22232142857143,352.12857142857143,3890,461.22232142857143,352.12857142857143,3997.6,461.22232142857143,352.12857142857143,4100.1,461.22232142857143,352.12857142857143,4204.4,461.22232142857143,352.12857142857143,4308.8,461.22232142857143,352.12857142857143,4410.4,461.22232142857143,352.12857142857143,4520.3,461.22232142857143,352.12857142857143,4624.4,461.22232142857143,352.12857142857143,4727.3,461.22232142857143,352.12857142857143,4829.2,461.22232142857143,352.12857142857143,4934.5]","[5491.4,5491.4,2480.7,2009.8,1000.9,""smooth"",""down"",""down"",""good_move"",7995.2,2502,1780.1,5493.2,721.9,""smooth"",""right"",""right"",""good_move"",10827.9,2830,2172.2,7997.9,657.8,""smooth"",""right"",""right"",""good_move"",13933,3103.3,2566.1,10829.8,537.1,""smooth"",""right"",""right"",""good_move"",16096.5,2160.7,1674.3,13935.8,486.4,""smooth"",""down"",""down"",""good_move""]","",""
"3767","","<div style=""width:500px;"">
  <p>What determined the result of this run?</p>
  </div>","71","html-slider-response","43","4739891","0.0-10.0-1.1","186","1","2025-07-09 09:14:31","7701e855f2ef39aa3fd6c71abdc6918a","41.150.35.125","Mozilla/5.0 (Windows NT 10.0; Win64; x64) AppleWebKit/537.36 (KHTML, like Gecko) Chrome/134.0.0.0 Safari/537.36 OPR/119.0.0.0","WebKit","Opera","119.0.0.0","Windows","10.0","https://app.prolific.com/","en-US,en;q=0.9","67ebf5f66613712faf39ec94","686d226cabeef709c732f8e1","686e314adbbfb2a228bc63ea","67ebf5f66613712faf39ec94","2025-07-09T10:33:38.860Z","","","","","","AttribQ","","","","","","","","","","","","","","","","","","","","","","","","","","","","","","","","","","","","","","50"
"2318","","<div style=""width:500px;"">
  <p>How much control did you have over the ball?</p>
  </div>","77","html-slider-response","44","4742212","0.0-10.0-2.1","186","1","2025-07-09 09:14:31","7701e855f2ef39aa3fd6c71abdc6918a","41.150.35.125","Mozilla/5.0 (Windows NT 10.0; Win64; x64) AppleWebKit/537.36 (KHTML, like Gecko) Chrome/134.0.0.0 Safari/537.36 OPR/119.0.0.0","WebKit","Opera","119.0.0.0","Windows","10.0","https://app.prolific.com/","en-US,en;q=0.9","67ebf5f66613712faf39ec94","686d226cabeef709c732f8e1","686e314adbbfb2a228bc63ea","67ebf5f66613712faf39ec94","2025-07-09T10:33:41.181Z","","","","","","ControlQ","","","","","","","","","","","","","","","","","","","","","","","","","","","","","","","","","","","","","","50"
"2797","","<div style=""width:500px;"">
  <p>How would you describe your current emotional state?</p>
  </div>","22","html-slider-response","45","4745012","0.0-10.0-3.1","186","1","2025-07-09 09:14:31","7701e855f2ef39aa3fd6c71abdc6918a","41.150.35.125","Mozilla/5.0 (Windows NT 10.0; Win64; x64) AppleWebKit/537.36 (KHTML, like Gecko) Chrome/134.0.0.0 Safari/537.36 OPR/119.0.0.0","WebKit","Opera","119.0.0.0","Windows","10.0","https://app.prolific.com/","en-US,en;q=0.9","67ebf5f66613712faf39ec94","686d226cabeef709c732f8e1","686e314adbbfb2a228bc63ea","67ebf5f66613712faf39ec94","2025-07-09T10:33:43.981Z","","","","","","StressQ","","","","","","","","","","","","","","","","","","","","","","","","","","","","","","","","","","","","","","50"
"2245","","<div style=""width:500px;"">
  <p>What best describes how you currently feel?</p>
  </div>","77","html-slider-response","46","4747261","0.0-10.0-4.1","186","1","2025-07-09 09:14:31","7701e855f2ef39aa3fd6c71abdc6918a","41.150.35.125","Mozilla/5.0 (Windows NT 10.0; Win64; x64) AppleWebKit/537.36 (KHTML, like Gecko) Chrome/134.0.0.0 Safari/537.36 OPR/119.0.0.0","WebKit","Opera","119.0.0.0","Windows","10.0","https://app.prolific.com/","en-US,en;q=0.9","67ebf5f66613712faf39ec94","686d226cabeef709c732f8e1","686e314adbbfb2a228bc63ea","67ebf5f66613712faf39ec94","2025-07-09T10:33:46.230Z","","","","","","MotivationQ","","","","","","","","","","","","","","","","","","","","","","","","","","","","","","","","","","","","","","50"
"","","","","ctl-task-cpt","47","4773744","0.0-10.0-0.2","186","1","2025-07-09 09:14:31","7701e855f2ef39aa3fd6c71abdc6918a","41.150.35.125","Mozilla/5.0 (Windows NT 10.0; Win64; x64) AppleWebKit/537.36 (KHTML, like Gecko) Chrome/134.0.0.0 Safari/537.36 OPR/119.0.0.0","WebKit","Opera","119.0.0.0","Windows","10.0","https://app.prolific.com/","en-US,en;q=0.9","67ebf5f66613712faf39ec94","686d226cabeef709c732f8e1","686e314adbbfb2a228bc63ea","67ebf5f66613712faf39ec94","2025-07-09T10:34:12.713Z","","","","","","","","","","","","","","","","win-only","1","g1:NE,g2:SW","0.8","3","0","4756660","1376.4","6379.2","23460.6","1","4","4","6","1","1","1","1","0","0.007575757575757576","2357.4","3000","725","[""up"",""right""]","{""num_key_presses"":6,""num_perfect"":5,""num_errors"":0,""num_randdir"":1,""num_randdir_good_moves"":0,""num_whilered"":0,""num_whileblue"":0,""num_blue"":0,""num_good_moves"":5}","[302.22232142857143,294.12857142857143,0,302.22232142857143,294.12857142857143,104.3,302.22232142857143,294.12857142857143,206.5,302.22232142857143,294.12857142857143,306.8,302.22232142857143,294.12857142857143,410.1,302.22232142857143,294.12857142857143,514.9,302.22232142857143,294.12857142857143,630.4,302.22232142857143,294.12857142857143,741.8,302.22232142857143,294.12857142857143,846.5,302.22232142857143,294.12857142857143,960.8,302.22232142857143,294.12857142857143,1067.1,302.22232142857143,294.12857142857143,1171.1,302.22232142857143,294.12857142857143,1280.5,302.22232142857143,294.12857142857143,1383.9,302.22232142857143,294.12857142857143,1487.6,302.22232142857143,294.12857142857143,1597.3,325.22232142857143,259.12857142857143,1698.1,473.22232142857143,58.128571428571426,1803.4,482.22232142857143,52.128571428571426,1907.3,497.22232142857143,51.128571428571426,2020.8,525.2223214285714,54.128571428571426,2136.1,525.2223214285714,54.128571428571426,2263.8,525.2223214285714,54.128571428571426,2372.2,525.2223214285714,54.128571428571426,2482.4,525.2223214285714,54.128571428571426,2587.6,525.2223214285714,54.128571428571426,2694.8,525.2223214285714,54.128571428571426,2800.5,525.2223214285714,54.128571428571426,2907.7,525.2223214285714,54.128571428571426,3008.7,525.2223214285714,54.128571428571426,3110.2,525.2223214285714,54.128571428571426,3217.7,525.2223214285714,54.128571428571426,3321.2,525.2223214285714,54.128571428571426,3425.1,525.2223214285714,54.128571428571426,3532.4,525.2223214285714,54.128571428571426,3638.6,525.2223214285714,54.128571428571426,3740.8,525.2223214285714,54.128571428571426,3850.1,525.2223214285714,54.128571428571426,3961.7,525.2223214285714,54.128571428571426,4064.6,525.2223214285714,54.128571428571426,4167,525.2223214285714,54.128571428571426,4274.9,525.2223214285714,54.128571428571426,4375.5,525.2223214285714,54.128571428571426,4487.2,525.2223214285714,54.128571428571426,4589.6,525.2223214285714,54.128571428571426,4690.2,525.2223214285714,54.128571428571426,4800.5,525.2223214285714,54.128571428571426,4905]","[1801.8,1801.8,1000,0,801.8,""smooth"",""right"",""right"",""good_move"",4560.2,2755.6,2194.7,1804.6,560.9,""smooth"",""right"",""right"",""good_move"",7492.4,2930.9,2472.4,4561.7,458.3,""oops"",""up"",""left"",""bad_move"",10309.6,2814.4,2243.4,7495.2,571,""smooth"",""up"",""up"",""good_move"",13745.1,3433.4,2994.2,10311.7,439.2,""smooth"",""up"",""up"",""good_move"",16964.9,3217.8,2818.7,13747.1,399.1,""smooth"",""right"",""right"",""good_move""]","",""
"3694","","<div style=""width:500px;"">
  <p>What determined the result of this run?</p>
  </div>","81","html-slider-response","48","4777441","0.0-10.0-1.2","186","1","2025-07-09 09:14:31","7701e855f2ef39aa3fd6c71abdc6918a","41.150.35.125","Mozilla/5.0 (Windows NT 10.0; Win64; x64) AppleWebKit/537.36 (KHTML, like Gecko) Chrome/134.0.0.0 Safari/537.36 OPR/119.0.0.0","WebKit","Opera","119.0.0.0","Windows","10.0","https://app.prolific.com/","en-US,en;q=0.9","67ebf5f66613712faf39ec94","686d226cabeef709c732f8e1","686e314adbbfb2a228bc63ea","67ebf5f66613712faf39ec94","2025-07-09T10:34:16.410Z","","","","","","AttribQ","","","","","","","","","","","","","","","","","","","","","","","","","","","","","","","","","","","","","","50"
"2553","","<div style=""width:500px;"">
  <p>How much control did you have over the ball?</p>
  </div>","78","html-slider-response","49","4779998","0.0-10.0-2.2","186","1","2025-07-09 09:14:31","7701e855f2ef39aa3fd6c71abdc6918a","41.150.35.125","Mozilla/5.0 (Windows NT 10.0; Win64; x64) AppleWebKit/537.36 (KHTML, like Gecko) Chrome/134.0.0.0 Safari/537.36 OPR/119.0.0.0","WebKit","Opera","119.0.0.0","Windows","10.0","https://app.prolific.com/","en-US,en;q=0.9","67ebf5f66613712faf39ec94","686d226cabeef709c732f8e1","686e314adbbfb2a228bc63ea","67ebf5f66613712faf39ec94","2025-07-09T10:34:18.967Z","","","","","","ControlQ","","","","","","","","","","","","","","","","","","","","","","","","","","","","","","","","","","","","","","50"
"3240","","<div style=""width:500px;"">
  <p>How would you describe your current emotional state?</p>
  </div>","37","html-slider-response","50","4783242","0.0-10.0-3.2","186","1","2025-07-09 09:14:31","7701e855f2ef39aa3fd6c71abdc6918a","41.150.35.125","Mozilla/5.0 (Windows NT 10.0; Win64; x64) AppleWebKit/537.36 (KHTML, like Gecko) Chrome/134.0.0.0 Safari/537.36 OPR/119.0.0.0","WebKit","Opera","119.0.0.0","Windows","10.0","https://app.prolific.com/","en-US,en;q=0.9","67ebf5f66613712faf39ec94","686d226cabeef709c732f8e1","686e314adbbfb2a228bc63ea","67ebf5f66613712faf39ec94","2025-07-09T10:34:22.211Z","","","","","","StressQ","","","","","","","","","","","","","","","","","","","","","","","","","","","","","","","","","","","","","","50"
"2391","","<div style=""width:500px;"">
  <p>What best describes how you currently feel?</p>
  </div>","84","html-slider-response","51","4785637","0.0-10.0-4.2","186","1","2025-07-09 09:14:31","7701e855f2ef39aa3fd6c71abdc6918a","41.150.35.125","Mozilla/5.0 (Windows NT 10.0; Win64; x64) AppleWebKit/537.36 (KHTML, like Gecko) Chrome/134.0.0.0 Safari/537.36 OPR/119.0.0.0","WebKit","Opera","119.0.0.0","Windows","10.0","https://app.prolific.com/","en-US,en;q=0.9","67ebf5f66613712faf39ec94","686d226cabeef709c732f8e1","686e314adbbfb2a228bc63ea","67ebf5f66613712faf39ec94","2025-07-09T10:34:24.606Z","","","","","","MotivationQ","","","","","","","","","","","","","","","","","","","","","","","","","","","","","","","","","","","","","","50"
"","","","","ctl-task-cpt","52","4809362","0.0-10.0-0.3","186","1","2025-07-09 09:14:31","7701e855f2ef39aa3fd6c71abdc6918a","41.150.35.125","Mozilla/5.0 (Windows NT 10.0; Win64; x64) AppleWebKit/537.36 (KHTML, like Gecko) Chrome/134.0.0.0 Safari/537.36 OPR/119.0.0.0","WebKit","Opera","119.0.0.0","Windows","10.0","https://app.prolific.com/","en-US,en;q=0.9","67ebf5f66613712faf39ec94","686d226cabeef709c732f8e1","686e314adbbfb2a228bc63ea","67ebf5f66613712faf39ec94","2025-07-09T10:34:48.332Z","","","","","","","","","","","","","","","","win-only","2","g1:SE,g2:NW","0.7","4","0","4795036.7","1559.2","6564.6","20705.7","1","4","8","6","1","1","1","2","1","0.015151515151515152","1880.7","3000","1550","[""down"",""right""]","{""num_key_presses"":4,""num_perfect"":3,""num_errors"":0,""num_randdir"":1,""num_randdir_good_moves"":1,""num_whilered"":0,""num_whileblue"":0,""num_blue"":1,""num_good_moves"":4}","[294.22232142857143,297.12857142857143,1.1,294.22232142857143,297.12857142857143,100.7,294.22232142857143,297.12857142857143,204.6,294.22232142857143,297.12857142857143,304.8,294.22232142857143,297.12857142857143,406.5,294.22232142857143,297.12857142857143,521.3,294.22232142857143,297.12857142857143,621.4,294.22232142857143,297.12857142857143,731.5,294.22232142857143,297.12857142857143,833.3,294.22232142857143,297.12857142857143,940.5,294.22232142857143,297.12857142857143,1055.1,328.22232142857143,314.12857142857143,1156.8,493.22232142857143,455.12857142857143,1258.3,557.2223214285714,534.1285714285714,1363.9,560.2223214285714,538.1285714285714,1466.2,567.2223214285714,548.1285714285714,1573.5,568.2223214285714,550.1285714285714,1673.7,568.2223214285714,550.1285714285714,1779.6,568.2223214285714,550.1285714285714,1885.8,568.2223214285714,550.1285714285714,1987.5,568.2223214285714,550.1285714285714,2096.3,568.2223214285714,550.1285714285714,2198.7,568.2223214285714,550.1285714285714,2307.6,568.2223214285714,550.1285714285714,2413,568.2223214285714,550.1285714285714,2517.7,568.2223214285714,550.1285714285714,2625.5,568.2223214285714,550.1285714285714,2726,568.2223214285714,550.1285714285714,2833.1,568.2223214285714,550.1285714285714,2939.3,568.2223214285714,550.1285714285714,3042,568.2223214285714,550.1285714285714,3151.8,568.2223214285714,550.1285714285714,3255.2,568.2223214285714,550.1285714285714,3359.3,568.2223214285714,550.1285714285714,3473.7,568.2223214285714,550.1285714285714,3578,568.2223214285714,550.1285714285714,3684,568.2223214285714,550.1285714285714,3786.8,568.2223214285714,550.1285714285714,3910.4,568.2223214285714,550.1285714285714,4015.7,568.2223214285714,550.1285714285714,4117.3,568.2223214285714,550.1285714285714,4224,568.2223214285714,550.1285714285714,4327.1,568.2223214285714,550.1285714285714,4441.5,568.2223214285714,550.1285714285714,4546,568.2223214285714,550.1285714285714,4647.8,568.2223214285714,550.1285714285714,4756.5,568.2223214285714,550.1285714285714,4859.6,568.2223214285714,550.1285714285714,4964.7]","[1715.6,1715.6,1000,0,715.6,""oops"",""down"",""down"",""good_move"",8563.1,6843.6,2405.4,5592,565.7,""smooth"",""down"",""down"",""good_move"",10978.3,2414.2,1647.6,8564.1,766.6,""smooth"",""right"",""right"",""good_move"",13996,3013.3,2552.8,10982.7,460.5,""smooth"",""right"",""right"",""good_move""]","",""
"2925","","<div style=""width:500px;"">
  <p>What determined the result of this run?</p>
  </div>","88","html-slider-response","53","4812293","0.0-10.0-1.3","186","1","2025-07-09 09:14:31","7701e855f2ef39aa3fd6c71abdc6918a","41.150.35.125","Mozilla/5.0 (Windows NT 10.0; Win64; x64) AppleWebKit/537.36 (KHTML, like Gecko) Chrome/134.0.0.0 Safari/537.36 OPR/119.0.0.0","WebKit","Opera","119.0.0.0","Windows","10.0","https://app.prolific.com/","en-US,en;q=0.9","67ebf5f66613712faf39ec94","686d226cabeef709c732f8e1","686e314adbbfb2a228bc63ea","67ebf5f66613712faf39ec94","2025-07-09T10:34:51.262Z","","","","","","AttribQ","","","","","","","","","","","","","","","","","","","","","","","","","","","","","","","","","","","","","","50"
"2462","","<div style=""width:500px;"">
  <p>How much control did you have over the ball?</p>
  </div>","84","html-slider-response","54","4814758","0.0-10.0-2.3","186","1","2025-07-09 09:14:31","7701e855f2ef39aa3fd6c71abdc6918a","41.150.35.125","Mozilla/5.0 (Windows NT 10.0; Win64; x64) AppleWebKit/537.36 (KHTML, like Gecko) Chrome/134.0.0.0 Safari/537.36 OPR/119.0.0.0","WebKit","Opera","119.0.0.0","Windows","10.0","https://app.prolific.com/","en-US,en;q=0.9","67ebf5f66613712faf39ec94","686d226cabeef709c732f8e1","686e314adbbfb2a228bc63ea","67ebf5f66613712faf39ec94","2025-07-09T10:34:53.728Z","","","","","","ControlQ","","","","","","","","","","","","","","","","","","","","","","","","","","","","","","","","","","","","","","50"
"3214","","<div style=""width:500px;"">
  <p>How would you describe your current emotional state?</p>
  </div>","11","html-slider-response","55","4817976","0.0-10.0-3.3","186","1","2025-07-09 09:14:31","7701e855f2ef39aa3fd6c71abdc6918a","41.150.35.125","Mozilla/5.0 (Windows NT 10.0; Win64; x64) AppleWebKit/537.36 (KHTML, like Gecko) Chrome/134.0.0.0 Safari/537.36 OPR/119.0.0.0","WebKit","Opera","119.0.0.0","Windows","10.0","https://app.prolific.com/","en-US,en;q=0.9","67ebf5f66613712faf39ec94","686d226cabeef709c732f8e1","686e314adbbfb2a228bc63ea","67ebf5f66613712faf39ec94","2025-07-09T10:34:56.945Z","","","","","","StressQ","","","","","","","","","","","","","","","","","","","","","","","","","","","","","","","","","","","","","","50"
"3387","","<div style=""width:500px;"">
  <p>What best describes how you currently feel?</p>
  </div>","87","html-slider-response","56","4821367","0.0-10.0-4.3","186","1","2025-07-09 09:14:31","7701e855f2ef39aa3fd6c71abdc6918a","41.150.35.125","Mozilla/5.0 (Windows NT 10.0; Win64; x64) AppleWebKit/537.36 (KHTML, like Gecko) Chrome/134.0.0.0 Safari/537.36 OPR/119.0.0.0","WebKit","Opera","119.0.0.0","Windows","10.0","https://app.prolific.com/","en-US,en;q=0.9","67ebf5f66613712faf39ec94","686d226cabeef709c732f8e1","686e314adbbfb2a228bc63ea","67ebf5f66613712faf39ec94","2025-07-09T10:35:00.336Z","","","","","","MotivationQ","","","","","","","","","","","","","","","","","","","","","","","","","","","","","","","","","","","","","","50"
"","","","","ctl-task-cpt","57","4866198","0.0-10.0-0.4","186","1","2025-07-09 09:14:31","7701e855f2ef39aa3fd6c71abdc6918a","41.150.35.125","Mozilla/5.0 (Windows NT 10.0; Win64; x64) AppleWebKit/537.36 (KHTML, like Gecko) Chrome/134.0.0.0 Safari/537.36 OPR/119.0.0.0","WebKit","Opera","119.0.0.0","Windows","10.0","https://app.prolific.com/","en-US,en;q=0.9","67ebf5f66613712faf39ec94","686d226cabeef709c732f8e1","686e314adbbfb2a228bc63ea","67ebf5f66613712faf39ec94","2025-07-09T10:35:45.167Z","","","","","","","","","","","","","","","","win-only","0","g1:NW,g2:SE","0.6","5","0","4830768.9","2616.2","7638.6","41808","1","4","8","6","2","-8","-8","0","2","0","1803.2","3000","-1880","[""down"",""right""]","{""num_key_presses"":9,""num_perfect"":6,""num_errors"":0,""num_randdir"":3,""num_randdir_good_moves"":2,""num_whilered"":0,""num_whileblue"":0,""num_blue"":2,""num_good_moves"":7}","[295.22232142857143,299.12857142857143,1.1,295.22232142857143,299.12857142857143,103.8,295.22232142857143,299.12857142857143,205.9,295.22232142857143,299.12857142857143,307.9,295.22232142857143,299.12857142857143,449.4,295.22232142857143,299.12857142857143,600.2,295.22232142857143,299.12857142857143,701.5,296.22232142857143,299.12857142857143,804,444.22232142857143,412.12857142857143,911.2,501.22232142857143,461.12857142857143,1019.2,515.2223214285714,483.12857142857143,1133,517.2223214285714,489.12857142857143,1244.3,517.2223214285714,489.12857142857143,1347.3,517.2223214285714,499.12857142857143,1456.4,518.2223214285714,512.1285714285714,1559.5,518.2223214285714,512.1285714285714,1659.6,518.2223214285714,512.1285714285714,1760,518.2223214285714,512.1285714285714,1875.3,518.2223214285714,512.1285714285714,1983.4,518.2223214285714,512.1285714285714,2086.5,518.2223214285714,512.1285714285714,2188.1,518.2223214285714,512.1285714285714,2311.6,518.2223214285714,512.1285714285714,2414.7,518.2223214285714,512.1285714285714,2516.5,518.2223214285714,512.1285714285714,2620.1,518.2223214285714,512.1285714285714,2733.7,518.2223214285714,512.1285714285714,2850.5,518.2223214285714,512.1285714285714,2952.6,518.2223214285714,512.1285714285714,3058.2,518.2223214285714,512.1285714285714,3160.3,518.2223214285714,512.1285714285714,3269.6,518.2223214285714,512.1285714285714,3373.9,518.2223214285714,512.1285714285714,3475.1,518.2223214285714,512.1285714285714,3598.9,518.2223214285714,512.1285714285714,3700.3,518.2223214285714,512.1285714285714,3805.3,518.2223214285714,512.1285714285714,3912,518.2223214285714,512.1285714285714,4017.5,518.2223214285714,512.1285714285714,4134.8,518.2223214285714,512.1285714285714,4239.7,518.2223214285714,512.1285714285714,4344.8,518.2223214285714,512.1285714285714,4445.9,518.2223214285714,512.1285714285714,4558.5,518.2223214285714,512.1285714285714,4659.4,518.2223214285714,512.1285714285714,4764.2,518.2223214285714,512.1285714285714,4865.9,518.2223214285714,512.1285714285714,4968.7]","[1766.1,1766.1,1000,0,766.1,""smooth"",""down"",""down"",""good_move"",4636.8,2868.9,2412.3,1767.9,456.6,""smooth"",""down"",""down"",""good_move"",6914.8,2276.2,1852.1,4638.6,424.1,""smooth"",""right"",""right"",""good_move"",9394.2,2477.5,2029.6,6916.7,447.9,""smooth"",""right"",""right"",""good_move"",15212.6,5816.8,2226.2,12566.5,420,""oops"",""right"",""right"",""good_move"",18091.2,2876.8,2431.8,15214.4,445,""oops"",""down"",""up"",""bad_move"",25026.8,6933,1854.2,22455.6,717,""smooth"",""left"",""left"",""bad_move"",28636.6,3608.3,2670.4,25028.3,937.9,""smooth"",""down"",""down"",""good_move"",31381.6,2743.3,2301.3,28638.3,442,""oops"",""right"",""down"",""good_move""]","",""
"3479","","<div style=""width:500px;"">
  <p>What determined the result of this run?</p>
  </div>","15","html-slider-response","58","4869680","0.0-10.0-1.4","186","1","2025-07-09 09:14:31","7701e855f2ef39aa3fd6c71abdc6918a","41.150.35.125","Mozilla/5.0 (Windows NT 10.0; Win64; x64) AppleWebKit/537.36 (KHTML, like Gecko) Chrome/134.0.0.0 Safari/537.36 OPR/119.0.0.0","WebKit","Opera","119.0.0.0","Windows","10.0","https://app.prolific.com/","en-US,en;q=0.9","67ebf5f66613712faf39ec94","686d226cabeef709c732f8e1","686e314adbbfb2a228bc63ea","67ebf5f66613712faf39ec94","2025-07-09T10:35:48.649Z","","","","","","AttribQ","","","","","","","","","","","","","","","","","","","","","","","","","","","","","","","","","","","","","","50"
"2711","","<div style=""width:500px;"">
  <p>How much control did you have over the ball?</p>
  </div>","27","html-slider-response","59","4872395","0.0-10.0-2.4","186","1","2025-07-09 09:14:31","7701e855f2ef39aa3fd6c71abdc6918a","41.150.35.125","Mozilla/5.0 (Windows NT 10.0; Win64; x64) AppleWebKit/537.36 (KHTML, like Gecko) Chrome/134.0.0.0 Safari/537.36 OPR/119.0.0.0","WebKit","Opera","119.0.0.0","Windows","10.0","https://app.prolific.com/","en-US,en;q=0.9","67ebf5f66613712faf39ec94","686d226cabeef709c732f8e1","686e314adbbfb2a228bc63ea","67ebf5f66613712faf39ec94","2025-07-09T10:35:51.364Z","","","","","","ControlQ","","","","","","","","","","","","","","","","","","","","","","","","","","","","","","","","","","","","","","50"
"4776","","<div style=""width:500px;"">
  <p>How would you describe your current emotional state?</p>
  </div>","67","html-slider-response","60","4877175","0.0-10.0-3.4","186","1","2025-07-09 09:14:31","7701e855f2ef39aa3fd6c71abdc6918a","41.150.35.125","Mozilla/5.0 (Windows NT 10.0; Win64; x64) AppleWebKit/537.36 (KHTML, like Gecko) Chrome/134.0.0.0 Safari/537.36 OPR/119.0.0.0","WebKit","Opera","119.0.0.0","Windows","10.0","https://app.prolific.com/","en-US,en;q=0.9","67ebf5f66613712faf39ec94","686d226cabeef709c732f8e1","686e314adbbfb2a228bc63ea","67ebf5f66613712faf39ec94","2025-07-09T10:35:56.144Z","","","","","","StressQ","","","","","","","","","","","","","","","","","","","","","","","","","","","","","","","","","","","","","","50"
"3549","","<div style=""width:500px;"">
  <p>What best describes how you currently feel?</p>
  </div>","62","html-slider-response","61","4880728","0.0-10.0-4.4","186","1","2025-07-09 09:14:31","7701e855f2ef39aa3fd6c71abdc6918a","41.150.35.125","Mozilla/5.0 (Windows NT 10.0; Win64; x64) AppleWebKit/537.36 (KHTML, like Gecko) Chrome/134.0.0.0 Safari/537.36 OPR/119.0.0.0","WebKit","Opera","119.0.0.0","Windows","10.0","https://app.prolific.com/","en-US,en;q=0.9","67ebf5f66613712faf39ec94","686d226cabeef709c732f8e1","686e314adbbfb2a228bc63ea","67ebf5f66613712faf39ec94","2025-07-09T10:35:59.697Z","","","","","","MotivationQ","","","","","","","","","","","","","","","","","","","","","","","","","","","","","","","","","","","","","","50"
"","","","","ctl-task-cpt","62","4913676","0.0-10.0-0.5","186","1","2025-07-09 09:14:31","7701e855f2ef39aa3fd6c71abdc6918a","41.150.35.125","Mozilla/5.0 (Windows NT 10.0; Win64; x64) AppleWebKit/537.36 (KHTML, like Gecko) Chrome/134.0.0.0 Safari/537.36 OPR/119.0.0.0","WebKit","Opera","119.0.0.0","Windows","10.0","https://app.prolific.com/","en-US,en;q=0.9","67ebf5f66613712faf39ec94","686d226cabeef709c732f8e1","686e314adbbfb2a228bc63ea","67ebf5f66613712faf39ec94","2025-07-09T10:36:32.645Z","","","","","","","","","","","","","","","","win-only","3","g1:SW,g2:NE","0.5","6","0","4890129.5","1655.7","6673.7","29915.1","1","4","4","6","2","4","4","4","0","0.030303030303030304","3012.2","3000","1190","[""up"",""right""]","{""num_key_presses"":8,""num_perfect"":4,""num_errors"":0,""num_randdir"":4,""num_randdir_good_moves"":3,""num_whilered"":0,""num_whileblue"":0,""num_blue"":0,""num_good_moves"":7}","[298.22232142857143,293.12857142857143,1,298.22232142857143,293.12857142857143,100.2,298.22232142857143,293.12857142857143,201.2,298.22232142857143,293.12857142857143,301.7,298.22232142857143,293.12857142857143,403.5,298.22232142857143,293.12857142857143,508.7,298.22232142857143,293.12857142857143,613.1,298.22232142857143,293.12857142857143,717.6,298.22232142857143,293.12857142857143,830.4,298.22232142857143,293.12857142857143,933.6,298.22232142857143,293.12857142857143,1034,298.22232142857143,293.12857142857143,1138.7,298.22232142857143,293.12857142857143,1243.7,298.22232142857143,293.12857142857143,1352.4,298.22232142857143,293.12857142857143,1454.8,298.22232142857143,293.12857142857143,1559.1,298.22232142857143,293.12857142857143,1659.7,298.22232142857143,293.12857142857143,1760.2,298.22232142857143,293.12857142857143,1869.8,356.22232142857143,193.12857142857143,1985,392.22232142857143,148.12857142857143,2095,417.22232142857143,131.12857142857143,2199.3,446.22232142857143,113.12857142857143,2311.5,471.22232142857143,99.12857142857143,2415.6,487.22232142857143,88.12857142857143,2529.9,495.22232142857143,81.12857142857143,2635.4,497.22232142857143,78.12857142857143,2744.4,498.22232142857143,78.12857142857143,2849,498.22232142857143,78.12857142857143,2968.2,498.22232142857143,78.12857142857143,3072.7,498.22232142857143,78.12857142857143,3178.4,498.22232142857143,78.12857142857143,3280,498.22232142857143,78.12857142857143,3382.8,498.22232142857143,78.12857142857143,3491.4,498.22232142857143,78.12857142857143,3597,498.22232142857143,78.12857142857143,3703.2,498.22232142857143,78.12857142857143,3811,498.22232142857143,78.12857142857143,3915.3,498.22232142857143,78.12857142857143,4022.7,498.22232142857143,78.12857142857143,4125,498.22232142857143,78.12857142857143,4233.2,498.22232142857143,78.12857142857143,4339.8,498.22232142857143,78.12857142857143,4442.4,498.22232142857143,78.12857142857143,4548.5,498.22232142857143,78.12857142857143,4655.9,498.22232142857143,78.12857142857143,4761.8,498.22232142857143,78.12857142857143,4869.5,498.22232142857143,78.12857142857143,4969.9]","[2326.8,2326.8,1000,0,1326.8,""smooth"",""right"",""right"",""good_move"",5322,2991.9,2426.6,2330.1,565.3,""smooth"",""right"",""right"",""good_move"",7591.6,2267.1,1791.1,5324.6,475.9,""oops"",""up"",""up"",""good_move"",10954.4,3360,2939.8,7594.4,420.2,""oops"",""up"",""down"",""bad_move"",13727,2770.4,2271.4,10956.6,499,""oops"",""up"",""up"",""good_move"",17053.9,3322.5,2877.8,13731.4,444.7,""smooth"",""up"",""up"",""good_move"",20057.5,3000.9,2253.5,17056.7,747.3,""smooth"",""up"",""up"",""good_move"",23050.1,2989.3,2532.4,20060.8,456.9,""oops"",""right"",""right"",""good_move""]","",""
"2674","","<div style=""width:500px;"">
  <p>What determined the result of this run?</p>
  </div>","96","html-slider-response","63","4916357","0.0-10.0-1.5","186","1","2025-07-09 09:14:31","7701e855f2ef39aa3fd6c71abdc6918a","41.150.35.125","Mozilla/5.0 (Windows NT 10.0; Win64; x64) AppleWebKit/537.36 (KHTML, like Gecko) Chrome/134.0.0.0 Safari/537.36 OPR/119.0.0.0","WebKit","Opera","119.0.0.0","Windows","10.0","https://app.prolific.com/","en-US,en;q=0.9","67ebf5f66613712faf39ec94","686d226cabeef709c732f8e1","686e314adbbfb2a228bc63ea","67ebf5f66613712faf39ec94","2025-07-09T10:36:35.326Z","","","","","","AttribQ","","","","","","","","","","","","","","","","","","","","","","","","","","","","","","","","","","","","","","50"
"2845","","<div style=""width:500px;"">
  <p>How much control did you have over the ball?</p>
  </div>","91","html-slider-response","64","4919205","0.0-10.0-2.5","186","1","2025-07-09 09:14:31","7701e855f2ef39aa3fd6c71abdc6918a","41.150.35.125","Mozilla/5.0 (Windows NT 10.0; Win64; x64) AppleWebKit/537.36 (KHTML, like Gecko) Chrome/134.0.0.0 Safari/537.36 OPR/119.0.0.0","WebKit","Opera","119.0.0.0","Windows","10.0","https://app.prolific.com/","en-US,en;q=0.9","67ebf5f66613712faf39ec94","686d226cabeef709c732f8e1","686e314adbbfb2a228bc63ea","67ebf5f66613712faf39ec94","2025-07-09T10:36:38.175Z","","","","","","ControlQ","","","","","","","","","","","","","","","","","","","","","","","","","","","","","","","","","","","","","","50"
"2692","","<div style=""width:500px;"">
  <p>How would you describe your current emotional state?</p>
  </div>","10","html-slider-response","65","4921903","0.0-10.0-3.5","186","1","2025-07-09 09:14:31","7701e855f2ef39aa3fd6c71abdc6918a","41.150.35.125","Mozilla/5.0 (Windows NT 10.0; Win64; x64) AppleWebKit/537.36 (KHTML, like Gecko) Chrome/134.0.0.0 Safari/537.36 OPR/119.0.0.0","WebKit","Opera","119.0.0.0","Windows","10.0","https://app.prolific.com/","en-US,en;q=0.9","67ebf5f66613712faf39ec94","686d226cabeef709c732f8e1","686e314adbbfb2a228bc63ea","67ebf5f66613712faf39ec94","2025-07-09T10:36:40.872Z","","","","","","StressQ","","","","","","","","","","","","","","","","","","","","","","","","","","","","","","","","","","","","","","50"
"2366","","<div style=""width:500px;"">
  <p>What best describes how you currently feel?</p>
  </div>","76","html-slider-response","66","4924274","0.0-10.0-4.5","186","1","2025-07-09 09:14:31","7701e855f2ef39aa3fd6c71abdc6918a","41.150.35.125","Mozilla/5.0 (Windows NT 10.0; Win64; x64) AppleWebKit/537.36 (KHTML, like Gecko) Chrome/134.0.0.0 Safari/537.36 OPR/119.0.0.0","WebKit","Opera","119.0.0.0","Windows","10.0","https://app.prolific.com/","en-US,en;q=0.9","67ebf5f66613712faf39ec94","686d226cabeef709c732f8e1","686e314adbbfb2a228bc63ea","67ebf5f66613712faf39ec94","2025-07-09T10:36:43.244Z","","","","","","MotivationQ","","","","","","","","","","","","","","","","","","","","","","","","","","","","","","","","","","","","","","50"
"","","","","ctl-task-cpt","67","4983188","0.0-10.0-0.6","186","1","2025-07-09 09:14:31","7701e855f2ef39aa3fd6c71abdc6918a","41.150.35.125","Mozilla/5.0 (Windows NT 10.0; Win64; x64) AppleWebKit/537.36 (KHTML, like Gecko) Chrome/134.0.0.0 Safari/537.36 OPR/119.0.0.0","WebKit","Opera","119.0.0.0","Windows","10.0","https://app.prolific.com/","en-US,en;q=0.9","67ebf5f66613712faf39ec94","686d226cabeef709c732f8e1","686e314adbbfb2a228bc63ea","67ebf5f66613712faf39ec94","2025-07-09T10:37:42.158Z","","","","","","","","","","","","","","","","win-only","2","g1:SE,g2:NW","0.4","7","0","4933724.2","1658.5","6664.3","55850.3","1","4","4","6","1","-1","-3","1","4","0.007575757575757576","3000.5","3000","-870","[""down"",""right""]","{""num_key_presses"":15,""num_perfect"":6,""num_errors"":2,""num_randdir"":6,""num_randdir_good_moves"":0,""num_whilered"":1,""num_whileblue"":1,""num_blue"":3,""num_good_moves"":7}","[295.22232142857143,296.12857142857143,1.3,295.22232142857143,296.12857142857143,103,295.22232142857143,296.12857142857143,208.2,295.22232142857143,296.12857142857143,322.9,295.22232142857143,296.12857142857143,432.6,295.22232142857143,296.12857142857143,540.8,295.22232142857143,296.12857142857143,652.1,295.22232142857143,296.12857142857143,757.6,295.22232142857143,296.12857142857143,866.1,295.22232142857143,296.12857142857143,966.2,295.22232142857143,296.12857142857143,1073,300.22232142857143,297.12857142857143,1184.6,300.22232142857143,290.12857142857143,1287.3,102.22232142857143,133.12857142857143,1387.5,76.22232142857143,123.12857142857143,1498.4,68.22232142857143,118.12857142857143,1606.3,51.222321428571426,90.12857142857143,1714.2,48.222321428571426,77.12857142857143,1824.9,48.222321428571426,77.12857142857143,1926.6,48.222321428571426,77.12857142857143,2028.6,48.222321428571426,77.12857142857143,2142.8,48.222321428571426,77.12857142857143,2250.3,242.22232142857143,226.12857142857143,2357.2,462.22232142857143,464.12857142857143,2469.6,527.2223214285714,547.1285714285714,2570.8,539.2223214285714,560.1285714285714,2675.7,544.2223214285714,562.1285714285714,2781,544.2223214285714,562.1285714285714,2885.7,544.2223214285714,562.1285714285714,2987.6,544.2223214285714,562.1285714285714,3093.8,544.2223214285714,562.1285714285714,3222.2,544.2223214285714,562.1285714285714,3338.3,544.2223214285714,562.1285714285714,3445.2,544.2223214285714,562.1285714285714,3548.1,544.2223214285714,562.1285714285714,3655.8,544.2223214285714,562.1285714285714,3760,544.2223214285714,562.1285714285714,3865.2,544.2223214285714,562.1285714285714,3967.3,544.2223214285714,562.1285714285714,4072.4,544.2223214285714,562.1285714285714,4209.4,544.2223214285714,562.1285714285714,4316,544.2223214285714,562.1285714285714,4417.8,544.2223214285714,562.1285714285714,4536.8,544.2223214285714,562.1285714285714,4666.1,544.2223214285714,562.1285714285714,4784.9,544.2223214285714,562.1285714285714,4892.4,544.2223214285714,562.1285714285714,4996.6]","[1994.5,1994.5,1000,0,994.5,""smooth"",""right"",""right"",""good_move"",4828.7,2832.7,2352.5,1996,480.2,""smooth"",""right"",""right"",""good_move"",8274.2,3443.9,3012.9,4830.3,431,""oops"",""down"",""left"",""bad_move"",11419,3141.5,2663.2,8277.6,478.2,""oops"",""right"",""left"",""bad_move"",14228.5,2806.8,2349.2,11421.7,457.6,""while_blue"",""down"",""down"",""good_move"",20424.3,6190.8,2211.7,17512.9,699.7,""oops"",""right"",""up"",""bad_move"",27611.4,7185.3,2493.3,24039.4,1078.7,""oops"",""right"",""left"",""bad_move"",31014.5,3401.8,2927.1,27612.8,474.7,""smooth"",""right"",""right"",""good_move"",33555.6,2538.9,2081.5,31016.7,457.4,""smooth"",""right"",""right"",""good_move"",36245.6,2685.8,1790.2,33559.8,895.6,""oops"",""right"",""left"",""bad_move"",37480.6,1231.9,2588.2,36248.7,-1356.3,""error"",""-"",""-"",""no_move"",37519.8,36.3,2588.2,36248.7,-1317.1,""while_red"",""-"",""-"",""no_move"",41459.1,3975.6,2449.6,38496.8,512.7,""oops"",""down"",""left"",""bad_move"",44246.7,2785.7,2250.8,41461,534.9,""smooth"",""right"",""right"",""good_move"",47017.1,2768.5,2227.3,44248.6,541.2,""smooth"",""down"",""down"",""good_move""]","",""
"2742","","<div style=""width:500px;"">
  <p>What determined the result of this run?</p>
  </div>","25","html-slider-response","68","4985934","0.0-10.0-1.6","186","1","2025-07-09 09:14:31","7701e855f2ef39aa3fd6c71abdc6918a","41.150.35.125","Mozilla/5.0 (Windows NT 10.0; Win64; x64) AppleWebKit/537.36 (KHTML, like Gecko) Chrome/134.0.0.0 Safari/537.36 OPR/119.0.0.0","WebKit","Opera","119.0.0.0","Windows","10.0","https://app.prolific.com/","en-US,en;q=0.9","67ebf5f66613712faf39ec94","686d226cabeef709c732f8e1","686e314adbbfb2a228bc63ea","67ebf5f66613712faf39ec94","2025-07-09T10:37:44.903Z","","","","","","AttribQ","","","","","","","","","","","","","","","","","","","","","","","","","","","","","","","","","","","","","","50"
"3979","","<div style=""width:500px;"">
  <p>How much control did you have over the ball?</p>
  </div>","21","html-slider-response","69","4989918","0.0-10.0-2.6","186","1","2025-07-09 09:14:31","7701e855f2ef39aa3fd6c71abdc6918a","41.150.35.125","Mozilla/5.0 (Windows NT 10.0; Win64; x64) AppleWebKit/537.36 (KHTML, like Gecko) Chrome/134.0.0.0 Safari/537.36 OPR/119.0.0.0","WebKit","Opera","119.0.0.0","Windows","10.0","https://app.prolific.com/","en-US,en;q=0.9","67ebf5f66613712faf39ec94","686d226cabeef709c732f8e1","686e314adbbfb2a228bc63ea","67ebf5f66613712faf39ec94","2025-07-09T10:37:48.887Z","","","","","","ControlQ","","","","","","","","","","","","","","","","","","","","","","","","","","","","","","","","","","","","","","50"
"3181","","<div style=""width:500px;"">
  <p>How would you describe your current emotional state?</p>
  </div>","56","html-slider-response","70","4993103","0.0-10.0-3.6","186","1","2025-07-09 09:14:31","7701e855f2ef39aa3fd6c71abdc6918a","41.150.35.125","Mozilla/5.0 (Windows NT 10.0; Win64; x64) AppleWebKit/537.36 (KHTML, like Gecko) Chrome/134.0.0.0 Safari/537.36 OPR/119.0.0.0","WebKit","Opera","119.0.0.0","Windows","10.0","https://app.prolific.com/","en-US,en;q=0.9","67ebf5f66613712faf39ec94","686d226cabeef709c732f8e1","686e314adbbfb2a228bc63ea","67ebf5f66613712faf39ec94","2025-07-09T10:37:52.073Z","","","","","","StressQ","","","","","","","","","","","","","","","","","","","","","","","","","","","","","","","","","","","","","","50"
"3217","","<div style=""width:500px;"">
  <p>What best describes how you currently feel?</p>
  </div>","29","html-slider-response","71","4996325","0.0-10.0-4.6","186","1","2025-07-09 09:14:31","7701e855f2ef39aa3fd6c71abdc6918a","41.150.35.125","Mozilla/5.0 (Windows NT 10.0; Win64; x64) AppleWebKit/537.36 (KHTML, like Gecko) Chrome/134.0.0.0 Safari/537.36 OPR/119.0.0.0","WebKit","Opera","119.0.0.0","Windows","10.0","https://app.prolific.com/","en-US,en;q=0.9","67ebf5f66613712faf39ec94","686d226cabeef709c732f8e1","686e314adbbfb2a228bc63ea","67ebf5f66613712faf39ec94","2025-07-09T10:37:55.294Z","","","","","","MotivationQ","","","","","","","","","","","","","","","","","","","","","","","","","","","","","","","","","","","","","","50"
"","","","","ctl-task-cpt","72","5016556","0.0-10.0-0.7","186","1","2025-07-09 09:14:31","7701e855f2ef39aa3fd6c71abdc6918a","41.150.35.125","Mozilla/5.0 (Windows NT 10.0; Win64; x64) AppleWebKit/537.36 (KHTML, like Gecko) Chrome/134.0.0.0 Safari/537.36 OPR/119.0.0.0","WebKit","Opera","119.0.0.0","Windows","10.0","https://app.prolific.com/","en-US,en;q=0.9","67ebf5f66613712faf39ec94","686d226cabeef709c732f8e1","686e314adbbfb2a228bc63ea","67ebf5f66613712faf39ec94","2025-07-09T10:38:15.525Z","","","","","","","","","","","","","","","","win-only","3","g1:SW,g2:NE","0.3","8","0","5005727.2","1356.8","6359.6","17212.2","1","4","8","6","1","1","1","2","1","0.015151515151515152","1889.2","3000","2265","[""down"",""left""]","{""num_key_presses"":4,""num_perfect"":1,""num_errors"":0,""num_randdir"":3,""num_randdir_good_moves"":3,""num_whilered"":0,""num_whileblue"":0,""num_blue"":0,""num_good_moves"":4}","[289.22232142857143,296.12857142857143,1,289.22232142857143,296.12857142857143,104,289.22232142857143,296.12857142857143,221.1,289.22232142857143,296.12857142857143,325.1,289.22232142857143,296.12857142857143,434.9,289.22232142857143,296.12857142857143,536.2,289.22232142857143,296.12857142857143,651.8,289.22232142857143,296.12857142857143,764.1,289.22232142857143,296.12857142857143,872,289.22232142857143,296.12857142857143,990.1,286.22232142857143,299.12857142857143,1103.4,198.22232142857143,436.12857142857143,1209,109.22232142857143,513.1285714285714,1316.9,90.22232142857143,521.1285714285714,1450.9,76.22232142857143,521.1285714285714,1554.9,59.222321428571426,522.1285714285714,1669.2,59.222321428571426,522.1285714285714,1770.3,59.222321428571426,522.1285714285714,1882.4,59.222321428571426,522.1285714285714,2005.1,59.222321428571426,522.1285714285714,2105.7,59.222321428571426,522.1285714285714,2223.4,59.222321428571426,522.1285714285714,2324.5,59.222321428571426,522.1285714285714,2437.5,59.222321428571426,522.1285714285714,2546.8,59.222321428571426,522.1285714285714,2650.7,59.222321428571426,522.1285714285714,2764.8,59.222321428571426,522.1285714285714,2869.5,59.222321428571426,522.1285714285714,3022.6,59.222321428571426,522.1285714285714,3125.7,59.222321428571426,522.1285714285714,3232.2,59.222321428571426,522.1285714285714,3334.1,59.222321428571426,522.1285714285714,3438.6,59.222321428571426,522.1285714285714,3541,59.222321428571426,522.1285714285714,3646,59.222321428571426,522.1285714285714,3755,59.222321428571426,522.1285714285714,3859.8,59.222321428571426,522.1285714285714,3965.3,59.222321428571426,522.1285714285714,4067.3,59.222321428571426,522.1285714285714,4168,59.222321428571426,522.1285714285714,4272.3,59.222321428571426,522.1285714285714,4373.7,59.222321428571426,522.1285714285714,4476.2,59.222321428571426,522.1285714285714,4601.2,59.222321428571426,522.1285714285714,4728.3,59.222321428571426,522.1285714285714,4837.5,59.222321428571426,522.1285714285714,4946.1]","[1629.1,1629.2,1000,0,629.2,""smooth"",""down"",""down"",""good_move"",3919.8,2287.8,1789.4,1632,498.4,""oops"",""left"",""left"",""good_move"",7266.6,3342.6,2233.9,3924,1108.8,""oops"",""left"",""down"",""good_move"",10636.7,3367.5,2893,7269.2,474.5,""oops"",""left"",""left"",""good_move""]","",""
"2950","","<div style=""width:500px;"">
  <p>What determined the result of this run?</p>
  </div>","75","html-slider-response","73","5019512","0.0-10.0-1.7","186","1","2025-07-09 09:14:31","7701e855f2ef39aa3fd6c71abdc6918a","41.150.35.125","Mozilla/5.0 (Windows NT 10.0; Win64; x64) AppleWebKit/537.36 (KHTML, like Gecko) Chrome/134.0.0.0 Safari/537.36 OPR/119.0.0.0","WebKit","Opera","119.0.0.0","Windows","10.0","https://app.prolific.com/","en-US,en;q=0.9","67ebf5f66613712faf39ec94","686d226cabeef709c732f8e1","686e314adbbfb2a228bc63ea","67ebf5f66613712faf39ec94","2025-07-09T10:38:18.481Z","","","","","","AttribQ","","","","","","","","","","","","","","","","","","","","","","","","","","","","","","","","","","","","","","50"
"2218","","<div style=""width:500px;"">
  <p>How much control did you have over the ball?</p>
  </div>","72","html-slider-response","74","5021734","0.0-10.0-2.7","186","1","2025-07-09 09:14:31","7701e855f2ef39aa3fd6c71abdc6918a","41.150.35.125","Mozilla/5.0 (Windows NT 10.0; Win64; x64) AppleWebKit/537.36 (KHTML, like Gecko) Chrome/134.0.0.0 Safari/537.36 OPR/119.0.0.0","WebKit","Opera","119.0.0.0","Windows","10.0","https://app.prolific.com/","en-US,en;q=0.9","67ebf5f66613712faf39ec94","686d226cabeef709c732f8e1","686e314adbbfb2a228bc63ea","67ebf5f66613712faf39ec94","2025-07-09T10:38:20.703Z","","","","","","ControlQ","","","","","","","","","","","","","","","","","","","","","","","","","","","","","","","","","","","","","","50"
"2936","","<div style=""width:500px;"">
  <p>How would you describe your current emotional state?</p>
  </div>","19","html-slider-response","75","5024679","0.0-10.0-3.7","186","1","2025-07-09 09:14:31","7701e855f2ef39aa3fd6c71abdc6918a","41.150.35.125","Mozilla/5.0 (Windows NT 10.0; Win64; x64) AppleWebKit/537.36 (KHTML, like Gecko) Chrome/134.0.0.0 Safari/537.36 OPR/119.0.0.0","WebKit","Opera","119.0.0.0","Windows","10.0","https://app.prolific.com/","en-US,en;q=0.9","67ebf5f66613712faf39ec94","686d226cabeef709c732f8e1","686e314adbbfb2a228bc63ea","67ebf5f66613712faf39ec94","2025-07-09T10:38:23.648Z","","","","","","StressQ","","","","","","","","","","","","","","","","","","","","","","","","","","","","","","","","","","","","","","50"
"2477","","<div style=""width:500px;"">
  <p>What best describes how you currently feel?</p>
  </div>","71","html-slider-response","76","5027159","0.0-10.0-4.7","186","1","2025-07-09 09:14:31","7701e855f2ef39aa3fd6c71abdc6918a","41.150.35.125","Mozilla/5.0 (Windows NT 10.0; Win64; x64) AppleWebKit/537.36 (KHTML, like Gecko) Chrome/134.0.0.0 Safari/537.36 OPR/119.0.0.0","WebKit","Opera","119.0.0.0","Windows","10.0","https://app.prolific.com/","en-US,en;q=0.9","67ebf5f66613712faf39ec94","686d226cabeef709c732f8e1","686e314adbbfb2a228bc63ea","67ebf5f66613712faf39ec94","2025-07-09T10:38:26.129Z","","","","","","MotivationQ","","","","","","","","","","","","","","","","","","","","","","","","","","","","","","","","","","","","","","50"
"","","","","ctl-task-cpt","77","5053572","0.0-10.0-0.8","186","1","2025-07-09 09:14:31","7701e855f2ef39aa3fd6c71abdc6918a","41.150.35.125","Mozilla/5.0 (Windows NT 10.0; Win64; x64) AppleWebKit/537.36 (KHTML, like Gecko) Chrome/134.0.0.0 Safari/537.36 OPR/119.0.0.0","WebKit","Opera","119.0.0.0","Windows","10.0","https://app.prolific.com/","en-US,en;q=0.9","67ebf5f66613712faf39ec94","686d226cabeef709c732f8e1","686e314adbbfb2a228bc63ea","67ebf5f66613712faf39ec94","2025-07-09T10:38:52.541Z","","","","","","","","","","","","","","","","win-only","3","g1:SW,g2:NE","0.2","9","0","5036561.4","1624.2","6634.2","23378.8","1","4","4","6","1","1","1","3","2","0.022727272727272728","1927.2","3000","1850","[""down"",""left""]","{""num_key_presses"":6,""num_perfect"":2,""num_errors"":0,""num_randdir"":4,""num_randdir_good_moves"":3,""num_whilered"":0,""num_whileblue"":0,""num_blue"":0,""num_good_moves"":5}","[295.22232142857143,297.12857142857143,0.9,295.22232142857143,297.12857142857143,104.5,295.22232142857143,297.12857142857143,215,295.22232142857143,297.12857142857143,337.2,295.22232142857143,297.12857142857143,456.2,295.22232142857143,297.12857142857143,560.9,295.22232142857143,297.12857142857143,663.1,295.22232142857143,297.12857142857143,782.8,295.22232142857143,297.12857142857143,910.5,295.22232142857143,297.12857142857143,1022.7,295.22232142857143,297.12857142857143,1129.7,191.22232142857143,381.12857142857143,1247,78.22232142857143,512.1285714285714,1369.8,59.222321428571426,548.1285714285714,1487.2,59.222321428571426,552.1285714285714,1597.8,59.222321428571426,552.1285714285714,1707.9,59.222321428571426,552.1285714285714,1813.7,59.222321428571426,552.1285714285714,1917.9,59.222321428571426,552.1285714285714,2032.9,59.222321428571426,552.1285714285714,2154.2,59.222321428571426,552.1285714285714,2269.4,59.222321428571426,552.1285714285714,2380.2,59.222321428571426,552.1285714285714,2494.2,59.222321428571426,552.1285714285714,2599.1,59.222321428571426,552.1285714285714,2711.1,59.222321428571426,552.1285714285714,2815.5,59.222321428571426,552.1285714285714,2918.7,59.222321428571426,552.1285714285714,3021.2,59.222321428571426,552.1285714285714,3122.7,59.222321428571426,552.1285714285714,3234.7,59.222321428571426,552.1285714285714,3343.4,59.222321428571426,552.1285714285714,3450.5,59.222321428571426,552.1285714285714,3562.8,59.222321428571426,552.1285714285714,3669.5,59.222321428571426,552.1285714285714,3778.3,59.222321428571426,552.1285714285714,3884.2,59.222321428571426,552.1285714285714,3990.8,59.222321428571426,552.1285714285714,4107.3,59.222321428571426,552.1285714285714,4231.9,59.222321428571426,552.1285714285714,4333.6,59.222321428571426,552.1285714285714,4445.1,59.222321428571426,552.1285714285714,4555.6,59.222321428571426,552.1285714285714,4682.9,59.222321428571426,552.1285714285714,4788.1,59.222321428571426,552.1285714285714,4910.2]","[1734.1,1734.1,1000,0,734.1,""oops"",""down"",""down"",""good_move"",4934.4,3196.7,2684.1,1737.7,512.6,""oops"",""left"",""up"",""bad_move"",7511.3,2574,1601.1,4937.4,972.8,""smooth"",""left"",""left"",""good_move"",10182.9,2667.6,1839.1,7515.3,828.5,""oops"",""left"",""down"",""good_move"",12737.1,2549.6,2110.6,10187.5,439,""smooth"",""left"",""left"",""good_move"",16423.7,3683.4,3167.8,12740.3,515.6,""oops"",""down"",""down"",""good_move""]","",""
"6346","","<div style=""width:500px;"">
  <p>What determined the result of this run?</p>
  </div>","99","html-slider-response","78","5059922","0.0-10.0-1.8","186","1","2025-07-09 09:14:31","7701e855f2ef39aa3fd6c71abdc6918a","41.150.35.125","Mozilla/5.0 (Windows NT 10.0; Win64; x64) AppleWebKit/537.36 (KHTML, like Gecko) Chrome/134.0.0.0 Safari/537.36 OPR/119.0.0.0","WebKit","Opera","119.0.0.0","Windows","10.0","https://app.prolific.com/","en-US,en;q=0.9","67ebf5f66613712faf39ec94","686d226cabeef709c732f8e1","686e314adbbfb2a228bc63ea","67ebf5f66613712faf39ec94","2025-07-09T10:38:58.892Z","","","","","","AttribQ","","","","","","","","","","","","","","","","","","","","","","","","","","","","","","","","","","","","","","50"
"3442","","<div style=""width:500px;"">
  <p>How much control did you have over the ball?</p>
  </div>","64","html-slider-response","79","5063369","0.0-10.0-2.8","186","1","2025-07-09 09:14:31","7701e855f2ef39aa3fd6c71abdc6918a","41.150.35.125","Mozilla/5.0 (Windows NT 10.0; Win64; x64) AppleWebKit/537.36 (KHTML, like Gecko) Chrome/134.0.0.0 Safari/537.36 OPR/119.0.0.0","WebKit","Opera","119.0.0.0","Windows","10.0","https://app.prolific.com/","en-US,en;q=0.9","67ebf5f66613712faf39ec94","686d226cabeef709c732f8e1","686e314adbbfb2a228bc63ea","67ebf5f66613712faf39ec94","2025-07-09T10:39:02.338Z","","","","","","ControlQ","","","","","","","","","","","","","","","","","","","","","","","","","","","","","","","","","","","","","","50"
"4296","","<div style=""width:500px;"">
  <p>How would you describe your current emotional state?</p>
  </div>","26","html-slider-response","80","5067670","0.0-10.0-3.8","186","1","2025-07-09 09:14:31","7701e855f2ef39aa3fd6c71abdc6918a","41.150.35.125","Mozilla/5.0 (Windows NT 10.0; Win64; x64) AppleWebKit/537.36 (KHTML, like Gecko) Chrome/134.0.0.0 Safari/537.36 OPR/119.0.0.0","WebKit","Opera","119.0.0.0","Windows","10.0","https://app.prolific.com/","en-US,en;q=0.9","67ebf5f66613712faf39ec94","686d226cabeef709c732f8e1","686e314adbbfb2a228bc63ea","67ebf5f66613712faf39ec94","2025-07-09T10:39:06.639Z","","","","","","StressQ","","","","","","","","","","","","","","","","","","","","","","","","","","","","","","","","","","","","","","50"
"2651","","<div style=""width:500px;"">
  <p>What best describes how you currently feel?</p>
  </div>","72","html-slider-response","81","5070324","0.0-10.0-4.8","186","1","2025-07-09 09:14:31","7701e855f2ef39aa3fd6c71abdc6918a","41.150.35.125","Mozilla/5.0 (Windows NT 10.0; Win64; x64) AppleWebKit/537.36 (KHTML, like Gecko) Chrome/134.0.0.0 Safari/537.36 OPR/119.0.0.0","WebKit","Opera","119.0.0.0","Windows","10.0","https://app.prolific.com/","en-US,en;q=0.9","67ebf5f66613712faf39ec94","686d226cabeef709c732f8e1","686e314adbbfb2a228bc63ea","67ebf5f66613712faf39ec94","2025-07-09T10:39:09.293Z","","","","","","MotivationQ","","","","","","","","","","","","","","","","","","","","","","","","","","","","","","","","","","","","","","50"