"rt","response_timestamp","stimulus","response","trial_type","trial_index","time_elapsed","internal_node_id","run_id","condition","recorded_at","source_code_version","ip","user_agent","device","browser","browser_version","platform","platform_version","referer","accept_language","PROLIFIC_PID","STUDY_ID","SESSION_ID","prolific_id","realtime","view_history","question_order","consent","success","question_id","eventType","responses","item_order","radio_event_ids","radio_event_times","key_event_times","mouse_event_times","straightlining","zigzagging","honeypot","which_type","canvas_config","goals_layout","control_level","trial_number","tutorial_trial_number","trial_start_time","phase1_start_time","phase2_start_time","phase3_start_time","goal_1_value","goal_1_distance","goal_2_value","goal_2_distance","goal_selected","outcome","outcome_total","participant_final_score","participant_initial_score","participant_final_score_prop","goal_choice_rt","allocated_time","allocated_time_remaining","goal_direction","counts","mouse_movements","key_presses","correct","slider_start"
"107779","1752055403371","<p style='font-size:40px;line-height:1.25'><strong>Welcome to the experiment!</strong></p><p style='font-size:1.1em;line-height:1.25'>Thank you for your interest in our experiment! Before you begin, it is important that we obtain your informed consent to participate in the study.</p><p style='font-size:1.1em;line-height:1.25'>On the next screen will be an <strong>information sheet</strong> for you to read. To participate in the study we need you to read this information sheet and the following consent form carefully. If you agree with all the statements, please click the <strong>I agree</strong> button.</p><p style='font-size:1.1em;line-height:1.25'>Press <strong>Next</strong> to read the information sheet.</p>","0","custom-html-button-response","0","107804","0.0-0.0","252","1","2025-07-09 10:01:33","7701e855f2ef39aa3fd6c71abdc6918a","5.185.246.114","Mozilla/5.0 (Windows NT 10.0; Win64; x64; rv:140.0) Gecko/20100101 Firefox/140.0","","Firefox","140.0","Windows","10.0","https://app.prolific.com/","pl,en-US;q=0.7,en;q=0.3","5f0214e58782120a8c970fd6","686d226cabeef709c732f8e1","686e3df4232d9b611ae5d044","5f0214e58782120a8c970fd6","2025-07-09T10:03:23.373Z","","","","","","","","","","","","","","","","","","","","","","","","","","","","","","","","","","","","","","","","","","","",""
"18247","","","","instructions","1","126061","0.0-1.0","252","1","2025-07-09 10:01:33","7701e855f2ef39aa3fd6c71abdc6918a","5.185.246.114","Mozilla/5.0 (Windows NT 10.0; Win64; x64; rv:140.0) Gecko/20100101 Firefox/140.0","","Firefox","140.0","Windows","10.0","https://app.prolific.com/","pl,en-US;q=0.7,en;q=0.3","5f0214e58782120a8c970fd6","686d226cabeef709c732f8e1","686e3df4232d9b611ae5d044","5f0214e58782120a8c970fd6","","[{""page_index"":0,""viewing_time"":14646},{""page_index"":1,""viewing_time"":3600}]","","","","","","","","","","","","","","","","","","","","","","","","","","","","","","","","","","","","","","","","","","",""
"7288","","","{""Q0"":"""",""Q1"":"""",""Q2"":"""",""Q3"":"""",""Q4"":"""",""Q5"":"""",""Q6"":""I agree""}","survey-multi-choice","2","133358","0.0-2.0","252","1","2025-07-09 10:01:33","7701e855f2ef39aa3fd6c71abdc6918a","5.185.246.114","Mozilla/5.0 (Windows NT 10.0; Win64; x64; rv:140.0) Gecko/20100101 Firefox/140.0","","Firefox","140.0","Windows","10.0","https://app.prolific.com/","pl,en-US;q=0.7,en;q=0.3","5f0214e58782120a8c970fd6","686d226cabeef709c732f8e1","686e3df4232d9b611ae5d044","5f0214e58782120a8c970fd6","","","[0,1,2,3,4,5,6]","true","","","","","","","","","","","","","","","","","","","","","","","","","","","","","","","","","","","","","","","","",""
"5614","","","","fullscreen","3","140075","0.0-4.0","252","1","2025-07-09 10:01:33","7701e855f2ef39aa3fd6c71abdc6918a","5.185.246.114","Mozilla/5.0 (Windows NT 10.0; Win64; x64; rv:140.0) Gecko/20100101 Firefox/140.0","","Firefox","140.0","Windows","10.0","https://app.prolific.com/","pl,en-US;q=0.7,en;q=0.3","5f0214e58782120a8c970fd6","686d226cabeef709c732f8e1","686e3df4232d9b611ae5d044","5f0214e58782120a8c970fd6","","","","","true","","","","","","","","","","","","","","","","","","","","","","","","","","","","","","","","","","","","","","","",""
"3481","1752055439130"," <p style='font-size:1.1em;line-height:1.25'>Thank you for completing the consent form and closing all other tabs.</p><p style='font-size:1.1em;line-height:1.25'>We will now invite you to fill in some demographic information and questionnaires, before starting the game.<br>This will take about 5 minutes.<br></p><p style='font-size:1.1em;line-height:1.25'>Press the <strong>Next</strong> button to continue.</p>","0","custom-html-button-response","4","143561","0.0-5.0","252","1","2025-07-09 10:01:33","7701e855f2ef39aa3fd6c71abdc6918a","5.185.246.114","Mozilla/5.0 (Windows NT 10.0; Win64; x64; rv:140.0) Gecko/20100101 Firefox/140.0","","Firefox","140.0","Windows","10.0","https://app.prolific.com/","pl,en-US;q=0.7,en;q=0.3","5f0214e58782120a8c970fd6","686d226cabeef709c732f8e1","686e3df4232d9b611ae5d044","5f0214e58782120a8c970fd6","2025-07-09T10:03:59.131Z","","","","","","","","","","","","","","","","","","","","","","","","","","","","","","","","","","","","","","","","","","","",""
"8558","","","{""age"":""36""}","survey-text","5","152201","0.0-6.0-0.0","252","1","2025-07-09 10:01:33","7701e855f2ef39aa3fd6c71abdc6918a","5.185.246.114","Mozilla/5.0 (Windows NT 10.0; Win64; x64; rv:140.0) Gecko/20100101 Firefox/140.0","","Firefox","140.0","Windows","10.0","https://app.prolific.com/","pl,en-US;q=0.7,en;q=0.3","5f0214e58782120a8c970fd6","686d226cabeef709c732f8e1","686e3df4232d9b611ae5d044","5f0214e58782120a8c970fd6","","","","","","0","demographics","","","","","","","","","","","","","","","","","","","","","","","","","","","","","","","","","","","","","",""
"2129","","","{""gender_identity"":""female/woman""}","survey-multi-choice","6","154336","0.0-6.0-1.0","252","1","2025-07-09 10:01:33","7701e855f2ef39aa3fd6c71abdc6918a","5.185.246.114","Mozilla/5.0 (Windows NT 10.0; Win64; x64; rv:140.0) Gecko/20100101 Firefox/140.0","","Firefox","140.0","Windows","10.0","https://app.prolific.com/","pl,en-US;q=0.7,en;q=0.3","5f0214e58782120a8c970fd6","686d226cabeef709c732f8e1","686e3df4232d9b611ae5d044","5f0214e58782120a8c970fd6","","","[0]","","","1","demographics","","","","","","","","","","","","","","","","","","","","","","","","","","","","","","","","","","","","","",""
"2861","","","{""assigned_sex"":""female""}","survey-multi-choice","7","157201","0.0-6.0-2.0","252","1","2025-07-09 10:01:33","7701e855f2ef39aa3fd6c71abdc6918a","5.185.246.114","Mozilla/5.0 (Windows NT 10.0; Win64; x64; rv:140.0) Gecko/20100101 Firefox/140.0","","Firefox","140.0","Windows","10.0","https://app.prolific.com/","pl,en-US;q=0.7,en;q=0.3","5f0214e58782120a8c970fd6","686d226cabeef709c732f8e1","686e3df4232d9b611ae5d044","5f0214e58782120a8c970fd6","","","[0]","","","2","demographics","","","","","","","","","","","","","","","","","","","","","","","","","","","","","","","","","","","","","",""
"29248","","","{""menstrual_cycle"":""Yes""}","survey-multi-choice","8","186454","0.0-6.0-3.0","252","1","2025-07-09 10:01:33","7701e855f2ef39aa3fd6c71abdc6918a","5.185.246.114","Mozilla/5.0 (Windows NT 10.0; Win64; x64; rv:140.0) Gecko/20100101 Firefox/140.0","","Firefox","140.0","Windows","10.0","https://app.prolific.com/","pl,en-US;q=0.7,en;q=0.3","5f0214e58782120a8c970fd6","686d226cabeef709c732f8e1","686e3df4232d9b611ae5d044","5f0214e58782120a8c970fd6","","","[0]","","","4","demographics","","","","","","","","","","","","","","","","","","","","","","","","","","","","","","","","","","","","","",""
"6508","","","{""education"":""Master's Degree (e.g., MSc)""}","survey-multi-choice","9","192967","0.0-6.0-4.0","252","1","2025-07-09 10:01:33","7701e855f2ef39aa3fd6c71abdc6918a","5.185.246.114","Mozilla/5.0 (Windows NT 10.0; Win64; x64; rv:140.0) Gecko/20100101 Firefox/140.0","","Firefox","140.0","Windows","10.0","https://app.prolific.com/","pl,en-US;q=0.7,en;q=0.3","5f0214e58782120a8c970fd6","686d226cabeef709c732f8e1","686e3df4232d9b611ae5d044","5f0214e58782120a8c970fd6","","","[0]","","","5","demographics","","","","","","","","","","","","","","","","","","","","","","","","","","","","","","","","","","","","","",""
"9564","","","{""education"":""Bachelor's Degree (e.g., BA)""}","survey-multi-choice","10","202537","0.0-6.0-5.0","252","1","2025-07-09 10:01:33","7701e855f2ef39aa3fd6c71abdc6918a","5.185.246.114","Mozilla/5.0 (Windows NT 10.0; Win64; x64; rv:140.0) Gecko/20100101 Firefox/140.0","","Firefox","140.0","Windows","10.0","https://app.prolific.com/","pl,en-US;q=0.7,en;q=0.3","5f0214e58782120a8c970fd6","686d226cabeef709c732f8e1","686e3df4232d9b611ae5d044","5f0214e58782120a8c970fd6","2025-07-09T10:04:58.106Z","","[0]","","","6","demographics","","","","","","","","","","","","","","","","","","","","","","","","","","","","","","","","","","","","","",""
"80034","","","{""mental_health_condition"":""No"",""mental_health_treatment"":""No"",""psychiatric_medication"":""-""}","survey-text","11","282625","0.0-7.0-0.0","252","1","2025-07-09 10:01:33","7701e855f2ef39aa3fd6c71abdc6918a","5.185.246.114","Mozilla/5.0 (Windows NT 10.0; Win64; x64; rv:140.0) Gecko/20100101 Firefox/140.0","","Firefox","140.0","Windows","10.0","https://app.prolific.com/","pl,en-US;q=0.7,en;q=0.3","5f0214e58782120a8c970fd6","686d226cabeef709c732f8e1","686e3df4232d9b611ae5d044","5f0214e58782120a8c970fd6","2025-07-09T10:06:18.194Z","","","","","1","mental_health","","","","","","","","","","","","","","","","","","","","","","","","","","","","","","","","","","","","","",""
"6170","","","{""depression_history"":[""No""]}","survey-multi-select","12","288801","0.0-7.0-1.0","252","1","2025-07-09 10:01:33","7701e855f2ef39aa3fd6c71abdc6918a","5.185.246.114","Mozilla/5.0 (Windows NT 10.0; Win64; x64; rv:140.0) Gecko/20100101 Firefox/140.0","","Firefox","140.0","Windows","10.0","https://app.prolific.com/","pl,en-US;q=0.7,en;q=0.3","5f0214e58782120a8c970fd6","686d226cabeef709c732f8e1","686e3df4232d9b611ae5d044","5f0214e58782120a8c970fd6","","","[0]","","","","mental_health","","","","","","","","","","","","","","","","","","","","","","","","","","","","","","","","","","","","","",""
"133210","","","","survey-template","13","422021","0.0-7.0-3.0","252","1","2025-07-09 10:01:33","7701e855f2ef39aa3fd6c71abdc6918a","5.185.246.114","Mozilla/5.0 (Windows NT 10.0; Win64; x64; rv:140.0) Gecko/20100101 Firefox/140.0","","Firefox","140.0","Windows","10.0","https://app.prolific.com/","pl,en-US;q=0.7,en;q=0.3","5f0214e58782120a8c970fd6","686d226cabeef709c732f8e1","686e3df4232d9b611ae5d044","5f0214e58782120a8c970fd6","2025-07-09T10:08:37.590Z","","","","","","ius","{""Q01"":""0"",""Q02"":""2"",""Q03"":""2"",""Q04"":""2"",""Q05"":""1"",""Q06"":""1"",""Q07"":""0"",""Q08"":""0"",""Q09"":""2"",""Q10"":""1"",""Q11"":""0"",""Q12"":""4"",""Q13"":""1""}","[0,1,2,3,4,5,6,7,8,9,10,11,12]","[""Q01"",""Q02"",""Q03"",""Q04"",""Q05"",""Q06"",""Q07"",""Q08"",""Q09"",""Q09"",""Q10"",""Q11"",""Q13"",""Q12""]","[23857,28638,33611,98195,102857,105818,108741,112251,115417,117888,120755,123613,128707,132421]","[]","[23857,28638,33611,98195,101559,102857,105818,108741,112251,115417,117888,120755,123613,127416,128707,132421,133209]","0.3076923076923077","0.4166666666666667","0","","","","","","","","","","","","","","","","","","","","","","","","","","","","",""
"1445","1752055719037","<p style='font-size:1.1em;line-height:1.25'>In the following, we will ask you a few questions relating to your experiences over the past month.<br></p><p style='font-size:1.1em;line-height:1.25'>Press the <strong>Next</strong> button to continue.</p>","0","custom-html-button-response","14","423468","0.0-7.0-4.0","252","1","2025-07-09 10:01:33","7701e855f2ef39aa3fd6c71abdc6918a","5.185.246.114","Mozilla/5.0 (Windows NT 10.0; Win64; x64; rv:140.0) Gecko/20100101 Firefox/140.0","","Firefox","140.0","Windows","10.0","https://app.prolific.com/","pl,en-US;q=0.7,en;q=0.3","5f0214e58782120a8c970fd6","686d226cabeef709c732f8e1","686e3df4232d9b611ae5d044","5f0214e58782120a8c970fd6","2025-07-09T10:08:39.037Z","","","","","","","","","","","","","","","","","","","","","","","","","","","","","","","","","","","","","","","","","","","",""
"139551","","","","survey-template","15","563029","0.0-7.0-5.0","252","1","2025-07-09 10:01:33","7701e855f2ef39aa3fd6c71abdc6918a","5.185.246.114","Mozilla/5.0 (Windows NT 10.0; Win64; x64; rv:140.0) Gecko/20100101 Firefox/140.0","","Firefox","140.0","Windows","10.0","https://app.prolific.com/","pl,en-US;q=0.7,en;q=0.3","5f0214e58782120a8c970fd6","686d226cabeef709c732f8e1","686e3df4232d9b611ae5d044","5f0214e58782120a8c970fd6","2025-07-09T10:10:58.598Z","","","","","","pss","{""Q01"":""0"",""Q02"":""0"",""Q03"":""2"",""Q04"":""1"",""Q05"":""1"",""Q06"":""0"",""Q07"":""0"",""Q08"":""1"",""Q09"":""0"",""Q10"":""1""}","[0,1,2,3,4,5,6,7,8,9]","[""Q01"",""Q02"",""Q03"",""Q03"",""Q04"",""Q05"",""Q06"",""Q07"",""Q08"",""Q09"",""Q10"",""Q10""]","[89317,93742,96909,98663,103341,110711,115190,122464,127347,132724,136551,138512]","[]","[0,89317,93742,96909,98663,103341,109129,110711,115190,122464,127347,132724,136551,138512,139550]","0.4","0.4444444444444444","0","","","","","","","","","","","","","","","","","","","","","","","","","","","","",""
"2173","1752055860775","<p style='font-size:1.1em;line-height:1.25'>Thank you for your answers! Now we will ask you a few more questions relating to your feelings in the last 24 hours.<br></p><p style='font-size:1.1em;line-height:1.25'>Press the <strong>Next</strong> button to continue.</p>","0","custom-html-button-response","16","565206","0.0-7.0-6.0","252","1","2025-07-09 10:01:33","7701e855f2ef39aa3fd6c71abdc6918a","5.185.246.114","Mozilla/5.0 (Windows NT 10.0; Win64; x64; rv:140.0) Gecko/20100101 Firefox/140.0","","Firefox","140.0","Windows","10.0","https://app.prolific.com/","pl,en-US;q=0.7,en;q=0.3","5f0214e58782120a8c970fd6","686d226cabeef709c732f8e1","686e3df4232d9b611ae5d044","5f0214e58782120a8c970fd6","2025-07-09T10:11:00.775Z","","","","","","","","","","","","","","","","","","","","","","","","","","","","","","","","","","","","","","","","","","","",""
"37705","","","","survey-template","17","602922","0.0-7.0-7.0","252","1","2025-07-09 10:01:33","7701e855f2ef39aa3fd6c71abdc6918a","5.185.246.114","Mozilla/5.0 (Windows NT 10.0; Win64; x64; rv:140.0) Gecko/20100101 Firefox/140.0","","Firefox","140.0","Windows","10.0","https://app.prolific.com/","pl,en-US;q=0.7,en;q=0.3","5f0214e58782120a8c970fd6","686d226cabeef709c732f8e1","686e3df4232d9b611ae5d044","5f0214e58782120a8c970fd6","2025-07-09T10:11:38.492Z","","","","","","drsp","{""Q01"":""0"",""Q02"":""0"",""Q03"":""0"",""Q04"":""0"",""Q05"":""0"",""Q06"":""0"",""Q07"":""0"",""Q08"":""0"",""Q09"":""0"",""Q10"":""0"",""Q11"":""0"",""Q12"":""0"",""Q13"":""0"",""Q14"":""0"",""Q15"":""0"",""Q16"":""0"",""Q17"":""0"",""Q18"":""0"",""Q19"":""0"",""Q20"":""0"",""Q21"":""0""}","[0,1,2,3,4,5,6,7,8,9,10,11,12,13,14,15,16,17,18,19,20]","[""Q01"",""Q02"",""Q04"",""Q03"",""Q05"",""Q06"",""Q07"",""Q08"",""Q09"",""Q10"",""Q11"",""Q12"",""Q13"",""Q14"",""Q16"",""Q17"",""Q18"",""Q19"",""Q20"",""Q21"",""Q15""]","[4986,6197,7951,9629,11204,12371,13392,14391,16383,17636,18997,20265,21973,23503,25343,26775,28280,30304,31421,32886,36183]","[]","[0,4986,6197,7109,7951,9629,11204,12371,13392,14391,16383,17636,18997,20265,21973,23503,25343,26775,28280,30304,31421,32886,33909,36183,37703]","1","0","0","","","","","","","","","","","","","","","","","","","","","","","","","","","","",""
"15200","","","","survey-template","18","618128","0.0-7.0-8.0","252","1","2025-07-09 10:01:33","7701e855f2ef39aa3fd6c71abdc6918a","5.185.246.114","Mozilla/5.0 (Windows NT 10.0; Win64; x64; rv:140.0) Gecko/20100101 Firefox/140.0","","Firefox","140.0","Windows","10.0","https://app.prolific.com/","pl,en-US;q=0.7,en;q=0.3","5f0214e58782120a8c970fd6","686d226cabeef709c732f8e1","686e3df4232d9b611ae5d044","5f0214e58782120a8c970fd6","2025-07-09T10:11:53.697Z","","","","","","stress","{""Q01"":""1"",""Q02"":""0"",""Q03"":""0""}","[0,1,2]","[""Q01"",""Q02"",""Q02"",""Q03"",""Q03""]","[4723,9202,10264,12964,14211]","[]","[4723,9202,10264,12964,13729,14211,15199]","0.3333333333333333","0.5","0","","","","","","","","","","","","","","","","","","","","","","","","","","","","",""
"411069","","","","instructions","19","1029199","0.0-8.0-0.0","252","1","2025-07-09 10:01:33","7701e855f2ef39aa3fd6c71abdc6918a","5.185.246.114","Mozilla/5.0 (Windows NT 10.0; Win64; x64; rv:140.0) Gecko/20100101 Firefox/140.0","","Firefox","140.0","Windows","10.0","https://app.prolific.com/","pl,en-US;q=0.7,en;q=0.3","5f0214e58782120a8c970fd6","686d226cabeef709c732f8e1","686e3df4232d9b611ae5d044","5f0214e58782120a8c970fd6","","[{""page_index"":0,""viewing_time"":109783},{""page_index"":1,""viewing_time"":166894},{""page_index"":0,""viewing_time"":96532},{""page_index"":1,""viewing_time"":2732},{""page_index"":2,""viewing_time"":16349},{""page_index"":3,""viewing_time"":18778}]","","","","","","","","","","","","","","","","","","","","","","","","","","","","","","","","","","","","","","","","","","",""
"","","","","ctl-task-cpt","20","1049190","0.0-8.0-1.0","252","1","2025-07-09 10:01:33","7701e855f2ef39aa3fd6c71abdc6918a","5.185.246.114","Mozilla/5.0 (Windows NT 10.0; Win64; x64; rv:140.0) Gecko/20100101 Firefox/140.0","","Firefox","140.0","Windows","10.0","https://app.prolific.com/","pl,en-US;q=0.7,en;q=0.3","5f0214e58782120a8c970fd6","686d226cabeef709c732f8e1","686e3df4232d9b611ae5d044","5f0214e58782120a8c970fd6","","","","","","","","","","","","","","","","","win-only","3","g1:SW,g2:NE","1","0","1","1031835","1651","5657","16975","2","4","4","6","1","2","2","2","0","0.015151515151515152","1521","4000","3505","[""down"",""left""]","{""num_key_presses"":4,""num_perfect"":4,""num_errors"":0,""num_randdir"":0,""num_randdir_good_moves"":0,""num_whilered"":0,""num_whileblue"":0,""num_blue"":0,""num_good_moves"":4}","[299.22857753208706,295.92857448032925,0,299.22857753208706,295.92857448032925,106,299.22857753208706,295.92857448032925,211,299.22857753208706,295.92857448032925,326,299.22857753208706,295.92857448032925,427,299.22857753208706,295.92857448032925,527,299.22857753208706,295.92857448032925,627,306.22857753208706,296.92857448032925,728,323.22857753208706,302.92857448032925,850,315.22857753208706,312.92857448032925,951,182.22857753208706,427.92857448032925,1066,134.22857753208706,481.92857448032925,1166,103.22857753208706,515.9285744803292,1266,99.22857753208706,517.9285744803292,1367,77.22857753208706,519.9285744803292,1478,77.22857753208706,519.9285744803292,1580,77.22857753208706,519.9285744803292,1680,77.22857753208706,519.9285744803292,1788,77.22857753208706,519.9285744803292,1888,77.22857753208706,519.9285744803292,1998,99.22857753208706,513.9285744803292,2109,104.22857753208706,512.9285744803292,2227,104.22857753208706,512.9285744803292,2339,104.22857753208706,512.9285744803292,2441,104.22857753208706,512.9285744803292,2542,104.22857753208706,512.9285744803292,2643,104.22857753208706,512.9285744803292,2743,104.22857753208706,512.9285744803292,2843,104.22857753208706,512.9285744803292,2943,104.22857753208706,512.9285744803292,3065,104.22857753208706,512.9285744803292,3171,104.22857753208706,512.9285744803292,3271,104.22857753208706,512.9285744803292,3372,104.22857753208706,512.9285744803292,3472,104.22857753208706,512.9285744803292,3572,104.22857753208706,512.9285744803292,3672,104.22857753208706,512.9285744803292,3772,104.22857753208706,512.9285744803292,3872,104.22857753208706,512.9285744803292,3972]","[1458,1458,1000,0,458,""smooth"",""down"",""down"",""good_move"",4565,3108,2594.4,1458,513.6,""smooth"",""down"",""down"",""good_move"",7373,2806,2424.3,4567,381.7,""smooth"",""left"",""left"",""good_move"",11006,3633,3229.8,7373,403.2,""smooth"",""left"",""left"",""good_move""]","",""
"37345","","","","instructions","21","1086536","0.0-8.0-2.0","252","1","2025-07-09 10:01:33","7701e855f2ef39aa3fd6c71abdc6918a","5.185.246.114","Mozilla/5.0 (Windows NT 10.0; Win64; x64; rv:140.0) Gecko/20100101 Firefox/140.0","","Firefox","140.0","Windows","10.0","https://app.prolific.com/","pl,en-US;q=0.7,en;q=0.3","5f0214e58782120a8c970fd6","686d226cabeef709c732f8e1","686e3df4232d9b611ae5d044","5f0214e58782120a8c970fd6","","[{""page_index"":0,""viewing_time"":37345}]","","","","","","","","","","","","","","","","","","","","","","","","","","","","","","","","","","","","","","","","","","",""
"","","","","ctl-task-cpt","22","1165284","0.0-8.0-3.0","252","1","2025-07-09 10:01:33","7701e855f2ef39aa3fd6c71abdc6918a","5.185.246.114","Mozilla/5.0 (Windows NT 10.0; Win64; x64; rv:140.0) Gecko/20100101 Firefox/140.0","","Firefox","140.0","Windows","10.0","https://app.prolific.com/","pl,en-US;q=0.7,en;q=0.3","5f0214e58782120a8c970fd6","686d226cabeef709c732f8e1","686e3df4232d9b611ae5d044","5f0214e58782120a8c970fd6","","","","","","","","","","","","","","","","","win-only","3","g1:SW,g2:NE","0.35","0","3","1089165","1436","5448","75743","2","4","8","6","2","8","6","6","0","0.045454545454545456","1575","4000","1965","[""up"",""right""]","{""num_key_presses"":15,""num_perfect"":5,""num_errors"":2,""num_randdir"":8,""num_randdir_good_moves"":4,""num_whilered"":0,""num_whileblue"":1,""num_blue"":8,""num_good_moves"":10}","[300.22857753208706,302.92857448032925,0,300.22857753208706,301.92857448032925,113,300.22857753208706,301.92857448032925,213,300.22857753208706,301.92857448032925,313,300.22857753208706,301.92857448032925,413,300.22857753208706,301.92857448032925,513,300.22857753208706,301.92857448032925,617,300.22857753208706,301.92857448032925,737,300.22857753208706,301.92857448032925,838,300.22857753208706,301.92857448032925,938,300.22857753208706,301.92857448032925,1038,470.22857753208706,176.92857448032925,1157,561.228577532087,127.92857448032925,1274,571.228577532087,91.92857448032925,1374,554.228577532087,61.92857448032924,1487,549.228577532087,55.92857448032924,1587,549.228577532087,54.92857448032924,1688,549.228577532087,56.92857448032924,1790,549.228577532087,56.92857448032924,1908,549.228577532087,56.92857448032924,2008,549.228577532087,56.92857448032924,2121,549.228577532087,56.92857448032924,2226,549.228577532087,56.92857448032924,2338,549.228577532087,56.92857448032924,2438,549.228577532087,56.92857448032924,2540,549.228577532087,56.92857448032924,2662,549.228577532087,56.92857448032924,2763,549.228577532087,56.92857448032924,2863,549.228577532087,56.92857448032924,2963,549.228577532087,56.92857448032924,3063,549.228577532087,56.92857448032924,3176,537.228577532087,66.92857448032925,3288,537.228577532087,66.92857448032925,3395,537.228577532087,66.92857448032925,3495,537.228577532087,66.92857448032925,3595,537.228577532087,66.92857448032925,3696,537.228577532087,66.92857448032925,3796,537.228577532087,66.92857448032925,3896,537.228577532087,66.92857448032925,3996]","[443,443,1000,0,-557,""error"",""-"",""-"",""no_move"",8232,7789,2536.4,5235,460.6,""smooth"",""right"",""right"",""good_move"",10994,2762,2182.6,8232,579.4,""oops"",""right"",""down"",""bad_move"",14432,3438,2613.7,10994,824.3,""oops"",""up"",""left"",""bad_move"",17634,3202,2856,14432,346,""while_blue"",""right"",""right"",""good_move"",20511,2877,2357.9,17634,519.1,""smooth"",""right"",""right"",""good_move"",27066,6554,2009.2,24571,485.8,""smooth"",""right"",""right"",""good_move"",29816,2750,2223,27066,527,""smooth"",""up"",""up"",""good_move"",33147,3331,2196.2,29816,1134.8,""oops"",""up"",""up"",""good_move"",36486,3339,2670.7,33147,668.3,""oops"",""up"",""up"",""good_move"",39692,3206,2237.2,36486,968.8,""oops"",""up"",""down"",""bad_move"",43002,3310,2594.3,39692,715.7,""oops"",""up"",""left"",""bad_move"",63057,20055,2097.1,60573,386.9,""smooth"",""up"",""up"",""good_move"",66561,3504,3067.4,63057,436.6,""oops"",""up"",""up"",""good_move"",69967,3406,2963,66561,443,""oops"",""right"",""right"",""good_move""]","",""
"37062","","","","instructions","23","1202347","0.0-8.0-4.0","252","1","2025-07-09 10:01:33","7701e855f2ef39aa3fd6c71abdc6918a","5.185.246.114","Mozilla/5.0 (Windows NT 10.0; Win64; x64; rv:140.0) Gecko/20100101 Firefox/140.0","","Firefox","140.0","Windows","10.0","https://app.prolific.com/","pl,en-US;q=0.7,en;q=0.3","5f0214e58782120a8c970fd6","686d226cabeef709c732f8e1","686e3df4232d9b611ae5d044","5f0214e58782120a8c970fd6","","[{""page_index"":0,""viewing_time"":6845},{""page_index"":1,""viewing_time"":30217}]","","","","","","","","","","","","","","","","","","","","","","","","","","","","","","","","","","","","","","","","","","",""
"11796","","","{""green_ball"":[""Ball sometimes shakes and moves in a random direction""]}","survey-multi-select","24","1214146","0.0-8.0-5.0-0.0","252","1","2025-07-09 10:01:33","7701e855f2ef39aa3fd6c71abdc6918a","5.185.246.114","Mozilla/5.0 (Windows NT 10.0; Win64; x64; rv:140.0) Gecko/20100101 Firefox/140.0","","Firefox","140.0","Windows","10.0","https://app.prolific.com/","pl,en-US;q=0.7,en;q=0.3","5f0214e58782120a8c970fd6","686d226cabeef709c732f8e1","686e3df4232d9b611ae5d044","5f0214e58782120a8c970fd6","","","[0]","","","","quiz","","","","","","","","","","","","","","","","","","","","","","","","","","","","","","","","","","","","","true",""
"1297","","<p align='center'><b>CORRECT!</b> Indeed, the green ball may sometimes shake and move in a random direction.</p>","0","html-button-response","25","1215446","0.0-8.0-5.0-1.0","252","1","2025-07-09 10:01:33","7701e855f2ef39aa3fd6c71abdc6918a","5.185.246.114","Mozilla/5.0 (Windows NT 10.0; Win64; x64; rv:140.0) Gecko/20100101 Firefox/140.0","","Firefox","140.0","Windows","10.0","https://app.prolific.com/","pl,en-US;q=0.7,en;q=0.3","5f0214e58782120a8c970fd6","686d226cabeef709c732f8e1","686e3df4232d9b611ae5d044","5f0214e58782120a8c970fd6","","","","","","","","","","","","","","","","","","","","","","","","","","","","","","","","","","","","","","","","","","","","",""
"13423","","","{""yellow_ball"":[""Ball doesn‘t move and I get -1 penalty point""]}","survey-multi-select","26","1228875","0.0-8.0-6.0-0.0","252","1","2025-07-09 10:01:33","7701e855f2ef39aa3fd6c71abdc6918a","5.185.246.114","Mozilla/5.0 (Windows NT 10.0; Win64; x64; rv:140.0) Gecko/20100101 Firefox/140.0","","Firefox","140.0","Windows","10.0","https://app.prolific.com/","pl,en-US;q=0.7,en;q=0.3","5f0214e58782120a8c970fd6","686d226cabeef709c732f8e1","686e3df4232d9b611ae5d044","5f0214e58782120a8c970fd6","","","[0]","","","","quiz","","","","","","","","","","","","","","","","","","","","","","","","","","","","","","","","","","","","","true",""
"1206","","<p align='center'><b>CORRECT!</b> Indeed, the yellow ball never moves and you receive a penalty.</p>","0","html-button-response","27","1230085","0.0-8.0-6.0-1.0","252","1","2025-07-09 10:01:33","7701e855f2ef39aa3fd6c71abdc6918a","5.185.246.114","Mozilla/5.0 (Windows NT 10.0; Win64; x64; rv:140.0) Gecko/20100101 Firefox/140.0","","Firefox","140.0","Windows","10.0","https://app.prolific.com/","pl,en-US;q=0.7,en;q=0.3","5f0214e58782120a8c970fd6","686d226cabeef709c732f8e1","686e3df4232d9b611ae5d044","5f0214e58782120a8c970fd6","","","","","","","","","","","","","","","","","","","","","","","","","","","","","","","","","","","","","","","","","","","","",""
"31036","","","{""blue_ball"":[""Ball always shakes and moves in a random direction""]}","survey-multi-select","28","1261128","0.0-8.0-7.0-0.0","252","1","2025-07-09 10:01:33","7701e855f2ef39aa3fd6c71abdc6918a","5.185.246.114","Mozilla/5.0 (Windows NT 10.0; Win64; x64; rv:140.0) Gecko/20100101 Firefox/140.0","","Firefox","140.0","Windows","10.0","https://app.prolific.com/","pl,en-US;q=0.7,en;q=0.3","5f0214e58782120a8c970fd6","686d226cabeef709c732f8e1","686e3df4232d9b611ae5d044","5f0214e58782120a8c970fd6","","","[0]","","","","quiz","","","","","","","","","","","","","","","","","","","","","","","","","","","","","","","","","","","","","true",""
"1776","","<p align='center'><b>CORRECT!</b> Indeed, the blue ball always shakes and moves in a random direction. Also there is a penalty of -1 point.</p>","0","html-button-response","29","1262908","0.0-8.0-7.0-1.0","252","1","2025-07-09 10:01:33","7701e855f2ef39aa3fd6c71abdc6918a","5.185.246.114","Mozilla/5.0 (Windows NT 10.0; Win64; x64; rv:140.0) Gecko/20100101 Firefox/140.0","","Firefox","140.0","Windows","10.0","https://app.prolific.com/","pl,en-US;q=0.7,en;q=0.3","5f0214e58782120a8c970fd6","686d226cabeef709c732f8e1","686e3df4232d9b611ae5d044","5f0214e58782120a8c970fd6","","","","","","","","","","","","","","","","","","","","","","","","","","","","","","","","","","","","","","","","","","","","",""
"10881","","","{""bonus"":[""When I reach 50% of points""]}","survey-multi-select","30","1273794","0.0-8.0-8.0-0.0","252","1","2025-07-09 10:01:33","7701e855f2ef39aa3fd6c71abdc6918a","5.185.246.114","Mozilla/5.0 (Windows NT 10.0; Win64; x64; rv:140.0) Gecko/20100101 Firefox/140.0","","Firefox","140.0","Windows","10.0","https://app.prolific.com/","pl,en-US;q=0.7,en;q=0.3","5f0214e58782120a8c970fd6","686d226cabeef709c732f8e1","686e3df4232d9b611ae5d044","5f0214e58782120a8c970fd6","","","[0]","","","","quiz","","","","","","","","","","","","","","","","","","","","","","","","","","","","","","","","","","","","","true",""
"2027","","<p align='center'><b>CORRECT!</b> Indeed, you receive 2 pounds extra when you reach 50% of points.</p>","0","html-button-response","31","1275823","0.0-8.0-8.0-1.0","252","1","2025-07-09 10:01:33","7701e855f2ef39aa3fd6c71abdc6918a","5.185.246.114","Mozilla/5.0 (Windows NT 10.0; Win64; x64; rv:140.0) Gecko/20100101 Firefox/140.0","","Firefox","140.0","Windows","10.0","https://app.prolific.com/","pl,en-US;q=0.7,en;q=0.3","5f0214e58782120a8c970fd6","686d226cabeef709c732f8e1","686e3df4232d9b611ae5d044","5f0214e58782120a8c970fd6","","","","","","","","","","","","","","","","","","","","","","","","","","","","","","","","","","","","","","","","","","","","",""
"88188","","","","instructions","32","1364014","0.0-8.0-9.0","252","1","2025-07-09 10:01:33","7701e855f2ef39aa3fd6c71abdc6918a","5.185.246.114","Mozilla/5.0 (Windows NT 10.0; Win64; x64; rv:140.0) Gecko/20100101 Firefox/140.0","","Firefox","140.0","Windows","10.0","https://app.prolific.com/","pl,en-US;q=0.7,en;q=0.3","5f0214e58782120a8c970fd6","686d226cabeef709c732f8e1","686e3df4232d9b611ae5d044","5f0214e58782120a8c970fd6","","[{""page_index"":0,""viewing_time"":88188}]","","","","","","","","","","","","","","","","","","","","","","","","","","","","","","","","","","","","","","","","","","",""
"14838","","<p>Before you start with this game please answer the following three questions yourself. </p>
  <p>Through this game, we measure several aspects of your cognitive performance, such as reaction times, multi-tasking capabilities </p>
  <p>and the ability to assess the situation you are in.</p>
  <p></p>
  <p><b>How good do you usually are in such tasks?</b></p>","93","html-slider-response","33","1378858","0.0-9.0-0.0","252","1","2025-07-09 10:01:33","7701e855f2ef39aa3fd6c71abdc6918a","5.185.246.114","Mozilla/5.0 (Windows NT 10.0; Win64; x64; rv:140.0) Gecko/20100101 Firefox/140.0","","Firefox","140.0","Windows","10.0","https://app.prolific.com/","pl,en-US;q=0.7,en;q=0.3","5f0214e58782120a8c970fd6","686d226cabeef709c732f8e1","686e3df4232d9b611ae5d044","5f0214e58782120a8c970fd6","2025-07-09T10:24:34.427Z","","","","","","PreSkillQ","","","","","","","","","","","","","","","","","","","","","","","","","","","","","","","","","","","","","","50"
"5331","","<div style=""width:500px;"">
  <p>How well do you think you will perform in this task compared to other participants?</p>
  </div>","50","html-slider-response","34","1384194","0.0-9.0-1.0","252","1","2025-07-09 10:01:33","7701e855f2ef39aa3fd6c71abdc6918a","5.185.246.114","Mozilla/5.0 (Windows NT 10.0; Win64; x64; rv:140.0) Gecko/20100101 Firefox/140.0","","Firefox","140.0","Windows","10.0","https://app.prolific.com/","pl,en-US;q=0.7,en;q=0.3","5f0214e58782120a8c970fd6","686d226cabeef709c732f8e1","686e3df4232d9b611ae5d044","5f0214e58782120a8c970fd6","2025-07-09T10:24:39.763Z","","","","","","PrePerfQ","","","","","","","","","","","","","","","","","","","","","","","","","","","","","","","","","","","","","","50"
"4262","","<div style=""width:500px;"">
  <p>What best describes how you currently feel?</p>
  </div>","84","html-slider-response","35","1388459","0.0-9.0-2.0","252","1","2025-07-09 10:01:33","7701e855f2ef39aa3fd6c71abdc6918a","5.185.246.114","Mozilla/5.0 (Windows NT 10.0; Win64; x64; rv:140.0) Gecko/20100101 Firefox/140.0","","Firefox","140.0","Windows","10.0","https://app.prolific.com/","pl,en-US;q=0.7,en;q=0.3","5f0214e58782120a8c970fd6","686d226cabeef709c732f8e1","686e3df4232d9b611ae5d044","5f0214e58782120a8c970fd6","2025-07-09T10:24:44.028Z","","","","","","PreMotivationQ","","","","","","","","","","","","","","","","","","","","","","","","","","","","","","","","","","","","","","50"
"","","","","ctl-task-cpt","36","1419022","0.0-10.0-0.0","252","1","2025-07-09 10:01:33","7701e855f2ef39aa3fd6c71abdc6918a","5.185.246.114","Mozilla/5.0 (Windows NT 10.0; Win64; x64; rv:140.0) Gecko/20100101 Firefox/140.0","","Firefox","140.0","Windows","10.0","https://app.prolific.com/","pl,en-US;q=0.7,en;q=0.3","5f0214e58782120a8c970fd6","686d226cabeef709c732f8e1","686e3df4232d9b611ae5d044","5f0214e58782120a8c970fd6","2025-07-09T10:25:14.591Z","","","","","","","","","","","","","","","","win-only","1","g1:NE,g2:SW","1","1","0","1391091","1342","6357","27543","1","4","4","6","2","4","4","4","0","0.030303030303030304","2360","3000","2100","[""down"",""left""]","{""num_key_presses"":6,""num_perfect"":6,""num_errors"":0,""num_randdir"":0,""num_randdir_good_moves"":0,""num_whilered"":0,""num_whileblue"":0,""num_blue"":1,""num_good_moves"":6}","[299.22857753208706,299.92857448032925,0,299.22857753208706,299.92857448032925,103,299.22857753208706,299.92857448032925,203,299.22857753208706,299.92857448032925,303,299.22857753208706,299.92857448032925,403,299.22857753208706,299.92857448032925,503,299.22857753208706,299.92857448032925,603,223.22857753208706,375.92857448032925,703,165.22857753208706,452.92857448032925,804,131.22857753208706,494.92857448032925,919,106.22857753208706,523.9285744803292,1019,106.22857753208706,523.9285744803292,1133,284.22857753208706,396.92857448032925,1235,479.22857753208706,197.92857448032925,1335,491.22857753208706,178.92857448032925,1446,323.22857753208706,261.92857448032925,1547,137.22857753208706,433.92857448032925,1648,127.22857753208706,480.92857448032925,1748,121.22857753208706,492.92857448032925,1848,77.22857753208706,509.92857448032925,1949,65.22857753208706,514.9285744803292,2063,65.22857753208706,514.9285744803292,2176,65.22857753208706,514.9285744803292,2278,65.22857753208706,514.9285744803292,2386,65.22857753208706,514.9285744803292,2499,65.22857753208706,514.9285744803292,2600,65.22857753208706,514.9285744803292,2710,65.22857753208706,514.9285744803292,2810,65.22857753208706,514.9285744803292,2917,65.22857753208706,514.9285744803292,3017,65.22857753208706,514.9285744803292,3117,65.22857753208706,514.9285744803292,3237,65.22857753208706,514.9285744803292,3362,65.22857753208706,514.9285744803292,3463,65.22857753208706,514.9285744803292,3563,65.22857753208706,514.9285744803292,3664,65.22857753208706,514.9285744803292,3764,65.22857753208706,514.9285744803292,3865,65.22857753208706,514.9285744803292,3965,130.22857753208706,502.92857448032925,4065,614.228577532087,495.92857448032925,4165,708.228577532087,484.92857448032925,4269,709.228577532087,484.92857448032925,4374,730.228577532087,480.92857448032925,4475,730.228577532087,480.92857448032925,4597,730.228577532087,480.92857448032925,4698,730.228577532087,480.92857448032925,4798,730.228577532087,480.92857448032925,4901]","[1528,1528,1000,0,528,""smooth"",""down"",""down"",""good_move"",4134,2606,2137.4,1528,468.6,""smooth"",""left"",""left"",""good_move"",11428,7294,2837.2,8051,539.8,""smooth"",""down"",""down"",""good_move"",14476,3048,2631.3,11428,416.7,""smooth"",""down"",""down"",""good_move"",17633,3156,2541.8,14477,614.2,""smooth"",""left"",""left"",""good_move"",20878,3244,2414,17634,830,""smooth"",""left"",""left"",""good_move""]","",""
"5572","","<div style=""width:500px;"">
  <p>What determined the result of this run?</p>
  </div>","92","html-slider-response","37","1424596","0.0-10.0-1.0","252","1","2025-07-09 10:01:33","7701e855f2ef39aa3fd6c71abdc6918a","5.185.246.114","Mozilla/5.0 (Windows NT 10.0; Win64; x64; rv:140.0) Gecko/20100101 Firefox/140.0","","Firefox","140.0","Windows","10.0","https://app.prolific.com/","pl,en-US;q=0.7,en;q=0.3","5f0214e58782120a8c970fd6","686d226cabeef709c732f8e1","686e3df4232d9b611ae5d044","5f0214e58782120a8c970fd6","2025-07-09T10:25:20.165Z","","","","","","AttribQ","","","","","","","","","","","","","","","","","","","","","","","","","","","","","","","","","","","","","","50"
"3035","","<div style=""width:500px;"">
  <p>How much control did you have over the ball?</p>
  </div>","99","html-slider-response","38","1427633","0.0-10.0-2.0","252","1","2025-07-09 10:01:33","7701e855f2ef39aa3fd6c71abdc6918a","5.185.246.114","Mozilla/5.0 (Windows NT 10.0; Win64; x64; rv:140.0) Gecko/20100101 Firefox/140.0","","Firefox","140.0","Windows","10.0","https://app.prolific.com/","pl,en-US;q=0.7,en;q=0.3","5f0214e58782120a8c970fd6","686d226cabeef709c732f8e1","686e3df4232d9b611ae5d044","5f0214e58782120a8c970fd6","2025-07-09T10:25:23.202Z","","","","","","ControlQ","","","","","","","","","","","","","","","","","","","","","","","","","","","","","","","","","","","","","","50"
"5846","","<div style=""width:500px;"">
  <p>How would you describe your current emotional state?</p>
  </div>","29","html-slider-response","39","1433482","0.0-10.0-3.0","252","1","2025-07-09 10:01:33","7701e855f2ef39aa3fd6c71abdc6918a","5.185.246.114","Mozilla/5.0 (Windows NT 10.0; Win64; x64; rv:140.0) Gecko/20100101 Firefox/140.0","","Firefox","140.0","Windows","10.0","https://app.prolific.com/","pl,en-US;q=0.7,en;q=0.3","5f0214e58782120a8c970fd6","686d226cabeef709c732f8e1","686e3df4232d9b611ae5d044","5f0214e58782120a8c970fd6","2025-07-09T10:25:29.051Z","","","","","","StressQ","","","","","","","","","","","","","","","","","","","","","","","","","","","","","","","","","","","","","","50"
"3016","","<div style=""width:500px;"">
  <p>What best describes how you currently feel?</p>
  </div>","95","html-slider-response","40","1436502","0.0-10.0-4.0","252","1","2025-07-09 10:01:33","7701e855f2ef39aa3fd6c71abdc6918a","5.185.246.114","Mozilla/5.0 (Windows NT 10.0; Win64; x64; rv:140.0) Gecko/20100101 Firefox/140.0","","Firefox","140.0","Windows","10.0","https://app.prolific.com/","pl,en-US;q=0.7,en;q=0.3","5f0214e58782120a8c970fd6","686d226cabeef709c732f8e1","686e3df4232d9b611ae5d044","5f0214e58782120a8c970fd6","2025-07-09T10:25:32.071Z","","","","","","MotivationQ","","","","","","","","","","","","","","","","","","","","","","","","","","","","","","","","","","","","","","50"
"","","","","ctl-task-cpt","41","1479277","0.0-10.0-0.1","252","1","2025-07-09 10:01:33","7701e855f2ef39aa3fd6c71abdc6918a","5.185.246.114","Mozilla/5.0 (Windows NT 10.0; Win64; x64; rv:140.0) Gecko/20100101 Firefox/140.0","","Firefox","140.0","Windows","10.0","https://app.prolific.com/","pl,en-US;q=0.7,en;q=0.3","5f0214e58782120a8c970fd6","686d226cabeef709c732f8e1","686e3df4232d9b611ae5d044","5f0214e58782120a8c970fd6","2025-07-09T10:26:14.846Z","","","","","","","","","","","","","","","","win-only","1","g1:NE,g2:SW","0.9","2","0","1439131","1077","6091","39767","1","4","8","6","2","8","7","11","4","0.08333333333333333","960","3000","1870","[""down"",""left""]","{""num_key_presses"":8,""num_perfect"":7,""num_errors"":1,""num_randdir"":0,""num_randdir_good_moves"":0,""num_whilered"":0,""num_whileblue"":1,""num_blue"":3,""num_good_moves"":7}","[291.22857753208706,293.92857448032925,0,291.22857753208706,293.92857448032925,109,291.22857753208706,293.92857448032925,209,291.22857753208706,293.92857448032925,310,291.22857753208706,293.92857448032925,410,291.22857753208706,293.92857448032925,510,187.22857753208706,379.92857448032925,610,88.22857753208706,474.92857448032925,710,67.22857753208706,508.92857448032925,811,57.22857753208705,524.9285744803292,913,57.22857753208705,524.9285744803292,1014,57.22857753208705,524.9285744803292,1124,57.22857753208705,524.9285744803292,1224,57.22857753208705,524.9285744803292,1325,533.228577532087,470.92857448032925,1449,775.228577532087,419.92857448032925,1564,775.228577532087,419.92857448032925,1665,842.228577532087,404.92857448032925,1765,841.228577532087,404.92857448032925,1880,841.228577532087,404.92857448032925,1981,841.228577532087,404.92857448032925,2093,841.228577532087,404.92857448032925,2193,841.228577532087,404.92857448032925,2308,841.228577532087,404.92857448032925,2413,841.228577532087,404.92857448032925,2514,841.228577532087,404.92857448032925,2614,841.228577532087,404.92857448032925,2714,841.228577532087,404.92857448032925,2814,841.228577532087,404.92857448032925,2915,841.228577532087,404.92857448032925,3030,841.228577532087,404.92857448032925,3149,841.228577532087,404.92857448032925,3266,841.228577532087,404.92857448032925,3382,841.228577532087,404.92857448032925,3483,841.228577532087,404.92857448032925,3583,841.228577532087,404.92857448032925,3683,841.228577532087,404.92857448032925,3783,841.228577532087,404.92857448032925,3884,841.228577532087,404.92857448032925,3999,841.228577532087,404.92857448032925,4099,841.228577532087,404.92857448032925,4199,841.228577532087,404.92857448032925,4301,841.228577532087,404.92857448032925,4414,841.228577532087,404.92857448032925,4514,841.228577532087,404.92857448032925,4614,841.228577532087,404.92857448032925,4714,841.228577532087,404.92857448032925,4814,841.228577532087,404.92857448032925,4914]","[1460,1460,1000,0,460,""smooth"",""down"",""down"",""good_move"",8654,7194,2449.4,5696,508.6,""smooth"",""left"",""left"",""good_move"",12040,3386,2100.4,8654,1285.6,""smooth"",""left"",""left"",""good_move"",15280,3240,2125.2,12040,1114.8,""smooth"",""down"",""down"",""good_move"",19008,3727,3302.5,15281,424.5,""smooth"",""down"",""down"",""good_move"",21859,2851,2477,19008,374,""while_blue"",""left"",""up"",""bad_move"",29482,7623,3075.9,25793,613.1,""smooth"",""down"",""down"",""good_move"",33351,3869,2949.3,29482,919.7,""smooth"",""left"",""left"",""good_move""]","",""
"4169","","<div style=""width:500px;"">
  <p>What determined the result of this run?</p>
  </div>","94","html-slider-response","42","1483447","0.0-10.0-1.1","252","1","2025-07-09 10:01:33","7701e855f2ef39aa3fd6c71abdc6918a","5.185.246.114","Mozilla/5.0 (Windows NT 10.0; Win64; x64; rv:140.0) Gecko/20100101 Firefox/140.0","","Firefox","140.0","Windows","10.0","https://app.prolific.com/","pl,en-US;q=0.7,en;q=0.3","5f0214e58782120a8c970fd6","686d226cabeef709c732f8e1","686e3df4232d9b611ae5d044","5f0214e58782120a8c970fd6","2025-07-09T10:26:19.016Z","","","","","","AttribQ","","","","","","","","","","","","","","","","","","","","","","","","","","","","","","","","","","","","","","50"
"3695","","<div style=""width:500px;"">
  <p>How much control did you have over the ball?</p>
  </div>","83","html-slider-response","43","1487146","0.0-10.0-2.1","252","1","2025-07-09 10:01:33","7701e855f2ef39aa3fd6c71abdc6918a","5.185.246.114","Mozilla/5.0 (Windows NT 10.0; Win64; x64; rv:140.0) Gecko/20100101 Firefox/140.0","","Firefox","140.0","Windows","10.0","https://app.prolific.com/","pl,en-US;q=0.7,en;q=0.3","5f0214e58782120a8c970fd6","686d226cabeef709c732f8e1","686e3df4232d9b611ae5d044","5f0214e58782120a8c970fd6","2025-07-09T10:26:22.715Z","","","","","","ControlQ","","","","","","","","","","","","","","","","","","","","","","","","","","","","","","","","","","","","","","50"
"2681","","<div style=""width:500px;"">
  <p>How would you describe your current emotional state?</p>
  </div>","15","html-slider-response","44","1489829","0.0-10.0-3.1","252","1","2025-07-09 10:01:33","7701e855f2ef39aa3fd6c71abdc6918a","5.185.246.114","Mozilla/5.0 (Windows NT 10.0; Win64; x64; rv:140.0) Gecko/20100101 Firefox/140.0","","Firefox","140.0","Windows","10.0","https://app.prolific.com/","pl,en-US;q=0.7,en;q=0.3","5f0214e58782120a8c970fd6","686d226cabeef709c732f8e1","686e3df4232d9b611ae5d044","5f0214e58782120a8c970fd6","2025-07-09T10:26:25.398Z","","","","","","StressQ","","","","","","","","","","","","","","","","","","","","","","","","","","","","","","","","","","","","","","50"
"2572","","<div style=""width:500px;"">
  <p>What best describes how you currently feel?</p>
  </div>","96","html-slider-response","45","1492404","0.0-10.0-4.1","252","1","2025-07-09 10:01:33","7701e855f2ef39aa3fd6c71abdc6918a","5.185.246.114","Mozilla/5.0 (Windows NT 10.0; Win64; x64; rv:140.0) Gecko/20100101 Firefox/140.0","","Firefox","140.0","Windows","10.0","https://app.prolific.com/","pl,en-US;q=0.7,en;q=0.3","5f0214e58782120a8c970fd6","686d226cabeef709c732f8e1","686e3df4232d9b611ae5d044","5f0214e58782120a8c970fd6","2025-07-09T10:26:27.973Z","","","","","","MotivationQ","","","","","","","","","","","","","","","","","","","","","","","","","","","","","","","","","","","","","","50"
"","","","","ctl-task-cpt","46","1513337","0.0-10.0-0.2","252","1","2025-07-09 10:01:33","7701e855f2ef39aa3fd6c71abdc6918a","5.185.246.114","Mozilla/5.0 (Windows NT 10.0; Win64; x64; rv:140.0) Gecko/20100101 Firefox/140.0","","Firefox","140.0","Windows","10.0","https://app.prolific.com/","pl,en-US;q=0.7,en;q=0.3","5f0214e58782120a8c970fd6","686d226cabeef709c732f8e1","686e3df4232d9b611ae5d044","5f0214e58782120a8c970fd6","2025-07-09T10:26:48.906Z","","","","","","","","","","","","","","","","win-only","0","g1:NW,g2:SE","0.8","3","0","1495036","876","5890","17925","1","4","4","6","1","1","1","12","11","0.09090909090909091","1976","3000","2345","[""left"",""up""]","{""num_key_presses"":4,""num_perfect"":4,""num_errors"":0,""num_randdir"":0,""num_randdir_good_moves"":0,""num_whilered"":0,""num_whileblue"":0,""num_blue"":0,""num_good_moves"":4}","[294.22857753208706,294.92857448032925,0,294.22857753208706,293.92857448032925,102,294.22857753208706,293.92857448032925,202,294.22857753208706,293.92857448032925,302,294.22857753208706,293.92857448032925,403,294.22857753208706,293.92857448032925,518,304.22857753208706,298.92857448032925,618,355.22857753208706,330.92857448032925,718,355.22857753208706,330.92857448032925,818,355.22857753208706,331.92857448032925,918,284.22857753208706,277.92857448032925,1020,176.22857753208706,141.92857448032925,1126,141.22857753208706,88.92857448032925,1226,96.22857753208706,55.92857448032924,1344,75.22857753208706,52.92857448032924,1458,75.22857753208706,52.92857448032924,1573,75.22857753208706,52.92857448032924,1674,75.22857753208706,51.92857448032924,1787,75.22857753208706,51.92857448032924,1887,75.22857753208706,51.92857448032924,2008,75.22857753208706,51.92857448032924,2110,75.22857753208706,51.92857448032924,2210,75.22857753208706,51.92857448032924,2333,105.22857753208706,63.92857448032924,2435,565.228577532087,167.92857448032925,2541,698.228577532087,196.92857448032925,2643,791.228577532087,203.92857448032925,2759,794.228577532087,203.92857448032925,2875,794.228577532087,203.92857448032925,2989,794.228577532087,203.92857448032925,3090,794.228577532087,203.92857448032925,3200,794.228577532087,203.92857448032925,3321,794.228577532087,203.92857448032925,3425,794.228577532087,203.92857448032925,3541,794.228577532087,203.92857448032925,3644,794.228577532087,203.92857448032925,3762,794.228577532087,203.92857448032925,3862,794.228577532087,203.92857448032925,3963,794.228577532087,203.92857448032925,4063,794.228577532087,203.92857448032925,4165,794.228577532087,203.92857448032925,4265,794.228577532087,203.92857448032925,4366,794.228577532087,203.92857448032925,4467,794.228577532087,203.92857448032925,4580,794.228577532087,203.92857448032925,4680,794.228577532087,203.92857448032925,4781,794.228577532087,203.92857448032925,4882,794.228577532087,203.92857448032925,4982]","[1592,1592,1000,0,592,""smooth"",""up"",""up"",""good_move"",4930,3338,2553.8,1592,784.2,""smooth"",""up"",""up"",""good_move"",8338,3407,1805.6,4931,1601.4,""smooth"",""left"",""left"",""good_move"",11725,3387,2436.2,8338,950.8,""smooth"",""left"",""left"",""good_move""]","",""
"2858","","<div style=""width:500px;"">
  <p>What determined the result of this run?</p>
  </div>","94","html-slider-response","47","1516196","0.0-10.0-1.2","252","1","2025-07-09 10:01:33","7701e855f2ef39aa3fd6c71abdc6918a","5.185.246.114","Mozilla/5.0 (Windows NT 10.0; Win64; x64; rv:140.0) Gecko/20100101 Firefox/140.0","","Firefox","140.0","Windows","10.0","https://app.prolific.com/","pl,en-US;q=0.7,en;q=0.3","5f0214e58782120a8c970fd6","686d226cabeef709c732f8e1","686e3df4232d9b611ae5d044","5f0214e58782120a8c970fd6","2025-07-09T10:26:51.765Z","","","","","","AttribQ","","","","","","","","","","","","","","","","","","","","","","","","","","","","","","","","","","","","","","50"
"1989","","<div style=""width:500px;"">
  <p>How much control did you have over the ball?</p>
  </div>","97","html-slider-response","48","1518188","0.0-10.0-2.2","252","1","2025-07-09 10:01:33","7701e855f2ef39aa3fd6c71abdc6918a","5.185.246.114","Mozilla/5.0 (Windows NT 10.0; Win64; x64; rv:140.0) Gecko/20100101 Firefox/140.0","","Firefox","140.0","Windows","10.0","https://app.prolific.com/","pl,en-US;q=0.7,en;q=0.3","5f0214e58782120a8c970fd6","686d226cabeef709c732f8e1","686e3df4232d9b611ae5d044","5f0214e58782120a8c970fd6","2025-07-09T10:26:53.757Z","","","","","","ControlQ","","","","","","","","","","","","","","","","","","","","","","","","","","","","","","","","","","","","","","50"
"2638","","<div style=""width:500px;"">
  <p>How would you describe your current emotional state?</p>
  </div>","8","html-slider-response","49","1520831","0.0-10.0-3.2","252","1","2025-07-09 10:01:33","7701e855f2ef39aa3fd6c71abdc6918a","5.185.246.114","Mozilla/5.0 (Windows NT 10.0; Win64; x64; rv:140.0) Gecko/20100101 Firefox/140.0","","Firefox","140.0","Windows","10.0","https://app.prolific.com/","pl,en-US;q=0.7,en;q=0.3","5f0214e58782120a8c970fd6","686d226cabeef709c732f8e1","686e3df4232d9b611ae5d044","5f0214e58782120a8c970fd6","2025-07-09T10:26:56.400Z","","","","","","StressQ","","","","","","","","","","","","","","","","","","","","","","","","","","","","","","","","","","","","","","50"
"1724","","<div style=""width:500px;"">
  <p>What best describes how you currently feel?</p>
  </div>","98","html-slider-response","50","1522558","0.0-10.0-4.2","252","1","2025-07-09 10:01:33","7701e855f2ef39aa3fd6c71abdc6918a","5.185.246.114","Mozilla/5.0 (Windows NT 10.0; Win64; x64; rv:140.0) Gecko/20100101 Firefox/140.0","","Firefox","140.0","Windows","10.0","https://app.prolific.com/","pl,en-US;q=0.7,en;q=0.3","5f0214e58782120a8c970fd6","686d226cabeef709c732f8e1","686e3df4232d9b611ae5d044","5f0214e58782120a8c970fd6","2025-07-09T10:26:58.127Z","","","","","","MotivationQ","","","","","","","","","","","","","","","","","","","","","","","","","","","","","","","","","","","","","","50"
"","","","","ctl-task-cpt","51","1550265","0.0-10.0-0.3","252","1","2025-07-09 10:01:33","7701e855f2ef39aa3fd6c71abdc6918a","5.185.246.114","Mozilla/5.0 (Windows NT 10.0; Win64; x64; rv:140.0) Gecko/20100101 Firefox/140.0","","Firefox","140.0","Windows","10.0","https://app.prolific.com/","pl,en-US;q=0.7,en;q=0.3","5f0214e58782120a8c970fd6","686d226cabeef709c732f8e1","686e3df4232d9b611ae5d044","5f0214e58782120a8c970fd6","2025-07-09T10:27:25.834Z","","","","","","","","","","","","","","","","win-only","0","g1:NW,g2:SE","0.7","4","0","1525188","970","5980","24696","1","4","8","6","2","8","8","20","12","0.15151515151515152","2584","3000","2055","[""down"",""right""]","{""num_key_presses"":6,""num_perfect"":6,""num_errors"":0,""num_randdir"":0,""num_randdir_good_moves"":0,""num_whilered"":0,""num_whileblue"":0,""num_blue"":0,""num_good_moves"":6}","[296.22857753208706,289.92857448032925,0,296.22857753208706,289.92857448032925,110,296.22857753208706,289.92857448032925,210,296.22857753208706,289.92857448032925,310,296.22857753208706,289.92857448032925,411,296.22857753208706,289.92857448032925,527,335.22857753208706,328.92857448032925,630,437.22857753208706,434.92857448032925,735,469.22857753208706,475.92857448032925,843,510.22857753208706,495.92857448032925,947,551.228577532087,509.92857448032925,1064,551.228577532087,509.92857448032925,1169,551.228577532087,509.92857448032925,1269,551.228577532087,509.92857448032925,1379,546.228577532087,506.92857448032925,1495,436.22857753208706,426.92857448032925,1597,351.22857753208706,355.92857448032925,1711,355.22857753208706,357.92857448032925,1811,437.22857753208706,461.92857448032925,1911,451.22857753208706,476.92857448032925,2012,478.22857753208706,492.92857448032925,2128,520.228577532087,522.9285744803292,2228,530.228577532087,529.9285744803292,2340,530.228577532087,529.9285744803292,2444,530.228577532087,529.9285744803292,2565,530.228577532087,529.9285744803292,2666,530.228577532087,529.9285744803292,2770,531.228577532087,529.9285744803292,2879,689.228577532087,397.92857448032925,2981,809.228577532087,315.92857448032925,3093,809.228577532087,315.92857448032925,3201,809.228577532087,315.92857448032925,3306,809.228577532087,315.92857448032925,3414,809.228577532087,315.92857448032925,3514,809.228577532087,315.92857448032925,3615,809.228577532087,315.92857448032925,3715,809.228577532087,315.92857448032925,3815,817.228577532087,311.92857448032925,3916,817.228577532087,310.92857448032925,4017,817.228577532087,310.92857448032925,4132,817.228577532087,310.92857448032925,4251,817.228577532087,310.92857448032925,4359,817.228577532087,310.92857448032925,4477,817.228577532087,310.92857448032925,4577,817.228577532087,310.92857448032925,4693,817.228577532087,310.92857448032925,4794,817.228577532087,310.92857448032925,4897]","[1589,1589,1000,0,589,""smooth"",""down"",""down"",""good_move"",4819,3230,2659.8,1589,570.2,""smooth"",""right"",""right"",""good_move"",8207,3388,2829.6,4819,558.4,""smooth"",""right"",""right"",""good_move"",12069,3862,3362.8,8207,499.2,""smooth"",""right"",""right"",""good_move"",14916,2847,2379.2,12069,467.8,""smooth"",""down"",""down"",""good_move"",18384,3468,2882.2,14916,585.8,""smooth"",""down"",""down"",""good_move""]","",""
"3651","","<div style=""width:500px;"">
  <p>What determined the result of this run?</p>
  </div>","93","html-slider-response","52","1553917","0.0-10.0-1.3","252","1","2025-07-09 10:01:33","7701e855f2ef39aa3fd6c71abdc6918a","5.185.246.114","Mozilla/5.0 (Windows NT 10.0; Win64; x64; rv:140.0) Gecko/20100101 Firefox/140.0","","Firefox","140.0","Windows","10.0","https://app.prolific.com/","pl,en-US;q=0.7,en;q=0.3","5f0214e58782120a8c970fd6","686d226cabeef709c732f8e1","686e3df4232d9b611ae5d044","5f0214e58782120a8c970fd6","2025-07-09T10:27:29.486Z","","","","","","AttribQ","","","","","","","","","","","","","","","","","","","","","","","","","","","","","","","","","","","","","","50"
"4330","","<div style=""width:500px;"">
  <p>How much control did you have over the ball?</p>
  </div>","95","html-slider-response","53","1558250","0.0-10.0-2.3","252","1","2025-07-09 10:01:33","7701e855f2ef39aa3fd6c71abdc6918a","5.185.246.114","Mozilla/5.0 (Windows NT 10.0; Win64; x64; rv:140.0) Gecko/20100101 Firefox/140.0","","Firefox","140.0","Windows","10.0","https://app.prolific.com/","pl,en-US;q=0.7,en;q=0.3","5f0214e58782120a8c970fd6","686d226cabeef709c732f8e1","686e3df4232d9b611ae5d044","5f0214e58782120a8c970fd6","2025-07-09T10:27:33.819Z","","","","","","ControlQ","","","","","","","","","","","","","","","","","","","","","","","","","","","","","","","","","","","","","","50"
"4800","","<div style=""width:500px;"">
  <p>How would you describe your current emotional state?</p>
  </div>","7","html-slider-response","54","1563051","0.0-10.0-3.3","252","1","2025-07-09 10:01:33","7701e855f2ef39aa3fd6c71abdc6918a","5.185.246.114","Mozilla/5.0 (Windows NT 10.0; Win64; x64; rv:140.0) Gecko/20100101 Firefox/140.0","","Firefox","140.0","Windows","10.0","https://app.prolific.com/","pl,en-US;q=0.7,en;q=0.3","5f0214e58782120a8c970fd6","686d226cabeef709c732f8e1","686e3df4232d9b611ae5d044","5f0214e58782120a8c970fd6","2025-07-09T10:27:38.620Z","","","","","","StressQ","","","","","","","","","","","","","","","","","","","","","","","","","","","","","","","","","","","","","","50"
"4536","","<div style=""width:500px;"">
  <p>What best describes how you currently feel?</p>
  </div>","95","html-slider-response","55","1567591","0.0-10.0-4.3","252","1","2025-07-09 10:01:33","7701e855f2ef39aa3fd6c71abdc6918a","5.185.246.114","Mozilla/5.0 (Windows NT 10.0; Win64; x64; rv:140.0) Gecko/20100101 Firefox/140.0","","Firefox","140.0","Windows","10.0","https://app.prolific.com/","pl,en-US;q=0.7,en;q=0.3","5f0214e58782120a8c970fd6","686d226cabeef709c732f8e1","686e3df4232d9b611ae5d044","5f0214e58782120a8c970fd6","2025-07-09T10:27:43.160Z","","","","","","MotivationQ","","","","","","","","","","","","","","","","","","","","","","","","","","","","","","","","","","","","","","50"
"","","","","ctl-task-cpt","56","1609171","0.0-10.0-0.4","252","1","2025-07-09 10:01:33","7701e855f2ef39aa3fd6c71abdc6918a","5.185.246.114","Mozilla/5.0 (Windows NT 10.0; Win64; x64; rv:140.0) Gecko/20100101 Firefox/140.0","","Firefox","140.0","Windows","10.0","https://app.prolific.com/","pl,en-US;q=0.7,en;q=0.3","5f0214e58782120a8c970fd6","686d226cabeef709c732f8e1","686e3df4232d9b611ae5d044","5f0214e58782120a8c970fd6","2025-07-09T10:28:24.740Z","","","","","","","","","","","","","","","","win-only","1","g1:NE,g2:SW","0.6","5","0","1570221","1587","6593","38568","1","4","4","6","1","1","1","21","20","0.1590909090909091","1762","3000","1745","[""up"",""right""]","{""num_key_presses"":8,""num_perfect"":6,""num_errors"":0,""num_randdir"":2,""num_randdir_good_moves"":0,""num_whilered"":0,""num_whileblue"":0,""num_blue"":2,""num_good_moves"":6}","[299.22857753208706,299.92857448032925,0,299.22857753208706,299.92857448032925,102,299.22857753208706,299.92857448032925,202,299.22857753208706,299.92857448032925,303,299.22857753208706,299.92857448032925,403,299.22857753208706,299.92857448032925,503,299.22857753208706,299.92857448032925,604,299.22857753208706,299.92857448032925,710,299.22857753208706,299.92857448032925,820,299.22857753208706,299.92857448032925,920,327.22857753208706,292.92857448032925,1021,473.22857753208706,185.92857448032925,1144,506.22857753208706,148.92857448032925,1261,540.228577532087,115.92857448032925,1361,550.228577532087,87.92857448032925,1475,549.228577532087,62.92857448032924,1575,549.228577532087,59.92857448032924,1675,549.228577532087,58.92857448032924,1775,549.228577532087,58.92857448032924,1878,549.228577532087,58.92857448032924,1980,549.228577532087,58.92857448032924,2080,549.228577532087,58.92857448032924,2181,549.228577532087,58.92857448032924,2281,549.228577532087,58.92857448032924,2382,549.228577532087,58.92857448032924,2482,549.228577532087,58.92857448032924,2583,549.228577532087,58.92857448032924,2683,549.228577532087,58.92857448032924,2783,549.228577532087,58.92857448032924,2884,549.228577532087,58.92857448032924,2999,549.228577532087,58.92857448032924,3100,549.228577532087,58.92857448032924,3213,549.228577532087,58.92857448032924,3319,549.228577532087,58.92857448032924,3423,549.228577532087,58.92857448032924,3524,549.228577532087,58.92857448032924,3624,549.228577532087,58.92857448032924,3724,549.228577532087,58.92857448032924,3824,549.228577532087,58.92857448032924,3925,549.228577532087,58.92857448032924,4040,549.228577532087,58.92857448032924,4158,629.228577532087,65.92857448032925,4259,676.228577532087,76.92857448032925,4375,677.228577532087,76.92857448032925,4476,676.228577532087,78.92857448032925,4590,676.228577532087,78.92857448032925,4692,676.228577532087,78.92857448032925,4807,676.228577532087,78.92857448032925,4908]","[1604,1604,1000,0,604,""smooth"",""right"",""right"",""good_move"",4368,2764,2311,1604,453,""smooth"",""right"",""right"",""good_move"",6775,2407,1918.7,4368,488.3,""oops"",""up"",""left"",""bad_move"",10050,3275,2420.8,6775,854.2,""oops"",""up"",""left"",""bad_move"",17402,7350,2404.6,14477,520.4,""smooth"",""right"",""right"",""good_move"",21005,3603,3107.2,17402,495.8,""smooth"",""right"",""right"",""good_move"",24488,3483,2839.5,21005,643.5,""smooth"",""up"",""up"",""good_move"",31665,7176,2621.1,28367,676.9,""smooth"",""up"",""up"",""good_move""]","",""
"2502","","<div style=""width:500px;"">
  <p>What determined the result of this run?</p>
  </div>","79","html-slider-response","57","1611675","0.0-10.0-1.4","252","1","2025-07-09 10:01:33","7701e855f2ef39aa3fd6c71abdc6918a","5.185.246.114","Mozilla/5.0 (Windows NT 10.0; Win64; x64; rv:140.0) Gecko/20100101 Firefox/140.0","","Firefox","140.0","Windows","10.0","https://app.prolific.com/","pl,en-US;q=0.7,en;q=0.3","5f0214e58782120a8c970fd6","686d226cabeef709c732f8e1","686e3df4232d9b611ae5d044","5f0214e58782120a8c970fd6","2025-07-09T10:28:27.244Z","","","","","","AttribQ","","","","","","","","","","","","","","","","","","","","","","","","","","","","","","","","","","","","","","50"
"1703","","<div style=""width:500px;"">
  <p>How much control did you have over the ball?</p>
  </div>","88","html-slider-response","58","1613381","0.0-10.0-2.4","252","1","2025-07-09 10:01:33","7701e855f2ef39aa3fd6c71abdc6918a","5.185.246.114","Mozilla/5.0 (Windows NT 10.0; Win64; x64; rv:140.0) Gecko/20100101 Firefox/140.0","","Firefox","140.0","Windows","10.0","https://app.prolific.com/","pl,en-US;q=0.7,en;q=0.3","5f0214e58782120a8c970fd6","686d226cabeef709c732f8e1","686e3df4232d9b611ae5d044","5f0214e58782120a8c970fd6","2025-07-09T10:28:28.950Z","","","","","","ControlQ","","","","","","","","","","","","","","","","","","","","","","","","","","","","","","","","","","","","","","50"
"1933","","<div style=""width:500px;"">
  <p>How would you describe your current emotional state?</p>
  </div>","20","html-slider-response","59","1615317","0.0-10.0-3.4","252","1","2025-07-09 10:01:33","7701e855f2ef39aa3fd6c71abdc6918a","5.185.246.114","Mozilla/5.0 (Windows NT 10.0; Win64; x64; rv:140.0) Gecko/20100101 Firefox/140.0","","Firefox","140.0","Windows","10.0","https://app.prolific.com/","pl,en-US;q=0.7,en;q=0.3","5f0214e58782120a8c970fd6","686d226cabeef709c732f8e1","686e3df4232d9b611ae5d044","5f0214e58782120a8c970fd6","2025-07-09T10:28:30.886Z","","","","","","StressQ","","","","","","","","","","","","","","","","","","","","","","","","","","","","","","","","","","","","","","50"
"1844","","<div style=""width:500px;"">
  <p>What best describes how you currently feel?</p>
  </div>","97","html-slider-response","60","1617166","0.0-10.0-4.4","252","1","2025-07-09 10:01:33","7701e855f2ef39aa3fd6c71abdc6918a","5.185.246.114","Mozilla/5.0 (Windows NT 10.0; Win64; x64; rv:140.0) Gecko/20100101 Firefox/140.0","","Firefox","140.0","Windows","10.0","https://app.prolific.com/","pl,en-US;q=0.7,en;q=0.3","5f0214e58782120a8c970fd6","686d226cabeef709c732f8e1","686e3df4232d9b611ae5d044","5f0214e58782120a8c970fd6","2025-07-09T10:28:32.735Z","","","","","","MotivationQ","","","","","","","","","","","","","","","","","","","","","","","","","","","","","","","","","","","","","","50"
"","","","","ctl-task-cpt","61","1648703","0.0-10.0-0.5","252","1","2025-07-09 10:01:33","7701e855f2ef39aa3fd6c71abdc6918a","5.185.246.114","Mozilla/5.0 (Windows NT 10.0; Win64; x64; rv:140.0) Gecko/20100101 Firefox/140.0","","Firefox","140.0","Windows","10.0","https://app.prolific.com/","pl,en-US;q=0.7,en;q=0.3","5f0214e58782120a8c970fd6","686d226cabeef709c732f8e1","686e3df4232d9b611ae5d044","5f0214e58782120a8c970fd6","2025-07-09T10:29:04.272Z","","","","","","","","","","","","","","","","win-only","1","g1:NE,g2:SW","0.5","6","0","1619795","755","5765","28532","1","4","8","6","2","8","8","29","21","0.2196969696969697","1181","3000","1805","[""down"",""left""]","{""num_key_presses"":8,""num_perfect"":5,""num_errors"":0,""num_randdir"":3,""num_randdir_good_moves"":2,""num_whilered"":0,""num_whileblue"":0,""num_blue"":0,""num_good_moves"":7}","[292.22857753208706,295.92857448032925,0,292.22857753208706,295.92857448032925,113,292.22857753208706,295.92857448032925,214,292.22857753208706,295.92857448032925,314,292.22857753208706,295.92857448032925,414,292.22857753208706,295.92857448032925,533,277.22857753208706,320.92857448032925,650,166.22857753208706,434.92857448032925,752,129.22857753208706,478.92857448032925,881,106.22857753208706,501.92857448032925,983,71.22857753208706,511.92857448032925,1093,65.22857753208706,513.9285744803292,1195,65.22857753208706,513.9285744803292,1297,64.22857753208706,513.9285744803292,1408,64.22857753208706,513.9285744803292,1510,795.228577532087,413.92857448032925,1614,978.228577532087,355.92857448032925,1714,978.228577532087,355.92857448032925,1814,978.228577532087,355.92857448032925,1914,978.228577532087,355.92857448032925,2028,978.228577532087,355.92857448032925,2129,978.228577532087,355.92857448032925,2233,978.228577532087,355.92857448032925,2351,978.228577532087,355.92857448032925,2451,978.228577532087,355.92857448032925,2551,978.228577532087,355.92857448032925,2652,978.228577532087,355.92857448032925,2752,978.228577532087,355.92857448032925,2852,978.228577532087,355.92857448032925,2952,978.228577532087,355.92857448032925,3053,978.228577532087,355.92857448032925,3164,978.228577532087,355.92857448032925,3283,978.228577532087,355.92857448032925,3386,978.228577532087,355.92857448032925,3486,978.228577532087,355.92857448032925,3587,978.228577532087,355.92857448032925,3687,978.228577532087,355.92857448032925,3788,978.228577532087,355.92857448032925,3904,978.228577532087,355.92857448032925,4025,978.228577532087,355.92857448032925,4125,978.228577532087,355.92857448032925,4239,978.228577532087,355.92857448032925,4340,978.228577532087,355.92857448032925,4454,978.228577532087,355.92857448032925,4554,978.228577532087,355.92857448032925,4655,978.228577532087,355.92857448032925,4755,978.228577532087,355.92857448032925,4855,978.228577532087,355.92857448032925,4955]","[1520,1520,1000,0,520,""smooth"",""down"",""down"",""good_move"",4189,2669,2202.3,1520,466.7,""smooth"",""down"",""down"",""good_move"",6573,2384,1893.8,4189,490.2,""smooth"",""down"",""down"",""good_move"",9465,2892,2417.4,6573,474.6,""smooth"",""left"",""left"",""good_move"",12792,3326,2286.4,9466,1039.6,""oops"",""left"",""right"",""bad_move"",15684,2892,2312.7,12792,579.3,""oops"",""left"",""left"",""good_move"",19106,3421,2831.2,15685,589.8,""smooth"",""left"",""left"",""good_move"",22453,3346,2508.4,19107,837.6,""oops"",""left"",""left"",""good_move""]","",""
"3640","","<div style=""width:500px;"">
  <p>What determined the result of this run?</p>
  </div>","91","html-slider-response","62","1652345","0.0-10.0-1.5","252","1","2025-07-09 10:01:33","7701e855f2ef39aa3fd6c71abdc6918a","5.185.246.114","Mozilla/5.0 (Windows NT 10.0; Win64; x64; rv:140.0) Gecko/20100101 Firefox/140.0","","Firefox","140.0","Windows","10.0","https://app.prolific.com/","pl,en-US;q=0.7,en;q=0.3","5f0214e58782120a8c970fd6","686d226cabeef709c732f8e1","686e3df4232d9b611ae5d044","5f0214e58782120a8c970fd6","2025-07-09T10:29:07.914Z","","","","","","AttribQ","","","","","","","","","","","","","","","","","","","","","","","","","","","","","","","","","","","","","","50"
"7010","","<div style=""width:500px;"">
  <p>How much control did you have over the ball?</p>
  </div>","93","html-slider-response","63","1659359","0.0-10.0-2.5","252","1","2025-07-09 10:01:33","7701e855f2ef39aa3fd6c71abdc6918a","5.185.246.114","Mozilla/5.0 (Windows NT 10.0; Win64; x64; rv:140.0) Gecko/20100101 Firefox/140.0","","Firefox","140.0","Windows","10.0","https://app.prolific.com/","pl,en-US;q=0.7,en;q=0.3","5f0214e58782120a8c970fd6","686d226cabeef709c732f8e1","686e3df4232d9b611ae5d044","5f0214e58782120a8c970fd6","2025-07-09T10:29:14.928Z","","","","","","ControlQ","","","","","","","","","","","","","","","","","","","","","","","","","","","","","","","","","","","","","","50"
"4505","","<div style=""width:500px;"">
  <p>How would you describe your current emotional state?</p>
  </div>","19","html-slider-response","64","1663866","0.0-10.0-3.5","252","1","2025-07-09 10:01:33","7701e855f2ef39aa3fd6c71abdc6918a","5.185.246.114","Mozilla/5.0 (Windows NT 10.0; Win64; x64; rv:140.0) Gecko/20100101 Firefox/140.0","","Firefox","140.0","Windows","10.0","https://app.prolific.com/","pl,en-US;q=0.7,en;q=0.3","5f0214e58782120a8c970fd6","686d226cabeef709c732f8e1","686e3df4232d9b611ae5d044","5f0214e58782120a8c970fd6","2025-07-09T10:29:19.435Z","","","","","","StressQ","","","","","","","","","","","","","","","","","","","","","","","","","","","","","","","","","","","","","","50"
"23393","","<div style=""width:500px;"">
  <p>What best describes how you currently feel?</p>
  </div>","97","html-slider-response","65","1687261","0.0-10.0-4.5","252","1","2025-07-09 10:01:33","7701e855f2ef39aa3fd6c71abdc6918a","5.185.246.114","Mozilla/5.0 (Windows NT 10.0; Win64; x64; rv:140.0) Gecko/20100101 Firefox/140.0","","Firefox","140.0","Windows","10.0","https://app.prolific.com/","pl,en-US;q=0.7,en;q=0.3","5f0214e58782120a8c970fd6","686d226cabeef709c732f8e1","686e3df4232d9b611ae5d044","5f0214e58782120a8c970fd6","2025-07-09T10:29:42.830Z","","","","","","MotivationQ","","","","","","","","","","","","","","","","","","","","","","","","","","","","","","","","","","","","","","50"
"","","","","ctl-task-cpt","66","1747557","0.0-10.0-0.6","252","1","2025-07-09 10:01:33","7701e855f2ef39aa3fd6c71abdc6918a","5.185.246.114","Mozilla/5.0 (Windows NT 10.0; Win64; x64; rv:140.0) Gecko/20100101 Firefox/140.0","","Firefox","140.0","Windows","10.0","https://app.prolific.com/","pl,en-US;q=0.7,en;q=0.3","5f0214e58782120a8c970fd6","686d226cabeef709c732f8e1","686e3df4232d9b611ae5d044","5f0214e58782120a8c970fd6","2025-07-09T10:30:43.126Z","","","","","","","","","","","","","","","","win-only","3","g1:SW,g2:NE","0.4","7","0","1689892","1352","6368","57290","1","4","8","6","2","8","8","37","29","0.2803030303030303","1344","3000","975","[""up"",""right""]","{""num_key_presses"":14,""num_perfect"":6,""num_errors"":0,""num_randdir"":8,""num_randdir_good_moves"":4,""num_whilered"":0,""num_whileblue"":0,""num_blue"":2,""num_good_moves"":10}","[297.22857753208706,295.92857448032925,0,297.22857753208706,295.92857448032925,102,297.22857753208706,295.92857448032925,202,297.22857753208706,295.92857448032925,302,297.22857753208706,295.92857448032925,402,297.22857753208706,295.92857448032925,518,562.228577532087,92.92857448032925,619,623.228577532087,3.928574480329239,733,624.228577532087,-2.071425519670761,833,599.228577532087,18.92857448032924,935,572.228577532087,43.92857448032924,1035,564.228577532087,49.92857448032924,1151,564.228577532087,49.92857448032924,1269,564.228577532087,49.92857448032924,1369,564.228577532087,49.92857448032924,1469,564.228577532087,49.92857448032924,1570,564.228577532087,49.92857448032924,1690,564.228577532087,49.92857448032924,1796,564.228577532087,49.92857448032924,1899,564.228577532087,49.92857448032924,1999,564.228577532087,49.92857448032924,2099,564.228577532087,49.92857448032924,2208,564.228577532087,49.92857448032924,2334,564.228577532087,49.92857448032924,2440,564.228577532087,49.92857448032924,2551,564.228577532087,49.92857448032924,2651,564.228577532087,49.92857448032924,2751,564.228577532087,49.92857448032924,2851,564.228577532087,49.92857448032924,2951,564.228577532087,49.92857448032924,3051,564.228577532087,49.92857448032924,3154,564.228577532087,49.92857448032924,3264,564.228577532087,49.92857448032924,3366,564.228577532087,49.92857448032924,3468,567.228577532087,55.92857448032924,3584,644.228577532087,128.92857448032925,3699,711.228577532087,144.92857448032925,3800,711.228577532087,144.92857448032925,3900,711.228577532087,144.92857448032925,4013,711.228577532087,144.92857448032925,4128,711.228577532087,144.92857448032925,4231,711.228577532087,144.92857448032925,4341,711.228577532087,144.92857448032925,4444,711.228577532087,144.92857448032925,4544,711.228577532087,144.92857448032925,4644,711.228577532087,144.92857448032925,4766,711.228577532087,144.92857448032925,4867,711.228577532087,144.92857448032925,4967]","[1668,1668,1000,0,668,""smooth"",""up"",""up"",""good_move"",5072,3403,1838.8,1669,1564.2,""smooth"",""up"",""up"",""good_move"",8382,3309,1787.7,5073,1521.3,""smooth"",""up"",""up"",""good_move"",11656,3274,1909.9,8382,1364.1,""smooth"",""right"",""right"",""good_move"",18499,6842,2604.7,15274,620.3,""oops"",""right"",""down"",""bad_move"",21986,3487,3034.8,18499,452.2,""oops"",""right"",""right"",""good_move"",28675,6689,2729.6,25450,495.4,""oops"",""right"",""up"",""good_move"",32435,3760,3374.2,28675,385.8,""oops"",""right"",""down"",""bad_move"",35335,2900,2426.2,32436,473.8,""oops"",""right"",""right"",""good_move"",37726,2390,1778.9,35336,611.1,""oops"",""up"",""down"",""bad_move"",40843,3117,2657.6,37726,459.4,""oops"",""right"",""up"",""good_move"",44099,3256,1724.4,40843,1531.6,""oops"",""up"",""left"",""bad_move"",47372,3273,2606.5,44099,666.5,""smooth"",""up"",""up"",""good_move"",50600,3228,2822.5,47372,405.5,""smooth"",""right"",""right"",""good_move""]","",""
"3923","","<div style=""width:500px;"">
  <p>What determined the result of this run?</p>
  </div>","81","html-slider-response","67","1751481","0.0-10.0-1.6","252","1","2025-07-09 10:01:33","7701e855f2ef39aa3fd6c71abdc6918a","5.185.246.114","Mozilla/5.0 (Windows NT 10.0; Win64; x64; rv:140.0) Gecko/20100101 Firefox/140.0","","Firefox","140.0","Windows","10.0","https://app.prolific.com/","pl,en-US;q=0.7,en;q=0.3","5f0214e58782120a8c970fd6","686d226cabeef709c732f8e1","686e3df4232d9b611ae5d044","5f0214e58782120a8c970fd6","2025-07-09T10:30:47.050Z","","","","","","AttribQ","","","","","","","","","","","","","","","","","","","","","","","","","","","","","","","","","","","","","","50"
"1846","","<div style=""width:500px;"">
  <p>How much control did you have over the ball?</p>
  </div>","64","html-slider-response","68","1753330","0.0-10.0-2.6","252","1","2025-07-09 10:01:33","7701e855f2ef39aa3fd6c71abdc6918a","5.185.246.114","Mozilla/5.0 (Windows NT 10.0; Win64; x64; rv:140.0) Gecko/20100101 Firefox/140.0","","Firefox","140.0","Windows","10.0","https://app.prolific.com/","pl,en-US;q=0.7,en;q=0.3","5f0214e58782120a8c970fd6","686d226cabeef709c732f8e1","686e3df4232d9b611ae5d044","5f0214e58782120a8c970fd6","2025-07-09T10:30:48.899Z","","","","","","ControlQ","","","","","","","","","","","","","","","","","","","","","","","","","","","","","","","","","","","","","","50"
"1847","","<div style=""width:500px;"">
  <p>How would you describe your current emotional state?</p>
  </div>","20","html-slider-response","69","1755181","0.0-10.0-3.6","252","1","2025-07-09 10:01:33","7701e855f2ef39aa3fd6c71abdc6918a","5.185.246.114","Mozilla/5.0 (Windows NT 10.0; Win64; x64; rv:140.0) Gecko/20100101 Firefox/140.0","","Firefox","140.0","Windows","10.0","https://app.prolific.com/","pl,en-US;q=0.7,en;q=0.3","5f0214e58782120a8c970fd6","686d226cabeef709c732f8e1","686e3df4232d9b611ae5d044","5f0214e58782120a8c970fd6","2025-07-09T10:30:50.750Z","","","","","","StressQ","","","","","","","","","","","","","","","","","","","","","","","","","","","","","","","","","","","","","","50"
"1752","","<div style=""width:500px;"">
  <p>What best describes how you currently feel?</p>
  </div>","97","html-slider-response","70","1756935","0.0-10.0-4.6","252","1","2025-07-09 10:01:33","7701e855f2ef39aa3fd6c71abdc6918a","5.185.246.114","Mozilla/5.0 (Windows NT 10.0; Win64; x64; rv:140.0) Gecko/20100101 Firefox/140.0","","Firefox","140.0","Windows","10.0","https://app.prolific.com/","pl,en-US;q=0.7,en;q=0.3","5f0214e58782120a8c970fd6","686d226cabeef709c732f8e1","686e3df4232d9b611ae5d044","5f0214e58782120a8c970fd6","2025-07-09T10:30:52.504Z","","","","","","MotivationQ","","","","","","","","","","","","","","","","","","","","","","","","","","","","","","","","","","","","","","50"
"","","","","ctl-task-cpt","71","1805315","0.0-10.0-0.7","252","1","2025-07-09 10:01:33","7701e855f2ef39aa3fd6c71abdc6918a","5.185.246.114","Mozilla/5.0 (Windows NT 10.0; Win64; x64; rv:140.0) Gecko/20100101 Firefox/140.0","","Firefox","140.0","Windows","10.0","https://app.prolific.com/","pl,en-US;q=0.7,en;q=0.3","5f0214e58782120a8c970fd6","686d226cabeef709c732f8e1","686e3df4232d9b611ae5d044","5f0214e58782120a8c970fd6","2025-07-09T10:31:40.885Z","","","","","","","","","","","","","","","","win-only","2","g1:SE,g2:NW","0.3","8","0","1759566","704","5714","45367","1","4","4","6","1","1","0","37","37","0.2803030303030303","1148","3000","1130","[""down"",""right""]","{""num_key_presses"":14,""num_perfect"":3,""num_errors"":1,""num_randdir"":10,""num_randdir_good_moves"":7,""num_whilered"":0,""num_whileblue"":1,""num_blue"":1,""num_good_moves"":9}","[298.22857753208706,299.92857448032925,0,298.22857753208706,298.92857448032925,106,298.22857753208706,298.92857448032925,207,298.22857753208706,298.92857448032925,307,298.22857753208706,298.92857448032925,407,298.22857753208706,298.92857448032925,508,298.22857753208706,298.92857448032925,608,346.22857753208706,349.92857448032925,709,482.22857753208706,464.92857448032925,809,509.22857753208706,495.92857448032925,909,514.228577532087,513.9285744803292,1009,518.228577532087,520.9285744803292,1122,518.228577532087,520.9285744803292,1240,518.228577532087,520.9285744803292,1340,518.228577532087,520.9285744803292,1440,712.228577532087,479.92857448032925,1546,830.228577532087,442.92857448032925,1658,830.228577532087,442.92857448032925,1759,830.228577532087,442.92857448032925,1860,830.228577532087,442.92857448032925,1960,830.228577532087,442.92857448032925,2078,830.228577532087,442.92857448032925,2190,830.228577532087,442.92857448032925,2304,830.228577532087,442.92857448032925,2413,830.228577532087,442.92857448032925,2514,830.228577532087,442.92857448032925,2614,830.228577532087,442.92857448032925,2738,830.228577532087,442.92857448032925,2854,830.228577532087,442.92857448032925,2954,830.228577532087,442.92857448032925,3069,830.228577532087,442.92857448032925,3175,830.228577532087,442.92857448032925,3276,830.228577532087,442.92857448032925,3382,830.228577532087,442.92857448032925,3483,830.228577532087,442.92857448032925,3583,830.228577532087,442.92857448032925,3683,830.228577532087,442.92857448032925,3797,830.228577532087,442.92857448032925,3898,830.228577532087,442.92857448032925,4013,830.228577532087,442.92857448032925,4113,830.228577532087,442.92857448032925,4225,830.228577532087,442.92857448032925,4332,830.228577532087,442.92857448032925,4439,830.228577532087,442.92857448032925,4540,830.228577532087,442.92857448032925,4640,830.228577532087,442.92857448032925,4741,830.228577532087,442.92857448032925,4842,830.228577532087,442.92857448032925,4963]","[1601,1601,1000,0,601,""smooth"",""down"",""down"",""good_move"",4452,2851,2307,1601,544,""oops"",""right"",""down"",""good_move"",7595,3143,2643.3,4452,499.7,""oops"",""right"",""left"",""bad_move"",10833,3238,2305.6,7595,932.4,""smooth"",""right"",""right"",""good_move"",13194,2361,1601.1,10833,759.9,""oops"",""right"",""right"",""good_move"",15534,2340,1939.1,13194,400.9,""smooth"",""up"",""up"",""bad_move"",18743,3208,2597.5,15535,610.5,""oops"",""right"",""right"",""good_move"",21021,2278,1944.1,18743,333.9,""oops"",""down"",""left"",""bad_move"",24178,3156,2814,21022,342,""while_blue"",""down"",""up"",""bad_move"",27646,3467,2186.6,24179,1280.4,""oops"",""down"",""right"",""good_move"",30898,3252,2780.6,27646,471.4,""oops"",""down"",""down"",""good_move"",33498,2599,2088,30899,511,""oops"",""down"",""up"",""bad_move"",36678,3180,2727.8,33498,452.2,""oops"",""down"",""down"",""good_move"",39329,2651,2255.8,36678,395.2,""oops"",""down"",""down"",""good_move""]","",""
"4621","","<div style=""width:500px;"">
  <p>What determined the result of this run?</p>
  </div>","85","html-slider-response","72","1809939","0.0-10.0-1.7","252","1","2025-07-09 10:01:33","7701e855f2ef39aa3fd6c71abdc6918a","5.185.246.114","Mozilla/5.0 (Windows NT 10.0; Win64; x64; rv:140.0) Gecko/20100101 Firefox/140.0","","Firefox","140.0","Windows","10.0","https://app.prolific.com/","pl,en-US;q=0.7,en;q=0.3","5f0214e58782120a8c970fd6","686d226cabeef709c732f8e1","686e3df4232d9b611ae5d044","5f0214e58782120a8c970fd6","2025-07-09T10:31:45.508Z","","","","","","AttribQ","","","","","","","","","","","","","","","","","","","","","","","","","","","","","","","","","","","","","","50"
"3261","","<div style=""width:500px;"">
  <p>How much control did you have over the ball?</p>
  </div>","41","html-slider-response","73","1813203","0.0-10.0-2.7","252","1","2025-07-09 10:01:33","7701e855f2ef39aa3fd6c71abdc6918a","5.185.246.114","Mozilla/5.0 (Windows NT 10.0; Win64; x64; rv:140.0) Gecko/20100101 Firefox/140.0","","Firefox","140.0","Windows","10.0","https://app.prolific.com/","pl,en-US;q=0.7,en;q=0.3","5f0214e58782120a8c970fd6","686d226cabeef709c732f8e1","686e3df4232d9b611ae5d044","5f0214e58782120a8c970fd6","2025-07-09T10:31:48.772Z","","","","","","ControlQ","","","","","","","","","","","","","","","","","","","","","","","","","","","","","","","","","","","","","","50"
"2852","","<div style=""width:500px;"">
  <p>How would you describe your current emotional state?</p>
  </div>","33","html-slider-response","74","1816059","0.0-10.0-3.7","252","1","2025-07-09 10:01:33","7701e855f2ef39aa3fd6c71abdc6918a","5.185.246.114","Mozilla/5.0 (Windows NT 10.0; Win64; x64; rv:140.0) Gecko/20100101 Firefox/140.0","","Firefox","140.0","Windows","10.0","https://app.prolific.com/","pl,en-US;q=0.7,en;q=0.3","5f0214e58782120a8c970fd6","686d226cabeef709c732f8e1","686e3df4232d9b611ae5d044","5f0214e58782120a8c970fd6","2025-07-09T10:31:51.628Z","","","","","","StressQ","","","","","","","","","","","","","","","","","","","","","","","","","","","","","","","","","","","","","","50"
"2290","","<div style=""width:500px;"">
  <p>What best describes how you currently feel?</p>
  </div>","94","html-slider-response","75","1818353","0.0-10.0-4.7","252","1","2025-07-09 10:01:33","7701e855f2ef39aa3fd6c71abdc6918a","5.185.246.114","Mozilla/5.0 (Windows NT 10.0; Win64; x64; rv:140.0) Gecko/20100101 Firefox/140.0","","Firefox","140.0","Windows","10.0","https://app.prolific.com/","pl,en-US;q=0.7,en;q=0.3","5f0214e58782120a8c970fd6","686d226cabeef709c732f8e1","686e3df4232d9b611ae5d044","5f0214e58782120a8c970fd6","2025-07-09T10:31:53.922Z","","","","","","MotivationQ","","","","","","","","","","","","","","","","","","","","","","","","","","","","","","","","","","","","","","50"
"","","","","ctl-task-cpt","76","1912932","0.0-10.0-0.8","252","1","2025-07-09 10:01:33","7701e855f2ef39aa3fd6c71abdc6918a","5.185.246.114","Mozilla/5.0 (Windows NT 10.0; Win64; x64; rv:140.0) Gecko/20100101 Firefox/140.0","","Firefox","140.0","Windows","10.0","https://app.prolific.com/","pl,en-US;q=0.7,en;q=0.3","5f0214e58782120a8c970fd6","686d226cabeef709c732f8e1","686e3df4232d9b611ae5d044","5f0214e58782120a8c970fd6","2025-07-09T10:33:28.501Z","","","","","","","","","","","","","","","","win-only","3","g1:SW,g2:NE","0.2","9","0","1820983","728","5738","91566","1","4","4","6","1","-1","-3","34","37","0.25757575757575757","1535","3000","-905","[""down"",""left""]","{""num_key_presses"":23,""num_perfect"":4,""num_errors"":2,""num_randdir"":17,""num_randdir_good_moves"":7,""num_whilered"":0,""num_whileblue"":1,""num_blue"":4,""num_good_moves"":11}","[297.22857753208706,286.92857448032925,0,297.22857753208706,286.92857448032925,106,297.22857753208706,286.92857448032925,207,297.22857753208706,286.92857448032925,322,297.22857753208706,286.92857448032925,422,297.22857753208706,286.92857448032925,522,301.22857753208706,286.92857448032925,622,412.22857753208706,245.92857448032925,723,440.22857753208706,218.92857448032925,823,431.22857753208706,226.92857448032925,938,177.22857753208706,379.92857448032925,1039,124.22857753208706,469.92857448032925,1148,89.22857753208706,503.92857448032925,1265,69.22857753208706,519.9285744803292,1366,51.22857753208705,530.9285744803292,1475,51.22857753208705,530.9285744803292,1576,51.22857753208705,530.9285744803292,1678,51.22857753208705,530.9285744803292,1784,159.22857753208706,504.92857448032925,1885,568.228577532087,441.92857448032925,1992,681.228577532087,435.92857448032925,2093,717.228577532087,428.92857448032925,2195,731.228577532087,426.92857448032925,2296,731.228577532087,426.92857448032925,2409,731.228577532087,426.92857448032925,2510,731.228577532087,426.92857448032925,2623,731.228577532087,426.92857448032925,2728,731.228577532087,426.92857448032925,2828,731.228577532087,426.92857448032925,2938,731.228577532087,426.92857448032925,3039,731.228577532087,426.92857448032925,3160,731.228577532087,426.92857448032925,3260,731.228577532087,426.92857448032925,3375,731.228577532087,426.92857448032925,3476,731.228577532087,426.92857448032925,3577,731.228577532087,426.92857448032925,3677,731.228577532087,426.92857448032925,3777,731.228577532087,426.92857448032925,3878,731.228577532087,426.92857448032925,3993,731.228577532087,426.92857448032925,4093,731.228577532087,426.92857448032925,4197,731.228577532087,426.92857448032925,4297,731.228577532087,426.92857448032925,4410,731.228577532087,426.92857448032925,4510,731.228577532087,426.92857448032925,4610,731.228577532087,426.92857448032925,4710,731.228577532087,426.92857448032925,4826,731.228577532087,426.92857448032925,4926]","[1533,1533,1000,0,533,""oops"",""down"",""up"",""bad_move"",4766,3233,2844,1533,389,""while_blue"",""down"",""down"",""good_move"",8119,3352,2849.6,4767,502.4,""oops"",""down"",""up"",""bad_move"",11548,3429,2809.4,8119,619.6,""oops"",""left"",""down"",""good_move"",15002,3454,2946.7,11548,507.3,""oops"",""left"",""up"",""bad_move"",18239,3237,1486.3,15002,1750.7,""smooth"",""down"",""down"",""good_move"",21223,2984,2580.5,18239,403.5,""oops"",""down"",""up"",""bad_move"",24649,3425,2945.9,21224,479.1,""oops"",""down"",""up"",""bad_move"",27920,3270,2559.5,24650,710.5,""oops"",""left"",""up"",""bad_move"",31134,3213,2660.7,27921,552.3,""oops"",""right"",""down"",""good_move"",34119,2985,2594.8,31134,390.2,""smooth"",""right"",""right"",""bad_move"",36693,2574,2134.4,34119,439.6,""oops"",""down"",""left"",""good_move"",38948,2254,2066.3,36694,187.7,""error"",""-"",""-"",""no_move"",43116,4168,2680.5,39969,466.5,""smooth"",""down"",""down"",""good_move"",46337,3221,2545.5,43116,675.5,""smooth"",""down"",""down"",""good_move"",56054,9717,2308.9,53313,432.1,""oops"",""down"",""down"",""good_move"",58999,2945,2508.5,56054,436.5,""oops"",""left"",""left"",""good_move"",62191,3191,2605,59000,586,""oops"",""down"",""right"",""bad_move"",65164,2972,2059.5,62192,912.5,""oops"",""down"",""up"",""bad_move"",68383,3218,2613.2,65165,604.8,""oops"",""down"",""down"",""good_move"",71050,2667,2322,68383,345,""oops"",""down"",""up"",""bad_move"",79087,8037,3794.2,74872,420.8,""oops"",""down"",""left"",""good_move"",82705,3618,3235.9,79087,382.1,""oops"",""down"",""up"",""bad_move""]","",""
"2453","","<div style=""width:500px;"">
  <p>What determined the result of this run?</p>
  </div>","85","html-slider-response","77","1915386","0.0-10.0-1.8","252","1","2025-07-09 10:01:33","7701e855f2ef39aa3fd6c71abdc6918a","5.185.246.114","Mozilla/5.0 (Windows NT 10.0; Win64; x64; rv:140.0) Gecko/20100101 Firefox/140.0","","Firefox","140.0","Windows","10.0","https://app.prolific.com/","pl,en-US;q=0.7,en;q=0.3","5f0214e58782120a8c970fd6","686d226cabeef709c732f8e1","686e3df4232d9b611ae5d044","5f0214e58782120a8c970fd6","2025-07-09T10:33:30.955Z","","","","","","AttribQ","","","","","","","","","","","","","","","","","","","","","","","","","","","","","","","","","","","","","","50"
"2456","","<div style=""width:500px;"">
  <p>How much control did you have over the ball?</p>
  </div>","27","html-slider-response","78","1917844","0.0-10.0-2.8","252","1","2025-07-09 10:01:33","7701e855f2ef39aa3fd6c71abdc6918a","5.185.246.114","Mozilla/5.0 (Windows NT 10.0; Win64; x64; rv:140.0) Gecko/20100101 Firefox/140.0","","Firefox","140.0","Windows","10.0","https://app.prolific.com/","pl,en-US;q=0.7,en;q=0.3","5f0214e58782120a8c970fd6","686d226cabeef709c732f8e1","686e3df4232d9b611ae5d044","5f0214e58782120a8c970fd6","2025-07-09T10:33:33.413Z","","","","","","ControlQ","","","","","","","","","","","","","","","","","","","","","","","","","","","","","","","","","","","","","","50"
"2087","","<div style=""width:500px;"">
  <p>How would you describe your current emotional state?</p>
  </div>","32","html-slider-response","79","1919934","0.0-10.0-3.8","252","1","2025-07-09 10:01:33","7701e855f2ef39aa3fd6c71abdc6918a","5.185.246.114","Mozilla/5.0 (Windows NT 10.0; Win64; x64; rv:140.0) Gecko/20100101 Firefox/140.0","","Firefox","140.0","Windows","10.0","https://app.prolific.com/","pl,en-US;q=0.7,en;q=0.3","5f0214e58782120a8c970fd6","686d226cabeef709c732f8e1","686e3df4232d9b611ae5d044","5f0214e58782120a8c970fd6","2025-07-09T10:33:35.503Z","","","","","","StressQ","","","","","","","","","","","","","","","","","","","","","","","","","","","","","","","","","","","","","","50"
"2075","","<div style=""width:500px;"">
  <p>What best describes how you currently feel?</p>
  </div>","89","html-slider-response","80","1922012","0.0-10.0-4.8","252","1","2025-07-09 10:01:33","7701e855f2ef39aa3fd6c71abdc6918a","5.185.246.114","Mozilla/5.0 (Windows NT 10.0; Win64; x64; rv:140.0) Gecko/20100101 Firefox/140.0","","Firefox","140.0","Windows","10.0","https://app.prolific.com/","pl,en-US;q=0.7,en;q=0.3","5f0214e58782120a8c970fd6","686d226cabeef709c732f8e1","686e3df4232d9b611ae5d044","5f0214e58782120a8c970fd6","2025-07-09T10:33:37.581Z","","","","","","MotivationQ","","","","","","","","","","","","","","","","","","","","","","","","","","","","","","","","","","","","","","50"
"","","","","ctl-task-cpt","81","1985855","0.0-10.0-0.9","252","1","2025-07-09 10:01:33","7701e855f2ef39aa3fd6c71abdc6918a","5.185.246.114","Mozilla/5.0 (Windows NT 10.0; Win64; x64; rv:140.0) Gecko/20100101 Firefox/140.0","","Firefox","140.0","Windows","10.0","https://app.prolific.com/","pl,en-US;q=0.7,en;q=0.3","5f0214e58782120a8c970fd6","686d226cabeef709c732f8e1","686e3df4232d9b611ae5d044","5f0214e58782120a8c970fd6","2025-07-09T10:34:41.424Z","","","","","","","","","","","","","","","","win-only","3","g1:SW,g2:NE","0.4","10","0","1924641","833","5846","60822","1","4","8","6","2","8","8","42","34","0.3181818181818182","1055","3000","1350","[""up"",""right""]","{""num_key_presses"":12,""num_perfect"":6,""num_errors"":0,""num_randdir"":6,""num_randdir_good_moves"":3,""num_whilered"":0,""num_whileblue"":0,""num_blue"":5,""num_good_moves"":9}","[295.22857753208706,294.92857448032925,0,295.22857753208706,294.92857448032925,113,295.22857753208706,294.92857448032925,214,295.22857753208706,294.92857448032925,314,295.22857753208706,294.92857448032925,415,295.22857753208706,294.92857448032925,515,387.22857753208706,245.92857448032925,616,481.22857753208706,156.92857448032925,716,492.22857753208706,131.92857448032925,817,562.228577532087,78.92857448032925,931,572.228577532087,60.92857448032924,1032,572.228577532087,60.92857448032924,1146,572.228577532087,60.92857448032924,1246,572.228577532087,60.92857448032924,1346,572.228577532087,60.92857448032924,1461,572.228577532087,60.92857448032924,1568,572.228577532087,60.92857448032924,1668,899.228577532087,145.92857448032925,1770,907.228577532087,145.92857448032925,1884,907.228577532087,145.92857448032925,1985,907.228577532087,145.92857448032925,2085,907.228577532087,145.92857448032925,2196,907.228577532087,145.92857448032925,2298,907.228577532087,145.92857448032925,2409,907.228577532087,145.92857448032925,2509,907.228577532087,145.92857448032925,2610,907.228577532087,145.92857448032925,2710,907.228577532087,145.92857448032925,2810,907.228577532087,145.92857448032925,2911,907.228577532087,145.92857448032925,3011,907.228577532087,145.92857448032925,3113,907.228577532087,145.92857448032925,3220,907.228577532087,145.92857448032925,3321,907.228577532087,145.92857448032925,3427,907.228577532087,145.92857448032925,3529,907.228577532087,145.92857448032925,3629,907.228577532087,145.92857448032925,3729,907.228577532087,145.92857448032925,3830,907.228577532087,145.92857448032925,3930,907.228577532087,145.92857448032925,4031,907.228577532087,145.92857448032925,4131,907.228577532087,145.92857448032925,4247,907.228577532087,145.92857448032925,4362,907.228577532087,145.92857448032925,4464,907.228577532087,145.92857448032925,4564,907.228577532087,145.92857448032925,4664,907.228577532087,145.92857448032925,4764,907.228577532087,145.92857448032925,4865,907.228577532087,145.92857448032925,4965]","[5545,5545,2830.3,2007,707.7,""smooth"",""right"",""right"",""good_move"",12462,6916,2438.8,9408,615.2,""smooth"",""right"",""right"",""good_move"",15956,3494,2972.7,12462,521.3,""oops"",""right"",""down"",""bad_move"",19062,3106,2587.2,15956,518.8,""oops"",""right"",""up"",""good_move"",22290,3228,2778.1,19062,449.9,""smooth"",""up"",""up"",""good_move"",25746,3455,3046.3,22291,408.7,""smooth"",""up"",""up"",""good_move"",28883,3137,2606.8,25746,530.2,""oops"",""up"",""down"",""bad_move"",32233,3350,2967.9,28883,382.1,""oops"",""up"",""down"",""bad_move"",45017,12784,2608.7,41893,515.3,""oops"",""up"",""right"",""good_move"",48162,3145,2686.5,45017,458.5,""oops"",""up"",""up"",""good_move"",51466,3304,1611.5,48162,1692.5,""smooth"",""up"",""up"",""good_move"",54653,3186,1776.8,51467,1409.2,""smooth"",""up"",""up"",""good_move""]","",""
"3087","","<div style=""width:500px;"">
  <p>What determined the result of this run?</p>
  </div>","92","html-slider-response","82","1988942","0.0-10.0-1.9","252","1","2025-07-09 10:01:33","7701e855f2ef39aa3fd6c71abdc6918a","5.185.246.114","Mozilla/5.0 (Windows NT 10.0; Win64; x64; rv:140.0) Gecko/20100101 Firefox/140.0","","Firefox","140.0","Windows","10.0","https://app.prolific.com/","pl,en-US;q=0.7,en;q=0.3","5f0214e58782120a8c970fd6","686d226cabeef709c732f8e1","686e3df4232d9b611ae5d044","5f0214e58782120a8c970fd6","2025-07-09T10:34:44.511Z","","","","","","AttribQ","","","","","","","","","","","","","","","","","","","","","","","","","","","","","","","","","","","","","","50"
"13157","","<div style=""width:500px;"">
  <p>How much control did you have over the ball?</p>
  </div>","84","html-slider-response","83","2002101","0.0-10.0-2.9","252","1","2025-07-09 10:01:33","7701e855f2ef39aa3fd6c71abdc6918a","5.185.246.114","Mozilla/5.0 (Windows NT 10.0; Win64; x64; rv:140.0) Gecko/20100101 Firefox/140.0","","Firefox","140.0","Windows","10.0","https://app.prolific.com/","pl,en-US;q=0.7,en;q=0.3","5f0214e58782120a8c970fd6","686d226cabeef709c732f8e1","686e3df4232d9b611ae5d044","5f0214e58782120a8c970fd6","2025-07-09T10:34:57.670Z","","","","","","ControlQ","","","","","","","","","","","","","","","","","","","","","","","","","","","","","","","","","","","","","","50"
"6136","","<div style=""width:500px;"">
  <p>How would you describe your current emotional state?</p>
  </div>","25","html-slider-response","84","2008241","0.0-10.0-3.9","252","1","2025-07-09 10:01:33","7701e855f2ef39aa3fd6c71abdc6918a","5.185.246.114","Mozilla/5.0 (Windows NT 10.0; Win64; x64; rv:140.0) Gecko/20100101 Firefox/140.0","","Firefox","140.0","Windows","10.0","https://app.prolific.com/","pl,en-US;q=0.7,en;q=0.3","5f0214e58782120a8c970fd6","686d226cabeef709c732f8e1","686e3df4232d9b611ae5d044","5f0214e58782120a8c970fd6","2025-07-09T10:35:03.810Z","","","","","","StressQ","","","","","","","","","","","","","","","","","","","","","","","","","","","","","","","","","","","","","","50"
"12409","","<div style=""width:500px;"">
  <p>What best describes how you currently feel?</p>
  </div>","95","html-slider-response","85","2020652","0.0-10.0-4.9","252","1","2025-07-09 10:01:33","7701e855f2ef39aa3fd6c71abdc6918a","5.185.246.114","Mozilla/5.0 (Windows NT 10.0; Win64; x64; rv:140.0) Gecko/20100101 Firefox/140.0","","Firefox","140.0","Windows","10.0","https://app.prolific.com/","pl,en-US;q=0.7,en;q=0.3","5f0214e58782120a8c970fd6","686d226cabeef709c732f8e1","686e3df4232d9b611ae5d044","5f0214e58782120a8c970fd6","2025-07-09T10:35:16.222Z","","","","","","MotivationQ","","","","","","","","","","","","","","","","","","","","","","","","","","","","","","","","","","","","","","50"
"","","","","ctl-task-cpt","86","2050450","0.0-10.0-0.10","252","1","2025-07-09 10:01:33","7701e855f2ef39aa3fd6c71abdc6918a","5.185.246.114","Mozilla/5.0 (Windows NT 10.0; Win64; x64; rv:140.0) Gecko/20100101 Firefox/140.0","","Firefox","140.0","Windows","10.0","https://app.prolific.com/","pl,en-US;q=0.7,en;q=0.3","5f0214e58782120a8c970fd6","686d226cabeef709c732f8e1","686e3df4232d9b611ae5d044","5f0214e58782120a8c970fd6","2025-07-09T10:35:46.019Z","","","","","","","","","","","","","","","","win-only","0","g1:NW,g2:SE","0.5","11","0","2023282","948","5960","26778","1","4","8","6","2","8","8","50","42","0.3787878787878788","1110","3000","1815","[""down"",""right""]","{""num_key_presses"":6,""num_perfect"":5,""num_errors"":0,""num_randdir"":1,""num_randdir_good_moves"":1,""num_whilered"":0,""num_whileblue"":0,""num_blue"":1,""num_good_moves"":6}","[299.22857753208706,293.92857448032925,0,299.22857753208706,293.92857448032925,107,299.22857753208706,293.92857448032925,209,299.22857753208706,293.92857448032925,324,299.22857753208706,293.92857448032925,439,299.22857753208706,293.92857448032925,540,461.22857753208706,416.92857448032925,640,554.228577532087,534.9285744803292,740,559.228577532087,550.9285744803292,841,576.228577532087,572.9285744803292,941,555.228577532087,548.9285744803292,1041,553.228577532087,545.9285744803292,1153,553.228577532087,545.9285744803292,1253,553.228577532087,545.9285744803292,1353,565.228577532087,535.9285744803292,1455,698.228577532087,475.92857448032925,1560,786.228577532087,435.92857448032925,1664,816.228577532087,425.92857448032925,1775,816.228577532087,425.92857448032925,1891,816.228577532087,425.92857448032925,1991,816.228577532087,425.92857448032925,2091,816.228577532087,425.92857448032925,2200,816.228577532087,425.92857448032925,2315,816.228577532087,425.92857448032925,2424,817.228577532087,425.92857448032925,2525,840.228577532087,380.92857448032925,2651,837.228577532087,378.92857448032925,2761,837.228577532087,378.92857448032925,2884,837.228577532087,378.92857448032925,2994,837.228577532087,378.92857448032925,3109,837.228577532087,378.92857448032925,3226,837.228577532087,378.92857448032925,3336,837.228577532087,378.92857448032925,3440,837.228577532087,378.92857448032925,3541,837.228577532087,378.92857448032925,3665,837.228577532087,378.92857448032925,3765,837.228577532087,378.92857448032925,3865,837.228577532087,378.92857448032925,3965,837.228577532087,378.92857448032925,4065,837.228577532087,378.92857448032925,4182,837.228577532087,378.92857448032925,4282,837.228577532087,378.92857448032925,4392,837.228577532087,378.92857448032925,4494,837.228577532087,378.92857448032925,4599,837.228577532087,378.92857448032925,4710,837.228577532087,378.92857448032925,4810,837.228577532087,378.92857448032925,4916]","[1689,1689,1000,0,689,""smooth"",""down"",""down"",""good_move"",5147,3458,2873.6,1689,584.4,""smooth"",""down"",""down"",""good_move"",7623,2476,1435.8,5147,1040.2,""smooth"",""right"",""right"",""good_move"",10364,2740,2137.1,7624,602.9,""smooth"",""right"",""right"",""good_move"",13608,3244,2656.9,10364,587.1,""smooth"",""right"",""right"",""good_move"",20485,6876,2572.5,17419,493.5,""oops"",""down"",""down"",""good_move""]","",""
"4414","","<div style=""width:500px;"">
  <p>What determined the result of this run?</p>
