"rt","response_timestamp","stimulus","response","trial_type","trial_index","time_elapsed","internal_node_id","run_id","condition","recorded_at","source_code_version","ip","user_agent","device","browser","browser_version","platform","platform_version","referer","accept_language","PROLIFIC_PID","STUDY_ID","SESSION_ID","prolific_id","realtime","view_history","question_order","consent","success","question_id","eventType","responses","item_order","radio_event_ids","radio_event_times","key_event_times","mouse_event_times","straightlining","zigzagging","honeypot","which_type","canvas_config","goals_layout","control_level","trial_number","tutorial_trial_number","trial_start_time","phase1_start_time","phase2_start_time","phase3_start_time","goal_1_value","goal_1_distance","goal_2_value","goal_2_distance","goal_selected","outcome","outcome_total","participant_final_score","participant_initial_score","participant_final_score_prop","goal_choice_rt","allocated_time","allocated_time_remaining","goal_direction","counts","mouse_movements","key_presses","correct","slider_start"
"15276","1752052037414","<p style='font-size:40px;line-height:1.25'><strong>Welcome to the experiment!</strong></p><p style='font-size:1.1em;line-height:1.25'>Thank you for your interest in our experiment! Before you begin, it is important that we obtain your informed consent to participate in the study.</p><p style='font-size:1.1em;line-height:1.25'>On the next screen will be an <strong>information sheet</strong> for you to read. To participate in the study we need you to read this information sheet and the following consent form carefully. If you agree with all the statements, please click the <strong>I agree</strong> button.</p><p style='font-size:1.1em;line-height:1.25'>Press <strong>Next</strong> to read the information sheet.</p>","0","custom-html-button-response","0","15279","0.0-0.0","35","1","2025-07-09 09:06:59","7701e855f2ef39aa3fd6c71abdc6918a","122.133.150.137","Mozilla/5.0 (Macintosh; Intel Mac OS X 10_15_7) AppleWebKit/537.36 (KHTML, like Gecko) Chrome/137.0.0.0 Safari/537.36","Macintosh","Chrome","137.0.0.0","OS X","10_15_7","https://app.prolific.com/","en-US,en;q=0.9","65cb0f21257c8a98f470bb5d","686d226cabeef709c732f8e1","686e312da557a8d8ceae11cc","65cb0f21257c8a98f470bb5d","2025-07-09T09:07:17.416Z","","","","","","","","","","","","","","","","","","","","","","","","","","","","","","","","","","","","","","","","","","","",""
"8840","","","","instructions","1","24121","0.0-1.0","35","1","2025-07-09 09:06:59","7701e855f2ef39aa3fd6c71abdc6918a","122.133.150.137","Mozilla/5.0 (Macintosh; Intel Mac OS X 10_15_7) AppleWebKit/537.36 (KHTML, like Gecko) Chrome/137.0.0.0 Safari/537.36","Macintosh","Chrome","137.0.0.0","OS X","10_15_7","https://app.prolific.com/","en-US,en;q=0.9","65cb0f21257c8a98f470bb5d","686d226cabeef709c732f8e1","686e312da557a8d8ceae11cc","65cb0f21257c8a98f470bb5d","","[{""page_index"":0,""viewing_time"":4889},{""page_index"":1,""viewing_time"":3951}]","","","","","","","","","","","","","","","","","","","","","","","","","","","","","","","","","","","","","","","","","","",""
"5129","","","{""Q0"":"""",""Q1"":"""",""Q2"":"""",""Q3"":"""",""Q4"":"""",""Q5"":"""",""Q6"":""I agree""}","survey-multi-choice","2","29252","0.0-2.0","35","1","2025-07-09 09:06:59","7701e855f2ef39aa3fd6c71abdc6918a","122.133.150.137","Mozilla/5.0 (Macintosh; Intel Mac OS X 10_15_7) AppleWebKit/537.36 (KHTML, like Gecko) Chrome/137.0.0.0 Safari/537.36","Macintosh","Chrome","137.0.0.0","OS X","10_15_7","https://app.prolific.com/","en-US,en;q=0.9","65cb0f21257c8a98f470bb5d","686d226cabeef709c732f8e1","686e312da557a8d8ceae11cc","65cb0f21257c8a98f470bb5d","","","[0,1,2,3,4,5,6]","true","","","","","","","","","","","","","","","","","","","","","","","","","","","","","","","","","","","","","","","","",""
"8639","","","","fullscreen","3","38893","0.0-4.0","35","1","2025-07-09 09:06:59","7701e855f2ef39aa3fd6c71abdc6918a","122.133.150.137","Mozilla/5.0 (Macintosh; Intel Mac OS X 10_15_7) AppleWebKit/537.36 (KHTML, like Gecko) Chrome/137.0.0.0 Safari/537.36","Macintosh","Chrome","137.0.0.0","OS X","10_15_7","https://app.prolific.com/","en-US,en;q=0.9","65cb0f21257c8a98f470bb5d","686d226cabeef709c732f8e1","686e312da557a8d8ceae11cc","65cb0f21257c8a98f470bb5d","","","","","true","","","","","","","","","","","","","","","","","","","","","","","","","","","","","","","","","","","","","","","",""
"6293","1752052067324"," <p style='font-size:1.1em;line-height:1.25'>Thank you for completing the consent form and closing all other tabs.</p><p style='font-size:1.1em;line-height:1.25'>We will now invite you to fill in some demographic information and questionnaires, before starting the game.<br>This will take about 5 minutes.<br></p><p style='font-size:1.1em;line-height:1.25'>Press the <strong>Next</strong> button to continue.</p>","0","custom-html-button-response","4","45188","0.0-5.0","35","1","2025-07-09 09:06:59","7701e855f2ef39aa3fd6c71abdc6918a","122.133.150.137","Mozilla/5.0 (Macintosh; Intel Mac OS X 10_15_7) AppleWebKit/537.36 (KHTML, like Gecko) Chrome/137.0.0.0 Safari/537.36","Macintosh","Chrome","137.0.0.0","OS X","10_15_7","https://app.prolific.com/","en-US,en;q=0.9","65cb0f21257c8a98f470bb5d","686d226cabeef709c732f8e1","686e312da557a8d8ceae11cc","65cb0f21257c8a98f470bb5d","2025-07-09T09:07:47.325Z","","","","","","","","","","","","","","","","","","","","","","","","","","","","","","","","","","","","","","","","","","","",""
"3576","","","{""age"":""33""}","survey-text","5","48768","0.0-6.0-0.0","35","1","2025-07-09 09:06:59","7701e855f2ef39aa3fd6c71abdc6918a","122.133.150.137","Mozilla/5.0 (Macintosh; Intel Mac OS X 10_15_7) AppleWebKit/537.36 (KHTML, like Gecko) Chrome/137.0.0.0 Safari/537.36","Macintosh","Chrome","137.0.0.0","OS X","10_15_7","https://app.prolific.com/","en-US,en;q=0.9","65cb0f21257c8a98f470bb5d","686d226cabeef709c732f8e1","686e312da557a8d8ceae11cc","65cb0f21257c8a98f470bb5d","","","","","","0","demographics","","","","","","","","","","","","","","","","","","","","","","","","","","","","","","","","","","","","","",""
"3314","","","{""gender_identity"":""female/woman""}","survey-multi-choice","6","52083","0.0-6.0-1.0","35","1","2025-07-09 09:06:59","7701e855f2ef39aa3fd6c71abdc6918a","122.133.150.137","Mozilla/5.0 (Macintosh; Intel Mac OS X 10_15_7) AppleWebKit/537.36 (KHTML, like Gecko) Chrome/137.0.0.0 Safari/537.36","Macintosh","Chrome","137.0.0.0","OS X","10_15_7","https://app.prolific.com/","en-US,en;q=0.9","65cb0f21257c8a98f470bb5d","686d226cabeef709c732f8e1","686e312da557a8d8ceae11cc","65cb0f21257c8a98f470bb5d","","","[0]","","","1","demographics","","","","","","","","","","","","","","","","","","","","","","","","","","","","","","","","","","","","","",""
"3351","","","{""assigned_sex"":""female""}","survey-multi-choice","7","55435","0.0-6.0-2.0","35","1","2025-07-09 09:06:59","7701e855f2ef39aa3fd6c71abdc6918a","122.133.150.137","Mozilla/5.0 (Macintosh; Intel Mac OS X 10_15_7) AppleWebKit/537.36 (KHTML, like Gecko) Chrome/137.0.0.0 Safari/537.36","Macintosh","Chrome","137.0.0.0","OS X","10_15_7","https://app.prolific.com/","en-US,en;q=0.9","65cb0f21257c8a98f470bb5d","686d226cabeef709c732f8e1","686e312da557a8d8ceae11cc","65cb0f21257c8a98f470bb5d","","","[0]","","","2","demographics","","","","","","","","","","","","","","","","","","","","","","","","","","","","","","","","","","","","","",""
"7619","","","{""menstrual_cycle"":""Yes""}","survey-multi-choice","8","63056","0.0-6.0-3.0","35","1","2025-07-09 09:06:59","7701e855f2ef39aa3fd6c71abdc6918a","122.133.150.137","Mozilla/5.0 (Macintosh; Intel Mac OS X 10_15_7) AppleWebKit/537.36 (KHTML, like Gecko) Chrome/137.0.0.0 Safari/537.36","Macintosh","Chrome","137.0.0.0","OS X","10_15_7","https://app.prolific.com/","en-US,en;q=0.9","65cb0f21257c8a98f470bb5d","686d226cabeef709c732f8e1","686e312da557a8d8ceae11cc","65cb0f21257c8a98f470bb5d","","","[0]","","","4","demographics","","","","","","","","","","","","","","","","","","","","","","","","","","","","","","","","","","","","","",""
"76596","","","{""education"":""Vocational Qualifications (e.g. City & Guilds)""}","survey-multi-choice","9","139652","0.0-6.0-4.0","35","1","2025-07-09 09:06:59","7701e855f2ef39aa3fd6c71abdc6918a","122.133.150.137","Mozilla/5.0 (Macintosh; Intel Mac OS X 10_15_7) AppleWebKit/537.36 (KHTML, like Gecko) Chrome/137.0.0.0 Safari/537.36","Macintosh","Chrome","137.0.0.0","OS X","10_15_7","https://app.prolific.com/","en-US,en;q=0.9","65cb0f21257c8a98f470bb5d","686d226cabeef709c732f8e1","686e312da557a8d8ceae11cc","65cb0f21257c8a98f470bb5d","","","[0]","","","5","demographics","","","","","","","","","","","","","","","","","","","","","","","","","","","","","","","","","","","","","",""
"50222","","","{""education"":""A-level/National Diploma/Highers""}","survey-multi-choice","10","189876","0.0-6.0-5.0","35","1","2025-07-09 09:06:59","7701e855f2ef39aa3fd6c71abdc6918a","122.133.150.137","Mozilla/5.0 (Macintosh; Intel Mac OS X 10_15_7) AppleWebKit/537.36 (KHTML, like Gecko) Chrome/137.0.0.0 Safari/537.36","Macintosh","Chrome","137.0.0.0","OS X","10_15_7","https://app.prolific.com/","en-US,en;q=0.9","65cb0f21257c8a98f470bb5d","686d226cabeef709c732f8e1","686e312da557a8d8ceae11cc","65cb0f21257c8a98f470bb5d","2025-07-09T09:10:12.014Z","","[0]","","","6","demographics","","","","","","","","","","","","","","","","","","","","","","","","","","","","","","","","","","","","","",""
"11795","","","{""mental_health_condition"":""No"",""mental_health_treatment"":""No"",""psychiatric_medication"":""No""}","survey-text","11","201675","0.0-7.0-0.0","35","1","2025-07-09 09:06:59","7701e855f2ef39aa3fd6c71abdc6918a","122.133.150.137","Mozilla/5.0 (Macintosh; Intel Mac OS X 10_15_7) AppleWebKit/537.36 (KHTML, like Gecko) Chrome/137.0.0.0 Safari/537.36","Macintosh","Chrome","137.0.0.0","OS X","10_15_7","https://app.prolific.com/","en-US,en;q=0.9","65cb0f21257c8a98f470bb5d","686d226cabeef709c732f8e1","686e312da557a8d8ceae11cc","65cb0f21257c8a98f470bb5d","2025-07-09T09:10:23.812Z","","","","","1","mental_health","","","","","","","","","","","","","","","","","","","","","","","","","","","","","","","","","","","","","",""
"20843","","","{""depression_history"":[""No""]}","survey-multi-select","12","222521","0.0-7.0-1.0","35","1","2025-07-09 09:06:59","7701e855f2ef39aa3fd6c71abdc6918a","122.133.150.137","Mozilla/5.0 (Macintosh; Intel Mac OS X 10_15_7) AppleWebKit/537.36 (KHTML, like Gecko) Chrome/137.0.0.0 Safari/537.36","Macintosh","Chrome","137.0.0.0","OS X","10_15_7","https://app.prolific.com/","en-US,en;q=0.9","65cb0f21257c8a98f470bb5d","686d226cabeef709c732f8e1","686e312da557a8d8ceae11cc","65cb0f21257c8a98f470bb5d","","","[0]","","","","mental_health","","","","","","","","","","","","","","","","","","","","","","","","","","","","","","","","","","","","","",""
"89583.69999998808","","","","survey-template","13","312110","0.0-7.0-3.0","35","1","2025-07-09 09:06:59","7701e855f2ef39aa3fd6c71abdc6918a","122.133.150.137","Mozilla/5.0 (Macintosh; Intel Mac OS X 10_15_7) AppleWebKit/537.36 (KHTML, like Gecko) Chrome/137.0.0.0 Safari/537.36","Macintosh","Chrome","137.0.0.0","OS X","10_15_7","https://app.prolific.com/","en-US,en;q=0.9","65cb0f21257c8a98f470bb5d","686d226cabeef709c732f8e1","686e312da557a8d8ceae11cc","65cb0f21257c8a98f470bb5d","2025-07-09T09:12:14.248Z","","","","","","ius","{""Q01"":""0"",""Q02"":""2"",""Q03"":""0"",""Q04"":""0"",""Q05"":""0"",""Q06"":""1"",""Q07"":""1"",""Q08"":""0"",""Q09"":""1"",""Q10"":""0"",""Q11"":""1"",""Q12"":""1"",""Q13"":""0""}","[0,1,2,3,4,5,6,7,8,9,10,11,12]","[""Q01"",""Q02"",""Q03"",""Q04"",""Q05"",""Q06"",""Q07"",""Q08"",""Q09"",""Q10"",""Q11"",""Q12"",""Q13""]","[13818.900000035763,24285.80000001192,28216.19999998808,42921.5,47396.60000002384,56118.10000002384,63123.10000002384,64050.40000003576,71880,74864.69999998808,80764.40000003576,84424.30000001192,86959.10000002384]","[]","[13818.900000035763,24285.80000001192,28216.19999998808,42921.5,47396.60000002384,54938.80000001192,56118.10000002384,60059.5,63123.10000002384,64050.40000003576,71071.90000003576,71880,74864.69999998808,80764.40000003576,84424.30000001192,86959.10000002384,89580.30000001192]","0.5384615384615384","0.5","0","","","","","","","","","","","","","","","","","","","","","","","","","","","","",""
"2882","1752052337131","<p style='font-size:1.1em;line-height:1.25'>In the following, we will ask you a few questions relating to your experiences over the past month.<br></p><p style='font-size:1.1em;line-height:1.25'>Press the <strong>Next</strong> button to continue.</p>","0","custom-html-button-response","14","314995","0.0-7.0-4.0","35","1","2025-07-09 09:06:59","7701e855f2ef39aa3fd6c71abdc6918a","122.133.150.137","Mozilla/5.0 (Macintosh; Intel Mac OS X 10_15_7) AppleWebKit/537.36 (KHTML, like Gecko) Chrome/137.0.0.0 Safari/537.36","Macintosh","Chrome","137.0.0.0","OS X","10_15_7","https://app.prolific.com/","en-US,en;q=0.9","65cb0f21257c8a98f470bb5d","686d226cabeef709c732f8e1","686e312da557a8d8ceae11cc","65cb0f21257c8a98f470bb5d","2025-07-09T09:12:17.132Z","","","","","","","","","","","","","","","","","","","","","","","","","","","","","","","","","","","","","","","","","","","",""
"61326","","","","survey-template","15","376324","0.0-7.0-5.0","35","1","2025-07-09 09:06:59","7701e855f2ef39aa3fd6c71abdc6918a","122.133.150.137","Mozilla/5.0 (Macintosh; Intel Mac OS X 10_15_7) AppleWebKit/537.36 (KHTML, like Gecko) Chrome/137.0.0.0 Safari/537.36","Macintosh","Chrome","137.0.0.0","OS X","10_15_7","https://app.prolific.com/","en-US,en;q=0.9","65cb0f21257c8a98f470bb5d","686d226cabeef709c732f8e1","686e312da557a8d8ceae11cc","65cb0f21257c8a98f470bb5d","2025-07-09T09:13:18.461Z","","","","","","pss","{""Q01"":""1"",""Q02"":""1"",""Q03"":""3"",""Q04"":""2"",""Q05"":""2"",""Q06"":""4"",""Q07"":""1"",""Q08"":""2"",""Q09"":""2"",""Q10"":""2""}","[0,1,2,3,4,5,6,7,8,9]","[""Q01"",""Q02"",""Q03"",""Q04"",""Q05"",""Q06"",""Q07"",""Q08"",""Q09"",""Q10""]","[12720.899999976158,17791.19999998808,21294.5,25877.69999998808,29826.19999998808,36038.10000002384,41794.10000002384,47503.10000002384,55253.30000001192,60160.69999998808]","[]","[0,12720.899999976158,17791.19999998808,21294.5,25877.69999998808,29826.19999998808,36038.10000002384,41794.10000002384,47503.10000002384,55253.30000001192,60160.69999998808,61323.30000001192]","0.5","0.3333333333333333","0","","","","","","","","","","","","","","","","","","","","","","","","","","","","",""
"3440","1752052401902","<p style='font-size:1.1em;line-height:1.25'>Thank you for your answers! Now we will ask you a few more questions relating to your feelings in the last 24 hours.<br></p><p style='font-size:1.1em;line-height:1.25'>Press the <strong>Next</strong> button to continue.</p>","0","custom-html-button-response","16","379766","0.0-7.0-6.0","35","1","2025-07-09 09:06:59","7701e855f2ef39aa3fd6c71abdc6918a","122.133.150.137","Mozilla/5.0 (Macintosh; Intel Mac OS X 10_15_7) AppleWebKit/537.36 (KHTML, like Gecko) Chrome/137.0.0.0 Safari/537.36","Macintosh","Chrome","137.0.0.0","OS X","10_15_7","https://app.prolific.com/","en-US,en;q=0.9","65cb0f21257c8a98f470bb5d","686d226cabeef709c732f8e1","686e312da557a8d8ceae11cc","65cb0f21257c8a98f470bb5d","2025-07-09T09:13:21.903Z","","","","","","","","","","","","","","","","","","","","","","","","","","","","","","","","","","","","","","","","","","","",""
"91359","","","","survey-template","17","471129","0.0-7.0-7.0","35","1","2025-07-09 09:06:59","7701e855f2ef39aa3fd6c71abdc6918a","122.133.150.137","Mozilla/5.0 (Macintosh; Intel Mac OS X 10_15_7) AppleWebKit/537.36 (KHTML, like Gecko) Chrome/137.0.0.0 Safari/537.36","Macintosh","Chrome","137.0.0.0","OS X","10_15_7","https://app.prolific.com/","en-US,en;q=0.9","65cb0f21257c8a98f470bb5d","686d226cabeef709c732f8e1","686e312da557a8d8ceae11cc","65cb0f21257c8a98f470bb5d","2025-07-09T09:14:53.266Z","","","","","","drsp","{""Q01"":""1"",""Q02"":""0"",""Q03"":""0"",""Q04"":""3"",""Q05"":""1"",""Q06"":""0"",""Q07"":""0"",""Q08"":""0"",""Q09"":""0"",""Q10"":""3"",""Q11"":""3"",""Q12"":""0"",""Q13"":""2"",""Q14"":""2"",""Q15"":""0"",""Q16"":""3"",""Q17"":""1"",""Q18"":""3"",""Q19"":""2"",""Q20"":""2"",""Q21"":""0""}","[0,1,2,3,4,5,6,7,8,9,10,11,12,13,14,15,16,17,18,19,20]","[""Q01"",""Q02"",""Q03"",""Q04"",""Q05"",""Q04"",""Q06"",""Q07"",""Q08"",""Q09"",""Q10"",""Q11"",""Q12"",""Q13"",""Q14"",""Q15"",""Q16"",""Q17"",""Q18"",""Q19"",""Q20"",""Q21""]","[3883.099999964237,8217.799999952316,11916.299999952316,14883,17530.5,18399.899999976158,22538.5,28872.5,30513.299999952316,32447,34805.5,37336.59999996424,39593.59999996424,41805.69999998808,49832.799999952316,53795.59999996424,56748.39999997616,59618.5,70406.79999995232,75482.29999995232,80297.09999996424,86832.59999996424]","[]","[0,3883.099999964237,8217.799999952316,11916.299999952316,14883,17530.5,18399.899999976158,22538.5,28872.5,30513.299999952316,32447,34805.5,37336.59999996424,39593.59999996424,41805.69999998808,47877.59999996424,49832.799999952316,53795.59999996424,56748.39999997616,59618.5,70406.79999995232,75482.29999995232,80297.09999996424,86832.59999996424,91354.79999995232]","0.42857142857142855","0.15","0","","","","","","","","","","","","","","","","","","","","","","","","","","","","",""
"12991.699999988079","","","","survey-template","18","484123","0.0-7.0-8.0","35","1","2025-07-09 09:06:59","7701e855f2ef39aa3fd6c71abdc6918a","122.133.150.137","Mozilla/5.0 (Macintosh; Intel Mac OS X 10_15_7) AppleWebKit/537.36 (KHTML, like Gecko) Chrome/137.0.0.0 Safari/537.36","Macintosh","Chrome","137.0.0.0","OS X","10_15_7","https://app.prolific.com/","en-US,en;q=0.9","65cb0f21257c8a98f470bb5d","686d226cabeef709c732f8e1","686e312da557a8d8ceae11cc","65cb0f21257c8a98f470bb5d","2025-07-09T09:15:06.260Z","","","","","","stress","{""Q01"":""3"",""Q02"":""3"",""Q03"":""3""}","[0,1,2]","[""Q01"",""Q02"",""Q03""]","[3708.900000035763,7143.5,11146]","[]","[3708.900000035763,7143.5,11146,12990.300000011921]","0.6666666666666666","1","0","","","","","","","","","","","","","","","","","","","","","","","","","","","","",""
"78565","","","","instructions","19","562691","0.0-8.0-0.0","35","1","2025-07-09 09:06:59","7701e855f2ef39aa3fd6c71abdc6918a","122.133.150.137","Mozilla/5.0 (Macintosh; Intel Mac OS X 10_15_7) AppleWebKit/537.36 (KHTML, like Gecko) Chrome/137.0.0.0 Safari/537.36","Macintosh","Chrome","137.0.0.0","OS X","10_15_7","https://app.prolific.com/","en-US,en;q=0.9","65cb0f21257c8a98f470bb5d","686d226cabeef709c732f8e1","686e312da557a8d8ceae11cc","65cb0f21257c8a98f470bb5d","","[{""page_index"":0,""viewing_time"":15023},{""page_index"":1,""viewing_time"":32541},{""page_index"":2,""viewing_time"":14725},{""page_index"":3,""viewing_time"":16276}]","","","","","","","","","","","","","","","","","","","","","","","","","","","","","","","","","","","","","","","","","","",""
"","","","","ctl-task-cpt","20","590830","0.0-8.0-1.0","35","1","2025-07-09 09:06:59","7701e855f2ef39aa3fd6c71abdc6918a","122.133.150.137","Mozilla/5.0 (Macintosh; Intel Mac OS X 10_15_7) AppleWebKit/537.36 (KHTML, like Gecko) Chrome/137.0.0.0 Safari/537.36","Macintosh","Chrome","137.0.0.0","OS X","10_15_7","https://app.prolific.com/","en-US,en;q=0.9","65cb0f21257c8a98f470bb5d","686d226cabeef709c732f8e1","686e312da557a8d8ceae11cc","65cb0f21257c8a98f470bb5d","","","","","","","","","","","","","","","","","win-only","3","g1:SW,g2:NE","1","0","1","565971.5","1680","5681.7","25132.7","2","4","4","6","2","4","4","4","0","0.030303030303030304","1555.4","4000","1860","[""up"",""right""]","{""num_key_presses"":6,""num_perfect"":6,""num_errors"":0,""num_randdir"":0,""num_randdir_good_moves"":0,""num_whilered"":0,""num_whileblue"":0,""num_blue"":1,""num_good_moves"":6}","[820.6508928571428,829.4477678571428,0.1,820.6508928571428,829.4477678571428,100.5,820.6508928571428,829.4477678571428,206.4,820.6508928571428,829.4477678571428,311.9,820.6508928571428,829.4477678571428,415.7,820.6508928571428,829.4477678571428,516.1,820.6508928571428,829.4477678571428,620.9,820.6508928571428,829.4477678571428,726.1,1028.650892857143,497.4477678571428,831.2,1268.650892857143,299.4477678571428,935.8,1356.650892857143,311.4477678571428,1035.8,1406.650892857143,253.44776785714285,1135.9,1478.650892857143,177.44776785714285,1236,1480.650892857143,177.44776785714285,1336.2,1480.650892857143,177.44776785714285,1442,1480.650892857143,177.44776785714285,1546.4,1480.650892857143,177.44776785714285,1651,1480.650892857143,177.44776785714285,1751,1480.650892857143,177.44776785714285,1851.5,1480.650892857143,177.44776785714285,1951.5,1480.650892857143,177.44776785714285,2055.8,1480.650892857143,177.44776785714285,2156.6,1452.650892857143,249.44776785714285,2260.5,1382.650892857143,461.4477678571428,2361.1,1376.650892857143,479.4477678571428,2462.1,1376.650892857143,477.4477678571428,2566.7,1376.650892857143,477.4477678571428,2671.3,1376.650892857143,477.4477678571428,2776.3,1376.650892857143,477.4477678571428,2882.2,1376.650892857143,477.4477678571428,2982.5,1376.650892857143,477.4477678571428,3085.7,1376.650892857143,477.4477678571428,3185.8,1376.650892857143,477.4477678571428,3285.9,1376.650892857143,477.4477678571428,3390.8,1376.650892857143,477.4477678571428,3490.9,1376.650892857143,477.4477678571428,3591.2,1376.650892857143,477.4477678571428,3695.7,1376.650892857143,477.4477678571428,3796.7,1376.650892857143,477.4477678571428,3896.8]","[4307.6,4307.5,1953.5,2010,344.1,""smooth"",""right"",""right"",""good_move"",7398.7,3090.6,2700.3,4308.1,390.3,""smooth"",""right"",""right"",""good_move"",10141.3,2742.5,2418.7,7398.9,323.8,""smooth"",""right"",""right"",""good_move"",13413.8,3272.2,2927,10141.7,345.1,""smooth"",""up"",""up"",""good_move"",15836,2421.8,1991.7,13414.2,430.1,""smooth"",""up"",""up"",""good_move"",19363.5,3527.3,3198.1,15836.2,329.2,""smooth"",""up"",""up"",""good_move""]","",""
"14050","","","","instructions","21","604881","0.0-8.0-2.0","35","1","2025-07-09 09:06:59","7701e855f2ef39aa3fd6c71abdc6918a","122.133.150.137","Mozilla/5.0 (Macintosh; Intel Mac OS X 10_15_7) AppleWebKit/537.36 (KHTML, like Gecko) Chrome/137.0.0.0 Safari/537.36","Macintosh","Chrome","137.0.0.0","OS X","10_15_7","https://app.prolific.com/","en-US,en;q=0.9","65cb0f21257c8a98f470bb5d","686d226cabeef709c732f8e1","686e312da557a8d8ceae11cc","65cb0f21257c8a98f470bb5d","","[{""page_index"":0,""viewing_time"":14050}]","","","","","","","","","","","","","","","","","","","","","","","","","","","","","","","","","","","","","","","","","","",""
"","","","","ctl-task-cpt","22","650758","0.0-8.0-3.0","35","1","2025-07-09 09:06:59","7701e855f2ef39aa3fd6c71abdc6918a","122.133.150.137","Mozilla/5.0 (Macintosh; Intel Mac OS X 10_15_7) AppleWebKit/537.36 (KHTML, like Gecko) Chrome/137.0.0.0 Safari/537.36","Macintosh","Chrome","137.0.0.0","OS X","10_15_7","https://app.prolific.com/","en-US,en;q=0.9","65cb0f21257c8a98f470bb5d","686d226cabeef709c732f8e1","686e312da557a8d8ceae11cc","65cb0f21257c8a98f470bb5d","","","","","","","","","","","","","","","","","win-only","3","g1:SW,g2:NE","0.35","0","3","608159.4","1284.6","5286","42866.3","2","4","8","6","2","-8","-8","0","0","0","1157.9","4000","-2995","[""up"",""right""]","{""num_key_presses"":12,""num_perfect"":6,""num_errors"":0,""num_randdir"":6,""num_randdir_good_moves"":2,""num_whilered"":0,""num_whileblue"":0,""num_blue"":1,""num_good_moves"":8}","[820.6508928571428,835.4477678571428,0.1,820.6508928571428,835.4477678571428,101.6,820.6508928571428,835.4477678571428,206.4,820.6508928571428,835.4477678571428,311,834.6508928571428,813.4477678571428,411.5,1242.650892857143,377.4477678571428,516.4,1288.650892857143,371.4477678571428,620.7,1278.650892857143,401.4477678571428,720.7,1534.650892857143,171.44776785714285,821,1578.650892857143,107.44776785714285,921.7,1552.650892857143,109.44776785714285,1025.9,1552.650892857143,109.44776785714285,1131.2,1552.650892857143,109.44776785714285,1231.5,1552.650892857143,109.44776785714285,1331.6,1552.650892857143,109.44776785714285,1436.1,1552.650892857143,109.44776785714285,1541.4,1552.650892857143,109.44776785714285,1641.5,1552.650892857143,109.44776785714285,1743.4,1722.650892857143,381.4477678571428,1846.1,1912.650892857143,757.4477678571428,1946.2,1912.650892857143,757.4477678571428,2046.8,1912.650892857143,757.4477678571428,2151.3,1912.650892857143,757.4477678571428,2251.7,1824.650892857143,915.4477678571428,2356.5,1812.650892857143,943.4477678571428,2460.8,1812.650892857143,943.4477678571428,2561.5,1812.650892857143,943.4477678571428,2665.7,1812.650892857143,943.4477678571428,2766.8,1812.650892857143,943.4477678571428,2871.5,1812.650892857143,943.4477678571428,2971.6,1812.650892857143,943.4477678571428,3076,1812.650892857143,943.4477678571428,3180.8,1812.650892857143,943.4477678571428,3285.6,1812.650892857143,943.4477678571428,3386.5,1812.650892857143,943.4477678571428,3491.1,1812.650892857143,943.4477678571428,3591.4,1812.650892857143,943.4477678571428,3691.7,1812.650892857143,943.4477678571428,3796.1,1812.650892857143,943.4477678571428,3896.1,1812.650892857143,943.4477678571428,3996.1]","[1437.5,1437.5,1000,0,437.5,""oops"",""right"",""right"",""good_move"",4157.9,2720,2371.4,1437.9,348.6,""smooth"",""up"",""up"",""good_move"",6765.3,2607.3,2245.4,4158,361.9,""smooth"",""right"",""right"",""good_move"",9326.3,2560.6,2248.9,6765.7,311.7,""oops"",""up"",""right"",""good_move"",12333.1,3006.6,2731.9,9326.5,274.7,""oops"",""up"",""down"",""bad_move"",18009.5,5676.1,2168,15505,336.5,""oops"",""up"",""left"",""bad_move"",20790.9,2781.1,2443.1,18009.8,338,""smooth"",""up"",""up"",""good_move"",23939.9,3148.8,2849.9,20791.1,298.9,""smooth"",""up"",""up"",""good_move"",27057.2,3117.1,2801.8,23940.1,315.3,""oops"",""up"",""left"",""bad_move"",30241.4,3183.9,2873.5,27057.5,310.4,""oops"",""up"",""down"",""bad_move"",33054.2,2812.4,2448.7,30241.8,363.7,""smooth"",""up"",""up"",""good_move"",35205.7,2151.4,1856.7,33054.3,294.7,""smooth"",""right"",""right"",""good_move""]","",""
"33508","","","","instructions","23","684266","0.0-8.0-4.0","35","1","2025-07-09 09:06:59","7701e855f2ef39aa3fd6c71abdc6918a","122.133.150.137","Mozilla/5.0 (Macintosh; Intel Mac OS X 10_15_7) AppleWebKit/537.36 (KHTML, like Gecko) Chrome/137.0.0.0 Safari/537.36","Macintosh","Chrome","137.0.0.0","OS X","10_15_7","https://app.prolific.com/","en-US,en;q=0.9","65cb0f21257c8a98f470bb5d","686d226cabeef709c732f8e1","686e312da557a8d8ceae11cc","65cb0f21257c8a98f470bb5d","","[{""page_index"":0,""viewing_time"":10330},{""page_index"":1,""viewing_time"":23177}]","","","","","","","","","","","","","","","","","","","","","","","","","","","","","","","","","","","","","","","","","","",""
"8687","","","{""green_ball"":[""Ball sometimes shakes and moves in a random direction""]}","survey-multi-select","24","692955","0.0-8.0-5.0-0.0","35","1","2025-07-09 09:06:59","7701e855f2ef39aa3fd6c71abdc6918a","122.133.150.137","Mozilla/5.0 (Macintosh; Intel Mac OS X 10_15_7) AppleWebKit/537.36 (KHTML, like Gecko) Chrome/137.0.0.0 Safari/537.36","Macintosh","Chrome","137.0.0.0","OS X","10_15_7","https://app.prolific.com/","en-US,en;q=0.9","65cb0f21257c8a98f470bb5d","686d226cabeef709c732f8e1","686e312da557a8d8ceae11cc","65cb0f21257c8a98f470bb5d","","","[0]","","","","quiz","","","","","","","","","","","","","","","","","","","","","","","","","","","","","","","","","","","","","true",""
"2191","","<p align='center'><b>CORRECT!</b> Indeed, the green ball may sometimes shake and move in a random direction.</p>","0","html-button-response","25","695148","0.0-8.0-5.0-1.0","35","1","2025-07-09 09:06:59","7701e855f2ef39aa3fd6c71abdc6918a","122.133.150.137","Mozilla/5.0 (Macintosh; Intel Mac OS X 10_15_7) AppleWebKit/537.36 (KHTML, like Gecko) Chrome/137.0.0.0 Safari/537.36","Macintosh","Chrome","137.0.0.0","OS X","10_15_7","https://app.prolific.com/","en-US,en;q=0.9","65cb0f21257c8a98f470bb5d","686d226cabeef709c732f8e1","686e312da557a8d8ceae11cc","65cb0f21257c8a98f470bb5d","","","","","","","","","","","","","","","","","","","","","","","","","","","","","","","","","","","","","","","","","","","","",""
"10173","","","{""yellow_ball"":[""Ball doesn‘t move and I get -1 penalty point""]}","survey-multi-select","26","705323","0.0-8.0-6.0-0.0","35","1","2025-07-09 09:06:59","7701e855f2ef39aa3fd6c71abdc6918a","122.133.150.137","Mozilla/5.0 (Macintosh; Intel Mac OS X 10_15_7) AppleWebKit/537.36 (KHTML, like Gecko) Chrome/137.0.0.0 Safari/537.36","Macintosh","Chrome","137.0.0.0","OS X","10_15_7","https://app.prolific.com/","en-US,en;q=0.9","65cb0f21257c8a98f470bb5d","686d226cabeef709c732f8e1","686e312da557a8d8ceae11cc","65cb0f21257c8a98f470bb5d","","","[0]","","","","quiz","","","","","","","","","","","","","","","","","","","","","","","","","","","","","","","","","","","","","true",""
"1625","","<p align='center'><b>CORRECT!</b> Indeed, the yellow ball never moves and you receive a penalty.</p>","0","html-button-response","27","706948","0.0-8.0-6.0-1.0","35","1","2025-07-09 09:06:59","7701e855f2ef39aa3fd6c71abdc6918a","122.133.150.137","Mozilla/5.0 (Macintosh; Intel Mac OS X 10_15_7) AppleWebKit/537.36 (KHTML, like Gecko) Chrome/137.0.0.0 Safari/537.36","Macintosh","Chrome","137.0.0.0","OS X","10_15_7","https://app.prolific.com/","en-US,en;q=0.9","65cb0f21257c8a98f470bb5d","686d226cabeef709c732f8e1","686e312da557a8d8ceae11cc","65cb0f21257c8a98f470bb5d","","","","","","","","","","","","","","","","","","","","","","","","","","","","","","","","","","","","","","","","","","","","",""
"9429","","","{""blue_ball"":[""Ball always shakes and moves in a random direction""]}","survey-multi-select","28","716378","0.0-8.0-7.0-0.0","35","1","2025-07-09 09:06:59","7701e855f2ef39aa3fd6c71abdc6918a","122.133.150.137","Mozilla/5.0 (Macintosh; Intel Mac OS X 10_15_7) AppleWebKit/537.36 (KHTML, like Gecko) Chrome/137.0.0.0 Safari/537.36","Macintosh","Chrome","137.0.0.0","OS X","10_15_7","https://app.prolific.com/","en-US,en;q=0.9","65cb0f21257c8a98f470bb5d","686d226cabeef709c732f8e1","686e312da557a8d8ceae11cc","65cb0f21257c8a98f470bb5d","","","[0]","","","","quiz","","","","","","","","","","","","","","","","","","","","","","","","","","","","","","","","","","","","","true",""
"2264","","<p align='center'><b>CORRECT!</b> Indeed, the blue ball always shakes and moves in a random direction. Also there is a penalty of -1 point.</p>","0","html-button-response","29","718643","0.0-8.0-7.0-1.0","35","1","2025-07-09 09:06:59","7701e855f2ef39aa3fd6c71abdc6918a","122.133.150.137","Mozilla/5.0 (Macintosh; Intel Mac OS X 10_15_7) AppleWebKit/537.36 (KHTML, like Gecko) Chrome/137.0.0.0 Safari/537.36","Macintosh","Chrome","137.0.0.0","OS X","10_15_7","https://app.prolific.com/","en-US,en;q=0.9","65cb0f21257c8a98f470bb5d","686d226cabeef709c732f8e1","686e312da557a8d8ceae11cc","65cb0f21257c8a98f470bb5d","","","","","","","","","","","","","","","","","","","","","","","","","","","","","","","","","","","","","","","","","","","","",""
"6431","","","{""bonus"":[""When I reach 50% of points""]}","survey-multi-select","30","725074","0.0-8.0-8.0-0.0","35","1","2025-07-09 09:06:59","7701e855f2ef39aa3fd6c71abdc6918a","122.133.150.137","Mozilla/5.0 (Macintosh; Intel Mac OS X 10_15_7) AppleWebKit/537.36 (KHTML, like Gecko) Chrome/137.0.0.0 Safari/537.36","Macintosh","Chrome","137.0.0.0","OS X","10_15_7","https://app.prolific.com/","en-US,en;q=0.9","65cb0f21257c8a98f470bb5d","686d226cabeef709c732f8e1","686e312da557a8d8ceae11cc","65cb0f21257c8a98f470bb5d","","","[0]","","","","quiz","","","","","","","","","","","","","","","","","","","","","","","","","","","","","","","","","","","","","true",""
"3201","","<p align='center'><b>CORRECT!</b> Indeed, you receive 2 pounds extra when you reach 50% of points.</p>","0","html-button-response","31","728276","0.0-8.0-8.0-1.0","35","1","2025-07-09 09:06:59","7701e855f2ef39aa3fd6c71abdc6918a","122.133.150.137","Mozilla/5.0 (Macintosh; Intel Mac OS X 10_15_7) AppleWebKit/537.36 (KHTML, like Gecko) Chrome/137.0.0.0 Safari/537.36","Macintosh","Chrome","137.0.0.0","OS X","10_15_7","https://app.prolific.com/","en-US,en;q=0.9","65cb0f21257c8a98f470bb5d","686d226cabeef709c732f8e1","686e312da557a8d8ceae11cc","65cb0f21257c8a98f470bb5d","","","","","","","","","","","","","","","","","","","","","","","","","","","","","","","","","","","","","","","","","","","","",""
"3453","","","","instructions","32","731730","0.0-8.0-9.0","35","1","2025-07-09 09:06:59","7701e855f2ef39aa3fd6c71abdc6918a","122.133.150.137","Mozilla/5.0 (Macintosh; Intel Mac OS X 10_15_7) AppleWebKit/537.36 (KHTML, like Gecko) Chrome/137.0.0.0 Safari/537.36","Macintosh","Chrome","137.0.0.0","OS X","10_15_7","https://app.prolific.com/","en-US,en;q=0.9","65cb0f21257c8a98f470bb5d","686d226cabeef709c732f8e1","686e312da557a8d8ceae11cc","65cb0f21257c8a98f470bb5d","","[{""page_index"":0,""viewing_time"":3453}]","","","","","","","","","","","","","","","","","","","","","","","","","","","","","","","","","","","","","","","","","","",""
"14142","","<p>Before you start with this game please answer the following three questions yourself. </p>
  <p>Through this game, we measure several aspects of your cognitive performance, such as reaction times, multi-tasking capabilities </p>
  <p>and the ability to assess the situation you are in.</p>
  <p></p>
  <p><b>How good do you usually are in such tasks?</b></p>","83","html-slider-response","33","745873","0.0-9.0-0.0","35","1","2025-07-09 09:06:59","7701e855f2ef39aa3fd6c71abdc6918a","122.133.150.137","Mozilla/5.0 (Macintosh; Intel Mac OS X 10_15_7) AppleWebKit/537.36 (KHTML, like Gecko) Chrome/137.0.0.0 Safari/537.36","Macintosh","Chrome","137.0.0.0","OS X","10_15_7","https://app.prolific.com/","en-US,en;q=0.9","65cb0f21257c8a98f470bb5d","686d226cabeef709c732f8e1","686e312da557a8d8ceae11cc","65cb0f21257c8a98f470bb5d","2025-07-09T09:19:28.010Z","","","","","","PreSkillQ","","","","","","","","","","","","","","","","","","","","","","","","","","","","","","","","","","","","","","50"
"8178","","<div style=""width:500px;"">
  <p>How well do you think you will perform in this task compared to other participants?</p>
  </div>","60","html-slider-response","34","754053","0.0-9.0-1.0","35","1","2025-07-09 09:06:59","7701e855f2ef39aa3fd6c71abdc6918a","122.133.150.137","Mozilla/5.0 (Macintosh; Intel Mac OS X 10_15_7) AppleWebKit/537.36 (KHTML, like Gecko) Chrome/137.0.0.0 Safari/537.36","Macintosh","Chrome","137.0.0.0","OS X","10_15_7","https://app.prolific.com/","en-US,en;q=0.9","65cb0f21257c8a98f470bb5d","686d226cabeef709c732f8e1","686e312da557a8d8ceae11cc","65cb0f21257c8a98f470bb5d","2025-07-09T09:19:36.190Z","","","","","","PrePerfQ","","","","","","","","","","","","","","","","","","","","","","","","","","","","","","","","","","","","","","50"
"6533","","<div style=""width:500px;"">
  <p>What best describes how you currently feel?</p>
  </div>","45","html-slider-response","35","760587","0.0-9.0-2.0","35","1","2025-07-09 09:06:59","7701e855f2ef39aa3fd6c71abdc6918a","122.133.150.137","Mozilla/5.0 (Macintosh; Intel Mac OS X 10_15_7) AppleWebKit/537.36 (KHTML, like Gecko) Chrome/137.0.0.0 Safari/537.36","Macintosh","Chrome","137.0.0.0","OS X","10_15_7","https://app.prolific.com/","en-US,en;q=0.9","65cb0f21257c8a98f470bb5d","686d226cabeef709c732f8e1","686e312da557a8d8ceae11cc","65cb0f21257c8a98f470bb5d","2025-07-09T09:19:42.724Z","","","","","","PreMotivationQ","","","","","","","","","","","","","","","","","","","","","","","","","","","","","","","","","","","","","","50"
"","","","","ctl-task-cpt","36","796243","0.0-10.0-0.0","35","1","2025-07-09 09:06:59","7701e855f2ef39aa3fd6c71abdc6918a","122.133.150.137","Mozilla/5.0 (Macintosh; Intel Mac OS X 10_15_7) AppleWebKit/537.36 (KHTML, like Gecko) Chrome/137.0.0.0 Safari/537.36","Macintosh","Chrome","137.0.0.0","OS X","10_15_7","https://app.prolific.com/","en-US,en;q=0.9","65cb0f21257c8a98f470bb5d","686d226cabeef709c732f8e1","686e312da557a8d8ceae11cc","65cb0f21257c8a98f470bb5d","2025-07-09T09:20:18.380Z","","","","","","","","","","","","","","","","win-only","3","g1:SW,g2:NE","1","1","0","763867.3","1121.2","6125.8","32656.4","1","4","8","6","2","8","7","7","0","0.05303030303030303","1277.7","3000","890","[""up"",""right""]","{""num_key_presses"":7,""num_perfect"":6,""num_errors"":1,""num_randdir"":0,""num_randdir_good_moves"":0,""num_whilered"":0,""num_whileblue"":0,""num_blue"":2,""num_good_moves"":6}","[818.6508928571428,805.4477678571428,0.2,818.6508928571428,805.4477678571428,104,818.6508928571428,805.4477678571428,205.2,818.6508928571428,805.4477678571428,309.7,818.6508928571428,805.4477678571428,410.1,818.6508928571428,805.4477678571428,514.8,818.6508928571428,805.4477678571428,619.3,818.6508928571428,805.4477678571428,724.3,1100.650892857143,373.4477678571428,825.5,1282.650892857143,159.44776785714285,930.7,1424.650892857143,111.44776785714285,1031.5,1562.650892857143,99.44776785714285,1134.5,1566.650892857143,105.44776785714285,1240.7,1566.650892857143,105.44776785714285,1344.5,1566.650892857143,105.44776785714285,1445.5,1566.650892857143,105.44776785714285,1550.1,1566.650892857143,105.44776785714285,1650.3,1566.650892857143,105.44776785714285,1754.7,1566.650892857143,105.44776785714285,1859,1566.650892857143,105.44776785714285,1959.6,1566.650892857143,105.44776785714285,2059.9,1566.650892857143,105.44776785714285,2160.1,1566.650892857143,105.44776785714285,2260.3,1566.650892857143,239.44776785714285,2364.2,1592.650892857143,451.4477678571428,2464.2,1598.650892857143,483.4477678571428,2565.1,1598.650892857143,483.4477678571428,2665.3,1598.650892857143,483.4477678571428,2766.7,1598.650892857143,483.4477678571428,2869.7,1598.650892857143,483.4477678571428,2969.9,1598.650892857143,483.4477678571428,3075.2,1598.650892857143,483.4477678571428,3175.2,1598.650892857143,483.4477678571428,3275.9,1598.650892857143,483.4477678571428,3381.7,1598.650892857143,483.4477678571428,3484.7,1598.650892857143,483.4477678571428,3584.9,1598.650892857143,483.4477678571428,3689.6,1598.650892857143,483.4477678571428,3795.4,1598.650892857143,483.4477678571428,3899,1598.650892857143,483.4477678571428,4001.7,1598.650892857143,483.4477678571428,4104.8,1598.650892857143,483.4477678571428,4205.4,1598.650892857143,483.4477678571428,4309.6,1598.650892857143,483.4477678571428,4414.7,1598.650892857143,483.4477678571428,4514.8,1598.650892857143,483.4477678571428,4615.2,1598.650892857143,483.4477678571428,4719.7,1598.650892857143,483.4477678571428,4819.8,1598.650892857143,483.4477678571428,4924.1]","[1316.8,1316.8,1000,0,316.8,""smooth"",""right"",""right"",""good_move"",4677.2,3360,2952.9,1317.2,407.1,""smooth"",""up"",""up"",""good_move"",7944.8,3267.3,2910.4,4677.5,356.9,""smooth"",""right"",""right"",""good_move"",8093.3,148.4,2130.2,7944.9,-1981.8,""error"",""-"",""-"",""no_move"",12144.4,4050.9,2695.9,9097.3,351.2,""smooth"",""up"",""up"",""good_move"",23346.3,11201.8,2833.2,20130.3,382.8,""smooth"",""right"",""right"",""good_move"",26444.1,3097.7,2756,23346.4,341.7,""smooth"",""up"",""up"",""good_move""]","",""
"5201","","<div style=""width:500px;"">
  <p>What determined the result of this run?</p>
  </div>","100","html-slider-response","37","801444","0.0-10.0-1.0","35","1","2025-07-09 09:06:59","7701e855f2ef39aa3fd6c71abdc6918a","122.133.150.137","Mozilla/5.0 (Macintosh; Intel Mac OS X 10_15_7) AppleWebKit/537.36 (KHTML, like Gecko) Chrome/137.0.0.0 Safari/537.36","Macintosh","Chrome","137.0.0.0","OS X","10_15_7","https://app.prolific.com/","en-US,en;q=0.9","65cb0f21257c8a98f470bb5d","686d226cabeef709c732f8e1","686e312da557a8d8ceae11cc","65cb0f21257c8a98f470bb5d","2025-07-09T09:20:23.581Z","","","","","","AttribQ","","","","","","","","","","","","","","","","","","","","","","","","","","","","","","","","","","","","","","50"
"3453","","<div style=""width:500px;"">
  <p>How much control did you have over the ball?</p>
  </div>","100","html-slider-response","38","804897","0.0-10.0-2.0","35","1","2025-07-09 09:06:59","7701e855f2ef39aa3fd6c71abdc6918a","122.133.150.137","Mozilla/5.0 (Macintosh; Intel Mac OS X 10_15_7) AppleWebKit/537.36 (KHTML, like Gecko) Chrome/137.0.0.0 Safari/537.36","Macintosh","Chrome","137.0.0.0","OS X","10_15_7","https://app.prolific.com/","en-US,en;q=0.9","65cb0f21257c8a98f470bb5d","686d226cabeef709c732f8e1","686e312da557a8d8ceae11cc","65cb0f21257c8a98f470bb5d","2025-07-09T09:20:27.034Z","","","","","","ControlQ","","","","","","","","","","","","","","","","","","","","","","","","","","","","","","","","","","","","","","50"
"6739","","<div style=""width:500px;"">
  <p>How would you describe your current emotional state?</p>
  </div>","31","html-slider-response","39","811635","0.0-10.0-3.0","35","1","2025-07-09 09:06:59","7701e855f2ef39aa3fd6c71abdc6918a","122.133.150.137","Mozilla/5.0 (Macintosh; Intel Mac OS X 10_15_7) AppleWebKit/537.36 (KHTML, like Gecko) Chrome/137.0.0.0 Safari/537.36","Macintosh","Chrome","137.0.0.0","OS X","10_15_7","https://app.prolific.com/","en-US,en;q=0.9","65cb0f21257c8a98f470bb5d","686d226cabeef709c732f8e1","686e312da557a8d8ceae11cc","65cb0f21257c8a98f470bb5d","2025-07-09T09:20:33.772Z","","","","","","StressQ","","","","","","","","","","","","","","","","","","","","","","","","","","","","","","","","","","","","","","50"
"4450","","<div style=""width:500px;"">
  <p>What best describes how you currently feel?</p>
  </div>","43","html-slider-response","40","816085","0.0-10.0-4.0","35","1","2025-07-09 09:06:59","7701e855f2ef39aa3fd6c71abdc6918a","122.133.150.137","Mozilla/5.0 (Macintosh; Intel Mac OS X 10_15_7) AppleWebKit/537.36 (KHTML, like Gecko) Chrome/137.0.0.0 Safari/537.36","Macintosh","Chrome","137.0.0.0","OS X","10_15_7","https://app.prolific.com/","en-US,en;q=0.9","65cb0f21257c8a98f470bb5d","686d226cabeef709c732f8e1","686e312da557a8d8ceae11cc","65cb0f21257c8a98f470bb5d","2025-07-09T09:20:38.222Z","","","","","","MotivationQ","","","","","","","","","","","","","","","","","","","","","","","","","","","","","","","","","","","","","","50"
"","","","","ctl-task-cpt","41","841418","0.0-10.0-0.1","35","1","2025-07-09 09:06:59","7701e855f2ef39aa3fd6c71abdc6918a","122.133.150.137","Mozilla/5.0 (Macintosh; Intel Mac OS X 10_15_7) AppleWebKit/537.36 (KHTML, like Gecko) Chrome/137.0.0.0 Safari/537.36","Macintosh","Chrome","137.0.0.0","OS X","10_15_7","https://app.prolific.com/","en-US,en;q=0.9","65cb0f21257c8a98f470bb5d","686d226cabeef709c732f8e1","686e312da557a8d8ceae11cc","65cb0f21257c8a98f470bb5d","2025-07-09T09:21:03.555Z","","","","","","","","","","","","","","","","win-only","0","g1:NW,g2:SE","0.9","2","0","819379.7","1204.6","6206.4","22325.5","1","4","4","6","2","4","3","10","7","0.07575757575757576","1464.3","3000","1255","[""down"",""right""]","{""num_key_presses"":6,""num_perfect"":5,""num_errors"":1,""num_randdir"":0,""num_randdir_good_moves"":0,""num_whilered"":0,""num_whileblue"":1,""num_blue"":1,""num_good_moves"":6}","[832.6508928571428,801.4477678571428,0,832.6508928571428,801.4477678571428,101.7,832.6508928571428,801.4477678571428,206,832.6508928571428,801.4477678571428,310.6,832.6508928571428,801.4477678571428,411.3,832.6508928571428,801.4477678571428,511.7,832.6508928571428,801.4477678571428,619.5,832.6508928571428,801.4477678571428,720,832.6508928571428,801.4477678571428,820.9,832.6508928571428,801.4477678571428,921.5,1454.650892857143,1315.447767857143,1027.3,1528.650892857143,1393.447767857143,1131.6,1516.650892857143,1393.447767857143,1232,1508.650892857143,1401.447767857143,1336.3,1508.650892857143,1401.447767857143,1441.3,1508.650892857143,1401.447767857143,1541.5,1508.650892857143,1401.447767857143,1646.1,1508.650892857143,1401.447767857143,1746.9,1508.650892857143,1401.447767857143,1851.8,1766.650892857143,1247.447767857143,1957.9,1810.650892857143,1237.447767857143,2060.9,1810.650892857143,1237.447767857143,2165.8,1810.650892857143,1237.447767857143,2267.6,1810.650892857143,1237.447767857143,2375.4,1810.650892857143,1237.447767857143,2477.1,1810.650892857143,1237.447767857143,2581.5,1810.650892857143,1237.447767857143,2686.1,1810.650892857143,1237.447767857143,2786.7,1810.650892857143,1237.447767857143,2891.4,1810.650892857143,1237.447767857143,2994.3,1810.650892857143,1237.447767857143,3096.6,1810.650892857143,1237.447767857143,3201.7,1810.650892857143,1237.447767857143,3308.5,1810.650892857143,1237.447767857143,3411.6,1810.650892857143,1237.447767857143,3517.6,1810.650892857143,1237.447767857143,3619.4,1810.650892857143,1237.447767857143,3723.9,1810.650892857143,1237.447767857143,3826.1,1810.650892857143,1237.447767857143,3926.9,1810.650892857143,1237.447767857143,4031.5,1810.650892857143,1237.447767857143,4136.3,1810.650892857143,1237.447767857143,4236.7,1810.650892857143,1237.447767857143,4338.7,1810.650892857143,1237.447767857143,4441.2,1810.650892857143,1237.447767857143,4541.3,1810.650892857143,1237.447767857143,4641.7,1810.650892857143,1237.447767857143,4746.1,1810.650892857143,1237.447767857143,4851.5,1810.650892857143,1237.447767857143,4954.2]","[1421,1421,1000,0,421,""smooth"",""right"",""right"",""good_move"",4599.4,3178.2,2834.2,1421.2,344,""while_blue"",""right"",""down"",""good_move"",8038.4,3438.9,3102.4,4599.6,336.5,""smooth"",""right"",""right"",""good_move"",10887.9,2849.3,2447.9,8038.6,401.4,""smooth"",""right"",""right"",""good_move"",13901.8,3013.9,2702,10888,311.8,""smooth"",""down"",""down"",""good_move"",16029.6,2127.7,1777.2,13901.9,350.5,""smooth"",""down"",""down"",""good_move""]","",""
"2826","","<div style=""width:500px;"">
  <p>What determined the result of this run?</p>
  </div>","100","html-slider-response","42","844245","0.0-10.0-1.1","35","1","2025-07-09 09:06:59","7701e855f2ef39aa3fd6c71abdc6918a","122.133.150.137","Mozilla/5.0 (Macintosh; Intel Mac OS X 10_15_7) AppleWebKit/537.36 (KHTML, like Gecko) Chrome/137.0.0.0 Safari/537.36","Macintosh","Chrome","137.0.0.0","OS X","10_15_7","https://app.prolific.com/","en-US,en;q=0.9","65cb0f21257c8a98f470bb5d","686d226cabeef709c732f8e1","686e312da557a8d8ceae11cc","65cb0f21257c8a98f470bb5d","2025-07-09T09:21:06.382Z","","","","","","AttribQ","","","","","","","","","","","","","","","","","","","","","","","","","","","","","","","","","","","","","","50"
"2736","","<div style=""width:500px;"">
  <p>How much control did you have over the ball?</p>
  </div>","100","html-slider-response","43","846981","0.0-10.0-2.1","35","1","2025-07-09 09:06:59","7701e855f2ef39aa3fd6c71abdc6918a","122.133.150.137","Mozilla/5.0 (Macintosh; Intel Mac OS X 10_15_7) AppleWebKit/537.36 (KHTML, like Gecko) Chrome/137.0.0.0 Safari/537.36","Macintosh","Chrome","137.0.0.0","OS X","10_15_7","https://app.prolific.com/","en-US,en;q=0.9","65cb0f21257c8a98f470bb5d","686d226cabeef709c732f8e1","686e312da557a8d8ceae11cc","65cb0f21257c8a98f470bb5d","2025-07-09T09:21:09.118Z","","","","","","ControlQ","","","","","","","","","","","","","","","","","","","","","","","","","","","","","","","","","","","","","","50"
"3284","","<div style=""width:500px;"">
  <p>How would you describe your current emotional state?</p>
  </div>","38","html-slider-response","44","850266","0.0-10.0-3.1","35","1","2025-07-09 09:06:59","7701e855f2ef39aa3fd6c71abdc6918a","122.133.150.137","Mozilla/5.0 (Macintosh; Intel Mac OS X 10_15_7) AppleWebKit/537.36 (KHTML, like Gecko) Chrome/137.0.0.0 Safari/537.36","Macintosh","Chrome","137.0.0.0","OS X","10_15_7","https://app.prolific.com/","en-US,en;q=0.9","65cb0f21257c8a98f470bb5d","686d226cabeef709c732f8e1","686e312da557a8d8ceae11cc","65cb0f21257c8a98f470bb5d","2025-07-09T09:21:12.403Z","","","","","","StressQ","","","","","","","","","","","","","","","","","","","","","","","","","","","","","","","","","","","","","","50"
"3380","","<div style=""width:500px;"">
  <p>What best describes how you currently feel?</p>
  </div>","44","html-slider-response","45","853646","0.0-10.0-4.1","35","1","2025-07-09 09:06:59","7701e855f2ef39aa3fd6c71abdc6918a","122.133.150.137","Mozilla/5.0 (Macintosh; Intel Mac OS X 10_15_7) AppleWebKit/537.36 (KHTML, like Gecko) Chrome/137.0.0.0 Safari/537.36","Macintosh","Chrome","137.0.0.0","OS X","10_15_7","https://app.prolific.com/","en-US,en;q=0.9","65cb0f21257c8a98f470bb5d","686d226cabeef709c732f8e1","686e312da557a8d8ceae11cc","65cb0f21257c8a98f470bb5d","2025-07-09T09:21:15.783Z","","","","","","MotivationQ","","","","","","","","","","","","","","","","","","","","","","","","","","","","","","","","","","","","","","50"
"","","","","ctl-task-cpt","46","881328","0.0-10.0-0.2","35","1","2025-07-09 09:06:59","7701e855f2ef39aa3fd6c71abdc6918a","122.133.150.137","Mozilla/5.0 (Macintosh; Intel Mac OS X 10_15_7) AppleWebKit/537.36 (KHTML, like Gecko) Chrome/137.0.0.0 Safari/537.36","Macintosh","Chrome","137.0.0.0","OS X","10_15_7","https://app.prolific.com/","en-US,en;q=0.9","65cb0f21257c8a98f470bb5d","686d226cabeef709c732f8e1","686e312da557a8d8ceae11cc","65cb0f21257c8a98f470bb5d","2025-07-09T09:21:43.465Z","","","","","","","","","","","","","","","","win-only","0","g1:NW,g2:SE","0.8","3","0","856942.5","1074.1","6075.8","24671.1","1","4","4","6","2","4","4","14","10","0.10606060606060606","1287.1","3000","1145","[""down"",""right""]","{""num_key_presses"":6,""num_perfect"":5,""num_errors"":0,""num_randdir"":1,""num_randdir_good_moves"":1,""num_whilered"":0,""num_whileblue"":0,""num_blue"":1,""num_good_moves"":6}","[826.6508928571428,827.4477678571428,0.1,826.6508928571428,827.4477678571428,104.7,826.6508928571428,827.4477678571428,214.7,826.6508928571428,827.4477678571428,317.7,826.6508928571428,827.4477678571428,417.8,826.6508928571428,827.4477678571428,522.4,826.6508928571428,827.4477678571428,626.8,1040.650892857143,997.4477678571428,727.4,1354.650892857143,1303.447767857143,832.6,1408.650892857143,1343.447767857143,937.8,1488.650892857143,1447.447767857143,1041.8,1562.650892857143,1533.447767857143,1142.1,1562.650892857143,1533.447767857143,1242.1,1562.650892857143,1533.447767857143,1346.5,1562.650892857143,1533.447767857143,1446.9,1562.650892857143,1533.447767857143,1552.7,1562.650892857143,1533.447767857143,1659.6,1706.650892857143,1359.447767857143,1761.3,1866.650892857143,1203.447767857143,1862.1,1878.650892857143,1197.447767857143,1968.5,1878.650892857143,1197.447767857143,2070.9,1878.650892857143,1197.447767857143,2171,1878.650892857143,1197.447767857143,2272,1878.650892857143,1197.447767857143,2372,1878.650892857143,1197.447767857143,2476.9,1878.650892857143,1197.447767857143,2581.6,1878.650892857143,1197.447767857143,2682.1,1878.650892857143,1197.447767857143,2782.4,1878.650892857143,1197.447767857143,2888.1,1878.650892857143,1197.447767857143,2991.3,1878.650892857143,1197.447767857143,3096.2,1878.650892857143,1197.447767857143,3196.7,1878.650892857143,1197.447767857143,3297.8,1878.650892857143,1197.447767857143,3405.4,1878.650892857143,1197.447767857143,3508.2,1878.650892857143,1197.447767857143,3611.4,1878.650892857143,1197.447767857143,3711.6,1878.650892857143,1197.447767857143,3811.7,1878.650892857143,1197.447767857143,3919,1878.650892857143,1197.447767857143,4023.2,1878.650892857143,1197.447767857143,4124.6,1878.650892857143,1197.447767857143,4226,1878.650892857143,1197.447767857143,4326.9,1878.650892857143,1197.447767857143,4434.2,1878.650892857143,1197.447767857143,4537.2,1878.650892857143,1197.447767857143,4637.3,1878.650892857143,1197.447767857143,4742.5,1878.650892857143,1197.447767857143,4846.4,1878.650892857143,1197.447767857143,4946.8]","[1382.1,1382.1,1000,0,382.1,""smooth"",""right"",""right"",""good_move"",3871.4,2488.9,2135.9,1382.5,353,""oops"",""right"",""right"",""good_move"",6535.7,2664.1,2333.4,3871.6,330.7,""smooth"",""right"",""right"",""good_move"",9282.4,2746.6,2459.6,6535.8,287,""smooth"",""down"",""down"",""good_move"",11513.6,2230.9,1886.3,9282.7,344.6,""smooth"",""down"",""down"",""good_move"",18488.2,6974.5,2858.8,15351,278.4,""smooth"",""down"",""down"",""good_move""]","",""
"4418","","<div style=""width:500px;"">
  <p>What determined the result of this run?</p>
  </div>","87","html-slider-response","47","885746","0.0-10.0-1.2","35","1","2025-07-09 09:06:59","7701e855f2ef39aa3fd6c71abdc6918a","122.133.150.137","Mozilla/5.0 (Macintosh; Intel Mac OS X 10_15_7) AppleWebKit/537.36 (KHTML, like Gecko) Chrome/137.0.0.0 Safari/537.36","Macintosh","Chrome","137.0.0.0","OS X","10_15_7","https://app.prolific.com/","en-US,en;q=0.9","65cb0f21257c8a98f470bb5d","686d226cabeef709c732f8e1","686e312da557a8d8ceae11cc","65cb0f21257c8a98f470bb5d","2025-07-09T09:21:47.883Z","","","","","","AttribQ","","","","","","","","","","","","","","","","","","","","","","","","","","","","","","","","","","","","","","50"
"3769","","<div style=""width:500px;"">
  <p>How much control did you have over the ball?</p>
  </div>","81","html-slider-response","48","889516","0.0-10.0-2.2","35","1","2025-07-09 09:06:59","7701e855f2ef39aa3fd6c71abdc6918a","122.133.150.137","Mozilla/5.0 (Macintosh; Intel Mac OS X 10_15_7) AppleWebKit/537.36 (KHTML, like Gecko) Chrome/137.0.0.0 Safari/537.36","Macintosh","Chrome","137.0.0.0","OS X","10_15_7","https://app.prolific.com/","en-US,en;q=0.9","65cb0f21257c8a98f470bb5d","686d226cabeef709c732f8e1","686e312da557a8d8ceae11cc","65cb0f21257c8a98f470bb5d","2025-07-09T09:21:51.653Z","","","","","","ControlQ","","","","","","","","","","","","","","","","","","","","","","","","","","","","","","","","","","","","","","50"
"2774","","<div style=""width:500px;"">
  <p>How would you describe your current emotional state?</p>
  </div>","32","html-slider-response","49","892291","0.0-10.0-3.2","35","1","2025-07-09 09:06:59","7701e855f2ef39aa3fd6c71abdc6918a","122.133.150.137","Mozilla/5.0 (Macintosh; Intel Mac OS X 10_15_7) AppleWebKit/537.36 (KHTML, like Gecko) Chrome/137.0.0.0 Safari/537.36","Macintosh","Chrome","137.0.0.0","OS X","10_15_7","https://app.prolific.com/","en-US,en;q=0.9","65cb0f21257c8a98f470bb5d","686d226cabeef709c732f8e1","686e312da557a8d8ceae11cc","65cb0f21257c8a98f470bb5d","2025-07-09T09:21:54.428Z","","","","","","StressQ","","","","","","","","","","","","","","","","","","","","","","","","","","","","","","","","","","","","","","50"
"3040","","<div style=""width:500px;"">
  <p>What best describes how you currently feel?</p>
  </div>","43","html-slider-response","50","895332","0.0-10.0-4.2","35","1","2025-07-09 09:06:59","7701e855f2ef39aa3fd6c71abdc6918a","122.133.150.137","Mozilla/5.0 (Macintosh; Intel Mac OS X 10_15_7) AppleWebKit/537.36 (KHTML, like Gecko) Chrome/137.0.0.0 Safari/537.36","Macintosh","Chrome","137.0.0.0","OS X","10_15_7","https://app.prolific.com/","en-US,en;q=0.9","65cb0f21257c8a98f470bb5d","686d226cabeef709c732f8e1","686e312da557a8d8ceae11cc","65cb0f21257c8a98f470bb5d","2025-07-09T09:21:57.469Z","","","","","","MotivationQ","","","","","","","","","","","","","","","","","","","","","","","","","","","","","","","","","","","","","","50"
"","","","","ctl-task-cpt","51","920775","0.0-10.0-0.3","35","1","2025-07-09 09:06:59","7701e855f2ef39aa3fd6c71abdc6918a","122.133.150.137","Mozilla/5.0 (Macintosh; Intel Mac OS X 10_15_7) AppleWebKit/537.36 (KHTML, like Gecko) Chrome/137.0.0.0 Safari/537.36","Macintosh","Chrome","137.0.0.0","OS X","10_15_7","https://app.prolific.com/","en-US,en;q=0.9","65cb0f21257c8a98f470bb5d","686d226cabeef709c732f8e1","686e312da557a8d8ceae11cc","65cb0f21257c8a98f470bb5d","2025-07-09T09:22:22.912Z","","","","","","","","","","","","","","","","win-only","2","g1:SE,g2:NW","0.7","4","0","898627.7","1083.4","6087.3","22431.5","1","4","8","6","2","8","8","22","14","0.16666666666666666","1416.3","3000","1275","[""left"",""up""]","{""num_key_presses"":6,""num_perfect"":5,""num_errors"":0,""num_randdir"":1,""num_randdir_good_moves"":1,""num_whilered"":0,""num_whileblue"":0,""num_blue"":0,""num_good_moves"":6}","[816.6508928571428,821.4477678571428,0.1,816.6508928571428,821.4477678571428,103.7,816.6508928571428,821.4477678571428,213.1,816.6508928571428,821.4477678571428,316.9,816.6508928571428,821.4477678571428,417.6,816.6508928571428,821.4477678571428,520,816.6508928571428,821.4477678571428,623.7,676.6508928571428,727.4477678571428,723.9,536.6508928571428,559.4477678571428,828.1,536.6508928571428,559.4477678571428,931.7,478.6508928571428,507.4477678571428,1031.7,274.6508928571428,227.44776785714285,1135.6,250.65089285714285,187.44776785714285,1239.1,246.65089285714285,187.44776785714285,1343.5,246.65089285714285,187.44776785714285,1450.4,246.65089285714285,187.44776785714285,1553.8,246.65089285714285,187.44776785714285,1659.4,246.65089285714285,187.44776785714285,1768.2,246.65089285714285,187.44776785714285,1868.3,246.65089285714285,187.44776785714285,1973.2,246.65089285714285,187.44776785714285,2074.1,246.65089285714285,187.44776785714285,2175.2,246.65089285714285,187.44776785714285,2276.4,246.65089285714285,187.44776785714285,2379.4,246.65089285714285,187.44776785714285,2483.8,746.6508928571428,255.44776785714285,2585.1,1458.650892857143,611.4477678571428,2689.1,1524.650892857143,645.4477678571428,2792,1562.650892857143,645.4477678571428,2894.7,1722.650892857143,629.4477678571428,2997.7,1762.650892857143,605.4477678571428,3103.5,1762.650892857143,605.4477678571428,3208.5,1762.650892857143,605.4477678571428,3308.9,1762.650892857143,605.4477678571428,3412.1,1762.650892857143,605.4477678571428,3513.6,1762.650892857143,605.4477678571428,3613.9,1762.650892857143,605.4477678571428,3718,1762.650892857143,605.4477678571428,3823.6,1762.650892857143,605.4477678571428,3933.9,1762.650892857143,605.4477678571428,4040.3,1762.650892857143,605.4477678571428,4144.8,1762.650892857143,605.4477678571428,4247,1762.650892857143,605.4477678571428,4348.8,1762.650892857143,605.4477678571428,4452.5,1762.650892857143,605.4477678571428,4553.8,1762.650892857143,605.4477678571428,4659.4,1762.650892857143,605.4477678571428,4761.9,1762.650892857143,605.4477678571428,4865.6,1762.650892857143,605.4477678571428,4968.1]","[1358.3,1358.3,1000,0,358.3,""smooth"",""left"",""left"",""good_move"",4640.2,3281.7,2940.2,1358.5,341.5,""smooth"",""left"",""left"",""good_move"",7344.5,2704.1,2326.1,4640.4,378,""smooth"",""left"",""left"",""good_move"",9860.6,2516,2190.2,7344.6,325.8,""smooth"",""up"",""up"",""good_move"",12739.8,2878.9,2582.7,9860.9,296.2,""oops"",""up"",""up"",""good_move"",16251.8,3512,3213.1,12739.8,298.9,""smooth"",""up"",""up"",""good_move""]","",""
"5334","","<div style=""width:500px;"">
  <p>What determined the result of this run?</p>
  </div>","87","html-slider-response","52","926110","0.0-10.0-1.3","35","1","2025-07-09 09:06:59","7701e855f2ef39aa3fd6c71abdc6918a","122.133.150.137","Mozilla/5.0 (Macintosh; Intel Mac OS X 10_15_7) AppleWebKit/537.36 (KHTML, like Gecko) Chrome/137.0.0.0 Safari/537.36","Macintosh","Chrome","137.0.0.0","OS X","10_15_7","https://app.prolific.com/","en-US,en;q=0.9","65cb0f21257c8a98f470bb5d","686d226cabeef709c732f8e1","686e312da557a8d8ceae11cc","65cb0f21257c8a98f470bb5d","2025-07-09T09:22:28.247Z","","","","","","AttribQ","","","","","","","","","","","","","","","","","","","","","","","","","","","","","","","","","","","","","","50"
"3114","","<div style=""width:500px;"">
  <p>How much control did you have over the ball?</p>
  </div>","86","html-slider-response","53","929225","0.0-10.0-2.3","35","1","2025-07-09 09:06:59","7701e855f2ef39aa3fd6c71abdc6918a","122.133.150.137","Mozilla/5.0 (Macintosh; Intel Mac OS X 10_15_7) AppleWebKit/537.36 (KHTML, like Gecko) Chrome/137.0.0.0 Safari/537.36","Macintosh","Chrome","137.0.0.0","OS X","10_15_7","https://app.prolific.com/","en-US,en;q=0.9","65cb0f21257c8a98f470bb5d","686d226cabeef709c732f8e1","686e312da557a8d8ceae11cc","65cb0f21257c8a98f470bb5d","2025-07-09T09:22:31.362Z","","","","","","ControlQ","","","","","","","","","","","","","","","","","","","","","","","","","","","","","","","","","","","","","","50"
"3244","","<div style=""width:500px;"">
  <p>How would you describe your current emotional state?</p>
  </div>","42","html-slider-response","54","932470","0.0-10.0-3.3","35","1","2025-07-09 09:06:59","7701e855f2ef39aa3fd6c71abdc6918a","122.133.150.137","Mozilla/5.0 (Macintosh; Intel Mac OS X 10_15_7) AppleWebKit/537.36 (KHTML, like Gecko) Chrome/137.0.0.0 Safari/537.36","Macintosh","Chrome","137.0.0.0","OS X","10_15_7","https://app.prolific.com/","en-US,en;q=0.9","65cb0f21257c8a98f470bb5d","686d226cabeef709c732f8e1","686e312da557a8d8ceae11cc","65cb0f21257c8a98f470bb5d","2025-07-09T09:22:34.607Z","","","","","","StressQ","","","","","","","","","","","","","","","","","","","","","","","","","","","","","","","","","","","","","","50"
"2912","","<div style=""width:500px;"">
  <p>What best describes how you currently feel?</p>
  </div>","47","html-slider-response","55","935382","0.0-10.0-4.3","35","1","2025-07-09 09:06:59","7701e855f2ef39aa3fd6c71abdc6918a","122.133.150.137","Mozilla/5.0 (Macintosh; Intel Mac OS X 10_15_7) AppleWebKit/537.36 (KHTML, like Gecko) Chrome/137.0.0.0 Safari/537.36","Macintosh","Chrome","137.0.0.0","OS X","10_15_7","https://app.prolific.com/","en-US,en;q=0.9","65cb0f21257c8a98f470bb5d","686d226cabeef709c732f8e1","686e312da557a8d8ceae11cc","65cb0f21257c8a98f470bb5d","2025-07-09T09:22:37.519Z","","","","","","MotivationQ","","","","","","","","","","","","","","","","","","","","","","","","","","","","","","","","","","","","","","50"
"","","","","ctl-task-cpt","56","985619","0.0-10.0-0.4","35","1","2025-07-09 09:06:59","7701e855f2ef39aa3fd6c71abdc6918a","122.133.150.137","Mozilla/5.0 (Macintosh; Intel Mac OS X 10_15_7) AppleWebKit/537.36 (KHTML, like Gecko) Chrome/137.0.0.0 Safari/537.36","Macintosh","Chrome","137.0.0.0","OS X","10_15_7","https://app.prolific.com/","en-US,en;q=0.9","65cb0f21257c8a98f470bb5d","686d226cabeef709c732f8e1","686e312da557a8d8ceae11cc","65cb0f21257c8a98f470bb5d","2025-07-09T09:23:27.756Z","","","","","","","","","","","","","","","","win-only","0","g1:NW,g2:SE","0.6","5","0","938678.1","1009","6009.2","47219.7","1","4","8","6","2","8","8","30","22","0.22727272727272727","1182","3000","40","[""down"",""right""]","{""num_key_presses"":10,""num_perfect"":6,""num_errors"":0,""num_randdir"":4,""num_randdir_good_moves"":2,""num_whilered"":0,""num_whileblue"":0,""num_blue"":4,""num_good_moves"":8}","[818.6508928571428,837.4477678571428,0.1,818.6508928571428,837.4477678571428,101.5,818.6508928571428,837.4477678571428,206,818.6508928571428,837.4477678571428,307.9,794.6508928571428,823.4477678571428,410.8,346.6508928571428,341.4477678571428,514,358.6508928571428,295.4477678571428,618.9,1264.650892857143,1181.447767857143,722,1492.650892857143,1469.447767857143,830.7,1504.650892857143,1499.447767857143,941.5,1508.650892857143,1509.447767857143,1044.9,1508.650892857143,1509.447767857143,1146.1,1508.650892857143,1509.447767857143,1246.4,1508.650892857143,1509.447767857143,1350.5,1508.650892857143,1509.447767857143,1456,1724.650892857143,1337.447767857143,1560.3,2022.650892857143,1213.447767857143,1665.3,2024.650892857143,1213.447767857143,1767.1,2024.650892857143,1213.447767857143,1872.2,2024.650892857143,1213.447767857143,1976.2,2024.650892857143,1213.447767857143,2078.5,2024.650892857143,1213.447767857143,2178.7,2024.650892857143,1213.447767857143,2280.3,2024.650892857143,1213.447767857143,2384,2024.650892857143,1213.447767857143,2486.8,2024.650892857143,1213.447767857143,2591.3,2024.650892857143,1213.447767857143,2691.9,2024.650892857143,1213.447767857143,2797,2024.650892857143,1213.447767857143,2901,2024.650892857143,1213.447767857143,3001.4,2024.650892857143,1213.447767857143,3106.8,2024.650892857143,1213.447767857143,3207.4,2024.650892857143,1213.447767857143,3315.7,2024.650892857143,1213.447767857143,3419.3,2024.650892857143,1213.447767857143,3520.7,2024.650892857143,1213.447767857143,3621.2,2024.650892857143,1213.447767857143,3721.9,2024.650892857143,1213.447767857143,3822.1,2024.650892857143,1213.447767857143,3930.5,2024.650892857143,1213.447767857143,4041.1,2024.650892857143,1213.447767857143,4143.3,2024.650892857143,1213.447767857143,4247.2,2024.650892857143,1213.447767857143,4347.2,2024.650892857143,1213.447767857143,4448,2024.650892857143,1213.447767857143,4558.5,2024.650892857143,1213.447767857143,4659.3,2024.650892857143,1213.447767857143,4764.5,2024.650892857143,1213.447767857143,4866.6,2024.650892857143,1213.447767857143,4967.3]","[1421.4,1421.4,1000,0,421.4,""smooth"",""right"",""right"",""good_move"",7418.9,5997.3,1784.4,5231.1,403.4,""oops"",""right"",""right"",""good_move"",10437.9,3018.9,2583.6,7419,435.3,""oops"",""right"",""up"",""bad_move"",13103,2664.8,2276.7,10438.2,388.1,""smooth"",""right"",""right"",""good_move"",15912.4,2809.3,2490.2,13103.1,319.1,""oops"",""down"",""up"",""bad_move"",18843.1,2930.6,2624.1,15912.5,306.5,""smooth"",""down"",""down"",""good_move"",21366.7,2523.4,2189,18843.3,334.4,""smooth"",""down"",""down"",""good_move"",23733.6,2366.8,2036.7,21366.8,330.1,""smooth"",""down"",""down"",""good_move"",27032.7,3299.1,3038.5,23733.6,260.6,""oops"",""down"",""down"",""good_move"",41096.8,14064,2909,37826.7,361.1,""smooth"",""down"",""down"",""good_move""]","",""
"13904","","<div style=""width:500px;"">
  <p>What determined the result of this run?</p>
  </div>","73","html-slider-response","57","999523","0.0-10.0-1.4","35","1","2025-07-09 09:06:59","7701e855f2ef39aa3fd6c71abdc6918a","122.133.150.137","Mozilla/5.0 (Macintosh; Intel Mac OS X 10_15_7) AppleWebKit/537.36 (KHTML, like Gecko) Chrome/137.0.0.0 Safari/537.36","Macintosh","Chrome","137.0.0.0","OS X","10_15_7","https://app.prolific.com/","en-US,en;q=0.9","65cb0f21257c8a98f470bb5d","686d226cabeef709c732f8e1","686e312da557a8d8ceae11cc","65cb0f21257c8a98f470bb5d","2025-07-09T09:23:41.660Z","","","","","","AttribQ","","","","","","","","","","","","","","","","","","","","","","","","","","","","","","","","","","","","","","50"
"5437","","<div style=""width:500px;"">
  <p>How much control did you have over the ball?</p>
  </div>","63","html-slider-response","58","1004961","0.0-10.0-2.4","35","1","2025-07-09 09:06:59","7701e855f2ef39aa3fd6c71abdc6918a","122.133.150.137","Mozilla/5.0 (Macintosh; Intel Mac OS X 10_15_7) AppleWebKit/537.36 (KHTML, like Gecko) Chrome/137.0.0.0 Safari/537.36","Macintosh","Chrome","137.0.0.0","OS X","10_15_7","https://app.prolific.com/","en-US,en;q=0.9","65cb0f21257c8a98f470bb5d","686d226cabeef709c732f8e1","686e312da557a8d8ceae11cc","65cb0f21257c8a98f470bb5d","2025-07-09T09:23:47.098Z","","","","","","ControlQ","","","","","","","","","","","","","","","","","","","","","","","","","","","","","","","","","","","","","","50"
"2877","","<div style=""width:500px;"">
  <p>How would you describe your current emotional state?</p>
  </div>","30","html-slider-response","59","1007839","0.0-10.0-3.4","35","1","2025-07-09 09:06:59","7701e855f2ef39aa3fd6c71abdc6918a","122.133.150.137","Mozilla/5.0 (Macintosh; Intel Mac OS X 10_15_7) AppleWebKit/537.36 (KHTML, like Gecko) Chrome/137.0.0.0 Safari/537.36","Macintosh","Chrome","137.0.0.0","OS X","10_15_7","https://app.prolific.com/","en-US,en;q=0.9","65cb0f21257c8a98f470bb5d","686d226cabeef709c732f8e1","686e312da557a8d8ceae11cc","65cb0f21257c8a98f470bb5d","2025-07-09T09:23:49.976Z","","","","","","StressQ","","","","","","","","","","","","","","","","","","","","","","","","","","","","","","","","","","","","","","50"
"2856","","<div style=""width:500px;"">
  <p>What best describes how you currently feel?</p>
  </div>","45","html-slider-response","60","1010695","0.0-10.0-4.4","35","1","2025-07-09 09:06:59","7701e855f2ef39aa3fd6c71abdc6918a","122.133.150.137","Mozilla/5.0 (Macintosh; Intel Mac OS X 10_15_7) AppleWebKit/537.36 (KHTML, like Gecko) Chrome/137.0.0.0 Safari/537.36","Macintosh","Chrome","137.0.0.0","OS X","10_15_7","https://app.prolific.com/","en-US,en;q=0.9","65cb0f21257c8a98f470bb5d","686d226cabeef709c732f8e1","686e312da557a8d8ceae11cc","65cb0f21257c8a98f470bb5d","2025-07-09T09:23:52.832Z","","","","","","MotivationQ","","","","","","","","","","","","","","","","","","","","","","","","","","","","","","","","","","","","","","50"
"","","","","ctl-task-cpt","61","1053371","0.0-10.0-0.5","35","1","2025-07-09 09:06:59","7701e855f2ef39aa3fd6c71abdc6918a","122.133.150.137","Mozilla/5.0 (Macintosh; Intel Mac OS X 10_15_7) AppleWebKit/537.36 (KHTML, like Gecko) Chrome/137.0.0.0 Safari/537.36","Macintosh","Chrome","137.0.0.0","OS X","10_15_7","https://app.prolific.com/","en-US,en;q=0.9","65cb0f21257c8a98f470bb5d","686d226cabeef709c732f8e1","686e312da557a8d8ceae11cc","65cb0f21257c8a98f470bb5d","2025-07-09T09:24:35.508Z","","","","","","","","","","","","","","","","win-only","0","g1:NW,g2:SE","0.5","6","0","1013991.5","1043.3","6045.6","39659.1","1","4","4","6","2","-4","-5","25","30","0.1893939393939394","1185.5","3000","-2640","[""down"",""right""]","{""num_key_presses"":11,""num_perfect"":5,""num_errors"":1,""num_randdir"":5,""num_randdir_good_moves"":0,""num_whilered"":0,""num_whileblue"":1,""num_blue"":1,""num_good_moves"":6}","[824.6508928571428,819.4477678571428,0.1,824.6508928571428,819.4477678571428,101.3,824.6508928571428,819.4477678571428,213.5,824.6508928571428,819.4477678571428,315,824.6508928571428,819.4477678571428,425.4,824.6508928571428,819.4477678571428,527.8,824.6508928571428,819.4477678571428,632.4,950.6508928571428,945.4477678571428,732.4,1380.650892857143,1433.447767857143,833.1,1410.650892857143,1445.447767857143,935.5,1472.650892857143,1455.447767857143,1036.3,1472.650892857143,1455.447767857143,1137.6,1472.650892857143,1455.447767857143,1237.9,1472.650892857143,1455.447767857143,1342.2,1474.650892857143,1453.447767857143,1443.3,1828.650892857143,1245.447767857143,1545.4,1934.650892857143,1235.447767857143,1646,1934.650892857143,1235.447767857143,1749.2,1934.650892857143,1235.447767857143,1856.8,1934.650892857143,1235.447767857143,1957.4,1934.650892857143,1235.447767857143,2060.2,1934.650892857143,1235.447767857143,2164.7,1934.650892857143,1235.447767857143,2275.3,1934.650892857143,1235.447767857143,2378.9,1934.650892857143,1235.447767857143,2482.4,1934.650892857143,1235.447767857143,2587.7,1934.650892857143,1235.447767857143,2693,1934.650892857143,1235.447767857143,2795,1934.650892857143,1235.447767857143,2899,1934.650892857143,1235.447767857143,3008.7,1934.650892857143,1235.447767857143,3112.8,1934.650892857143,1235.447767857143,3219.8,1934.650892857143,1235.447767857143,3321.5,1934.650892857143,1235.447767857143,3426,1934.650892857143,1235.447767857143,3531.3,1934.650892857143,1235.447767857143,3631.5,1934.650892857143,1235.447767857143,3732.7,1934.650892857143,1235.447767857143,3835.9,1934.650892857143,1235.447767857143,3943.4,1934.650892857143,1235.447767857143,4045.1,1934.650892857143,1235.447767857143,4149.6,1934.650892857143,1235.447767857143,4255.3,1934.650892857143,1235.447767857143,4357.8,1934.650892857143,1235.447767857143,4462.4,1934.650892857143,1235.447767857143,4562.9,1934.650892857143,1235.447767857143,4662.9,1934.650892857143,1235.447767857143,4765,1934.650892857143,1235.447767857143,4868.5,1934.650892857143,1235.447767857143,4972.8]","[1368.3,1368.3,1000,0,368.3,""smooth"",""right"",""right"",""good_move"",4448.8,3080.3,2724.3,1368.5,356,""smooth"",""right"",""right"",""good_move"",7431.4,2982.4,2656.3,4449,326.1,""oops"",""right"",""up"",""bad_move"",10406.4,2974.8,2701.1,7431.6,273.7,""smooth"",""right"",""right"",""good_move"",13152,2745.4,2465.9,10406.6,279.5,""while_blue"",""down"",""down"",""good_move"",16860.3,3708.1,3313.2,13152.2,394.9,""oops"",""down"",""up"",""bad_move"",19806.7,2946.4,2678.2,16860.3,268.2,""oops"",""down"",""left"",""bad_move"",22329.1,2522.2,2153.7,19806.9,368.5,""smooth"",""down"",""down"",""good_move"",25235.4,2906.1,2618.3,22329.3,287.8,""smooth"",""down"",""down"",""good_move"",27781.6,2546.2,2243.9,25235.4,302.3,""oops"",""down"",""up"",""bad_move"",30547.1,2765.4,2452.7,27781.7,312.7,""oops"",""down"",""up"",""bad_move""]","",""
"4310","","<div style=""width:500px;"">
  <p>What determined the result of this run?</p>
  </div>","23","html-slider-response","62","1057682","0.0-10.0-1.5","35","1","2025-07-09 09:06:59","7701e855f2ef39aa3fd6c71abdc6918a","122.133.150.137","Mozilla/5.0 (Macintosh; Intel Mac OS X 10_15_7) AppleWebKit/537.36 (KHTML, like Gecko) Chrome/137.0.0.0 Safari/537.36","Macintosh","Chrome","137.0.0.0","OS X","10_15_7","https://app.prolific.com/","en-US,en;q=0.9","65cb0f21257c8a98f470bb5d","686d226cabeef709c732f8e1","686e312da557a8d8ceae11cc","65cb0f21257c8a98f470bb5d","2025-07-09T09:24:39.819Z","","","","","","AttribQ","","","","","","","","","","","","","","","","","","","","","","","","","","","","","","","","","","","","","","50"
"2943","","<div style=""width:500px;"">
  <p>How much control did you have over the ball?</p>
  </div>","31","html-slider-response","63","1060626","0.0-10.0-2.5","35","1","2025-07-09 09:06:59","7701e855f2ef39aa3fd6c71abdc6918a","122.133.150.137","Mozilla/5.0 (Macintosh; Intel Mac OS X 10_15_7) AppleWebKit/537.36 (KHTML, like Gecko) Chrome/137.0.0.0 Safari/537.36","Macintosh","Chrome","137.0.0.0","OS X","10_15_7","https://app.prolific.com/","en-US,en;q=0.9","65cb0f21257c8a98f470bb5d","686d226cabeef709c732f8e1","686e312da557a8d8ceae11cc","65cb0f21257c8a98f470bb5d","2025-07-09T09:24:42.763Z","","","","","","ControlQ","","","","","","","","","","","","","","","","","","","","","","","","","","","","","","","","","","","","","","50"
"13632","","<div style=""width:500px;"">
  <p>How would you describe your current emotional state?</p>
  </div>","55","html-slider-response","64","1074258","0.0-10.0-3.5","35","1","2025-07-09 09:06:59","7701e855f2ef39aa3fd6c71abdc6918a","122.133.150.137","Mozilla/5.0 (Macintosh; Intel Mac OS X 10_15_7) AppleWebKit/537.36 (KHTML, like Gecko) Chrome/137.0.0.0 Safari/537.36","Macintosh","Chrome","137.0.0.0","OS X","10_15_7","https://app.prolific.com/","en-US,en;q=0.9","65cb0f21257c8a98f470bb5d","686d226cabeef709c732f8e1","686e312da557a8d8ceae11cc","65cb0f21257c8a98f470bb5d","2025-07-09T09:24:56.395Z","","","","","","StressQ","","","","","","","","","","","","","","","","","","","","","","","","","","","","","","","","","","","","","","50"
"20094","","<div style=""width:500px;"">
  <p>What best describes how you currently feel?</p>
  </div>","47","html-slider-response","65","1094352","0.0-10.0-4.5","35","1","2025-07-09 09:06:59","7701e855f2ef39aa3fd6c71abdc6918a","122.133.150.137","Mozilla/5.0 (Macintosh; Intel Mac OS X 10_15_7) AppleWebKit/537.36 (KHTML, like Gecko) Chrome/137.0.0.0 Safari/537.36","Macintosh","Chrome","137.0.0.0","OS X","10_15_7","https://app.prolific.com/","en-US,en;q=0.9","65cb0f21257c8a98f470bb5d","686d226cabeef709c732f8e1","686e312da557a8d8ceae11cc","65cb0f21257c8a98f470bb5d","2025-07-09T09:25:16.489Z","","","","","","MotivationQ","","","","","","","","","","","","","","","","","","","","","","","","","","","","","","","","","","","","","","50"
"","","","","ctl-task-cpt","66","1136897","0.0-10.0-0.6","35","1","2025-07-09 09:06:59","7701e855f2ef39aa3fd6c71abdc6918a","122.133.150.137","Mozilla/5.0 (Macintosh; Intel Mac OS X 10_15_7) AppleWebKit/537.36 (KHTML, like Gecko) Chrome/137.0.0.0 Safari/537.36","Macintosh","Chrome","137.0.0.0","OS X","10_15_7","https://app.prolific.com/","en-US,en;q=0.9","65cb0f21257c8a98f470bb5d","686d226cabeef709c732f8e1","686e312da557a8d8ceae11cc","65cb0f21257c8a98f470bb5d","2025-07-09T09:25:59.034Z","","","","","","","","","","","","","","","","win-only","3","g1:SW,g2:NE","0.4","7","0","1097649.1","903.1","5905.6","39534.4","1","4","4","6","2","4","4","29","25","0.2196969696969697","1237.4","3000","530","[""up"",""right""]","{""num_key_presses"":10,""num_perfect"":4,""num_errors"":0,""num_randdir"":6,""num_randdir_good_moves"":4,""num_whilered"":0,""num_whileblue"":0,""num_blue"":2,""num_good_moves"":8}","[764.7776785714286,757.5745535714286,0.1,764.7776785714286,757.5745535714286,102.5,764.7776785714286,757.5745535714286,213.3,764.7776785714286,757.5745535714286,316.2,764.7776785714286,757.5745535714286,420.9,764.7776785714286,757.5745535714286,521.3,764.7776785714286,757.5745535714286,622.9,764.7776785714286,757.5745535714286,727.9,1254.7776785714286,79.57455357142858,839.7,1280.7776785714286,105.57455357142858,941.6,1298.7776785714286,163.57455357142857,1041.6,1304.7776785714286,163.57455357142857,1147.3,1304.7776785714286,163.57455357142857,1250.1,1304.7776785714286,163.57455357142857,1350.7,1304.7776785714286,163.57455357142857,1455.7,1304.7776785714286,163.57455357142857,1562.4,1666.7776785714286,331.57455357142857,1665.6,1794.7776785714286,547.5745535714286,1769.3,1794.7776785714286,547.5745535714286,1870,1794.7776785714286,547.5745535714286,1972.7,1794.7776785714286,547.5745535714286,2073,1794.7776785714286,547.5745535714286,2175.6,1794.7776785714286,547.5745535714286,2276.7,1794.7776785714286,547.5745535714286,2382,1794.7776785714286,547.5745535714286,2486.4,1794.7776785714286,547.5745535714286,2587.4,1794.7776785714286,547.5745535714286,2692.3,1794.7776785714286,547.5745535714286,2796,1794.7776785714286,547.5745535714286,2905.9,1794.7776785714286,547.5745535714286,3008.1,1794.7776785714286,547.5745535714286,3112.2,1794.7776785714286,547.5745535714286,3212.6,1794.7776785714286,547.5745535714286,3317.5,1794.7776785714286,547.5745535714286,3417.9,1794.7776785714286,547.5745535714286,3519.1,1794.7776785714286,547.5745535714286,3623.3,1794.7776785714286,547.5745535714286,3727.6,1794.7776785714286,547.5745535714286,3832.1,1794.7776785714286,547.5745535714286,3932.2,1794.7776785714286,547.5745535714286,4037,1794.7776785714286,547.5745535714286,4139.9,1794.7776785714286,547.5745535714286,4243.3,1794.7776785714286,547.5745535714286,4347.5,1794.7776785714286,547.5745535714286,4447.9,1794.7776785714286,547.5745535714286,4552.5,1794.7776785714286,547.5745535714286,4652.9,1794.7776785714286,547.5745535714286,4757.3,1794.7776785714286,547.5745535714286,4862.4,1794.7776785714286,547.5745535714286,4970.1]","[8544.6,8544.6,2993.4,5209.7,341.5,""oops"",""right"",""up"",""good_move"",11865.3,3320.3,2971,8545,349.3,""smooth"",""right"",""right"",""good_move"",14177.8,2312.3,1952.4,11865.5,359.9,""oops"",""right"",""right"",""good_move"",16677.8,2499.9,2208,14177.9,291.9,""smooth"",""right"",""right"",""good_move"",18854.5,2176.5,1840.9,16678,335.6,""oops"",""up"",""down"",""bad_move"",22182,3327.4,3016.2,18854.6,311.2,""oops"",""up"",""down"",""bad_move"",25563.1,3381,3067.9,22182.1,313.2,""oops"",""up"",""up"",""good_move"",28787,3223.8,2926.1,25563.3,297.7,""smooth"",""up"",""up"",""good_move"",30864.8,2077.7,1700.3,28787.1,377.4,""oops"",""up"",""up"",""good_move"",33499.6,2634.4,2347.4,30865.2,287,""smooth"",""up"",""up"",""good_move""]","",""
"4101","","<div style=""width:500px;"">
  <p>What determined the result of this run?</p>
  </div>","59","html-slider-response","67","1140998","0.0-10.0-1.6","35","1","2025-07-09 09:06:59","7701e855f2ef39aa3fd6c71abdc6918a","122.133.150.137","Mozilla/5.0 (Macintosh; Intel Mac OS X 10_15_7) AppleWebKit/537.36 (KHTML, like Gecko) Chrome/137.0.0.0 Safari/537.36","Macintosh","Chrome","137.0.0.0","OS X","10_15_7","https://app.prolific.com/","en-US,en;q=0.9","65cb0f21257c8a98f470bb5d","686d226cabeef709c732f8e1","686e312da557a8d8ceae11cc","65cb0f21257c8a98f470bb5d","2025-07-09T09:26:03.136Z","","","","","","AttribQ","","","","","","","","","","","","","","","","","","","","","","","","","","","","","","","","","","","","","","50"
"2961","","<div style=""width:500px;"">
  <p>How much control did you have over the ball?</p>
  </div>","60","html-slider-response","68","1143960","0.0-10.0-2.6","35","1","2025-07-09 09:06:59","7701e855f2ef39aa3fd6c71abdc6918a","122.133.150.137","Mozilla/5.0 (Macintosh; Intel Mac OS X 10_15_7) AppleWebKit/537.36 (KHTML, like Gecko) Chrome/137.0.0.0 Safari/537.36","Macintosh","Chrome","137.0.0.0","OS X","10_15_7","https://app.prolific.com/","en-US,en;q=0.9","65cb0f21257c8a98f470bb5d","686d226cabeef709c732f8e1","686e312da557a8d8ceae11cc","65cb0f21257c8a98f470bb5d","2025-07-09T09:26:06.097Z","","","","","","ControlQ","","","","","","","","","","","","","","","","","","","","","","","","","","","","","","","","","","","","","","50"
"4182","","<div style=""width:500px;"">
  <p>How would you describe your current emotional state?</p>
  </div>","50","html-slider-response","69","1148143","0.0-10.0-3.6","35","1","2025-07-09 09:06:59","7701e855f2ef39aa3fd6c71abdc6918a","122.133.150.137","Mozilla/5.0 (Macintosh; Intel Mac OS X 10_15_7) AppleWebKit/537.36 (KHTML, like Gecko) Chrome/137.0.0.0 Safari/537.36","Macintosh","Chrome","137.0.0.0","OS X","10_15_7","https://app.prolific.com/","en-US,en;q=0.9","65cb0f21257c8a98f470bb5d","686d226cabeef709c732f8e1","686e312da557a8d8ceae11cc","65cb0f21257c8a98f470bb5d","2025-07-09T09:26:10.280Z","","","","","","StressQ","","","","","","","","","","","","","","","","","","","","","","","","","","","","","","","","","","","","","","50"
"3510","","<div style=""width:500px;"">
  <p>What best describes how you currently feel?</p>
  </div>","42","html-slider-response","70","1151653","0.0-10.0-4.6","35","1","2025-07-09 09:06:59","7701e855f2ef39aa3fd6c71abdc6918a","122.133.150.137","Mozilla/5.0 (Macintosh; Intel Mac OS X 10_15_7) AppleWebKit/537.36 (KHTML, like Gecko) Chrome/137.0.0.0 Safari/537.36","Macintosh","Chrome","137.0.0.0","OS X","10_15_7","https://app.prolific.com/","en-US,en;q=0.9","65cb0f21257c8a98f470bb5d","686d226cabeef709c732f8e1","686e312da557a8d8ceae11cc","65cb0f21257c8a98f470bb5d","2025-07-09T09:26:13.790Z","","","","","","MotivationQ","","","","","","","","","","","","","","","","","","","","","","","","","","","","","","","","","","","","","","50"
"","","","","ctl-task-cpt","71","1201269","0.0-10.0-0.7","35","1","2025-07-09 09:06:59","7701e855f2ef39aa3fd6c71abdc6918a","122.133.150.137","Mozilla/5.0 (Macintosh; Intel Mac OS X 10_15_7) AppleWebKit/537.36 (KHTML, like Gecko) Chrome/137.0.0.0 Safari/537.36","Macintosh","Chrome","137.0.0.0","OS X","10_15_7","https://app.prolific.com/","en-US,en;q=0.9","65cb0f21257c8a98f470bb5d","686d226cabeef709c732f8e1","686e312da557a8d8ceae11cc","65cb0f21257c8a98f470bb5d","2025-07-09T09:27:03.406Z","","","","","","","","","","","","","","","","win-only","0","g1:NW,g2:SE","0.3","8","0","1154950","1147.6","6152.3","46601","1","4","8","6","2","-8","-8","21","29","0.1590909090909091","1149.6","3000","-2215","[""down"",""right""]","{""num_key_presses"":12,""num_perfect"":3,""num_errors"":0,""num_randdir"":9,""num_randdir_good_moves"":4,""num_whilered"":0,""num_whileblue"":0,""num_blue"":2,""num_good_moves"":7}","[772.7776785714286,743.5745535714286,0.1,772.7776785714286,743.5745535714286,101.8,772.7776785714286,743.5745535714286,204.1,772.7776785714286,743.5745535714286,309.4,772.7776785714286,743.5745535714286,412.2,772.7776785714286,743.5745535714286,512.2,928.7776785714286,835.5745535714286,618.7,1390.7776785714286,1265.5745535714286,726,1394.7776785714286,1271.5745535714286,827.7,1394.7776785714286,1283.5745535714286,928.1,1392.7776785714286,1301.5745535714286,1032.7,1392.7776785714286,1301.5745535714286,1135.9,1392.7776785714286,1301.5745535714286,1239.5,1392.7776785714286,1301.5745535714286,1343.2,1392.7776785714286,1301.5745535714286,1443.2,1392.7776785714286,1301.5745535714286,1543.2,1820.7776785714286,931.5745535714286,1648.8,1910.7776785714286,917.5745535714286,1753.3,1910.7776785714286,917.5745535714286,1853.4,1910.7776785714286,917.5745535714286,1959.9,1910.7776785714286,917.5745535714286,2063,1910.7776785714286,917.5745535714286,2163.5,1910.7776785714286,917.5745535714286,2272.5,1910.7776785714286,917.5745535714286,2378.4,1910.7776785714286,917.5745535714286,2481.8,1910.7776785714286,917.5745535714286,2581.9,1910.7776785714286,917.5745535714286,2682,1910.7776785714286,917.5745535714286,2783.5,1910.7776785714286,917.5745535714286,2887.7,1910.7776785714286,917.5745535714286,2989.4,1910.7776785714286,917.5745535714286,3094.7,1910.7776785714286,917.5745535714286,3196.5,1910.7776785714286,917.5745535714286,3300.9,1910.7776785714286,917.5745535714286,3403.5,1910.7776785714286,917.5745535714286,3506.7,1910.7776785714286,917.5745535714286,3619,1910.7776785714286,917.5745535714286,3722.1,1910.7776785714286,917.5745535714286,3828.2,1910.7776785714286,917.5745535714286,3932.4,1910.7776785714286,917.5745535714286,4032.9,1910.7776785714286,917.5745535714286,4133.3,1910.7776785714286,917.5745535714286,4234.6,1910.7776785714286,917.5745535714286,4338.1,1910.7776785714286,917.5745535714286,4441,1910.7776785714286,917.5745535714286,4543.4,1910.7776785714286,917.5745535714286,4648.3,1910.7776785714286,917.5745535714286,4748.4,1910.7776785714286,917.5745535714286,4853,1910.7776785714286,917.5745535714286,4962.8]","[8007.2,8007.2,2177.8,5393.8,435.6,""oops"",""right"",""right"",""good_move"",11062.5,3055.2,2683.5,8007.4,371.7,""smooth"",""down"",""down"",""good_move"",13809.4,2746.7,2399.6,11062.7,347.1,""oops"",""right"",""right"",""good_move"",16222.9,2413.2,2093.3,13809.7,319.9,""oops"",""down"",""down"",""good_move"",19168.7,2945.6,2673.5,16223.1,272.1,""smooth"",""down"",""down"",""good_move"",21186.1,2017.3,1672.4,19168.8,344.9,""oops"",""right"",""left"",""bad_move"",23941.1,2754.8,2458.8,21186.3,296,""smooth"",""right"",""right"",""good_move"",26117.7,2176.5,1871.4,23941.2,305.1,""oops"",""right"",""left"",""bad_move"",29150.7,3032.9,2700,26117.8,332.9,""oops"",""right"",""left"",""bad_move"",32086.8,2935.9,2669.2,29150.9,266.7,""oops"",""right"",""left"",""bad_move"",34619.5,2532.6,2227,32086.9,305.6,""oops"",""right"",""up"",""bad_move"",37301.6,2681.8,2392.5,34619.8,289.3,""oops"",""right"",""down"",""good_move""]","",""
"4358","","<div style=""width:500px;"">
  <p>What determined the result of this run?</p>
  </div>","6","html-slider-response","72","1205627","0.0-10.0-1.7","35","1","2025-07-09 09:06:59","7701e855f2ef39aa3fd6c71abdc6918a","122.133.150.137","Mozilla/5.0 (Macintosh; Intel Mac OS X 10_15_7) AppleWebKit/537.36 (KHTML, like Gecko) Chrome/137.0.0.0 Safari/537.36","Macintosh","Chrome","137.0.0.0","OS X","10_15_7","https://app.prolific.com/","en-US,en;q=0.9","65cb0f21257c8a98f470bb5d","686d226cabeef709c732f8e1","686e312da557a8d8ceae11cc","65cb0f21257c8a98f470bb5d","2025-07-09T09:27:07.764Z","","","","","","AttribQ","","","","","","","","","","","","","","","","","","","","","","","","","","","","","","","","","","","","","","50"
"3268","","<div style=""width:500px;"">
  <p>How much control did you have over the ball?</p>
  </div>","18","html-slider-response","73","1208896","0.0-10.0-2.7","35","1","2025-07-09 09:06:59","7701e855f2ef39aa3fd6c71abdc6918a","122.133.150.137","Mozilla/5.0 (Macintosh; Intel Mac OS X 10_15_7) AppleWebKit/537.36 (KHTML, like Gecko) Chrome/137.0.0.0 Safari/537.36","Macintosh","Chrome","137.0.0.0","OS X","10_15_7","https://app.prolific.com/","en-US,en;q=0.9","65cb0f21257c8a98f470bb5d","686d226cabeef709c732f8e1","686e312da557a8d8ceae11cc","65cb0f21257c8a98f470bb5d","2025-07-09T09:27:11.033Z","","","","","","ControlQ","","","","","","","","","","","","","","","","","","","","","","","","","","","","","","","","","","","","","","50"
"2112","","<div style=""width:500px;"">
  <p>How would you describe your current emotional state?</p>
  </div>","60","html-slider-response","74","1211008","0.0-10.0-3.7","35","1","2025-07-09 09:06:59","7701e855f2ef39aa3fd6c71abdc6918a","122.133.150.137","Mozilla/5.0 (Macintosh; Intel Mac OS X 10_15_7) AppleWebKit/537.36 (KHTML, like Gecko) Chrome/137.0.0.0 Safari/537.36","Macintosh","Chrome","137.0.0.0","OS X","10_15_7","https://app.prolific.com/","en-US,en;q=0.9","65cb0f21257c8a98f470bb5d","686d226cabeef709c732f8e1","686e312da557a8d8ceae11cc","65cb0f21257c8a98f470bb5d","2025-07-09T09:27:13.145Z","","","","","","StressQ","","","","","","","","","","","","","","","","","","","","","","","","","","","","","","","","","","","","","","50"
"3494","","<div style=""width:500px;"">
  <p>What best describes how you currently feel?</p>
  </div>","41","html-slider-response","75","1214503","0.0-10.0-4.7","35","1","2025-07-09 09:06:59","7701e855f2ef39aa3fd6c71abdc6918a","122.133.150.137","Mozilla/5.0 (Macintosh; Intel Mac OS X 10_15_7) AppleWebKit/537.36 (KHTML, like Gecko) Chrome/137.0.0.0 Safari/537.36","Macintosh","Chrome","137.0.0.0","OS X","10_15_7","https://app.prolific.com/","en-US,en;q=0.9","65cb0f21257c8a98f470bb5d","686d226cabeef709c732f8e1","686e312da557a8d8ceae11cc","65cb0f21257c8a98f470bb5d","2025-07-09T09:27:16.640Z","","","","","","MotivationQ","","","","","","","","","","","","","","","","","","","","","","","","","","","","","","","","","","","","","","50"
"","","","","ctl-task-cpt","76","1267428","0.0-10.0-0.8","35","1","2025-07-09 09:06:59","7701e855f2ef39aa3fd6c71abdc6918a","122.133.150.137","Mozilla/5.0 (Macintosh; Intel Mac OS X 10_15_7) AppleWebKit/537.36 (KHTML, like Gecko) Chrome/137.0.0.0 Safari/537.36","Macintosh","Chrome","137.0.0.0","OS X","10_15_7","https://app.prolific.com/","en-US,en;q=0.9","65cb0f21257c8a98f470bb5d","686d226cabeef709c732f8e1","686e312da557a8d8ceae11cc","65cb0f21257c8a98f470bb5d","2025-07-09T09:28:09.565Z","","","","","","","","","","","","","","","","win-only","0","g1:NW,g2:SE","0.2","9","0","1217799.6","856.4","5861","49916.1","1","4","4","6","2","-4","-6","15","21","0.11363636363636363","1473.7","3000","-2380","[""down"",""right""]","{""num_key_presses"":12,""num_perfect"":2,""num_errors"":2,""num_randdir"":8,""num_randdir_good_moves"":4,""num_whilered"":0,""num_whileblue"":1,""num_blue"":3,""num_good_moves"":7}","[762.7776785714286,775.5745535714286,0.1,762.7776785714286,775.5745535714286,100.7,762.7776785714286,775.5745535714286,205.4,762.7776785714286,775.5745535714286,306.7,762.7776785714286,775.5745535714286,411,762.7776785714286,775.5745535714286,514.7,762.7776785714286,775.5745535714286,614.7,1144.7776785714286,1145.5745535714286,719.4,1386.7776785714286,1449.5745535714286,826.8,1360.7776785714286,1409.5745535714286,930.7,1340.7776785714286,1371.5745535714286,1034.5,1340.7776785714286,1371.5745535714286,1136.5,1400.7776785714286,1417.5745535714286,1238.7,1412.7776785714286,1425.5745535714286,1338.8,1412.7776785714286,1425.5745535714286,1442.5,1412.7776785714286,1425.5745535714286,1546.2,1412.7776785714286,1425.5745535714286,1646.5,1412.7776785714286,1425.5745535714286,1752.1,1452.7776785714286,1373.5745535714286,1854.3,1776.7776785714286,1093.5745535714286,1959,1804.7776785714286,1091.5745535714286,2066.8,1804.7776785714286,1091.5745535714286,2168.7,1804.7776785714286,1091.5745535714286,2271.6,1804.7776785714286,1091.5745535714286,2374.9,1804.7776785714286,1091.5745535714286,2479.7,1804.7776785714286,1091.5745535714286,2587.7,1804.7776785714286,1091.5745535714286,2692,1804.7776785714286,1091.5745535714286,2795,1804.7776785714286,1091.5745535714286,2901.7,1804.7776785714286,1091.5745535714286,3002.6,1804.7776785714286,1091.5745535714286,3104.6,1804.7776785714286,1091.5745535714286,3209.9,1804.7776785714286,1091.5745535714286,3312.5,1804.7776785714286,1091.5745535714286,3416,1804.7776785714286,1091.5745535714286,3520.5,1804.7776785714286,1091.5745535714286,3624.1,1804.7776785714286,1091.5745535714286,3732.2,1804.7776785714286,1091.5745535714286,3834.4,1804.7776785714286,1091.5745535714286,3937.6,1804.7776785714286,1091.5745535714286,4041.6,1804.7776785714286,1091.5745535714286,4147.1,1804.7776785714286,1091.5745535714286,4248,1804.7776785714286,1091.5745535714286,4349.6,1804.7776785714286,1091.5745535714286,4453.3,1804.7776785714286,1091.5745535714286,4554.5,1804.7776785714286,1091.5745535714286,4659.4,1804.7776785714286,1091.5745535714286,4763.4,1804.7776785714286,1091.5745535714286,4867.9,1804.7776785714286,1091.5745535714286,4969.8]","[1358.4,1358.4,1000,0,358.4,""oops"",""right"",""up"",""bad_move"",10055.1,8696.3,2074.9,7594.6,385.6,""smooth"",""right"",""right"",""good_move"",12680.4,2625,1911.7,10055.4,713.3,""smooth"",""right"",""right"",""good_move"",16246.8,3566.3,3246.1,12680.5,320.2,""oops"",""down"",""down"",""good_move"",19699.2,3452.2,3207.4,16247,244.8,""oops"",""down"",""down"",""good_move"",22661,2961.7,2615,19699.3,346.7,""oops"",""down"",""up"",""bad_move"",25707,3046,2724.6,22661,321.4,""while_blue"",""down"",""right"",""good_move"",28062.2,2354.9,1998.1,25707.3,356.8,""oops"",""down"",""down"",""good_move"",30760.1,2697.8,2384,28062.3,313.8,""oops"",""down"",""left"",""bad_move"",33561.6,2801.3,2551.1,30760.3,250.2,""oops"",""down"",""up"",""bad_move"",36783.1,3221.3,2961.5,33561.8,259.8,""oops"",""down"",""down"",""good_move"",39740,2956.8,2984.4,36783.2,-27.6,""error"",""-"",""-"",""no_move""]","",""
"4494","","<div style=""width:500px;"">
  <p>What determined the result of this run?</p>
  </div>","49","html-slider-response","77","1271922","0.0-10.0-1.8","35","1","2025-07-09 09:06:59","7701e855f2ef39aa3fd6c71abdc6918a","122.133.150.137","Mozilla/5.0 (Macintosh; Intel Mac OS X 10_15_7) AppleWebKit/537.36 (KHTML, like Gecko) Chrome/137.0.0.0 Safari/537.36","Macintosh","Chrome","137.0.0.0","OS X","10_15_7","https://app.prolific.com/","en-US,en;q=0.9","65cb0f21257c8a98f470bb5d","686d226cabeef709c732f8e1","686e312da557a8d8ceae11cc","65cb0f21257c8a98f470bb5d","2025-07-09T09:28:14.059Z","","","","","","AttribQ","","","","","","","","","","","","","","","","","","","","","","","","","","","","","","","","","","","","","","50"
"3753","","<div style=""width:500px;"">
  <p>How much control did you have over the ball?</p>
  </div>","20","html-slider-response","78","1275676","0.0-10.0-2.8","35","1","2025-07-09 09:06:59","7701e855f2ef39aa3fd6c71abdc6918a","122.133.150.137","Mozilla/5.0 (Macintosh; Intel Mac OS X 10_15_7) AppleWebKit/537.36 (KHTML, like Gecko) Chrome/137.0.0.0 Safari/537.36","Macintosh","Chrome","137.0.0.0","OS X","10_15_7","https://app.prolific.com/","en-US,en;q=0.9","65cb0f21257c8a98f470bb5d","686d226cabeef709c732f8e1","686e312da557a8d8ceae11cc","65cb0f21257c8a98f470bb5d","2025-07-09T09:28:17.813Z","","","","","","ControlQ","","","","","","","","","","","","","","","","","","","","","","","","","","","","","","","","","","","","","","50"
"2483","","<div style=""width:500px;"">
  <p>How would you describe your current emotional state?</p>
  </div>","57","html-slider-response","79","1278160","0.0-10.0-3.8","35","1","2025-07-09 09:06:59","7701e855f2ef39aa3fd6c71abdc6918a","122.133.150.137","Mozilla/5.0 (Macintosh; Intel Mac OS X 10_15_7) AppleWebKit/537.36 (KHTML, like Gecko) Chrome/137.0.0.0 Safari/537.36","Macintosh","Chrome","137.0.0.0","OS X","10_15_7","https://app.prolific.com/","en-US,en;q=0.9","65cb0f21257c8a98f470bb5d","686d226cabeef709c732f8e1","686e312da557a8d8ceae11cc","65cb0f21257c8a98f470bb5d","2025-07-09T09:28:20.297Z","","","","","","StressQ","","","","","","","","","","","","","","","","","","","","","","","","","","","","","","","","","","","","","","50"
"4261","","<div style=""width:500px;"">
  <p>What best describes how you currently feel?</p>
  </div>","47","html-slider-response","80","1282421","0.0-10.0-4.8","35","1","2025-07-09 09:06:59","7701e855f2ef39aa3fd6c71abdc6918a","122.133.150.137","Mozilla/5.0 (Macintosh; Intel Mac OS X 10_15_7) AppleWebKit/537.36 (KHTML, like Gecko) Chrome/137.0.0.0 Safari/537.36","Macintosh","Chrome","137.0.0.0","OS X","10_15_7","https://app.prolific.com/","en-US,en;q=0.9","65cb0f21257c8a98f470bb5d","686d226cabeef709c732f8e1","686e312da557a8d8ceae11cc","65cb0f21257c8a98f470bb5d","2025-07-09T09:28:24.558Z","","","","","","MotivationQ","","","","","","","","","","","","","","","","","","","","","","","","","","","","","","","","","","","","","","50"
"","","","","ctl-task-cpt","81","1329480","0.0-10.0-0.9","35","1","2025-07-09 09:06:59","7701e855f2ef39aa3fd6c71abdc6918a","122.133.150.137","Mozilla/5.0 (Macintosh; Intel Mac OS X 10_15_7) AppleWebKit/537.36 (KHTML, like Gecko) Chrome/137.0.0.0 Safari/537.36","Macintosh","Chrome","137.0.0.0","OS X","10_15_7","https://app.prolific.com/","en-US,en;q=0.9","65cb0f21257c8a98f470bb5d","686d226cabeef709c732f8e1","686e312da557a8d8ceae11cc","65cb0f21257c8a98f470bb5d","2025-07-09T09:29:11.617Z","","","","","","","","","","","","","","","","win-only","2","g1:SE,g2:NW","0.4","10","0","1285718.3","1013.1","6023.4","44045.4","1","4","8","6","2","-8","-9","6","15","0.045454545454545456","1008.1","3000","-2290","[""left"",""up""]","{""num_key_presses"":13,""num_perfect"":5,""num_errors"":1,""num_randdir"":7,""num_randdir_good_moves"":1,""num_whilered"":0,""num_whileblue"":1,""num_blue"":1,""num_good_moves"":7}","[758.7776785714286,763.5745535714286,0.2,758.7776785714286,763.5745535714286,105,758.7776785714286,763.5745535714286,205.3,758.7776785714286,763.5745535714286,307.3,758.7776785714286,763.5745535714286,407.6,484.77767857142857,555.5745535714286,512.8,216.77767857142857,257.57455357142857,618.2,208.77767857142857,241.57455357142857,718.3,208.77767857142857,237.57455357142857,823.1,208.77767857142857,237.57455357142857,927.5,208.77767857142857,237.57455357142857,1028.1,208.77767857142857,237.57455357142857,1132.4,208.77767857142857,237.57455357142857,1233.2,208.77767857142857,237.57455357142857,1339.7,210.77767857142857,237.57455357142857,1444.2,1264.7776785714286,297.57455357142857,1547.2,1736.7776785714286,491.57455357142857,1647.9,1736.7776785714286,491.57455357142857,1748.1,1736.7776785714286,491.57455357142857,1850.6,1736.7776785714286,491.57455357142857,1954.1,1736.7776785714286,491.57455357142857,2055.9,1736.7776785714286,491.57455357142857,2157.6,1736.7776785714286,491.57455357142857,2262.2,1736.7776785714286,491.57455357142857,2363.1,1736.7776785714286,491.57455357142857,2468.7,1736.7776785714286,491.57455357142857,2578,1736.7776785714286,491.57455357142857,2678.7,1736.7776785714286,491.57455357142857,2782.4,1736.7776785714286,491.57455357142857,2882.9,1736.7776785714286,491.57455357142857,2983.1,1736.7776785714286,491.57455357142857,3086.6,1736.7776785714286,491.57455357142857,3189.2,1736.7776785714286,491.57455357142857,3299.2,1736.7776785714286,491.57455357142857,3402.4,1736.7776785714286,491.57455357142857,3502.6,1736.7776785714286,491.57455357142857,3607.3,1736.7776785714286,491.57455357142857,3710.3,1736.7776785714286,491.57455357142857,3810.9,1736.7776785714286,491.57455357142857,3920.3,1736.7776785714286,491.57455357142857,4029.8,1736.7776785714286,491.57455357142857,4133.3,1736.7776785714286,491.57455357142857,4234.1,1736.7776785714286,491.57455357142857,4338.4,1736.7776785714286,491.57455357142857,4444,1736.7776785714286,491.57455357142857,4544.3,1736.7776785714286,491.57455357142857,4648.4,1736.7776785714286,491.57455357142857,4752.8,1736.7776785714286,491.57455357142857,4856.3,1736.7776785714286,491.57455357142857,4959.9]","[1358.2,1358.2,1000,0,358.2,""smooth"",""left"",""left"",""good_move"",3974.9,2616.8,2318.2,1358.2,298.6,""oops"",""left"",""down"",""bad_move"",7008,3032.9,2758.6,3975.1,274.3,""oops"",""left"",""down"",""bad_move"",9460.2,2452.1,2046.7,7008.1,405.4,""oops"",""left"",""right"",""bad_move"",11825.5,2365.2,2077.8,9460.3,287.4,""while_blue"",""left"",""up"",""good_move"",14565,2739.1,2407.8,11825.9,331.3,""smooth"",""left"",""left"",""good_move"",17930.1,3364.9,3033.4,14565.2,331.5,""oops"",""left"",""left"",""good_move"",20749.2,2819,2510.1,17930.3,308.9,""oops"",""left"",""down"",""bad_move"",24438.2,3688.9,3371.2,20749.3,317.7,""oops"",""left"",""right"",""bad_move"",27121.7,2683.3,2365.2,24438.4,318.1,""smooth"",""left"",""left"",""good_move"",30058.7,2936.9,2614.6,27121.8,322.3,""smooth"",""left"",""left"",""good_move"",33139.3,3080.6,2797.2,30058.7,283.4,""smooth"",""up"",""up"",""good_move"",36140.4,3001,2704.2,33139.4,296.8,""oops"",""up"",""down"",""bad_move""]","",""
"3771","","<div style=""width:500px;"">
  <p>What determined the result of this run?</p>
