"rt","response_timestamp","stimulus","response","trial_type","trial_index","time_elapsed","internal_node_id","run_id","condition","recorded_at","source_code_version","ip","user_agent","device","browser","browser_version","platform","platform_version","referer","accept_language","PROLIFIC_PID","STUDY_ID","SESSION_ID","prolific_id","realtime","view_history","question_order","consent","success","question_id","eventType","responses","item_order","radio_event_ids","radio_event_times","key_event_times","mouse_event_times","straightlining","zigzagging","honeypot","which_type","canvas_config","goals_layout","control_level","trial_number","tutorial_trial_number","trial_start_time","phase1_start_time","phase2_start_time","phase3_start_time","goal_1_value","goal_1_distance","goal_2_value","goal_2_distance","goal_selected","outcome","outcome_total","participant_final_score","participant_initial_score","participant_final_score_prop","goal_choice_rt","allocated_time","allocated_time_remaining","goal_direction","counts","mouse_movements","key_presses","correct","slider_start"
"4253","1752052796364","<p style='font-size:40px;line-height:1.25'><strong>Welcome to the experiment!</strong></p><p style='font-size:1.1em;line-height:1.25'>Thank you for your interest in our experiment! Before you begin, it is important that we obtain your informed consent to participate in the study.</p><p style='font-size:1.1em;line-height:1.25'>On the next screen will be an <strong>information sheet</strong> for you to read. To participate in the study we need you to read this information sheet and the following consent form carefully. If you agree with all the statements, please click the <strong>I agree</strong> button.</p><p style='font-size:1.1em;line-height:1.25'>Press <strong>Next</strong> to read the information sheet.</p>","0","custom-html-button-response","0","4258","0.0-0.0","206","1","2025-07-09 09:19:46","7701e855f2ef39aa3fd6c71abdc6918a","223.29.142.168","Mozilla/5.0 (Windows NT 10.0; Win64; x64) AppleWebKit/537.36 (KHTML, like Gecko) Chrome/137.0.0.0 Safari/537.36","WebKit","Chrome","137.0.0.0","Windows","10.0","https://app.prolific.com/","en-US,en;q=0.9","67ad3b723dcec072cfdf7815","686d226cabeef709c732f8e1","686e31460a8b812175e3f18e","67ad3b723dcec072cfdf7815","2025-07-09T09:19:56.367Z","","","","","","","","","","","","","","","","","","","","","","","","","","","","","","","","","","","","","","","","","","","",""
"15848","","","","instructions","1","20109","0.0-1.0","206","1","2025-07-09 09:19:46","7701e855f2ef39aa3fd6c71abdc6918a","223.29.142.168","Mozilla/5.0 (Windows NT 10.0; Win64; x64) AppleWebKit/537.36 (KHTML, like Gecko) Chrome/137.0.0.0 Safari/537.36","WebKit","Chrome","137.0.0.0","Windows","10.0","https://app.prolific.com/","en-US,en;q=0.9","67ad3b723dcec072cfdf7815","686d226cabeef709c732f8e1","686e31460a8b812175e3f18e","67ad3b723dcec072cfdf7815","","[{""page_index"":0,""viewing_time"":13465},{""page_index"":1,""viewing_time"":2382}]","","","","","","","","","","","","","","","","","","","","","","","","","","","","","","","","","","","","","","","","","","",""
"46581","","","{""Q0"":"""",""Q1"":"""",""Q2"":"""",""Q3"":"""",""Q4"":"""",""Q5"":"""",""Q6"":""I agree""}","survey-multi-choice","2","66694","0.0-2.0","206","1","2025-07-09 09:19:46","7701e855f2ef39aa3fd6c71abdc6918a","223.29.142.168","Mozilla/5.0 (Windows NT 10.0; Win64; x64) AppleWebKit/537.36 (KHTML, like Gecko) Chrome/137.0.0.0 Safari/537.36","WebKit","Chrome","137.0.0.0","Windows","10.0","https://app.prolific.com/","en-US,en;q=0.9","67ad3b723dcec072cfdf7815","686d226cabeef709c732f8e1","686e31460a8b812175e3f18e","67ad3b723dcec072cfdf7815","","","[0,1,2,3,4,5,6]","true","","","","","","","","","","","","","","","","","","","","","","","","","","","","","","","","","","","","","","","","",""
"845","","","","fullscreen","3","68542","0.0-4.0","206","1","2025-07-09 09:19:46","7701e855f2ef39aa3fd6c71abdc6918a","223.29.142.168","Mozilla/5.0 (Windows NT 10.0; Win64; x64) AppleWebKit/537.36 (KHTML, like Gecko) Chrome/137.0.0.0 Safari/537.36","WebKit","Chrome","137.0.0.0","Windows","10.0","https://app.prolific.com/","en-US,en;q=0.9","67ad3b723dcec072cfdf7815","686d226cabeef709c732f8e1","686e31460a8b812175e3f18e","67ad3b723dcec072cfdf7815","","","","","true","","","","","","","","","","","","","","","","","","","","","","","","","","","","","","","","","","","","","","","",""
"4894","1752052865548"," <p style='font-size:1.1em;line-height:1.25'>Thank you for completing the consent form and closing all other tabs.</p><p style='font-size:1.1em;line-height:1.25'>We will now invite you to fill in some demographic information and questionnaires, before starting the game.<br>This will take about 5 minutes.<br></p><p style='font-size:1.1em;line-height:1.25'>Press the <strong>Next</strong> button to continue.</p>","0","custom-html-button-response","4","73439","0.0-5.0","206","1","2025-07-09 09:19:46","7701e855f2ef39aa3fd6c71abdc6918a","223.29.142.168","Mozilla/5.0 (Windows NT 10.0; Win64; x64) AppleWebKit/537.36 (KHTML, like Gecko) Chrome/137.0.0.0 Safari/537.36","WebKit","Chrome","137.0.0.0","Windows","10.0","https://app.prolific.com/","en-US,en;q=0.9","67ad3b723dcec072cfdf7815","686d226cabeef709c732f8e1","686e31460a8b812175e3f18e","67ad3b723dcec072cfdf7815","2025-07-09T09:21:05.548Z","","","","","","","","","","","","","","","","","","","","","","","","","","","","","","","","","","","","","","","","","","","",""
"2546","","","{""age"":""33""}","survey-text","5","75989","0.0-6.0-0.0","206","1","2025-07-09 09:19:46","7701e855f2ef39aa3fd6c71abdc6918a","223.29.142.168","Mozilla/5.0 (Windows NT 10.0; Win64; x64) AppleWebKit/537.36 (KHTML, like Gecko) Chrome/137.0.0.0 Safari/537.36","WebKit","Chrome","137.0.0.0","Windows","10.0","https://app.prolific.com/","en-US,en;q=0.9","67ad3b723dcec072cfdf7815","686d226cabeef709c732f8e1","686e31460a8b812175e3f18e","67ad3b723dcec072cfdf7815","","","","","","0","demographics","","","","","","","","","","","","","","","","","","","","","","","","","","","","","","","","","","","","","",""
"2570","","","{""gender_identity"":""female/woman""}","survey-multi-choice","6","78560","0.0-6.0-1.0","206","1","2025-07-09 09:19:46","7701e855f2ef39aa3fd6c71abdc6918a","223.29.142.168","Mozilla/5.0 (Windows NT 10.0; Win64; x64) AppleWebKit/537.36 (KHTML, like Gecko) Chrome/137.0.0.0 Safari/537.36","WebKit","Chrome","137.0.0.0","Windows","10.0","https://app.prolific.com/","en-US,en;q=0.9","67ad3b723dcec072cfdf7815","686d226cabeef709c732f8e1","686e31460a8b812175e3f18e","67ad3b723dcec072cfdf7815","","","[0]","","","1","demographics","","","","","","","","","","","","","","","","","","","","","","","","","","","","","","","","","","","","","",""
"1997","","","{""assigned_sex"":""female""}","survey-multi-choice","7","80561","0.0-6.0-2.0","206","1","2025-07-09 09:19:46","7701e855f2ef39aa3fd6c71abdc6918a","223.29.142.168","Mozilla/5.0 (Windows NT 10.0; Win64; x64) AppleWebKit/537.36 (KHTML, like Gecko) Chrome/137.0.0.0 Safari/537.36","WebKit","Chrome","137.0.0.0","Windows","10.0","https://app.prolific.com/","en-US,en;q=0.9","67ad3b723dcec072cfdf7815","686d226cabeef709c732f8e1","686e31460a8b812175e3f18e","67ad3b723dcec072cfdf7815","","","[0]","","","2","demographics","","","","","","","","","","","","","","","","","","","","","","","","","","","","","","","","","","","","","",""
"10716","","","{""menstrual_cycle"":""Yes""}","survey-multi-choice","8","91278","0.0-6.0-3.0","206","1","2025-07-09 09:19:46","7701e855f2ef39aa3fd6c71abdc6918a","223.29.142.168","Mozilla/5.0 (Windows NT 10.0; Win64; x64) AppleWebKit/537.36 (KHTML, like Gecko) Chrome/137.0.0.0 Safari/537.36","WebKit","Chrome","137.0.0.0","Windows","10.0","https://app.prolific.com/","en-US,en;q=0.9","67ad3b723dcec072cfdf7815","686d226cabeef709c732f8e1","686e31460a8b812175e3f18e","67ad3b723dcec072cfdf7815","","","[0]","","","4","demographics","","","","","","","","","","","","","","","","","","","","","","","","","","","","","","","","","","","","","",""
"8874","","","{""education"":""Master's Degree (e.g., MSc)""}","survey-multi-choice","9","100154","0.0-6.0-4.0","206","1","2025-07-09 09:19:46","7701e855f2ef39aa3fd6c71abdc6918a","223.29.142.168","Mozilla/5.0 (Windows NT 10.0; Win64; x64) AppleWebKit/537.36 (KHTML, like Gecko) Chrome/137.0.0.0 Safari/537.36","WebKit","Chrome","137.0.0.0","Windows","10.0","https://app.prolific.com/","en-US,en;q=0.9","67ad3b723dcec072cfdf7815","686d226cabeef709c732f8e1","686e31460a8b812175e3f18e","67ad3b723dcec072cfdf7815","","","[0]","","","5","demographics","","","","","","","","","","","","","","","","","","","","","","","","","","","","","","","","","","","","","",""
"6431","","","{""education"":""Master's Degree (e.g., MSc)""}","survey-multi-choice","10","106586","0.0-6.0-5.0","206","1","2025-07-09 09:19:46","7701e855f2ef39aa3fd6c71abdc6918a","223.29.142.168","Mozilla/5.0 (Windows NT 10.0; Win64; x64) AppleWebKit/537.36 (KHTML, like Gecko) Chrome/137.0.0.0 Safari/537.36","WebKit","Chrome","137.0.0.0","Windows","10.0","https://app.prolific.com/","en-US,en;q=0.9","67ad3b723dcec072cfdf7815","686d226cabeef709c732f8e1","686e31460a8b812175e3f18e","67ad3b723dcec072cfdf7815","2025-07-09T09:21:38.695Z","","[0]","","","6","demographics","","","","","","","","","","","","","","","","","","","","","","","","","","","","","","","","","","","","","",""
"13311","","","{""mental_health_condition"":""NO"",""mental_health_treatment"":""NO"",""psychiatric_medication"":""NO""}","survey-text","11","119899","0.0-7.0-0.0","206","1","2025-07-09 09:19:46","7701e855f2ef39aa3fd6c71abdc6918a","223.29.142.168","Mozilla/5.0 (Windows NT 10.0; Win64; x64) AppleWebKit/537.36 (KHTML, like Gecko) Chrome/137.0.0.0 Safari/537.36","WebKit","Chrome","137.0.0.0","Windows","10.0","https://app.prolific.com/","en-US,en;q=0.9","67ad3b723dcec072cfdf7815","686d226cabeef709c732f8e1","686e31460a8b812175e3f18e","67ad3b723dcec072cfdf7815","2025-07-09T09:21:52.008Z","","","","","1","mental_health","","","","","","","","","","","","","","","","","","","","","","","","","","","","","","","","","","","","","",""
"11081","","","{""depression_history"":[""No""]}","survey-multi-select","12","130983","0.0-7.0-1.0","206","1","2025-07-09 09:19:46","7701e855f2ef39aa3fd6c71abdc6918a","223.29.142.168","Mozilla/5.0 (Windows NT 10.0; Win64; x64) AppleWebKit/537.36 (KHTML, like Gecko) Chrome/137.0.0.0 Safari/537.36","WebKit","Chrome","137.0.0.0","Windows","10.0","https://app.prolific.com/","en-US,en;q=0.9","67ad3b723dcec072cfdf7815","686d226cabeef709c732f8e1","686e31460a8b812175e3f18e","67ad3b723dcec072cfdf7815","","","[0]","","","","mental_health","","","","","","","","","","","","","","","","","","","","","","","","","","","","","","","","","","","","","",""
"340916.69999999925","","","","survey-template","13","471910","0.0-7.0-3.0","206","1","2025-07-09 09:19:46","7701e855f2ef39aa3fd6c71abdc6918a","223.29.142.168","Mozilla/5.0 (Windows NT 10.0; Win64; x64) AppleWebKit/537.36 (KHTML, like Gecko) Chrome/137.0.0.0 Safari/537.36","WebKit","Chrome","137.0.0.0","Windows","10.0","https://app.prolific.com/","en-US,en;q=0.9","67ad3b723dcec072cfdf7815","686d226cabeef709c732f8e1","686e31460a8b812175e3f18e","67ad3b723dcec072cfdf7815","2025-07-09T09:27:44.019Z","","","","","","ius","{""Q01"":""0"",""Q02"":""0"",""Q03"":""0"",""Q04"":""1"",""Q05"":""2"",""Q06"":""1"",""Q07"":""0"",""Q08"":""0"",""Q09"":""0"",""Q10"":""0"",""Q11"":""1"",""Q12"":""0"",""Q13"":""1""}","[0,1,2,3,4,5,6,7,8,9,10,11,12]","[""Q01"",""Q01"",""Q02"",""Q03"",""Q08"",""Q05"",""Q06"",""Q04"",""Q10"",""Q09"",""Q11"",""Q12"",""Q13"",""Q07""]","[132765.90000000037,135764.5,136560.5,140039.09999999963,321247.9000000004,323644.9000000004,325294.30000000075,326456.30000000075,328993.5999999996,329377,329975.30000000075,331362.5,333957.0999999996,338243.80000000075]","[]","[37661.199999999255,132765.90000000037,135764.5,136560.5,139235.90000000037,140039.09999999963,321247.9000000004,322704.69999999925,323168.69999999925,323644.9000000004,324274.9000000004,325294.30000000075,326456.30000000075,328604.5999999996,328993.5999999996,329377,329975.30000000075,331362.5,332203.19999999925,333957.0999999996,335768.80000000075,338243.80000000075,340914.0999999996]","0.6153846153846154","0.5833333333333334","0","","","","","","","","","","","","","","","","","","","","","","","","","","","","",""
"2273","1752053266293","<p style='font-size:1.1em;line-height:1.25'>In the following, we will ask you a few questions relating to your experiences over the past month.<br></p><p style='font-size:1.1em;line-height:1.25'>Press the <strong>Next</strong> button to continue.</p>","0","custom-html-button-response","14","474185","0.0-7.0-4.0","206","1","2025-07-09 09:19:46","7701e855f2ef39aa3fd6c71abdc6918a","223.29.142.168","Mozilla/5.0 (Windows NT 10.0; Win64; x64) AppleWebKit/537.36 (KHTML, like Gecko) Chrome/137.0.0.0 Safari/537.36","WebKit","Chrome","137.0.0.0","Windows","10.0","https://app.prolific.com/","en-US,en;q=0.9","67ad3b723dcec072cfdf7815","686d226cabeef709c732f8e1","686e31460a8b812175e3f18e","67ad3b723dcec072cfdf7815","2025-07-09T09:27:46.294Z","","","","","","","","","","","","","","","","","","","","","","","","","","","","","","","","","","","","","","","","","","","",""
"25229.599999999627","","","","survey-template","15","499418","0.0-7.0-5.0","206","1","2025-07-09 09:19:46","7701e855f2ef39aa3fd6c71abdc6918a","223.29.142.168","Mozilla/5.0 (Windows NT 10.0; Win64; x64) AppleWebKit/537.36 (KHTML, like Gecko) Chrome/137.0.0.0 Safari/537.36","WebKit","Chrome","137.0.0.0","Windows","10.0","https://app.prolific.com/","en-US,en;q=0.9","67ad3b723dcec072cfdf7815","686d226cabeef709c732f8e1","686e31460a8b812175e3f18e","67ad3b723dcec072cfdf7815","2025-07-09T09:28:11.527Z","","","","","","pss","{""Q01"":""0"",""Q02"":""0"",""Q03"":""0"",""Q04"":""4"",""Q05"":""3"",""Q06"":""0"",""Q07"":""4"",""Q08"":""3"",""Q09"":""0"",""Q10"":""0""}","[0,1,2,3,4,5,6,7,8,9]","[""Q01"",""Q02"",""Q04"",""Q03"",""Q05"",""Q06"",""Q07"",""Q08"",""Q09"",""Q10""]","[7289.0999999996275,7741.699999999255,9090.5,9374.5,10809.199999999255,11923,12584.799999998882,17414.699999999255,18171.699999999255,19639.39999999851]","[]","[0,7289.0999999996275,7741.699999999255,8665.5,9090.5,9374.5,10809.199999999255,11923,12584.799999998882,17414.699999999255,18171.699999999255,19639.39999999851,25227.5]","0.8","0.4444444444444444","0","","","","","","","","","","","","","","","","","","","","","","","","","","","","",""
"3472","1752053295000","<p style='font-size:1.1em;line-height:1.25'>Thank you for your answers! Now we will ask you a few more questions relating to your feelings in the last 24 hours.<br></p><p style='font-size:1.1em;line-height:1.25'>Press the <strong>Next</strong> button to continue.</p>","0","custom-html-button-response","16","502891","0.0-7.0-6.0","206","1","2025-07-09 09:19:46","7701e855f2ef39aa3fd6c71abdc6918a","223.29.142.168","Mozilla/5.0 (Windows NT 10.0; Win64; x64) AppleWebKit/537.36 (KHTML, like Gecko) Chrome/137.0.0.0 Safari/537.36","WebKit","Chrome","137.0.0.0","Windows","10.0","https://app.prolific.com/","en-US,en;q=0.9","67ad3b723dcec072cfdf7815","686d226cabeef709c732f8e1","686e31460a8b812175e3f18e","67ad3b723dcec072cfdf7815","2025-07-09T09:28:15.001Z","","","","","","","","","","","","","","","","","","","","","","","","","","","","","","","","","","","","","","","","","","","",""
"50273.800000000745","","","","survey-template","17","553170","0.0-7.0-7.0","206","1","2025-07-09 09:19:46","7701e855f2ef39aa3fd6c71abdc6918a","223.29.142.168","Mozilla/5.0 (Windows NT 10.0; Win64; x64) AppleWebKit/537.36 (KHTML, like Gecko) Chrome/137.0.0.0 Safari/537.36","WebKit","Chrome","137.0.0.0","Windows","10.0","https://app.prolific.com/","en-US,en;q=0.9","67ad3b723dcec072cfdf7815","686d226cabeef709c732f8e1","686e31460a8b812175e3f18e","67ad3b723dcec072cfdf7815","2025-07-09T09:29:05.279Z","","","","","","drsp","{""Q01"":""0"",""Q02"":""0"",""Q03"":""0"",""Q04"":""0"",""Q05"":""0"",""Q06"":""0"",""Q07"":""0"",""Q08"":""0"",""Q09"":""0"",""Q10"":""0"",""Q11"":""0"",""Q12"":""0"",""Q13"":""0"",""Q14"":""0"",""Q15"":""0"",""Q16"":""0"",""Q17"":""0"",""Q18"":""0"",""Q19"":""0"",""Q20"":""0"",""Q21"":""0""}","[0,1,2,3,4,5,6,7,8,9,10,11,12,13,14,15,16,17,18,19,20]","[""Q01"",""Q02"",""Q03"",""Q04"",""Q05"",""Q06"",""Q07"",""Q08"",""Q09"",""Q10"",""Q11"",""Q12"",""Q14"",""Q13"",""Q15"",""Q17"",""Q18"",""Q19"",""Q20"",""Q21"",""Q16""]","[3551.0999999996275,6206.699999999255,10275.099999999627,11906.900000000373,13273.099999999627,14388.599999999627,15702.300000000745,16845,25235.400000000373,25463.099999999627,26472,26723.900000000373,28262.699999999255,28666.099999999627,31234,32424.699999999255,32821,36994.699999999255,37516.40000000037,38185.59999999963,46805.5]","[]","[0,3551.0999999996275,6206.699999999255,10275.099999999627,11906.900000000373,13273.099999999627,14388.599999999627,15702.300000000745,16845,18230.199999999255,25235.400000000373,25463.099999999627,26472,26723.900000000373,26920.199999999255,28262.699999999255,28666.099999999627,31234,31469.800000000745,32424.699999999255,32821,33800.5,36994.699999999255,37516.40000000037,38185.59999999963,40936.300000000745,44949.300000000745,46805.5,50269.40000000037]","1","0","0","","","","","","","","","","","","","","","","","","","","","","","","","","","","",""
"15471.700000001118","","","","survey-template","18","568646","0.0-7.0-8.0","206","1","2025-07-09 09:19:46","7701e855f2ef39aa3fd6c71abdc6918a","223.29.142.168","Mozilla/5.0 (Windows NT 10.0; Win64; x64) AppleWebKit/537.36 (KHTML, like Gecko) Chrome/137.0.0.0 Safari/537.36","WebKit","Chrome","137.0.0.0","Windows","10.0","https://app.prolific.com/","en-US,en;q=0.9","67ad3b723dcec072cfdf7815","686d226cabeef709c732f8e1","686e31460a8b812175e3f18e","67ad3b723dcec072cfdf7815","2025-07-09T09:29:20.755Z","","","","","","stress","{""Q01"":""0"",""Q02"":""5"",""Q03"":""0""}","[0,1,2]","[""Q01"",""Q02"",""Q03""]","[2822.2000000011176,6575,11520.300000000745]","[]","[2822.2000000011176,3925.5,4907.0999999996275,5867.300000000745,6575,8087.9000000003725,9962.599999999627,10383.099999999627,11520.300000000745,15469.200000001118]","1","0","0","","","","","","","","","","","","","","","","","","","","","","","","","","","","",""
"25898","","","","instructions","19","594546","0.0-8.0-0.0","206","1","2025-07-09 09:19:46","7701e855f2ef39aa3fd6c71abdc6918a","223.29.142.168","Mozilla/5.0 (Windows NT 10.0; Win64; x64) AppleWebKit/537.36 (KHTML, like Gecko) Chrome/137.0.0.0 Safari/537.36","WebKit","Chrome","137.0.0.0","Windows","10.0","https://app.prolific.com/","en-US,en;q=0.9","67ad3b723dcec072cfdf7815","686d226cabeef709c732f8e1","686e31460a8b812175e3f18e","67ad3b723dcec072cfdf7815","","[{""page_index"":0,""viewing_time"":2960},{""page_index"":1,""viewing_time"":859},{""page_index"":2,""viewing_time"":2168},{""page_index"":1,""viewing_time"":703},{""page_index"":0,""viewing_time"":15966},{""page_index"":1,""viewing_time"":1926},{""page_index"":2,""viewing_time"":699},{""page_index"":3,""viewing_time"":617}]","","","","","","","","","","","","","","","","","","","","","","","","","","","","","","","","","","","","","","","","","","",""
"","","","","ctl-task-cpt","20","658102","0.0-8.0-1.0","206","1","2025-07-09 09:19:46","7701e855f2ef39aa3fd6c71abdc6918a","223.29.142.168","Mozilla/5.0 (Windows NT 10.0; Win64; x64) AppleWebKit/537.36 (KHTML, like Gecko) Chrome/137.0.0.0 Safari/537.36","WebKit","Chrome","137.0.0.0","Windows","10.0","https://app.prolific.com/","en-US,en;q=0.9","67ad3b723dcec072cfdf7815","686d226cabeef709c732f8e1","686e31460a8b812175e3f18e","67ad3b723dcec072cfdf7815","","","","","","","","","","","","","","","","","win-only","1","g1:NE,g2:SW","1","0","1","601653.3","3819.8","7821.2","60545.4","2","4","4","6","1","-2","-29","0","0","0","4001.3","4000","-3010","[""up"",""right""]","{""num_key_presses"":42,""num_perfect"":1,""num_errors"":27,""num_randdir"":0,""num_randdir_good_moves"":0,""num_whilered"":14,""num_whileblue"":0,""num_blue"":0,""num_good_moves"":0}","[355.3888392857143,349.7794642857143,0.4,355.3888392857143,349.7794642857143,101.3,355.3888392857143,349.7794642857143,201.5,355.3888392857143,349.7794642857143,306.3,355.3888392857143,349.7794642857143,411.8,355.3888392857143,349.7794642857143,512,355.3888392857143,349.7794642857143,617,355.3888392857143,349.7794642857143,717.1,355.3888392857143,349.7794642857143,821.4,355.3888392857143,349.7794642857143,921.4,355.3888392857143,349.7794642857143,1021.5,355.3888392857143,349.7794642857143,1122.1,355.3888392857143,349.7794642857143,1228.5,355.3888392857143,349.7794642857143,1331.3,355.3888392857143,349.7794642857143,1437,355.3888392857143,349.7794642857143,1541.2,355.3888392857143,349.7794642857143,1641.6,355.3888392857143,349.7794642857143,1746.7,355.3888392857143,349.7794642857143,1846.8,355.3888392857143,349.7794642857143,1947,355.3888392857143,349.7794642857143,2055.9,355.3888392857143,349.7794642857143,2161.4,355.3888392857143,349.7794642857143,2265.6,355.3888392857143,349.7794642857143,2366.3,355.3888392857143,349.7794642857143,2471,355.3888392857143,349.7794642857143,2576.5,355.3888392857143,349.7794642857143,2676.5,355.3888392857143,349.7794642857143,2780.8,355.3888392857143,349.7794642857143,2885.8,355.3888392857143,349.7794642857143,2986.3,355.3888392857143,349.7794642857143,3086.3,355.3888392857143,349.7794642857143,3187,355.3888392857143,349.7794642857143,3290.8,355.3888392857143,349.7794642857143,3396.3,355.3888392857143,349.7794642857143,3496.6,355.3888392857143,349.7794642857143,3601.7,355.3888392857143,349.7794642857143,3706.4,355.3888392857143,349.7794642857143,3811.7,355.3888392857143,349.7794642857143,3911.8]","[392,392,1000,0,-608,""error"",""-"",""-"",""no_move"",1481.9,1089.6,1946.4,1394.7,-1859.2,""error"",""-"",""-"",""no_move"",2518.4,1036.3,2658.2,2484.4,-2624.2,""error"",""-"",""-"",""no_move"",3488.3,969.5,2658.2,2484.4,-1654.3,""while_red"",""-"",""-"",""no_move"",4638.3,2119.5,1886.2,3520.1,-768,""error"",""-"",""-"",""no_move"",6578.1,1939.6,2807.6,5639.1,-1868.6,""error"",""-"",""-"",""no_move"",7094,515.7,2807.6,5639.1,-1352.7,""while_red"",""-"",""-"",""no_move"",7574.1,995.8,2807.6,5639.1,-872.6,""while_red"",""-"",""-"",""no_move"",8228.8,1650.5,1658.5,7583.4,-1013.1,""error"",""-"",""-"",""no_move"",8786.2,557,1658.5,7583.4,-455.7,""while_red"",""-"",""-"",""no_move"",9479.5,1250.3,1544.5,9229.3,-1294.3,""error"",""-"",""-"",""no_move"",10424.2,944.5,1544.5,9229.3,-349.6,""while_red"",""-"",""-"",""no_move"",10818.6,1338.9,2339.8,10484.8,-2006,""error"",""-"",""-"",""no_move"",11193.3,374.5,2339.8,10484.8,-1631.3,""while_red"",""-"",""-"",""no_move"",11440.1,621.3,2339.8,10484.8,-1384.5,""while_red"",""-"",""-"",""no_move"",14152.8,3334,3324.1,11819.7,-991,""error"",""-"",""-"",""no_move"",15062.2,909.3,3324.1,11819.7,-81.6,""while_red"",""-"",""-"",""no_move"",15554.7,1401.8,2617,15155.7,-2218,""error"",""-"",""-"",""no_move"",16723.2,1168.3,2582,16555.2,-2414,""error"",""-"",""-"",""no_move"",17163.4,440,2582,16555.2,-1973.8,""while_red"",""-"",""-"",""no_move"",18044.7,1321.3,3164.8,17724.8,-2844.9,""error"",""-"",""-"",""no_move"",19673.6,1628.7,2472.5,19045.3,-1844.1,""error"",""-"",""-"",""no_move"",22411.3,2737.5,2520,20674.7,-783.4,""error"",""-"",""-"",""no_move"",22628.9,217,2520,20674.7,-565.8,""while_red"",""-"",""-"",""no_move"",25365.5,2953.6,3283.4,23415.5,-1333.3,""error"",""-"",""-"",""no_move"",25638.5,272.6,3283.4,23415.5,-1060.3,""while_red"",""-"",""-"",""no_move"",26484.2,1118.3,2698.8,26369.9,-2584.5,""error"",""-"",""-"",""no_move"",26757.7,273.3,2698.8,26369.9,-2310.9,""while_red"",""-"",""-"",""no_move"",28257.2,1772.8,3091.9,27484.5,-2319.2,""error"",""-"",""-"",""no_move"",29105.4,847.8,3091.9,27484.5,-1471,""while_red"",""-"",""-"",""no_move"",29801.5,1543.9,2609.4,29259.5,-2067.4,""error"",""-"",""-"",""no_move"",30949.3,1147.5,2766.1,30804.9,-2621.7,""error"",""-"",""-"",""no_move"",32094.3,1144.8,2223.8,31949.7,-2079.2,""error"",""-"",""-"",""no_move"",33104.5,1009.7,2090.2,33099.8,-2085.5,""error"",""-"",""-"",""no_move"",34637.2,1532.4,2569.7,34109.4,-2041.9,""error"",""-"",""-"",""no_move"",35709.6,1072.2,2902.6,35639.3,-2832.3,""error"",""-"",""-"",""no_move"",37826.6,2116.6,3331.2,36714.8,-2219.4,""error"",""-"",""-"",""no_move"",41490.1,3663.1,2620.7,38829.5,39.9,""smooth"",""down"",""down"",""bad_move"",42536.7,1046.1,2522.8,41490.6,-1476.7,""error"",""-"",""-"",""no_move"",44265.4,1728.3,2585.3,43539.7,-1859.6,""error"",""-"",""-"",""no_move"",44996.8,730.9,2585.3,43539.7,-1128.2,""while_red"",""-"",""-"",""no_move"",45767.8,1501.9,2855.4,45270.3,-2357.9,""error"",""-"",""-"",""no_move""]","",""
"2500","","","","instructions","21","660603","0.0-8.0-2.0","206","1","2025-07-09 09:19:46","7701e855f2ef39aa3fd6c71abdc6918a","223.29.142.168","Mozilla/5.0 (Windows NT 10.0; Win64; x64) AppleWebKit/537.36 (KHTML, like Gecko) Chrome/137.0.0.0 Safari/537.36","WebKit","Chrome","137.0.0.0","Windows","10.0","https://app.prolific.com/","en-US,en;q=0.9","67ad3b723dcec072cfdf7815","686d226cabeef709c732f8e1","686e31460a8b812175e3f18e","67ad3b723dcec072cfdf7815","","[{""page_index"":0,""viewing_time"":2500}]","","","","","","","","","","","","","","","","","","","","","","","","","","","","","","","","","","","","","","","","","","",""
"","","","","ctl-task-cpt","22","689222","0.0-8.0-3.0","206","1","2025-07-09 09:19:46","7701e855f2ef39aa3fd6c71abdc6918a","223.29.142.168","Mozilla/5.0 (Windows NT 10.0; Win64; x64) AppleWebKit/537.36 (KHTML, like Gecko) Chrome/137.0.0.0 Safari/537.36","WebKit","Chrome","137.0.0.0","Windows","10.0","https://app.prolific.com/","en-US,en;q=0.9","67ad3b723dcec072cfdf7815","686d226cabeef709c732f8e1","686e31460a8b812175e3f18e","67ad3b723dcec072cfdf7815","","","","","","","","","","","","","","","","","win-only","1","g1:NE,g2:SW","0.35","0","3","667708.8","5145.7","9147.4","25605.8","2","4","8","6","2","-8","-14","0","0","0","3391.4","4000","-2985","[""down"",""left""]","{""num_key_presses"":10,""num_perfect"":0,""num_errors"":6,""num_randdir"":0,""num_randdir_good_moves"":0,""num_whilered"":4,""num_whileblue"":0,""num_blue"":0,""num_good_moves"":0}","[355.3888392857143,350.7794642857143,0.2,355.3888392857143,350.7794642857143,100.1,355.3888392857143,350.7794642857143,200.6,355.3888392857143,350.7794642857143,304.6,355.3888392857143,350.7794642857143,404.7,355.3888392857143,350.7794642857143,505.8,355.3888392857143,350.7794642857143,610.5,355.3888392857143,350.7794642857143,715,355.3888392857143,350.7794642857143,815.4,355.3888392857143,350.7794642857143,915.7,355.3888392857143,350.7794642857143,1019.6,355.3888392857143,350.7794642857143,1120.1,355.3888392857143,350.7794642857143,1225.3,355.3888392857143,350.7794642857143,1331,355.3888392857143,350.7794642857143,1435.1,355.3888392857143,350.7794642857143,1535.1,355.3888392857143,350.7794642857143,1635.6,355.3888392857143,350.7794642857143,1740.5,355.3888392857143,350.7794642857143,1841,355.3888392857143,350.7794642857143,1945.3,355.3888392857143,350.7794642857143,2050,355.3888392857143,350.7794642857143,2151,355.3888392857143,350.7794642857143,2256.5,355.3888392857143,350.7794642857143,2357.2,355.3888392857143,350.7794642857143,2459.5,355.3888392857143,350.7794642857143,2560.2,355.3888392857143,350.7794642857143,2660.8,355.3888392857143,350.7794642857143,2765.7,355.3888392857143,350.7794642857143,2870.6,355.3888392857143,350.7794642857143,2974.8,355.3888392857143,350.7794642857143,3075.2,355.3888392857143,350.7794642857143,3180.6,355.3888392857143,350.7794642857143,3285,355.3888392857143,350.7794642857143,3385.2,59.38883928571429,652.7794642857143,3485.3,59.38883928571429,652.7794642857143,3585.9,59.38883928571429,652.7794642857143,3690.5,59.38883928571429,652.7794642857143,3795.9,59.38883928571429,652.7794642857143,3896]","[922.8,922.7,1000,0.1,-77.3,""error"",""-"",""-"",""no_move"",2717.6,1794.5,1606.1,1929,-817.5,""error"",""-"",""-"",""no_move"",3331.8,613.9,1606.1,1929,-203.3,""while_red"",""-"",""-"",""no_move"",4079.6,1361.7,3373.9,3718.6,-3012.9,""error"",""-"",""-"",""no_move"",4852.6,772.8,3373.9,3718.6,-2239.8,""while_red"",""-"",""-"",""no_move"",5792.3,1712.4,2136.5,5083.1,-1427.3,""error"",""-"",""-"",""no_move"",6567.1,774.4,2136.5,5083.1,-652.5,""while_red"",""-"",""-"",""no_move"",7157.6,1365,1572.6,6793.3,-1208.2,""error"",""-"",""-"",""no_move"",8150,992.2,1572.6,6793.3,-215.8,""while_red"",""-"",""-"",""no_move"",8735.1,1577.2,3163.1,8161.6,-2589.6,""error"",""-"",""-"",""no_move""]","",""
"42412","","","","instructions","23","731634","0.0-8.0-4.0","206","1","2025-07-09 09:19:46","7701e855f2ef39aa3fd6c71abdc6918a","223.29.142.168","Mozilla/5.0 (Windows NT 10.0; Win64; x64) AppleWebKit/537.36 (KHTML, like Gecko) Chrome/137.0.0.0 Safari/537.36","WebKit","Chrome","137.0.0.0","Windows","10.0","https://app.prolific.com/","en-US,en;q=0.9","67ad3b723dcec072cfdf7815","686d226cabeef709c732f8e1","686e31460a8b812175e3f18e","67ad3b723dcec072cfdf7815","","[{""page_index"":0,""viewing_time"":6800},{""page_index"":1,""viewing_time"":35611}]","","","","","","","","","","","","","","","","","","","","","","","","","","","","","","","","","","","","","","","","","","",""
"11207","","","{""green_ball"":[""Ball always moves in the direction I press""]}","survey-multi-select","24","742844","0.0-8.0-5.0-0.0","206","1","2025-07-09 09:19:46","7701e855f2ef39aa3fd6c71abdc6918a","223.29.142.168","Mozilla/5.0 (Windows NT 10.0; Win64; x64) AppleWebKit/537.36 (KHTML, like Gecko) Chrome/137.0.0.0 Safari/537.36","WebKit","Chrome","137.0.0.0","Windows","10.0","https://app.prolific.com/","en-US,en;q=0.9","67ad3b723dcec072cfdf7815","686d226cabeef709c732f8e1","686e31460a8b812175e3f18e","67ad3b723dcec072cfdf7815","","","[0]","","","","quiz","","","","","","","","","","","","","","","","","","","","","","","","","","","","","","","","","","","","","false",""
"1845","","<p align='center'><b>INCORRECT.</b> Usually the green ball moves in the indicated direction, but sometimes it shakes and moves randomly. </p>","0","html-button-response","25","744691","0.0-8.0-5.0-1.0","206","1","2025-07-09 09:19:46","7701e855f2ef39aa3fd6c71abdc6918a","223.29.142.168","Mozilla/5.0 (Windows NT 10.0; Win64; x64) AppleWebKit/537.36 (KHTML, like Gecko) Chrome/137.0.0.0 Safari/537.36","WebKit","Chrome","137.0.0.0","Windows","10.0","https://app.prolific.com/","en-US,en;q=0.9","67ad3b723dcec072cfdf7815","686d226cabeef709c732f8e1","686e31460a8b812175e3f18e","67ad3b723dcec072cfdf7815","","","","","","","","","","","","","","","","","","","","","","","","","","","","","","","","","","","","","","","","","","","","",""
"10677","","","{""green_ball"":[""Ball sometimes shakes and moves in a random direction""]}","survey-multi-select","26","755370","0.0-8.0-5.1-0.1","206","1","2025-07-09 09:19:46","7701e855f2ef39aa3fd6c71abdc6918a","223.29.142.168","Mozilla/5.0 (Windows NT 10.0; Win64; x64) AppleWebKit/537.36 (KHTML, like Gecko) Chrome/137.0.0.0 Safari/537.36","WebKit","Chrome","137.0.0.0","Windows","10.0","https://app.prolific.com/","en-US,en;q=0.9","67ad3b723dcec072cfdf7815","686d226cabeef709c732f8e1","686e31460a8b812175e3f18e","67ad3b723dcec072cfdf7815","","","[0]","","","","quiz","","","","","","","","","","","","","","","","","","","","","","","","","","","","","","","","","","","","","true",""
"1302","","<p align='center'><b>CORRECT!</b> Indeed, the green ball may sometimes shake and move in a random direction.</p>","0","html-button-response","27","756673","0.0-8.0-5.1-1.1","206","1","2025-07-09 09:19:46","7701e855f2ef39aa3fd6c71abdc6918a","223.29.142.168","Mozilla/5.0 (Windows NT 10.0; Win64; x64) AppleWebKit/537.36 (KHTML, like Gecko) Chrome/137.0.0.0 Safari/537.36","WebKit","Chrome","137.0.0.0","Windows","10.0","https://app.prolific.com/","en-US,en;q=0.9","67ad3b723dcec072cfdf7815","686d226cabeef709c732f8e1","686e31460a8b812175e3f18e","67ad3b723dcec072cfdf7815","","","","","","","","","","","","","","","","","","","","","","","","","","","","","","","","","","","","","","","","","","","","",""
"4549","","","{""yellow_ball"":[""Ball always moves in the direction I press""]}","survey-multi-select","28","761223","0.0-8.0-6.0-0.0","206","1","2025-07-09 09:19:46","7701e855f2ef39aa3fd6c71abdc6918a","223.29.142.168","Mozilla/5.0 (Windows NT 10.0; Win64; x64) AppleWebKit/537.36 (KHTML, like Gecko) Chrome/137.0.0.0 Safari/537.36","WebKit","Chrome","137.0.0.0","Windows","10.0","https://app.prolific.com/","en-US,en;q=0.9","67ad3b723dcec072cfdf7815","686d226cabeef709c732f8e1","686e31460a8b812175e3f18e","67ad3b723dcec072cfdf7815","","","[0]","","","","quiz","","","","","","","","","","","","","","","","","","","","","","","","","","","","","","","","","","","","","false",""
"1461","","<p align='center'><b>INCORRECT.</b> The yellow ball never moves and you reveice a penalty if you press anyways. </p>","0","html-button-response","29","762685","0.0-8.0-6.0-1.0","206","1","2025-07-09 09:19:46","7701e855f2ef39aa3fd6c71abdc6918a","223.29.142.168","Mozilla/5.0 (Windows NT 10.0; Win64; x64) AppleWebKit/537.36 (KHTML, like Gecko) Chrome/137.0.0.0 Safari/537.36","WebKit","Chrome","137.0.0.0","Windows","10.0","https://app.prolific.com/","en-US,en;q=0.9","67ad3b723dcec072cfdf7815","686d226cabeef709c732f8e1","686e31460a8b812175e3f18e","67ad3b723dcec072cfdf7815","","","","","","","","","","","","","","","","","","","","","","","","","","","","","","","","","","","","","","","","","","","","",""
"3814","","","{""yellow_ball"":[""Ball doesn‘t move and I get -1 penalty point""]}","survey-multi-select","30","766501","0.0-8.0-6.1-0.1","206","1","2025-07-09 09:19:46","7701e855f2ef39aa3fd6c71abdc6918a","223.29.142.168","Mozilla/5.0 (Windows NT 10.0; Win64; x64) AppleWebKit/537.36 (KHTML, like Gecko) Chrome/137.0.0.0 Safari/537.36","WebKit","Chrome","137.0.0.0","Windows","10.0","https://app.prolific.com/","en-US,en;q=0.9","67ad3b723dcec072cfdf7815","686d226cabeef709c732f8e1","686e31460a8b812175e3f18e","67ad3b723dcec072cfdf7815","","","[0]","","","","quiz","","","","","","","","","","","","","","","","","","","","","","","","","","","","","","","","","","","","","true",""
"1159","","<p align='center'><b>CORRECT!</b> Indeed, the yellow ball never moves and you receive a penalty.</p>","0","html-button-response","31","767661","0.0-8.0-6.1-1.1","206","1","2025-07-09 09:19:46","7701e855f2ef39aa3fd6c71abdc6918a","223.29.142.168","Mozilla/5.0 (Windows NT 10.0; Win64; x64) AppleWebKit/537.36 (KHTML, like Gecko) Chrome/137.0.0.0 Safari/537.36","WebKit","Chrome","137.0.0.0","Windows","10.0","https://app.prolific.com/","en-US,en;q=0.9","67ad3b723dcec072cfdf7815","686d226cabeef709c732f8e1","686e31460a8b812175e3f18e","67ad3b723dcec072cfdf7815","","","","","","","","","","","","","","","","","","","","","","","","","","","","","","","","","","","","","","","","","","","","",""
"5973","","","{""blue_ball"":[""Ball always moves in the direction I press""]}","survey-multi-select","32","773637","0.0-8.0-7.0-0.0","206","1","2025-07-09 09:19:46","7701e855f2ef39aa3fd6c71abdc6918a","223.29.142.168","Mozilla/5.0 (Windows NT 10.0; Win64; x64) AppleWebKit/537.36 (KHTML, like Gecko) Chrome/137.0.0.0 Safari/537.36","WebKit","Chrome","137.0.0.0","Windows","10.0","https://app.prolific.com/","en-US,en;q=0.9","67ad3b723dcec072cfdf7815","686d226cabeef709c732f8e1","686e31460a8b812175e3f18e","67ad3b723dcec072cfdf7815","","","[0]","","","","quiz","","","","","","","","","","","","","","","","","","","","","","","","","","","","","","","","","","","","","false",""
"2325","","<p align='center'><b>INCORRECT.</b> The blue ball always shakes and moves randomly.</p>","0","html-button-response","33","775962","0.0-8.0-7.0-1.0","206","1","2025-07-09 09:19:46","7701e855f2ef39aa3fd6c71abdc6918a","223.29.142.168","Mozilla/5.0 (Windows NT 10.0; Win64; x64) AppleWebKit/537.36 (KHTML, like Gecko) Chrome/137.0.0.0 Safari/537.36","WebKit","Chrome","137.0.0.0","Windows","10.0","https://app.prolific.com/","en-US,en;q=0.9","67ad3b723dcec072cfdf7815","686d226cabeef709c732f8e1","686e31460a8b812175e3f18e","67ad3b723dcec072cfdf7815","","","","","","","","","","","","","","","","","","","","","","","","","","","","","","","","","","","","","","","","","","","","",""
"4624","","","{""blue_ball"":[""Ball sometimes shakes and moves in a random direction""]}","survey-multi-select","34","780588","0.0-8.0-7.1-0.1","206","1","2025-07-09 09:19:46","7701e855f2ef39aa3fd6c71abdc6918a","223.29.142.168","Mozilla/5.0 (Windows NT 10.0; Win64; x64) AppleWebKit/537.36 (KHTML, like Gecko) Chrome/137.0.0.0 Safari/537.36","WebKit","Chrome","137.0.0.0","Windows","10.0","https://app.prolific.com/","en-US,en;q=0.9","67ad3b723dcec072cfdf7815","686d226cabeef709c732f8e1","686e31460a8b812175e3f18e","67ad3b723dcec072cfdf7815","","","[0]","","","","quiz","","","","","","","","","","","","","","","","","","","","","","","","","","","","","","","","","","","","","false",""
"1398","","<p align='center'><b>INCORRECT.</b> The blue ball always shakes and moves randomly.</p>","0","html-button-response","35","781987","0.0-8.0-7.1-1.1","206","1","2025-07-09 09:19:46","7701e855f2ef39aa3fd6c71abdc6918a","223.29.142.168","Mozilla/5.0 (Windows NT 10.0; Win64; x64) AppleWebKit/537.36 (KHTML, like Gecko) Chrome/137.0.0.0 Safari/537.36","WebKit","Chrome","137.0.0.0","Windows","10.0","https://app.prolific.com/","en-US,en;q=0.9","67ad3b723dcec072cfdf7815","686d226cabeef709c732f8e1","686e31460a8b812175e3f18e","67ad3b723dcec072cfdf7815","","","","","","","","","","","","","","","","","","","","","","","","","","","","","","","","","","","","","","","","","","","","",""
"4072","","","{""blue_ball"":[""Ball always shakes and moves in a random direction""]}","survey-multi-select","36","786061","0.0-8.0-7.2-0.2","206","1","2025-07-09 09:19:46","7701e855f2ef39aa3fd6c71abdc6918a","223.29.142.168","Mozilla/5.0 (Windows NT 10.0; Win64; x64) AppleWebKit/537.36 (KHTML, like Gecko) Chrome/137.0.0.0 Safari/537.36","WebKit","Chrome","137.0.0.0","Windows","10.0","https://app.prolific.com/","en-US,en;q=0.9","67ad3b723dcec072cfdf7815","686d226cabeef709c732f8e1","686e31460a8b812175e3f18e","67ad3b723dcec072cfdf7815","","","[0]","","","","quiz","","","","","","","","","","","","","","","","","","","","","","","","","","","","","","","","","","","","","true",""
"1333","","<p align='center'><b>CORRECT!</b> Indeed, the blue ball always shakes and moves in a random direction. Also there is a penalty of -1 point.</p>","0","html-button-response","37","787396","0.0-8.0-7.2-1.2","206","1","2025-07-09 09:19:46","7701e855f2ef39aa3fd6c71abdc6918a","223.29.142.168","Mozilla/5.0 (Windows NT 10.0; Win64; x64) AppleWebKit/537.36 (KHTML, like Gecko) Chrome/137.0.0.0 Safari/537.36","WebKit","Chrome","137.0.0.0","Windows","10.0","https://app.prolific.com/","en-US,en;q=0.9","67ad3b723dcec072cfdf7815","686d226cabeef709c732f8e1","686e31460a8b812175e3f18e","67ad3b723dcec072cfdf7815","","","","","","","","","","","","","","","","","","","","","","","","","","","","","","","","","","","","","","","","","","","","",""
"5513","","","{""bonus"":[""When I reach 80% of points""]}","survey-multi-select","38","792910","0.0-8.0-8.0-0.0","206","1","2025-07-09 09:19:46","7701e855f2ef39aa3fd6c71abdc6918a","223.29.142.168","Mozilla/5.0 (Windows NT 10.0; Win64; x64) AppleWebKit/537.36 (KHTML, like Gecko) Chrome/137.0.0.0 Safari/537.36","WebKit","Chrome","137.0.0.0","Windows","10.0","https://app.prolific.com/","en-US,en;q=0.9","67ad3b723dcec072cfdf7815","686d226cabeef709c732f8e1","686e31460a8b812175e3f18e","67ad3b723dcec072cfdf7815","","","[0]","","","","quiz","","","","","","","","","","","","","","","","","","","","","","","","","","","","","","","","","","","","","false",""
"1644","","<p align='center'><b>INCORRECT.</b> You receive 2 pounds extra when you reach 50% of points </p>","0","html-button-response","39","794556","0.0-8.0-8.0-1.0","206","1","2025-07-09 09:19:46","7701e855f2ef39aa3fd6c71abdc6918a","223.29.142.168","Mozilla/5.0 (Windows NT 10.0; Win64; x64) AppleWebKit/537.36 (KHTML, like Gecko) Chrome/137.0.0.0 Safari/537.36","WebKit","Chrome","137.0.0.0","Windows","10.0","https://app.prolific.com/","en-US,en;q=0.9","67ad3b723dcec072cfdf7815","686d226cabeef709c732f8e1","686e31460a8b812175e3f18e","67ad3b723dcec072cfdf7815","","","","","","","","","","","","","","","","","","","","","","","","","","","","","","","","","","","","","","","","","","","","",""
"3148","","","{""bonus"":[""When I reach 50% of points""]}","survey-multi-select","40","797705","0.0-8.0-8.1-0.1","206","1","2025-07-09 09:19:46","7701e855f2ef39aa3fd6c71abdc6918a","223.29.142.168","Mozilla/5.0 (Windows NT 10.0; Win64; x64) AppleWebKit/537.36 (KHTML, like Gecko) Chrome/137.0.0.0 Safari/537.36","WebKit","Chrome","137.0.0.0","Windows","10.0","https://app.prolific.com/","en-US,en;q=0.9","67ad3b723dcec072cfdf7815","686d226cabeef709c732f8e1","686e31460a8b812175e3f18e","67ad3b723dcec072cfdf7815","","","[0]","","","","quiz","","","","","","","","","","","","","","","","","","","","","","","","","","","","","","","","","","","","","true",""
"1490","","<p align='center'><b>CORRECT!</b> Indeed, you receive 2 pounds extra when you reach 50% of points.</p>","0","html-button-response","41","799198","0.0-8.0-8.1-1.1","206","1","2025-07-09 09:19:46","7701e855f2ef39aa3fd6c71abdc6918a","223.29.142.168","Mozilla/5.0 (Windows NT 10.0; Win64; x64) AppleWebKit/537.36 (KHTML, like Gecko) Chrome/137.0.0.0 Safari/537.36","WebKit","Chrome","137.0.0.0","Windows","10.0","https://app.prolific.com/","en-US,en;q=0.9","67ad3b723dcec072cfdf7815","686d226cabeef709c732f8e1","686e31460a8b812175e3f18e","67ad3b723dcec072cfdf7815","","","","","","","","","","","","","","","","","","","","","","","","","","","","","","","","","","","","","","","","","","","","",""
"1600","","","","instructions","42","800799","0.0-8.0-9.0","206","1","2025-07-09 09:19:46","7701e855f2ef39aa3fd6c71abdc6918a","223.29.142.168","Mozilla/5.0 (Windows NT 10.0; Win64; x64) AppleWebKit/537.36 (KHTML, like Gecko) Chrome/137.0.0.0 Safari/537.36","WebKit","Chrome","137.0.0.0","Windows","10.0","https://app.prolific.com/","en-US,en;q=0.9","67ad3b723dcec072cfdf7815","686d226cabeef709c732f8e1","686e31460a8b812175e3f18e","67ad3b723dcec072cfdf7815","","[{""page_index"":0,""viewing_time"":1599}]","","","","","","","","","","","","","","","","","","","","","","","","","","","","","","","","","","","","","","","","","","",""
"9579","","<p>Before you start with this game please answer the following three questions yourself. </p>
  <p>Through this game, we measure several aspects of your cognitive performance, such as reaction times, multi-tasking capabilities </p>
  <p>and the ability to assess the situation you are in.</p>
  <p></p>
  <p><b>How good do you usually are in such tasks?</b></p>","69","html-slider-response","43","810381","0.0-9.0-0.0","206","1","2025-07-09 09:19:46","7701e855f2ef39aa3fd6c71abdc6918a","223.29.142.168","Mozilla/5.0 (Windows NT 10.0; Win64; x64) AppleWebKit/537.36 (KHTML, like Gecko) Chrome/137.0.0.0 Safari/537.36","WebKit","Chrome","137.0.0.0","Windows","10.0","https://app.prolific.com/","en-US,en;q=0.9","67ad3b723dcec072cfdf7815","686d226cabeef709c732f8e1","686e31460a8b812175e3f18e","67ad3b723dcec072cfdf7815","2025-07-09T09:33:22.490Z","","","","","","PreSkillQ","","","","","","","","","","","","","","","","","","","","","","","","","","","","","","","","","","","","","","50"
"3718","","<div style=""width:500px;"">
  <p>How well do you think you will perform in this task compared to other participants?</p>
  </div>","65","html-slider-response","44","814101","0.0-9.0-1.0","206","1","2025-07-09 09:19:46","7701e855f2ef39aa3fd6c71abdc6918a","223.29.142.168","Mozilla/5.0 (Windows NT 10.0; Win64; x64) AppleWebKit/537.36 (KHTML, like Gecko) Chrome/137.0.0.0 Safari/537.36","WebKit","Chrome","137.0.0.0","Windows","10.0","https://app.prolific.com/","en-US,en;q=0.9","67ad3b723dcec072cfdf7815","686d226cabeef709c732f8e1","686e31460a8b812175e3f18e","67ad3b723dcec072cfdf7815","2025-07-09T09:33:26.210Z","","","","","","PrePerfQ","","","","","","","","","","","","","","","","","","","","","","","","","","","","","","","","","","","","","","50"
"7363","","<div style=""width:500px;"">
  <p>What best describes how you currently feel?</p>
  </div>","80","html-slider-response","45","821466","0.0-9.0-2.0","206","1","2025-07-09 09:19:46","7701e855f2ef39aa3fd6c71abdc6918a","223.29.142.168","Mozilla/5.0 (Windows NT 10.0; Win64; x64) AppleWebKit/537.36 (KHTML, like Gecko) Chrome/137.0.0.0 Safari/537.36","WebKit","Chrome","137.0.0.0","Windows","10.0","https://app.prolific.com/","en-US,en;q=0.9","67ad3b723dcec072cfdf7815","686d226cabeef709c732f8e1","686e31460a8b812175e3f18e","67ad3b723dcec072cfdf7815","2025-07-09T09:33:33.575Z","","","","","","PreMotivationQ","","","","","","","","","","","","","","","","","","","","","","","","","","","","","","","","","","","","","","50"
"","","","","ctl-task-cpt","46","854300","0.0-10.0-0.0","206","1","2025-07-09 09:19:46","7701e855f2ef39aa3fd6c71abdc6918a","223.29.142.168","Mozilla/5.0 (Windows NT 10.0; Win64; x64) AppleWebKit/537.36 (KHTML, like Gecko) Chrome/137.0.0.0 Safari/537.36","WebKit","Chrome","137.0.0.0","Windows","10.0","https://app.prolific.com/","en-US,en;q=0.9","67ad3b723dcec072cfdf7815","686d226cabeef709c732f8e1","686e31460a8b812175e3f18e","67ad3b723dcec072cfdf7815","2025-07-09T09:34:06.409Z","","","","","","","","","","","","","","","","win-only","2","g1:SE,g2:NW","1","1","0","828572.9","1645.5","6646.1","29810.9","1","4","4","6","2","-4","-6","0","0","0","1916.8","3000","-3010","[""left"",""up""]","{""num_key_presses"":6,""num_perfect"":4,""num_errors"":2,""num_randdir"":0,""num_randdir_good_moves"":0,""num_whilered"":0,""num_whileblue"":2,""num_blue"":3,""num_good_moves"":4}","[359.3888392857143,353.7794642857143,0.3,359.3888392857143,353.7794642857143,100.3,359.3888392857143,353.7794642857143,201,359.3888392857143,353.7794642857143,301.3,359.3888392857143,353.7794642857143,405.3,359.3888392857143,353.7794642857143,510.3,359.3888392857143,353.7794642857143,610.6,359.3888392857143,353.7794642857143,715.8,359.3888392857143,353.7794642857143,820.8,359.3888392857143,353.7794642857143,921.2,332.3888392857143,326.7794642857143,1025.3,282.3888392857143,271.7794642857143,1126.3,252.38883928571428,270.7794642857143,1226.6,252.38883928571428,270.7794642857143,1331,252.38883928571428,270.7794642857143,1432.1,111.38883928571428,92.77946428571428,1535.6,97.38883928571428,69.77946428571428,1641,96.38883928571428,71.77946428571428,1746.6,96.38883928571428,71.77946428571428,1850.9,96.38883928571428,71.77946428571428,1951.3,96.38883928571428,71.77946428571428,2055.1,96.38883928571428,71.77946428571428,2159.3,96.38883928571428,71.77946428571428,2260.4,96.38883928571428,71.77946428571428,2361.3,96.38883928571428,71.77946428571428,2461.5,96.38883928571428,71.77946428571428,2566,96.38883928571428,71.77946428571428,2671.4,134.38883928571428,96.77946428571428,2772.1,226.38883928571428,182.77946428571428,2876.8,271.3888392857143,228.77946428571428,2977.3,292.3888392857143,249.77946428571428,3080.7,292.3888392857143,249.77946428571428,3181.3,292.3888392857143,249.77946428571428,3285.8,292.3888392857143,249.77946428571428,3386.3,292.3888392857143,249.77946428571428,3489.8,292.3888392857143,249.77946428571428,3590.4,292.3888392857143,249.77946428571428,3690.9,292.3888392857143,249.77946428571428,3796.3,292.3888392857143,249.77946428571428,3901.9,292.3888392857143,249.77946428571428,4005.2,292.3888392857143,249.77946428571428,4110.9,292.3888392857143,249.77946428571428,4215.8,292.3888392857143,249.77946428571428,4316.2,292.3888392857143,249.77946428571428,4420.5,292.3888392857143,249.77946428571428,4520.8,292.3888392857143,249.77946428571428,4621.4,292.3888392857143,249.77946428571428,4725,292.3888392857143,249.77946428571428,4826.4,292.3888392857143,249.77946428571428,4931.2]","[1987.4,1987.4,1000,0.1,987.3,""smooth"",""up"",""up"",""good_move"",4968.3,2980.4,2343,1987.9,637.4,""smooth"",""up"",""up"",""good_move"",7628.8,2660.3,2160.7,4968.5,499.6,""smooth"",""up"",""up"",""good_move"",11065.9,3437,3120.2,7629,316.8,""while_blue"",""left"",""right"",""bad_move"",17358.1,6291.6,2810.2,14074.7,473.2,""smooth"",""left"",""left"",""good_move"",20069.2,2710.7,2371.2,17358.5,339.5,""while_blue"",""left"",""down"",""bad_move""]","",""
"8288","","<div style=""width:500px;"">
  <p>What determined the result of this run?</p>
  </div>","30","html-slider-response","47","862589","0.0-10.0-1.0","206","1","2025-07-09 09:19:46","7701e855f2ef39aa3fd6c71abdc6918a","223.29.142.168","Mozilla/5.0 (Windows NT 10.0; Win64; x64) AppleWebKit/537.36 (KHTML, like Gecko) Chrome/137.0.0.0 Safari/537.36","WebKit","Chrome","137.0.0.0","Windows","10.0","https://app.prolific.com/","en-US,en;q=0.9","67ad3b723dcec072cfdf7815","686d226cabeef709c732f8e1","686e31460a8b812175e3f18e","67ad3b723dcec072cfdf7815","2025-07-09T09:34:14.698Z","","","","","","AttribQ","","","","","","","","","","","","","","","","","","","","","","","","","","","","","","","","","","","","","","50"
"5805","","<div style=""width:500px;"">
  <p>How much control did you have over the ball?</p>
  </div>","84","html-slider-response","48","868396","0.0-10.0-2.0","206","1","2025-07-09 09:19:46","7701e855f2ef39aa3fd6c71abdc6918a","223.29.142.168","Mozilla/5.0 (Windows NT 10.0; Win64; x64) AppleWebKit/537.36 (KHTML, like Gecko) Chrome/137.0.0.0 Safari/537.36","WebKit","Chrome","137.0.0.0","Windows","10.0","https://app.prolific.com/","en-US,en;q=0.9","67ad3b723dcec072cfdf7815","686d226cabeef709c732f8e1","686e31460a8b812175e3f18e","67ad3b723dcec072cfdf7815","2025-07-09T09:34:20.505Z","","","","","","ControlQ","","","","","","","","","","","","","","","","","","","","","","","","","","","","","","","","","","","","","","50"
"5445","","<div style=""width:500px;"">
  <p>How would you describe your current emotional state?</p>
  </div>","38","html-slider-response","49","873843","0.0-10.0-3.0","206","1","2025-07-09 09:19:46","7701e855f2ef39aa3fd6c71abdc6918a","223.29.142.168","Mozilla/5.0 (Windows NT 10.0; Win64; x64) AppleWebKit/537.36 (KHTML, like Gecko) Chrome/137.0.0.0 Safari/537.36","WebKit","Chrome","137.0.0.0","Windows","10.0","https://app.prolific.com/","en-US,en;q=0.9","67ad3b723dcec072cfdf7815","686d226cabeef709c732f8e1","686e31460a8b812175e3f18e","67ad3b723dcec072cfdf7815","2025-07-09T09:34:25.952Z","","","","","","StressQ","","","","","","","","","","","","","","","","","","","","","","","","","","","","","","","","","","","","","","50"
"10042","","<div style=""width:500px;"">
  <p>What best describes how you currently feel?</p>
  </div>","76","html-slider-response","50","883886","0.0-10.0-4.0","206","1","2025-07-09 09:19:46","7701e855f2ef39aa3fd6c71abdc6918a","223.29.142.168","Mozilla/5.0 (Windows NT 10.0; Win64; x64) AppleWebKit/537.36 (KHTML, like Gecko) Chrome/137.0.0.0 Safari/537.36","WebKit","Chrome","137.0.0.0","Windows","10.0","https://app.prolific.com/","en-US,en;q=0.9","67ad3b723dcec072cfdf7815","686d226cabeef709c732f8e1","686e31460a8b812175e3f18e","67ad3b723dcec072cfdf7815","2025-07-09T09:34:35.995Z","","","","","","MotivationQ","","","","","","","","","","","","","","","","","","","","","","","","","","","","","","","","","","","","","","50"
"","","","","ctl-task-cpt","51","905801","0.0-10.0-0.1","206","1","2025-07-09 09:19:46","7701e855f2ef39aa3fd6c71abdc6918a","223.29.142.168","Mozilla/5.0 (Windows NT 10.0; Win64; x64) AppleWebKit/537.36 (KHTML, like Gecko) Chrome/137.0.0.0 Safari/537.36","WebKit","Chrome","137.0.0.0","Windows","10.0","https://app.prolific.com/","en-US,en;q=0.9","67ad3b723dcec072cfdf7815","686d226cabeef709c732f8e1","686e31460a8b812175e3f18e","67ad3b723dcec072cfdf7815","2025-07-09T09:34:57.910Z","","","","","","","","","","","","","","","","win-only","0","g1:NW,g2:SE","0.9","2","0","890992.9","3199.4","8201.6","18896.5","1","4","8","6","1","1","1","1","0","0.007575757575757576","2818","3000","1385","[""left"",""up""]","{""num_key_presses"":4,""num_perfect"":4,""num_errors"":0,""num_randdir"":0,""num_randdir_good_moves"":0,""num_whilered"":0,""num_whileblue"":0,""num_blue"":0,""num_good_moves"":4}","[351.3888392857143,343.7794642857143,0.3,351.3888392857143,343.7794642857143,103.8,351.3888392857143,343.7794642857143,207,351.3888392857143,343.7794642857143,312.8,351.3888392857143,343.7794642857143,416.6,351.3888392857143,343.7794642857143,523.3,351.3888392857143,343.7794642857143,627,351.3888392857143,343.7794642857143,731.1,385.3888392857143,374.7794642857143,831.8,379.3888392857143,376.7794642857143,931.8,337.3888392857143,342.7794642857143,1037.8,377.3888392857143,385.7794642857143,1146.1,481.3888392857143,528.7794642857143,1247.3,430.3888392857143,495.7794642857143,1351.8,300.3888392857143,311.7794642857143,1452.9,296.3888392857143,305.7794642857143,1553.7,265.3888392857143,286.7794642857143,1656.8,216.38883928571428,213.77946428571428,1757.4,216.38883928571428,213.77946428571428,1861.8,216.38883928571428,213.77946428571428,1967.5,173.38883928571428,166.77946428571428,2070,157.38883928571428,139.77946428571428,2171.6,155.38883928571428,138.77946428571428,2272,124.38883928571428,135.77946428571428,2373.6,92.38883928571428,114.77946428571428,2477,81.38883928571428,101.77946428571428,2581.3,80.38883928571428,99.77946428571428,2682.3,80.38883928571428,99.77946428571428,2787.8,80.38883928571428,99.77946428571428,2891.3,80.38883928571428,99.77946428571428,2991.5,80.38883928571428,99.77946428571428,3091.9,80.38883928571428,99.77946428571428,3192,80.38883928571428,99.77946428571428,3298.1,80.38883928571428,99.77946428571428,3403.3,80.38883928571428,99.77946428571428,3507.1,80.38883928571428,99.77946428571428,3611.7,80.38883928571428,99.77946428571428,3717,80.38883928571428,99.77946428571428,3817.3,80.38883928571428,99.77946428571428,3918,80.38883928571428,99.77946428571428,4022.1,80.38883928571428,99.77946428571428,4127.5,80.38883928571428,99.77946428571428,4237.6,80.38883928571428,99.77946428571428,4341.6,80.38883928571428,99.77946428571428,4441.9,80.38883928571428,99.77946428571428,4541.9,80.38883928571428,99.77946428571428,4642,80.38883928571428,99.77946428571428,4742,80.38883928571428,99.77946428571428,4842.3,80.38883928571428,99.77946428571428,4946.9]","[1446.5,1446.5,1000,0,446.5,""smooth"",""up"",""up"",""good_move"",4739.3,3292.1,2750.5,1447.3,541.5,""smooth"",""up"",""up"",""good_move"",7639.9,2900.4,2540,4739.6,360.4,""smooth"",""left"",""left"",""good_move"",10604.4,2963.9,2590.7,7640.5,373.2,""smooth"",""left"",""left"",""good_move""]","",""
"3584","","<div style=""width:500px;"">
  <p>What determined the result of this run?</p>
  </div>","100","html-slider-response","52","909386","0.0-10.0-1.1","206","1","2025-07-09 09:19:46","7701e855f2ef39aa3fd6c71abdc6918a","223.29.142.168","Mozilla/5.0 (Windows NT 10.0; Win64; x64) AppleWebKit/537.36 (KHTML, like Gecko) Chrome/137.0.0.0 Safari/537.36","WebKit","Chrome","137.0.0.0","Windows","10.0","https://app.prolific.com/","en-US,en;q=0.9","67ad3b723dcec072cfdf7815","686d226cabeef709c732f8e1","686e31460a8b812175e3f18e","67ad3b723dcec072cfdf7815","2025-07-09T09:35:01.496Z","","","","","","AttribQ","","","","","","","","","","","","","","","","","","","","","","","","","","","","","","","","","","","","","","50"
"4989","","<div style=""width:500px;"">
  <p>How much control did you have over the ball?</p>
  </div>","100","html-slider-response","53","914377","0.0-10.0-2.1","206","1","2025-07-09 09:19:46","7701e855f2ef39aa3fd6c71abdc6918a","223.29.142.168","Mozilla/5.0 (Windows NT 10.0; Win64; x64) AppleWebKit/537.36 (KHTML, like Gecko) Chrome/137.0.0.0 Safari/537.36","WebKit","Chrome","137.0.0.0","Windows","10.0","https://app.prolific.com/","en-US,en;q=0.9","67ad3b723dcec072cfdf7815","686d226cabeef709c732f8e1","686e31460a8b812175e3f18e","67ad3b723dcec072cfdf7815","2025-07-09T09:35:06.486Z","","","","","","ControlQ","","","","","","","","","","","","","","","","","","","","","","","","","","","","","","","","","","","","","","50"
"5214","","<div style=""width:500px;"">
  <p>How would you describe your current emotional state?</p>
  </div>","11","html-slider-response","54","919592","0.0-10.0-3.1","206","1","2025-07-09 09:19:46","7701e855f2ef39aa3fd6c71abdc6918a","223.29.142.168","Mozilla/5.0 (Windows NT 10.0; Win64; x64) AppleWebKit/537.36 (KHTML, like Gecko) Chrome/137.0.0.0 Safari/537.36","WebKit","Chrome","137.0.0.0","Windows","10.0","https://app.prolific.com/","en-US,en;q=0.9","67ad3b723dcec072cfdf7815","686d226cabeef709c732f8e1","686e31460a8b812175e3f18e","67ad3b723dcec072cfdf7815","2025-07-09T09:35:11.702Z","","","","","","StressQ","","","","","","","","","","","","","","","","","","","","","","","","","","","","","","","","","","","","","","50"
"4248","","<div style=""width:500px;"">
  <p>What best describes how you currently feel?</p>
  </div>","85","html-slider-response","55","923842","0.0-10.0-4.1","206","1","2025-07-09 09:19:46","7701e855f2ef39aa3fd6c71abdc6918a","223.29.142.168","Mozilla/5.0 (Windows NT 10.0; Win64; x64) AppleWebKit/537.36 (KHTML, like Gecko) Chrome/137.0.0.0 Safari/537.36","WebKit","Chrome","137.0.0.0","Windows","10.0","https://app.prolific.com/","en-US,en;q=0.9","67ad3b723dcec072cfdf7815","686d226cabeef709c732f8e1","686e31460a8b812175e3f18e","67ad3b723dcec072cfdf7815","2025-07-09T09:35:15.951Z","","","","","","MotivationQ","","","","","","","","","","","","","","","","","","","","","","","","","","","","","","","","","","","","","","50"
"","","","","ctl-task-cpt","56","951675","0.0-10.0-0.2","206","1","2025-07-09 09:19:46","7701e855f2ef39aa3fd6c71abdc6918a","223.29.142.168","Mozilla/5.0 (Windows NT 10.0; Win64; x64) AppleWebKit/537.36 (KHTML, like Gecko) Chrome/137.0.0.0 Safari/537.36","WebKit","Chrome","137.0.0.0","Windows","10.0","https://app.prolific.com/","en-US,en;q=0.9","67ad3b723dcec072cfdf7815","686d226cabeef709c732f8e1","686e31460a8b812175e3f18e","67ad3b723dcec072cfdf7815","2025-07-09T09:35:43.784Z","","","","","","","","","","","","","","","","win-only","3","g1:SW,g2:NE","0.8","3","0","930947.9","1363.5","6366","24810.7","1","4","8","6","2","-8","-9","0","1","0","1902.2","3000","-2810","[""up"",""right""]","{""num_key_presses"":5,""num_perfect"":2,""num_errors"":1,""num_randdir"":2,""num_randdir_good_moves"":1,""num_whilered"":0,""num_whileblue"":1,""num_blue"":1,""num_good_moves"":4}","[349.3888392857143,353.7794642857143,0.3,349.3888392857143,353.7794642857143,105.9,349.3888392857143,353.7794642857143,208.2,349.3888392857143,353.7794642857143,312.6,349.3888392857143,353.7794642857143,412.8,349.3888392857143,353.7794642857143,516.8,349.3888392857143,353.7794642857143,617.5,349.3888392857143,353.7794642857143,722.4,349.3888392857143,353.7794642857143,828.2,349.3888392857143,353.7794642857143,928.3,349.3888392857143,353.7794642857143,1032.8,570.3888392857143,148.77946428571428,1143.1,579.3888392857143,136.77946428571428,1247,579.3888392857143,131.77946428571428,1347.7,604.3888392857143,105.77946428571428,1447.7,632.3888392857143,73.77946428571428,1549,637.3888392857143,66.77946428571428,1657.3,638.3888392857143,63.77946428571429,1762.9,638.3888392857143,63.77946428571429,1863,638.3888392857143,63.77946428571429,1967.5,638.3888392857143,63.77946428571429,2067.9,638.3888392857143,63.77946428571429,2170.4,638.3888392857143,63.77946428571429,2272.8,638.3888392857143,63.77946428571429,2378,638.3888392857143,63.77946428571429,2478.1,638.3888392857143,63.77946428571429,2581.9,638.3888392857143,63.77946428571429,2681.9,638.3888392857143,63.77946428571429,2782.2,638.3888392857143,63.77946428571429,2888.3,638.3888392857143,63.77946428571429,2988.4,638.3888392857143,63.77946428571429,3092.9,638.3888392857143,63.77946428571429,3199,638.3888392857143,63.77946428571429,3302.2,638.3888392857143,63.77946428571429,3403.6,638.3888392857143,63.77946428571429,3507.6,638.3888392857143,63.77946428571429,3607.9,638.3888392857143,63.77946428571429,3708.7,638.3888392857143,63.77946428571429,3812.7,638.3888392857143,63.77946428571429,3912.7,638.3888392857143,63.77946428571429,4017.1,638.3888392857143,63.77946428571429,4117.3,638.3888392857143,63.77946428571429,4218.3,638.3888392857143,63.77946428571429,4322.3,638.3888392857143,63.77946428571429,4422.8,638.3888392857143,63.77946428571429,4527,638.3888392857143,63.77946428571429,4628.6,638.3888392857143,63.77946428571429,4733.7,638.3888392857143,63.77946428571429,4838.2,638.3888392857143,63.77946428571429,4942.1]","[1463,1463,1000,0,463,""smooth"",""up"",""up"",""good_move"",5122.5,3658.6,3089.5,1463.9,569.1,""oops"",""up"",""right"",""good_move"",9173.9,4050.9,2751.2,5123,1299.7,""oops"",""up"",""left"",""bad_move"",12490.4,3315.6,2938.9,9174.9,376.7,""smooth"",""right"",""right"",""good_move"",14962.7,2471.8,2094.6,12490.9,377.2,""while_blue"",""right"",""right"",""good_move""]","",""
"2827","","<div style=""width:500px;"">
  <p>What determined the result of this run?</p>
  </div>","67","html-slider-response","57","954504","0.0-10.0-1.2","206","1","2025-07-09 09:19:46","7701e855f2ef39aa3fd6c71abdc6918a","223.29.142.168","Mozilla/5.0 (Windows NT 10.0; Win64; x64) AppleWebKit/537.36 (KHTML, like Gecko) Chrome/137.0.0.0 Safari/537.36","WebKit","Chrome","137.0.0.0","Windows","10.0","https://app.prolific.com/","en-US,en;q=0.9","67ad3b723dcec072cfdf7815","686d226cabeef709c732f8e1","686e31460a8b812175e3f18e","67ad3b723dcec072cfdf7815","2025-07-09T09:35:46.613Z","","","","","","AttribQ","","","","","","","","","","","","","","","","","","","","","","","","","","","","","","","","","","","","","","50"
"2876","","<div style=""width:500px;"">
  <p>How much control did you have over the ball?</p>
  </div>","71","html-slider-response","58","957381","0.0-10.0-2.2","206","1","2025-07-09 09:19:46","7701e855f2ef39aa3fd6c71abdc6918a","223.29.142.168","Mozilla/5.0 (Windows NT 10.0; Win64; x64) AppleWebKit/537.36 (KHTML, like Gecko) Chrome/137.0.0.0 Safari/537.36","WebKit","Chrome","137.0.0.0","Windows","10.0","https://app.prolific.com/","en-US,en;q=0.9","67ad3b723dcec072cfdf7815","686d226cabeef709c732f8e1","686e31460a8b812175e3f18e","67ad3b723dcec072cfdf7815","2025-07-09T09:35:49.490Z","","","","","","ControlQ","","","","","","","","","","","","","","","","","","","","","","","","","","","","","","","","","","","","","","50"
"2154","","<div style=""width:500px;"">
  <p>How would you describe your current emotional state?</p>
  </div>","72","html-slider-response","59","959536","0.0-10.0-3.2","206","1","2025-07-09 09:19:46","7701e855f2ef39aa3fd6c71abdc6918a","223.29.142.168","Mozilla/5.0 (Windows NT 10.0; Win64; x64) AppleWebKit/537.36 (KHTML, like Gecko) Chrome/137.0.0.0 Safari/537.36","WebKit","Chrome","137.0.0.0","Windows","10.0","https://app.prolific.com/","en-US,en;q=0.9","67ad3b723dcec072cfdf7815","686d226cabeef709c732f8e1","686e31460a8b812175e3f18e","67ad3b723dcec072cfdf7815","2025-07-09T09:35:51.645Z","","","","","","StressQ","","","","","","","","","","","","","","","","","","","","","","","","","","","","","","","","","","","","","","50"
"2115","","<div style=""width:500px;"">
  <p>What best describes how you currently feel?</p>
  </div>","75","html-slider-response","60","961653","0.0-10.0-4.2","206","1","2025-07-09 09:19:46","7701e855f2ef39aa3fd6c71abdc6918a","223.29.142.168","Mozilla/5.0 (Windows NT 10.0; Win64; x64) AppleWebKit/537.36 (KHTML, like Gecko) Chrome/137.0.0.0 Safari/537.36","WebKit","Chrome","137.0.0.0","Windows","10.0","https://app.prolific.com/","en-US,en;q=0.9","67ad3b723dcec072cfdf7815","686d226cabeef709c732f8e1","686e31460a8b812175e3f18e","67ad3b723dcec072cfdf7815","2025-07-09T09:35:53.762Z","","","","","","MotivationQ","","","","","","","","","","","","","","","","","","","","","","","","","","","","","","","","","","","","","","50"
"","","","","ctl-task-cpt","61","1003841","0.0-10.0-0.3","206","1","2025-07-09 09:19:46","7701e855f2ef39aa3fd6c71abdc6918a","223.29.142.168","Mozilla/5.0 (Windows NT 10.0; Win64; x64) AppleWebKit/537.36 (KHTML, like Gecko) Chrome/137.0.0.0 Safari/537.36","WebKit","Chrome","137.0.0.0","Windows","10.0","https://app.prolific.com/","en-US,en;q=0.9","67ad3b723dcec072cfdf7815","686d226cabeef709c732f8e1","686e31460a8b812175e3f18e","67ad3b723dcec072cfdf7815","2025-07-09T09:36:35.951Z","","","","","","","","","","","","","","","","win-only","2","g1:SE,g2:NW","0.7","4","0","968758","1093.7","6097","39167.2","1","4","4","6","2","-4","-9","0","0","0","1947.4","3000","-2420","[""left"",""up""]","{""num_key_presses"":11,""num_perfect"":4,""num_errors"":5,""num_randdir"":2,""num_randdir_good_moves"":0,""num_whilered"":0,""num_whileblue"":3,""num_blue"":3,""num_good_moves"":7}","[350.3888392857143,354.7794642857143,0.2,350.3888392857143,354.7794642857143,104.4,350.3888392857143,354.7794642857143,205.5,350.3888392857143,354.7794642857143,308.9,350.3888392857143,354.7794642857143,409.2,350.3888392857143,354.7794642857143,509.9,350.3888392857143,354.7794642857143,614.1,350.3888392857143,354.7794642857143,719.5,350.3888392857143,354.7794642857143,823.7,350.3888392857143,354.7794642857143,925.5,350.3888392857143,354.7794642857143,1028,129.38883928571428,79.77946428571428,1128.9,91.38883928571428,15.77946428571429,1229.2,91.38883928571428,15.77946428571429,1339.3,91.38883928571428,15.77946428571429,1442.9,91.38883928571428,15.77946428571429,1549.7,79.38883928571428,21.77946428571429,1652.7,50.38883928571429,55.77946428571429,1758.8,50.38883928571429,55.77946428571429,1859.1,50.38883928571429,55.77946428571429,1967.3,50.38883928571429,55.77946428571429,2067.3,50.38883928571429,55.77946428571429,2168.3,50.38883928571429,55.77946428571429,2273.8,50.38883928571429,55.77946428571429,2378.9,50.38883928571429,55.77946428571429,2484.7,50.38883928571429,55.77946428571429,2588.3,50.38883928571429,55.77946428571429,2689.1,50.38883928571429,55.77946428571429,2793.1,50.38883928571429,55.77946428571429,2900,50.38883928571429,55.77946428571429,3004.5,50.38883928571429,55.77946428571429,3116.3,50.38883928571429,55.77946428571429,3218.3,50.38883928571429,55.77946428571429,3319.8,50.38883928571429,55.77946428571429,3423.3,50.38883928571429,55.77946428571429,3528.7,50.38883928571429,55.77946428571429,3633.3,50.38883928571429,55.77946428571429,3734,50.38883928571429,55.77946428571429,3839.3,50.38883928571429,55.77946428571429,3943.7,50.38883928571429,55.77946428571429,4051.5,50.38883928571429,55.77946428571429,4152.8,50.38883928571429,55.77946428571429,4253.6,50.38883928571429,55.77946428571429,4357.4,50.38883928571429,55.77946428571429,4458.9,50.38883928571429,55.77946428571429,4568.5,50.38883928571429,55.77946428571429,4672.9,50.38883928571429,55.77946428571429,4773.1,50.38883928571429,55.77946428571429,4873.1,50.38883928571429,55.77946428571429,4978.6]","[417,417,1000,0,-583,""error"",""-"",""-"",""no_move"",4234.6,3817.3,2330.1,1419.7,484.8,""smooth"",""up"",""up"",""good_move"",6947.9,2712.7,2283.1,4235.3,429.6,""smooth"",""up"",""up"",""good_move"",9484.3,2535.6,1907.2,6948.8,628.4,""smooth"",""up"",""up"",""good_move"",12384.5,2899.5,2505.6,9485,393.9,""smooth"",""left"",""left"",""good_move"",15138.5,2753.7,2449,12384.9,304.7,""while_blue"",""left"",""left"",""good_move"",18105.1,2966.1,2620.3,15139,345.8,""oops"",""left"",""right"",""bad_move"",21052,2946.3,2453.8,18105.7,492.5,""while_blue"",""right"",""left"",""good_move"",23843.2,2790.9,2241.9,21052.3,549,""oops"",""right"",""right"",""bad_move"",25572.2,1728.8,3367.6,23843.4,-1638.8,""error"",""-"",""-"",""no_move"",29318.6,3746,2424.8,26574.7,319.1,""while_blue"",""right"",""left"",""good_move""]","",""
"3882","","<div style=""width:500px;"">
  <p>What determined the result of this run?</p>
  </div>","62","html-slider-response","62","1007726","0.0-10.0-1.3","206","1","2025-07-09 09:19:46","7701e855f2ef39aa3fd6c71abdc6918a","223.29.142.168","Mozilla/5.0 (Windows NT 10.0; Win64; x64) AppleWebKit/537.36 (KHTML, like Gecko) Chrome/137.0.0.0 Safari/537.36","WebKit","Chrome","137.0.0.0","Windows","10.0","https://app.prolific.com/","en-US,en;q=0.9","67ad3b723dcec072cfdf7815","686d226cabeef709c732f8e1","686e31460a8b812175e3f18e","67ad3b723dcec072cfdf7815","2025-07-09T09:36:39.835Z","","","","","","AttribQ","","","","","","","","","","","","","","","","","","","","","","","","","","","","","","","","","","","","","","50"
"2968","","<div style=""width:500px;"">
  <p>How much control did you have over the ball?</p>
  </div>","70","html-slider-response","63","1010696","0.0-10.0-2.3","206","1","2025-07-09 09:19:46","7701e855f2ef39aa3fd6c71abdc6918a","223.29.142.168","Mozilla/5.0 (Windows NT 10.0; Win64; x64) AppleWebKit/537.36 (KHTML, like Gecko) Chrome/137.0.0.0 Safari/537.36","WebKit","Chrome","137.0.0.0","Windows","10.0","https://app.prolific.com/","en-US,en;q=0.9","67ad3b723dcec072cfdf7815","686d226cabeef709c732f8e1","686e31460a8b812175e3f18e","67ad3b723dcec072cfdf7815","2025-07-09T09:36:42.805Z","","","","","","ControlQ","","","","","","","","","","","","","","","","","","","","","","","","","","","","","","","","","","","","","","50"
"3026","","<div style=""width:500px;"">
  <p>How would you describe your current emotional state?</p>
  </div>","62","html-slider-response","64","1013724","0.0-10.0-3.3","206","1","2025-07-09 09:19:46","7701e855f2ef39aa3fd6c71abdc6918a","223.29.142.168","Mozilla/5.0 (Windows NT 10.0; Win64; x64) AppleWebKit/537.36 (KHTML, like Gecko) Chrome/137.0.0.0 Safari/537.36","WebKit","Chrome","137.0.0.0","Windows","10.0","https://app.prolific.com/","en-US,en;q=0.9","67ad3b723dcec072cfdf7815","686d226cabeef709c732f8e1","686e31460a8b812175e3f18e","67ad3b723dcec072cfdf7815","2025-07-09T09:36:45.833Z","","","","","","StressQ","","","","","","","","","","","","","","","","","","","","","","","","","","","","","","","","","","","","","","50"
"1570","","<div style=""width:500px;"">
  <p>What best describes how you currently feel?</p>
  </div>","67","html-slider-response","65","1015294","0.0-10.0-4.3","206","1","2025-07-09 09:19:46","7701e855f2ef39aa3fd6c71abdc6918a","223.29.142.168","Mozilla/5.0 (Windows NT 10.0; Win64; x64) AppleWebKit/537.36 (KHTML, like Gecko) Chrome/137.0.0.0 Safari/537.36","WebKit","Chrome","137.0.0.0","Windows","10.0","https://app.prolific.com/","en-US,en;q=0.9","67ad3b723dcec072cfdf7815","686d226cabeef709c732f8e1","686e31460a8b812175e3f18e","67ad3b723dcec072cfdf7815","2025-07-09T09:36:47.404Z","","","","","","MotivationQ","","","","","","","","","","","","","","","","","","","","","","","","","","","","","","","","","","","","","","50"
"","","","","ctl-task-cpt","66","1048682","0.0-10.0-0.4","206","1","2025-07-09 09:19:46","7701e855f2ef39aa3fd6c71abdc6918a","223.29.142.168","Mozilla/5.0 (Windows NT 10.0; Win64; x64) AppleWebKit/537.36 (KHTML, like Gecko) Chrome/137.0.0.0 Safari/537.36","WebKit","Chrome","137.0.0.0","Windows","10.0","https://app.prolific.com/","en-US,en;q=0.9","67ad3b723dcec072cfdf7815","686d226cabeef709c732f8e1","686e31460a8b812175e3f18e","67ad3b723dcec072cfdf7815","2025-07-09T09:37:20.791Z","","","","","","","","","","","","","","","","win-only","3","g1:SW,g2:NE","0.6","5","0","1022400","2513.6","7517.1","30360.5","1","4","4","6","2","4","2","2","0","0.015151515151515152","1717.2","3000","235","[""up"",""right""]","{""num_key_presses"":7,""num_perfect"":4,""num_errors"":2,""num_randdir"":1,""num_randdir_good_moves"":1,""num_whilered"":0,""num_whileblue"":1,""num_blue"":1,""num_good_moves"":6}","[345.3888392857143,355.7794642857143,0.4,345.3888392857143,355.7794642857143,102,345.3888392857143,355.7794642857143,204.4,345.3888392857143,355.7794642857143,308,345.3888392857143,355.7794642857143,414.4,345.3888392857143,355.7794642857143,517.1,345.3888392857143,355.7794642857143,617.6,345.3888392857143,355.7794642857143,726.6,345.3888392857143,355.7794642857143,828.8,421.3888392857143,307.7794642857143,932.6,531.3888392857143,190.77946428571428,1032.6,531.3888392857143,190.77946428571428,1138.4,543.3888392857143,181.77946428571428,1252,636.3888392857143,95.77946428571428,1357.4,636.3888392857143,88.77946428571428,1467.1,636.3888392857143,87.77946428571428,1569.1,636.3888392857143,87.77946428571428,1676.5,636.3888392857143,87.77946428571428,1778.5,636.3888392857143,87.77946428571428,1879,636.3888392857143,87.77946428571428,1983.2,636.3888392857143,87.77946428571428,2094.1,636.3888392857143,87.77946428571428,2195.2,636.3888392857143,87.77946428571428,2296.1,636.3888392857143,87.77946428571428,2397.7,636.3888392857143,87.77946428571428,2498.7,636.3888392857143,87.77946428571428,2599,636.3888392857143,87.77946428571428,2703.4,636.3888392857143,87.77946428571428,2809.8,636.3888392857143,87.77946428571428,2915.4,636.3888392857143,87.77946428571428,3017.8,636.3888392857143,87.77946428571428,3119.5,636.3888392857143,87.77946428571428,3223.8,636.3888392857143,87.77946428571428,3328.6,636.3888392857143,87.77946428571428,3431.1,636.3888392857143,87.77946428571428,3532.6,636.3888392857143,87.77946428571428,3645.3,636.3888392857143,87.77946428571428,3749,636.3888392857143,87.77946428571428,3849.1,636.3888392857143,87.77946428571428,3952,636.3888392857143,87.77946428571428,4052.6,636.3888392857143,87.77946428571428,4159.6,636.3888392857143,87.77946428571428,4262.8,636.3888392857143,87.77946428571428,4363.7,636.3888392857143,87.77946428571428,4471.7,636.3888392857143,87.77946428571428,4581.7,636.3888392857143,87.77946428571428,4682.5,636.3888392857143,87.77946428571428,4784.8,636.3888392857143,87.77946428571428,4886.2,636.3888392857143,87.77946428571428,4993]","[339.3,339.4,1000,0,-660.6,""error"",""-"",""-"",""no_move"",4655.3,4315.7,2878.5,1342,434.8,""smooth"",""right"",""right"",""good_move"",7537,2880.7,2146.9,4656.3,733.8,""oops"",""right"",""up"",""good_move"",11617.2,4079.2,3727.7,7538,351.5,""smooth"",""right"",""right"",""good_move"",14384.1,2766.3,2329.7,11617.8,436.6,""smooth"",""right"",""right"",""good_move"",18196.8,3812.5,2815,14384.3,997.5,""while_blue"",""up"",""up"",""good_move"",22731.4,4533.7,2734.8,18197.7,1798.9,""smooth"",""up"",""up"",""good_move""]","",""
"4272","","<div style=""width:500px;"">
  <p>What determined the result of this run?</p>
  </div>","70","html-slider-response","67","1052956","0.0-10.0-1.4","206","1","2025-07-09 09:19:46","7701e855f2ef39aa3fd6c71abdc6918a","223.29.142.168","Mozilla/5.0 (Windows NT 10.0; Win64; x64) AppleWebKit/537.36 (KHTML, like Gecko) Chrome/137.0.0.0 Safari/537.36","WebKit","Chrome","137.0.0.0","Windows","10.0","https://app.prolific.com/","en-US,en;q=0.9","67ad3b723dcec072cfdf7815","686d226cabeef709c732f8e1","686e31460a8b812175e3f18e","67ad3b723dcec072cfdf7815","2025-07-09T09:37:25.065Z","","","","","","AttribQ","","","","","","","","","","","","","","","","","","","","","","","","","","","","","","","","","","","","","","50"
"4242","","<div style=""width:500px;"">
  <p>How much control did you have over the ball?</p>
  </div>","67","html-slider-response","68","1057200","0.0-10.0-2.4","206","1","2025-07-09 09:19:46","7701e855f2ef39aa3fd6c71abdc6918a","223.29.142.168","Mozilla/5.0 (Windows NT 10.0; Win64; x64) AppleWebKit/537.36 (KHTML, like Gecko) Chrome/137.0.0.0 Safari/537.36","WebKit","Chrome","137.0.0.0","Windows","10.0","https://app.prolific.com/","en-US,en;q=0.9","67ad3b723dcec072cfdf7815","686d226cabeef709c732f8e1","686e31460a8b812175e3f18e","67ad3b723dcec072cfdf7815","2025-07-09T09:37:29.309Z","","","","","","ControlQ","","","","","","","","","","","","","","","","","","","","","","","","","","","","","","","","","","","","","","50"
"3228","","<div style=""width:500px;"">
  <p>How would you describe your current emotional state?</p>
  </div>","75","html-slider-response","69","1060431","0.0-10.0-3.4","206","1","2025-07-09 09:19:46","7701e855f2ef39aa3fd6c71abdc6918a","223.29.142.168","Mozilla/5.0 (Windows NT 10.0; Win64; x64) AppleWebKit/537.36 (KHTML, like Gecko) Chrome/137.0.0.0 Safari/537.36","WebKit","Chrome","137.0.0.0","Windows","10.0","https://app.prolific.com/","en-US,en;q=0.9","67ad3b723dcec072cfdf7815","686d226cabeef709c732f8e1","686e31460a8b812175e3f18e","67ad3b723dcec072cfdf7815","2025-07-09T09:37:32.540Z","","","","","","StressQ","","","","","","","","","","","","","","","","","","","","","","","","","","","","","","","","","","","","","","50"
"2212","","<div style=""width:500px;"">
  <p>What best describes how you currently feel?</p>
  </div>","57","html-slider-response","70","1062644","0.0-10.0-4.4","206","1","2025-07-09 09:19:46","7701e855f2ef39aa3fd6c71abdc6918a","223.29.142.168","Mozilla/5.0 (Windows NT 10.0; Win64; x64) AppleWebKit/537.36 (KHTML, like Gecko) Chrome/137.0.0.0 Safari/537.36","WebKit","Chrome","137.0.0.0","Windows","10.0","https://app.prolific.com/","en-US,en;q=0.9","67ad3b723dcec072cfdf7815","686d226cabeef709c732f8e1","686e31460a8b812175e3f18e","67ad3b723dcec072cfdf7815","2025-07-09T09:37:34.753Z","","","","","","MotivationQ","","","","","","","","","","","","","","","","","","","","","","","","","","","","","","","","","","","","","","50"
"","","","","ctl-task-cpt","71","1103735","0.0-10.0-0.5","206","1","2025-07-09 09:19:46","7701e855f2ef39aa3fd6c71abdc6918a","223.29.142.168","Mozilla/5.0 (Windows NT 10.0; Win64; x64) AppleWebKit/537.36 (KHTML, like Gecko) Chrome/137.0.0.0 Safari/537.36","WebKit","Chrome","137.0.0.0","Windows","10.0","https://app.prolific.com/","en-US,en;q=0.9","67ad3b723dcec072cfdf7815","686d226cabeef709c732f8e1","686e31460a8b812175e3f18e","67ad3b723dcec072cfdf7815","2025-07-09T09:38:15.844Z","","","","","","","","","","","","","","","","win-only","0","g1:NW,g2:SE","0.5","6","0","1069752","2224.6","7230.7","38071.6","1","4","8","6","2","-8","-13","0","2","0","1945.1","3000","-2645","[""down"",""right""]","{""num_key_presses"":14,""num_perfect"":4,""num_errors"":5,""num_randdir"":3,""num_randdir_good_moves"":1,""num_whilered"":2,""num_whileblue"":1,""num_blue"":1,""num_good_moves"":5}","[352.3888392857143,357.7794642857143,0.3,352.3888392857143,357.7794642857143,100.8,352.3888392857143,357.7794642857143,201.4,352.3888392857143,357.7794642857143,302.8,352.3888392857143,357.7794642857143,418.7,352.3888392857143,357.7794642857143,523.3,352.3888392857143,357.7794642857143,631.1,352.3888392857143,357.7794642857143,737.4,352.3888392857143,357.7794642857143,843.1,352.3888392857143,357.7794642857143,944.3,352.3888392857143,357.7794642857143,1050.4,352.3888392857143,357.7794642857143,1162.8,597.3888392857143,500.7794642857143,1273.5,627.3888392857143,550.7794642857143,1375.9,635.3888392857143,588.7794642857143,1483,638.3888392857143,606.7794642857143,1584.3,640.3888392857143,612.7794642857143,1687,641.3888392857143,617.7794642857143,1788.3,641.3888392857143,617.7794642857143,1900.2,641.3888392857143,617.7794642857143,2001.4,641.3888392857143,617.7794642857143,2112.7,641.3888392857143,617.7794642857143,2216,641.3888392857143,617.7794642857143,2324.8,641.3888392857143,617.7794642857143,2427.9,641.3888392857143,617.7794642857143,2528.2,641.3888392857143,617.7794642857143,2630,641.3888392857143,617.7794642857143,2731.3,641.3888392857143,617.7794642857143,2831.3,641.3888392857143,617.7794642857143,2933.2,641.3888392857143,617.7794642857143,3041.8,641.3888392857143,617.7794642857143,3152.2,641.3888392857143,617.7794642857143,3258.6,641.3888392857143,617.7794642857143,3362.3,641.3888392857143,617.7794642857143,3463.4,641.3888392857143,617.7794642857143,3563.8,641.3888392857143,617.7794642857143,3677.1,641.3888392857143,617.7794642857143,3779.5,641.3888392857143,617.7794642857143,3883.4,641.3888392857143,617.7794642857143,3989.2,641.3888392857143,617.7794642857143,4094.3,641.3888392857143,617.7794642857143,4199.1,641.3888392857143,617.7794642857143,4309.6,641.3888392857143,617.7794642857143,4411.8,641.3888392857143,617.7794642857143,4515.9,641.3888392857143,617.7794642857143,4616.8,641.3888392857143,617.7794642857143,4717.3,641.3888392857143,617.7794642857143,4820.4,641.3888392857143,617.7794642857143,4924]","[1475.4,1475.5,1000,0,475.5,""smooth"",""down"",""down"",""good_move"",4003.6,2527.3,2157.4,1476.3,369.9,""smooth"",""down"",""down"",""good_move"",6866,2862.2,2376.8,4003.8,485.4,""oops"",""right"",""right"",""good_move"",9366,2499.1,1990.6,6866.9,508.5,""oops"",""right"",""left"",""bad_move"",12707.5,3341.1,2108.3,9366.5,1232.7,""smooth"",""down"",""down"",""good_move"",15989,3281,2739.6,12708,541.4,""smooth"",""right"",""right"",""good_move"",18774.6,2785.4,2431.5,15989.2,353.9,""while_blue"",""right"",""up"",""bad_move"",19850.8,1075.5,1803.6,18775.3,-728.1,""error"",""-"",""-"",""no_move"",20082.3,230.8,1803.6,18775.3,-496.5,""while_red"",""-"",""-"",""no_move"",23749.6,3898.1,2546.9,20852,350.7,""oops"",""right"",""left"",""bad_move"",24430.3,680.3,2809,23750,-2128.7,""error"",""-"",""-"",""no_move"",25127.2,696.5,2809,23750,-1431.8,""while_red"",""-"",""-"",""no_move"",26113.4,1682.7,2270.9,25435.8,-1593.3,""error"",""-"",""-"",""no_move"",27549.9,1436.2,2742.2,27115.3,-2307.6,""error"",""-"",""-"",""no_move""]","",""
"3637","","<div style=""width:500px;"">
  <p>What determined the result of this run?</p>
  </div>","77","html-slider-response","72","1107374","0.0-10.0-1.5","206","1","2025-07-09 09:19:46","7701e855f2ef39aa3fd6c71abdc6918a","223.29.142.168","Mozilla/5.0 (Windows NT 10.0; Win64; x64) AppleWebKit/537.36 (KHTML, like Gecko) Chrome/137.0.0.0 Safari/537.36","WebKit","Chrome","137.0.0.0","Windows","10.0","https://app.prolific.com/","en-US,en;q=0.9","67ad3b723dcec072cfdf7815","686d226cabeef709c732f8e1","686e31460a8b812175e3f18e","67ad3b723dcec072cfdf7815","2025-07-09T09:38:19.483Z","","","","","","AttribQ","","","","","","","","","","","","","","","","","","","","","","","","","","","","","","","","","","","","","","50"
"2687","","<div style=""width:500px;"">
  <p>How much control did you have over the ball?</p>
  </div>","76","html-slider-response","73","1110062","0.0-10.0-2.5","206","1","2025-07-09 09:19:46","7701e855f2ef39aa3fd6c71abdc6918a","223.29.142.168","Mozilla/5.0 (Windows NT 10.0; Win64; x64) AppleWebKit/537.36 (KHTML, like Gecko) Chrome/137.0.0.0 Safari/537.36","WebKit","Chrome","137.0.0.0","Windows","10.0","https://app.prolific.com/","en-US,en;q=0.9","67ad3b723dcec072cfdf7815","686d226cabeef709c732f8e1","686e31460a8b812175e3f18e","67ad3b723dcec072cfdf7815","2025-07-09T09:38:22.171Z","","","","","","ControlQ","","","","","","","","","","","","","","","","","","","","","","","","","","","","","","","","","","","","","","50"
"4484","","<div style=""width:500px;"">
  <p>How would you describe your current emotional state?</p>
  </div>","38","html-slider-response","74","1114548","0.0-10.0-3.5","206","1","2025-07-09 09:19:46","7701e855f2ef39aa3fd6c71abdc6918a","223.29.142.168","Mozilla/5.0 (Windows NT 10.0; Win64; x64) AppleWebKit/537.36 (KHTML, like Gecko) Chrome/137.0.0.0 Safari/537.36","WebKit","Chrome","137.0.0.0","Windows","10.0","https://app.prolific.com/","en-US,en;q=0.9","67ad3b723dcec072cfdf7815","686d226cabeef709c732f8e1","686e31460a8b812175e3f18e","67ad3b723dcec072cfdf7815","2025-07-09T09:38:26.657Z","","","","","","StressQ","","","","","","","","","","","","","","","","","","","","","","","","","","","","","","","","","","","","","","50"
"2252","","<div style=""width:500px;"">
  <p>What best describes how you currently feel?</p>
  </div>","56","html-slider-response","75","1116801","0.0-10.0-4.5","206","1","2025-07-09 09:19:46","7701e855f2ef39aa3fd6c71abdc6918a","223.29.142.168","Mozilla/5.0 (Windows NT 10.0; Win64; x64) AppleWebKit/537.36 (KHTML, like Gecko) Chrome/137.0.0.0 Safari/537.36","WebKit","Chrome","137.0.0.0","Windows","10.0","https://app.prolific.com/","en-US,en;q=0.9","67ad3b723dcec072cfdf7815","686d226cabeef709c732f8e1","686e31460a8b812175e3f18e","67ad3b723dcec072cfdf7815","2025-07-09T09:38:28.911Z","","","","","","MotivationQ","","","","","","","","","","","","","","","","","","","","","","","","","","","","","","","","","","","","","","50"
"","","","","ctl-task-cpt","76","1162242","0.0-10.0-0.6","206","1","2025-07-09 09:19:46","7701e855f2ef39aa3fd6c71abdc6918a","223.29.142.168","Mozilla/5.0 (Windows NT 10.0; Win64; x64) AppleWebKit/537.36 (KHTML, like Gecko) Chrome/137.0.0.0 Safari/537.36","WebKit","Chrome","137.0.0.0","Windows","10.0","https://app.prolific.com/","en-US,en;q=0.9","67ad3b723dcec072cfdf7815","686d226cabeef709c732f8e1","686e31460a8b812175e3f18e","67ad3b723dcec072cfdf7815","2025-07-09T09:39:14.351Z","","","","","","","","","","","","","","","","win-only","3","g1:SW,g2:NE","0.4","7","0","1123908.5","2819.5","7822.9","42423","1","4","8","6","2","-8","-13","0","0","0","1295.7","3000","-1205","[""up"",""right""]","{""num_key_presses"":11,""num_perfect"":2,""num_errors"":5,""num_randdir"":4,""num_randdir_good_moves"":2,""num_whilered"":0,""num_whileblue"":2,""num_blue"":2,""num_good_moves"":4}","[361.3888392857143,352.7794642857143,0.3,361.3888392857143,352.7794642857143,101.5,361.3888392857143,352.7794642857143,202.4,361.3888392857143,352.7794642857143,304.6,361.3888392857143,352.7794642857143,409,361.3888392857143,352.7794642857143,513.6,361.3888392857143,352.7794642857143,615.6,637.3888392857143,119.77946428571428,720.6,669.3888392857143,75.77946428571428,823.5,669.3888392857143,75.77946428571428,930.4,669.3888392857143,73.77946428571428,1032.6,668.3888392857143,70.77946428571428,1136.2,668.3888392857143,70.77946428571428,1238.2,668.3888392857143,70.77946428571428,1350.6,668.3888392857143,70.77946428571428,1454.1,668.3888392857143,70.77946428571428,1554.4,668.3888392857143,70.77946428571428,1664,668.3888392857143,70.77946428571428,1766.5,668.3888392857143,70.77946428571428,1868.4,668.3888392857143,70.77946428571428,1970.7,668.3888392857143,70.77946428571428,2072.8,668.3888392857143,70.77946428571428,2175.6,668.3888392857143,70.77946428571428,2283.5,668.3888392857143,70.77946428571428,2400.5,668.3888392857143,70.77946428571428,2506.3,668.3888392857143,70.77946428571428,2613.2,668.3888392857143,70.77946428571428,2715.2,668.3888392857143,70.77946428571428,2820,668.3888392857143,70.77946428571428,2924.5,668.3888392857143,70.77946428571428,3030.2,668.3888392857143,70.77946428571428,3142.6,668.3888392857143,70.77946428571428,3244.8,668.3888392857143,70.77946428571428,3346.9,668.3888392857143,70.77946428571428,3450.1,668.3888392857143,70.77946428571428,3552.5,668.3888392857143,70.77946428571428,3659.1,668.3888392857143,70.77946428571428,3764.9,668.3888392857143,70.77946428571428,3867.6,668.3888392857143,70.77946428571428,3968.1,668.3888392857143,70.77946428571428,4069.2,668.3888392857143,70.77946428571428,4179.1,668.3888392857143,70.77946428571428,4280.6,668.3888392857143,70.77946428571428,4382.1,668.3888392857143,70.77946428571428,4482.6,668.3888392857143,70.77946428571428,4582.7,668.3888392857143,70.77946428571428,4683.5,668.3888392857143,70.77946428571428,4792.1,668.3888392857143,70.77946428571428,4892.4,668.3888392857143,70.77946428571428,4998.1]","[2875.5,2875.5,1000,0,1875.5,""oops"",""right"",""left"",""bad_move"",5599.3,2722.7,2180.1,2876.6,542.6,""oops"",""up"",""up"",""good_move"",9282.7,3682.8,3232.3,5600,450.5,""smooth"",""up"",""up"",""good_move"",11883.7,2600.4,2022,9283.3,578.4,""oops"",""up"",""right"",""good_move"",14663.2,2779.1,2781.7,11884.1,-2.6,""error"",""-"",""-"",""no_move"",18898.5,4234.6,2526.7,15670.9,700.9,""while_blue"",""up"",""right"",""good_move"",21970.2,3071.2,2638.2,18899.1,433,""oops"",""up"",""down"",""bad_move"",25142.6,3171.5,2569,21971.1,602.5,""smooth"",""left"",""left"",""bad_move"",25807.5,662.8,3026.6,25144.8,-2363.8,""error"",""-"",""-"",""no_move"",29422.5,3614.6,2174.4,26819.9,428.2,""while_blue"",""right"",""down"",""bad_move"",31293,1869.3,2941.3,29423.8,-1072,""error"",""-"",""-"",""no_move""]","",""
"3936","","<div style=""width:500px;"">
  <p>What determined the result of this run?</p>
  </div>","68","html-slider-response","77","1166180","0.0-10.0-1.6","206","1","2025-07-09 09:19:46","7701e855f2ef39aa3fd6c71abdc6918a","223.29.142.168","Mozilla/5.0 (Windows NT 10.0; Win64; x64) AppleWebKit/537.36 (KHTML, like Gecko) Chrome/137.0.0.0 Safari/537.36","WebKit","Chrome","137.0.0.0","Windows","10.0","https://app.prolific.com/","en-US,en;q=0.9","67ad3b723dcec072cfdf7815","686d226cabeef709c732f8e1","686e31460a8b812175e3f18e","67ad3b723dcec072cfdf7815","2025-07-09T09:39:18.290Z","","","","","","AttribQ","","","","","","","","","","","","","","","","","","","","","","","","","","","","","","","","","","","","","","50"
"5842","","<div style=""width:500px;"">
  <p>How much control did you have over the ball?</p>
  </div>","68","html-slider-response","78","1172025","0.0-10.0-2.6","206","1","2025-07-09 09:19:46","7701e855f2ef39aa3fd6c71abdc6918a","223.29.142.168","Mozilla/5.0 (Windows NT 10.0; Win64; x64) AppleWebKit/537.36 (KHTML, like Gecko) Chrome/137.0.0.0 Safari/537.36","WebKit","Chrome","137.0.0.0","Windows","10.0","https://app.prolific.com/","en-US,en;q=0.9","67ad3b723dcec072cfdf7815","686d226cabeef709c732f8e1","686e31460a8b812175e3f18e","67ad3b723dcec072cfdf7815","2025-07-09T09:39:24.134Z","","","","","","ControlQ","","","","","","","","","","","","","","","","","","","","","","","","","","","","","","","","","","","","","","50"
"2760","","<div style=""width:500px;"">
  <p>How would you describe your current emotional state?</p>
  </div>","68","html-slider-response","79","1174789","0.0-10.0-3.6","206","1","2025-07-09 09:19:46","7701e855f2ef39aa3fd6c71abdc6918a","223.29.142.168","Mozilla/5.0 (Windows NT 10.0; Win64; x64) AppleWebKit/537.36 (KHTML, like Gecko) Chrome/137.0.0.0 Safari/537.36","WebKit","Chrome","137.0.0.0","Windows","10.0","https://app.prolific.com/","en-US,en;q=0.9","67ad3b723dcec072cfdf7815","686d226cabeef709c732f8e1","686e31460a8b812175e3f18e","67ad3b723dcec072cfdf7815","2025-07-09T09:39:26.898Z","","","","","","StressQ","","","","","","","","","","","","","","","","","","","","","","","","","","","","","","","","","","","","","","50"
"1287","","<div style=""width:500px;"">
  <p>What best describes how you currently feel?</p>
  </div>","70","html-slider-response","80","1176078","0.0-10.0-4.6","206","1","2025-07-09 09:19:46","7701e855f2ef39aa3fd6c71abdc6918a","223.29.142.168","Mozilla/5.0 (Windows NT 10.0; Win64; x64) AppleWebKit/537.36 (KHTML, like Gecko) Chrome/137.0.0.0 Safari/537.36","WebKit","Chrome","137.0.0.0","Windows","10.0","https://app.prolific.com/","en-US,en;q=0.9","67ad3b723dcec072cfdf7815","686d226cabeef709c732f8e1","686e31460a8b812175e3f18e","67ad3b723dcec072cfdf7815","2025-07-09T09:39:28.187Z","","","","","","MotivationQ","","","","","","","","","","","","","","","","","","","","","","","","","","","","","","","","","","","","","","50"
"","","","","ctl-task-cpt","81","1240224","0.0-10.0-0.7","206","1","2025-07-09 09:19:46","7701e855f2ef39aa3fd6c71abdc6918a","223.29.142.168","Mozilla/5.0 (Windows NT 10.0; Win64; x64) AppleWebKit/537.36 (KHTML, like Gecko) Chrome/137.0.0.0 Safari/537.36","WebKit","Chrome","137.0.0.0","Windows","10.0","https://app.prolific.com/","en-US,en;q=0.9","67ad3b723dcec072cfdf7815","686d226cabeef709c732f8e1","686e31460a8b812175e3f18e","67ad3b723dcec072cfdf7815","2025-07-09T09:40:32.333Z","","","","","","","","","","","","","","","","win-only","1","g1:NE,g2:SW","0.3","8","0","1183184.4","2764.3","7770.4","61129.6","1","4","4","6","2","-4","-14","0","0","0","1316.4","3000","-1995","[""down"",""left""]","{""num_key_presses"":17,""num_perfect"":2,""num_errors"":10,""num_randdir"":5,""num_randdir_good_moves"":2,""num_whilered"":0,""num_whileblue"":2,""num_blue"":2,""num_good_moves"":3}","[348.3888392857143,347.7794642857143,0.5,348.3888392857143,347.7794642857143,100.8,348.3888392857143,347.7794642857143,202.3,348.3888392857143,347.7794642857143,310.5,348.3888392857143,347.7794642857143,411.8,348.3888392857143,347.7794642857143,514.9,348.3888392857143,347.7794642857143,618.2,348.3888392857143,347.7794642857143,726.6,327.3888392857143,463.7794642857143,830.3,154.38883928571428,625.7794642857143,933,86.38883928571428,646.7794642857143,1034.3,87.38883928571428,641.7794642857143,1140.5,87.38883928571428,641.7794642857143,1247,87.38883928571428,641.7794642857143,1348,87.38883928571428,641.7794642857143,1448,87.38883928571428,641.7794642857143,1564.3,87.38883928571428,641.7794642857143,1675.3,87.38883928571428,641.7794642857143,1779.6,87.38883928571428,641.7794642857143,1880.3,87.38883928571428,641.7794642857143,1982.8,87.38883928571428,641.7794642857143,2083.7,87.38883928571428,641.7794642857143,2190.3,87.38883928571428,641.7794642857143,2295.7,87.38883928571428,641.7794642857143,2399.7,87.38883928571428,641.7794642857143,2504.3,87.38883928571428,641.7794642857143,2605.4,87.38883928571428,641.7794642857143,2715.4,87.38883928571428,641.7794642857143,2817.5,87.38883928571428,641.7794642857143,2923.1,87.38883928571428,641.7794642857143,3034,87.38883928571428,641.7794642857143,3137.1,87.38883928571428,641.7794642857143,3248.4,87.38883928571428,641.7794642857143,3351.2,87.38883928571428,641.7794642857143,3455.8,87.38883928571428,641.7794642857143,3556.6,87.38883928571428,641.7794642857143,3665.3,87.38883928571428,641.7794642857143,3770.1,87.38883928571428,641.7794642857143,3873.8,87.38883928571428,641.7794642857143,3977.8,87.38883928571428,641.7794642857143,4081.8,87.38883928571428,641.7794642857143,4185.2,87.38883928571428,641.7794642857143,4292.7,87.38883928571428,641.7794642857143,4397.3,87.38883928571428,641.7794642857143,4499.9,87.38883928571428,641.7794642857143,4607.3,87.38883928571428,641.7794642857143,4712.4,87.38883928571428,641.7794642857143,4815.6,87.38883928571428,641.7794642857143,4916.5]","[340.5,340.5,1000,0,-659.5,""error"",""-"",""-"",""no_move"",3264.7,2923.8,1513.8,1350.8,400.1,""oops"",""down"",""up"",""bad_move"",6170.6,2904.6,2515.8,3266,388.8,""while_blue"",""left"",""up"",""bad_move"",9737.3,3566.5,2467.2,6170.8,1099.3,""smooth"",""right"",""right"",""bad_move"",12554.6,2816.3,2315.5,9738.4,500.8,""oops"",""right"",""left"",""good_move"",17740.2,5184.7,2335.5,12555.5,2849.2,""oops"",""right"",""right"",""bad_move"",19289.2,1548,2134.4,17741.3,-586.5,""error"",""-"",""-"",""no_move"",20423.3,1133.9,2209.2,20293.3,-2079.1,""error"",""-"",""-"",""no_move"",22696.3,2272.5,2640.3,21443.7,-1387.6,""error"",""-"",""-"",""no_move"",28380.8,5684.1,3285,23709.9,1386,""oops"",""down"",""right"",""bad_move"",32456.7,4075,1953.7,28381.7,2121.3,""oops"",""down"",""left"",""good_move"",34639.9,2182.8,2765.2,32457.1,-582.4,""error"",""-"",""-"",""no_move"",37427.1,2786.9,2240.8,35650.6,-464.3,""error"",""-"",""-"",""no_move"",42015.7,4588.3,1941.3,38434.3,1640.1,""smooth"",""down"",""down"",""good_move"",44374.9,2358.5,1608.5,42016.4,750,""while_blue"",""down"",""up"",""bad_move"",45470.1,1094.7,2192.3,44375.4,-1097.6,""error"",""-"",""-"",""no_move"",48442.9,2972.4,2500,46475.7,-532.7,""error"",""-"",""-"",""no_move""]","",""
"3383","","<div style=""width:500px;"">
  <p>What determined the result of this run?</p>
  </div>","68","html-slider-response","82","1243608","0.0-10.0-1.7","206","1","2025-07-09 09:19:46","7701e855f2ef39aa3fd6c71abdc6918a","223.29.142.168","Mozilla/5.0 (Windows NT 10.0; Win64; x64) AppleWebKit/537.36 (KHTML, like Gecko) Chrome/137.0.0.0 Safari/537.36","WebKit","Chrome","137.0.0.0","Windows","10.0","https://app.prolific.com/","en-US,en;q=0.9","67ad3b723dcec072cfdf7815","686d226cabeef709c732f8e1","686e31460a8b812175e3f18e","67ad3b723dcec072cfdf7815","2025-07-09T09:40:35.717Z","","","","","","AttribQ","","","","","","","","","","","","","","","","","","","","","","","","","","","","","","","","","","","","","","50"
"3345","","<div style=""width:500px;"">
  <p>How much control did you have over the ball?</p>
  </div>","74","html-slider-response","83","1246955","0.0-10.0-2.7","206","1","2025-07-09 09:19:46","7701e855f2ef39aa3fd6c71abdc6918a","223.29.142.168","Mozilla/5.0 (Windows NT 10.0; Win64; x64) AppleWebKit/537.36 (KHTML, like Gecko) Chrome/137.0.0.0 Safari/537.36","WebKit","Chrome","137.0.0.0","Windows","10.0","https://app.prolific.com/","en-US,en;q=0.9","67ad3b723dcec072cfdf7815","686d226cabeef709c732f8e1","686e31460a8b812175e3f18e","67ad3b723dcec072cfdf7815","2025-07-09T09:40:39.064Z","","","","","","ControlQ","","","","","","","","","","","","","","","","","","","","","","","","","","","","","","","","","","","","","","50"
"1627","","<div style=""width:500px;"">
  <p>How would you describe your current emotional state?</p>
  </div>","79","html-slider-response","84","1248583","0.0-10.0-3.7","206","1","2025-07-09 09:19:46","7701e855f2ef39aa3fd6c71abdc6918a","223.29.142.168","Mozilla/5.0 (Windows NT 10.0; Win64; x64) AppleWebKit/537.36 (KHTML, like Gecko) Chrome/137.0.0.0 Safari/537.36","WebKit","Chrome","137.0.0.0","Windows","10.0","https://app.prolific.com/","en-US,en;q=0.9","67ad3b723dcec072cfdf7815","686d226cabeef709c732f8e1","686e31460a8b812175e3f18e","67ad3b723dcec072cfdf7815","2025-07-09T09:40:40.692Z","","","","","","StressQ","","","","","","","","","","","","","","","","","","","","","","","","","","","","","","","","","","","","","","50"
"2132","","<div style=""width:500px;"">
  <p>What best describes how you currently feel?</p>
  </div>","61","html-slider-response","85","1250717","0.0-10.0-4.7","206","1","2025-07-09 09:19:46","7701e855f2ef39aa3fd6c71abdc6918a","223.29.142.168","Mozilla/5.0 (Windows NT 10.0; Win64; x64) AppleWebKit/537.36 (KHTML, like Gecko) Chrome/137.0.0.0 Safari/537.36","WebKit","Chrome","137.0.0.0","Windows","10.0","https://app.prolific.com/","en-US,en;q=0.9","67ad3b723dcec072cfdf7815","686d226cabeef709c732f8e1","686e31460a8b812175e3f18e","67ad3b723dcec072cfdf7815","2025-07-09T09:40:42.826Z","","","","","","MotivationQ","","","","","","","","","","","","","","","","","","","","","","","","","","","","","","","","","","","","","","50"
