"rt","response_timestamp","stimulus","response","trial_type","trial_index","time_elapsed","internal_node_id","run_id","condition","recorded_at","source_code_version","ip","user_agent","device","browser","browser_version","platform","platform_version","referer","accept_language","PROLIFIC_PID","STUDY_ID","SESSION_ID","prolific_id","realtime","view_history","question_order","consent","success","question_id","eventType","responses","item_order","radio_event_ids","radio_event_times","key_event_times","mouse_event_times","straightlining","zigzagging","honeypot","which_type","canvas_config","goals_layout","control_level","trial_number","tutorial_trial_number","trial_start_time","phase1_start_time","phase2_start_time","phase3_start_time","goal_1_value","goal_1_distance","goal_2_value","goal_2_distance","goal_selected","outcome","outcome_total","participant_final_score","participant_initial_score","participant_final_score_prop","goal_choice_rt","allocated_time","allocated_time_remaining","goal_direction","counts","mouse_movements","key_presses","correct","slider_start"
"54002","1752052030471","<p style='font-size:40px;line-height:1.25'><strong>Welcome to the experiment!</strong></p><p style='font-size:1.1em;line-height:1.25'>Thank you for your interest in our experiment! Before you begin, it is important that we obtain your informed consent to participate in the study.</p><p style='font-size:1.1em;line-height:1.25'>On the next screen will be an <strong>information sheet</strong> for you to read. To participate in the study we need you to read this information sheet and the following consent form carefully. If you agree with all the statements, please click the <strong>I agree</strong> button.</p><p style='font-size:1.1em;line-height:1.25'>Press <strong>Next</strong> to read the information sheet.</p>","0","custom-html-button-response","0","54004","0.0-0.0","51","1","2025-07-09 09:07:15","7701e855f2ef39aa3fd6c71abdc6918a","216.120.189.162","Mozilla/5.0 (Windows NT 10.0; Win64; x64) AppleWebKit/537.36 (KHTML, like Gecko) Chrome/138.0.0.0 Safari/537.36","WebKit","Chrome","138.0.0.0","Windows","10.0","https://app.prolific.com/","en-GB,en-US;q=0.9,en;q=0.8","667b366d0d0943e90dbee7d1","686d226cabeef709c732f8e1","686e31390e6ceb1995ece521","667b366d0d0943e90dbee7d1","2025-07-09T09:07:10.472Z","","","","","","","","","","","","","","","","","","","","","","","","","","","","","","","","","","","","","","","","","","","",""
"13833","","","","instructions","1","67838","0.0-1.0","51","1","2025-07-09 09:07:15","7701e855f2ef39aa3fd6c71abdc6918a","216.120.189.162","Mozilla/5.0 (Windows NT 10.0; Win64; x64) AppleWebKit/537.36 (KHTML, like Gecko) Chrome/138.0.0.0 Safari/537.36","WebKit","Chrome","138.0.0.0","Windows","10.0","https://app.prolific.com/","en-GB,en-US;q=0.9,en;q=0.8","667b366d0d0943e90dbee7d1","686d226cabeef709c732f8e1","686e31390e6ceb1995ece521","667b366d0d0943e90dbee7d1","","[{""page_index"":0,""viewing_time"":7202},{""page_index"":1,""viewing_time"":6630}]","","","","","","","","","","","","","","","","","","","","","","","","","","","","","","","","","","","","","","","","","","",""
"16852","","","{""Q0"":"""",""Q1"":"""",""Q2"":"""",""Q3"":"""",""Q4"":"""",""Q5"":"""",""Q6"":""I agree""}","survey-multi-choice","2","84693","0.0-2.0","51","1","2025-07-09 09:07:15","7701e855f2ef39aa3fd6c71abdc6918a","216.120.189.162","Mozilla/5.0 (Windows NT 10.0; Win64; x64) AppleWebKit/537.36 (KHTML, like Gecko) Chrome/138.0.0.0 Safari/537.36","WebKit","Chrome","138.0.0.0","Windows","10.0","https://app.prolific.com/","en-GB,en-US;q=0.9,en;q=0.8","667b366d0d0943e90dbee7d1","686d226cabeef709c732f8e1","686e31390e6ceb1995ece521","667b366d0d0943e90dbee7d1","","","[0,1,2,3,4,5,6]","true","","","","","","","","","","","","","","","","","","","","","","","","","","","","","","","","","","","","","","","","",""
"61257","","","","fullscreen","3","146965","0.0-4.0","51","1","2025-07-09 09:07:15","7701e855f2ef39aa3fd6c71abdc6918a","216.120.189.162","Mozilla/5.0 (Windows NT 10.0; Win64; x64) AppleWebKit/537.36 (KHTML, like Gecko) Chrome/138.0.0.0 Safari/537.36","WebKit","Chrome","138.0.0.0","Windows","10.0","https://app.prolific.com/","en-GB,en-US;q=0.9,en;q=0.8","667b366d0d0943e90dbee7d1","686d226cabeef709c732f8e1","686e31390e6ceb1995ece521","667b366d0d0943e90dbee7d1","","","","","true","","","","","","","","","","","","","","","","","","","","","","","","","","","","","","","","","","","","","","","",""
"8578","1752052132012"," <p style='font-size:1.1em;line-height:1.25'>Thank you for completing the consent form and closing all other tabs.</p><p style='font-size:1.1em;line-height:1.25'>We will now invite you to fill in some demographic information and questionnaires, before starting the game.<br>This will take about 5 minutes.<br></p><p style='font-size:1.1em;line-height:1.25'>Press the <strong>Next</strong> button to continue.</p>","0","custom-html-button-response","4","155546","0.0-5.0","51","1","2025-07-09 09:07:15","7701e855f2ef39aa3fd6c71abdc6918a","216.120.189.162","Mozilla/5.0 (Windows NT 10.0; Win64; x64) AppleWebKit/537.36 (KHTML, like Gecko) Chrome/138.0.0.0 Safari/537.36","WebKit","Chrome","138.0.0.0","Windows","10.0","https://app.prolific.com/","en-GB,en-US;q=0.9,en;q=0.8","667b366d0d0943e90dbee7d1","686d226cabeef709c732f8e1","686e31390e6ceb1995ece521","667b366d0d0943e90dbee7d1","2025-07-09T09:08:52.013Z","","","","","","","","","","","","","","","","","","","","","","","","","","","","","","","","","","","","","","","","","","","",""
"3728","","","{""age"":""29""}","survey-text","5","159282","0.0-6.0-0.0","51","1","2025-07-09 09:07:15","7701e855f2ef39aa3fd6c71abdc6918a","216.120.189.162","Mozilla/5.0 (Windows NT 10.0; Win64; x64) AppleWebKit/537.36 (KHTML, like Gecko) Chrome/138.0.0.0 Safari/537.36","WebKit","Chrome","138.0.0.0","Windows","10.0","https://app.prolific.com/","en-GB,en-US;q=0.9,en;q=0.8","667b366d0d0943e90dbee7d1","686d226cabeef709c732f8e1","686e31390e6ceb1995ece521","667b366d0d0943e90dbee7d1","","","","","","0","demographics","","","","","","","","","","","","","","","","","","","","","","","","","","","","","","","","","","","","","",""
"2580","","","{""gender_identity"":""female/woman""}","survey-multi-choice","6","161865","0.0-6.0-1.0","51","1","2025-07-09 09:07:15","7701e855f2ef39aa3fd6c71abdc6918a","216.120.189.162","Mozilla/5.0 (Windows NT 10.0; Win64; x64) AppleWebKit/537.36 (KHTML, like Gecko) Chrome/138.0.0.0 Safari/537.36","WebKit","Chrome","138.0.0.0","Windows","10.0","https://app.prolific.com/","en-GB,en-US;q=0.9,en;q=0.8","667b366d0d0943e90dbee7d1","686d226cabeef709c732f8e1","686e31390e6ceb1995ece521","667b366d0d0943e90dbee7d1","","","[0]","","","1","demographics","","","","","","","","","","","","","","","","","","","","","","","","","","","","","","","","","","","","","",""
"2999","","","{""assigned_sex"":""female""}","survey-multi-choice","7","164867","0.0-6.0-2.0","51","1","2025-07-09 09:07:15","7701e855f2ef39aa3fd6c71abdc6918a","216.120.189.162","Mozilla/5.0 (Windows NT 10.0; Win64; x64) AppleWebKit/537.36 (KHTML, like Gecko) Chrome/138.0.0.0 Safari/537.36","WebKit","Chrome","138.0.0.0","Windows","10.0","https://app.prolific.com/","en-GB,en-US;q=0.9,en;q=0.8","667b366d0d0943e90dbee7d1","686d226cabeef709c732f8e1","686e31390e6ceb1995ece521","667b366d0d0943e90dbee7d1","","","[0]","","","2","demographics","","","","","","","","","","","","","","","","","","","","","","","","","","","","","","","","","","","","","",""
"6526","","","{""menstrual_cycle"":""Yes""}","survey-multi-choice","8","171395","0.0-6.0-3.0","51","1","2025-07-09 09:07:15","7701e855f2ef39aa3fd6c71abdc6918a","216.120.189.162","Mozilla/5.0 (Windows NT 10.0; Win64; x64) AppleWebKit/537.36 (KHTML, like Gecko) Chrome/138.0.0.0 Safari/537.36","WebKit","Chrome","138.0.0.0","Windows","10.0","https://app.prolific.com/","en-GB,en-US;q=0.9,en;q=0.8","667b366d0d0943e90dbee7d1","686d226cabeef709c732f8e1","686e31390e6ceb1995ece521","667b366d0d0943e90dbee7d1","","","[0]","","","4","demographics","","","","","","","","","","","","","","","","","","","","","","","","","","","","","","","","","","","","","",""
"7436","","","{""education"":""Master's Degree (e.g., MSc)""}","survey-multi-choice","9","178835","0.0-6.0-4.0","51","1","2025-07-09 09:07:15","7701e855f2ef39aa3fd6c71abdc6918a","216.120.189.162","Mozilla/5.0 (Windows NT 10.0; Win64; x64) AppleWebKit/537.36 (KHTML, like Gecko) Chrome/138.0.0.0 Safari/537.36","WebKit","Chrome","138.0.0.0","Windows","10.0","https://app.prolific.com/","en-GB,en-US;q=0.9,en;q=0.8","667b366d0d0943e90dbee7d1","686d226cabeef709c732f8e1","686e31390e6ceb1995ece521","667b366d0d0943e90dbee7d1","","","[0]","","","5","demographics","","","","","","","","","","","","","","","","","","","","","","","","","","","","","","","","","","","","","",""
"6428","","","{""education"":""Master's Degree (e.g., MSc)""}","survey-multi-choice","10","185265","0.0-6.0-5.0","51","1","2025-07-09 09:07:15","7701e855f2ef39aa3fd6c71abdc6918a","216.120.189.162","Mozilla/5.0 (Windows NT 10.0; Win64; x64) AppleWebKit/537.36 (KHTML, like Gecko) Chrome/138.0.0.0 Safari/537.36","WebKit","Chrome","138.0.0.0","Windows","10.0","https://app.prolific.com/","en-GB,en-US;q=0.9,en;q=0.8","667b366d0d0943e90dbee7d1","686d226cabeef709c732f8e1","686e31390e6ceb1995ece521","667b366d0d0943e90dbee7d1","2025-07-09T09:09:21.733Z","","[0]","","","6","demographics","","","","","","","","","","","","","","","","","","","","","","","","","","","","","","","","","","","","","",""
"27821","","","{""mental_health_condition"":""No"",""mental_health_treatment"":""NA"",""psychiatric_medication"":""NA""}","survey-text","11","213090","0.0-7.0-0.0","51","1","2025-07-09 09:07:15","7701e855f2ef39aa3fd6c71abdc6918a","216.120.189.162","Mozilla/5.0 (Windows NT 10.0; Win64; x64) AppleWebKit/537.36 (KHTML, like Gecko) Chrome/138.0.0.0 Safari/537.36","WebKit","Chrome","138.0.0.0","Windows","10.0","https://app.prolific.com/","en-GB,en-US;q=0.9,en;q=0.8","667b366d0d0943e90dbee7d1","686d226cabeef709c732f8e1","686e31390e6ceb1995ece521","667b366d0d0943e90dbee7d1","2025-07-09T09:09:49.557Z","","","","","1","mental_health","","","","","","","","","","","","","","","","","","","","","","","","","","","","","","","","","","","","","",""
"6750","","","{""depression_history"":[""No""]}","survey-multi-select","12","219845","0.0-7.0-1.0","51","1","2025-07-09 09:07:15","7701e855f2ef39aa3fd6c71abdc6918a","216.120.189.162","Mozilla/5.0 (Windows NT 10.0; Win64; x64) AppleWebKit/537.36 (KHTML, like Gecko) Chrome/138.0.0.0 Safari/537.36","WebKit","Chrome","138.0.0.0","Windows","10.0","https://app.prolific.com/","en-GB,en-US;q=0.9,en;q=0.8","667b366d0d0943e90dbee7d1","686d226cabeef709c732f8e1","686e31390e6ceb1995ece521","667b366d0d0943e90dbee7d1","","","[0]","","","","mental_health","","","","","","","","","","","","","","","","","","","","","","","","","","","","","","","","","","","","","",""
"115096","","","","survey-template","13","334955","0.0-7.0-3.0","51","1","2025-07-09 09:07:15","7701e855f2ef39aa3fd6c71abdc6918a","216.120.189.162","Mozilla/5.0 (Windows NT 10.0; Win64; x64) AppleWebKit/537.36 (KHTML, like Gecko) Chrome/138.0.0.0 Safari/537.36","WebKit","Chrome","138.0.0.0","Windows","10.0","https://app.prolific.com/","en-GB,en-US;q=0.9,en;q=0.8","667b366d0d0943e90dbee7d1","686d226cabeef709c732f8e1","686e31390e6ceb1995ece521","667b366d0d0943e90dbee7d1","2025-07-09T09:11:51.422Z","","","","","","ius","{""Q01"":""1"",""Q02"":""2"",""Q03"":""1"",""Q04"":""3"",""Q05"":""1"",""Q06"":""0"",""Q07"":""1"",""Q08"":""0"",""Q09"":""3"",""Q10"":""1"",""Q11"":""1"",""Q12"":""3"",""Q13"":""1""}","[0,1,2,3,4,5,6,7,8,9,10,11,12]","[""Q01"",""Q02"",""Q03"",""Q04"",""Q05"",""Q06"",""Q07"",""Q08"",""Q09"",""Q10"",""Q11"",""Q12"",""Q13""]","[29468.400000035763,32846.19999998808,36936,42419.19999998808,49061.90000003576,85649.60000002384,89344.19999998808,91888,98354.10000002384,101988.19999998808,104438.60000002384,110330.19999998808,113303.10000002384]","[]","[29468.400000035763,32846.19999998808,36936,42419.19999998808,49061.90000003576,85649.60000002384,89344.19999998808,91888,98354.10000002384,101988.19999998808,104438.60000002384,110330.19999998808,113303.10000002384,115091]","0.5384615384615384","0.4166666666666667","0","","","","","","","","","","","","","","","","","","","","","","","","","","","","",""
"3803","1752052315227","<p style='font-size:1.1em;line-height:1.25'>In the following, we will ask you a few questions relating to your experiences over the past month.<br></p><p style='font-size:1.1em;line-height:1.25'>Press the <strong>Next</strong> button to continue.</p>","0","custom-html-button-response","14","338761","0.0-7.0-4.0","51","1","2025-07-09 09:07:15","7701e855f2ef39aa3fd6c71abdc6918a","216.120.189.162","Mozilla/5.0 (Windows NT 10.0; Win64; x64) AppleWebKit/537.36 (KHTML, like Gecko) Chrome/138.0.0.0 Safari/537.36","WebKit","Chrome","138.0.0.0","Windows","10.0","https://app.prolific.com/","en-GB,en-US;q=0.9,en;q=0.8","667b366d0d0943e90dbee7d1","686d226cabeef709c732f8e1","686e31390e6ceb1995ece521","667b366d0d0943e90dbee7d1","2025-07-09T09:11:55.228Z","","","","","","","","","","","","","","","","","","","","","","","","","","","","","","","","","","","","","","","","","","","",""
"94338.69999998808","","","","survey-template","15","433107","0.0-7.0-5.0","51","1","2025-07-09 09:07:15","7701e855f2ef39aa3fd6c71abdc6918a","216.120.189.162","Mozilla/5.0 (Windows NT 10.0; Win64; x64) AppleWebKit/537.36 (KHTML, like Gecko) Chrome/138.0.0.0 Safari/537.36","WebKit","Chrome","138.0.0.0","Windows","10.0","https://app.prolific.com/","en-GB,en-US;q=0.9,en;q=0.8","667b366d0d0943e90dbee7d1","686d226cabeef709c732f8e1","686e31390e6ceb1995ece521","667b366d0d0943e90dbee7d1","2025-07-09T09:13:29.575Z","","","","","","pss","{""Q01"":""1"",""Q02"":""1"",""Q03"":""2"",""Q04"":""0"",""Q05"":""0"",""Q06"":""2"",""Q07"":""1"",""Q08"":""1"",""Q09"":""1"",""Q10"":""1""}","[0,1,2,3,4,5,6,7,8,9]","[""Q01"",""Q02"",""Q03"",""Q04"",""Q05"",""Q06"",""Q07"",""Q08"",""Q09"",""Q10""]","[7449,33453.69999998808,37598.5,43681,50492.89999997616,62094,66608.10000002384,84009.30000001192,88100.89999997616,93005.80000001192]","[]","[0.10000002384185791,7449,33453.69999998808,37598.5,43681,50492.89999997616,62094,66608.10000002384,84009.30000001192,87268.80000001192,88100.89999997616,93005.80000001192,94334.89999997616]","0.4","0.2222222222222222","0","","","","","","","","","","","","","","","","","","","","","","","","","","","","",""
"58513","1752052468090","<p style='font-size:1.1em;line-height:1.25'>Thank you for your answers! Now we will ask you a few more questions relating to your feelings in the last 24 hours.<br></p><p style='font-size:1.1em;line-height:1.25'>Press the <strong>Next</strong> button to continue.</p>","0","custom-html-button-response","16","491623","0.0-7.0-6.0","51","1","2025-07-09 09:07:15","7701e855f2ef39aa3fd6c71abdc6918a","216.120.189.162","Mozilla/5.0 (Windows NT 10.0; Win64; x64) AppleWebKit/537.36 (KHTML, like Gecko) Chrome/138.0.0.0 Safari/537.36","WebKit","Chrome","138.0.0.0","Windows","10.0","https://app.prolific.com/","en-GB,en-US;q=0.9,en;q=0.8","667b366d0d0943e90dbee7d1","686d226cabeef709c732f8e1","686e31390e6ceb1995ece521","667b366d0d0943e90dbee7d1","2025-07-09T09:14:28.090Z","","","","","","","","","","","","","","","","","","","","","","","","","","","","","","","","","","","","","","","","","","","",""
"57542.39999997616","","","","survey-template","17","549174","0.0-7.0-7.0","51","1","2025-07-09 09:07:15","7701e855f2ef39aa3fd6c71abdc6918a","216.120.189.162","Mozilla/5.0 (Windows NT 10.0; Win64; x64) AppleWebKit/537.36 (KHTML, like Gecko) Chrome/138.0.0.0 Safari/537.36","WebKit","Chrome","138.0.0.0","Windows","10.0","https://app.prolific.com/","en-GB,en-US;q=0.9,en;q=0.8","667b366d0d0943e90dbee7d1","686d226cabeef709c732f8e1","686e31390e6ceb1995ece521","667b366d0d0943e90dbee7d1","2025-07-09T09:15:25.641Z","","","","","","drsp","{""Q01"":""0"",""Q02"":""0"",""Q03"":""0"",""Q04"":""0"",""Q05"":""0"",""Q06"":""0"",""Q07"":""0"",""Q08"":""1"",""Q09"":""0"",""Q10"":""1"",""Q11"":""0"",""Q12"":""0"",""Q13"":""0"",""Q14"":""0"",""Q15"":""0"",""Q16"":""1"",""Q17"":""0"",""Q18"":""0"",""Q19"":""0"",""Q20"":""0"",""Q21"":""0""}","[0,1,2,3,4,5,6,7,8,9,10,11,12,13,14,15,16,17,18,19,20]","[""Q01"",""Q02"",""Q03"",""Q04"",""Q05"",""Q06"",""Q07"",""Q08"",""Q09"",""Q10"",""Q11"",""Q12"",""Q13"",""Q14"",""Q15"",""Q16"",""Q17"",""Q18"",""Q19"",""Q20"",""Q21""]","[2169.599999964237,3171.300000011921,4199.599999964237,6501.300000011921,8026.399999976158,10219.699999988079,12068.899999976158,14663.800000011921,17880.399999976158,20450.69999998808,22615.599999964237,25350.5,28332.399999976158,31191.80000001192,34445.39999997616,36687.5,38648.39999997616,40946.19999998808,45767,53847.09999996424,55870.5]","[]","[0,2169.599999964237,3171.300000011921,4199.599999964237,6501.300000011921,8026.399999976158,10219.699999988079,12068.899999976158,14663.800000011921,17880.399999976158,20450.69999998808,22615.599999964237,25350.5,28332.399999976158,31191.80000001192,34445.39999997616,36687.5,38648.39999997616,40946.19999998808,45767,53847.09999996424,55870.5,57533.80000001192]","0.8571428571428571","0.3","0","","","","","","","","","","","","","","","","","","","","","","","","","","","","",""
"13642.899999976158","","","","survey-template","18","562821","0.0-7.0-8.0","51","1","2025-07-09 09:07:15","7701e855f2ef39aa3fd6c71abdc6918a","216.120.189.162","Mozilla/5.0 (Windows NT 10.0; Win64; x64) AppleWebKit/537.36 (KHTML, like Gecko) Chrome/138.0.0.0 Safari/537.36","WebKit","Chrome","138.0.0.0","Windows","10.0","https://app.prolific.com/","en-GB,en-US;q=0.9,en;q=0.8","667b366d0d0943e90dbee7d1","686d226cabeef709c732f8e1","686e31390e6ceb1995ece521","667b366d0d0943e90dbee7d1","2025-07-09T09:15:39.288Z","","","","","","stress","{""Q01"":""1"",""Q02"":""4"",""Q03"":""0""}","[0,1,2]","[""Q01"",""Q02"",""Q03""]","[6560.5,9417.699999988079,12439.299999952316]","[]","[6560.5,9417.699999988079,12439.299999952316,13641.099999964237]","0.6666666666666666","0.5","0","","","","","","","","","","","","","","","","","","","","","","","","","","","","",""
"122169","","","","instructions","19","684991","0.0-8.0-0.0","51","1","2025-07-09 09:07:15","7701e855f2ef39aa3fd6c71abdc6918a","216.120.189.162","Mozilla/5.0 (Windows NT 10.0; Win64; x64) AppleWebKit/537.36 (KHTML, like Gecko) Chrome/138.0.0.0 Safari/537.36","WebKit","Chrome","138.0.0.0","Windows","10.0","https://app.prolific.com/","en-GB,en-US;q=0.9,en;q=0.8","667b366d0d0943e90dbee7d1","686d226cabeef709c732f8e1","686e31390e6ceb1995ece521","667b366d0d0943e90dbee7d1","","[{""page_index"":0,""viewing_time"":24913},{""page_index"":1,""viewing_time"":28828},{""page_index"":2,""viewing_time"":35512},{""page_index"":3,""viewing_time"":32915}]","","","","","","","","","","","","","","","","","","","","","","","","","","","","","","","","","","","","","","","","","","",""
"","","","","ctl-task-cpt","20","718176","0.0-8.0-1.0","51","1","2025-07-09 09:07:15","7701e855f2ef39aa3fd6c71abdc6918a","216.120.189.162","Mozilla/5.0 (Windows NT 10.0; Win64; x64) AppleWebKit/537.36 (KHTML, like Gecko) Chrome/138.0.0.0 Safari/537.36","WebKit","Chrome","138.0.0.0","Windows","10.0","https://app.prolific.com/","en-GB,en-US;q=0.9,en;q=0.8","667b366d0d0943e90dbee7d1","686d226cabeef709c732f8e1","686e31390e6ceb1995ece521","667b366d0d0943e90dbee7d1","","","","","","","","","","","","","","","","","win-only","2","g1:SE,g2:NW","1","0","1","688473.7","5343.1","9347","30179.6","2","4","4","6","1","2","-1","0","0","0","4003.8","4000","1980","[""down"",""right""]","{""num_key_presses"":8,""num_perfect"":4,""num_errors"":3,""num_randdir"":0,""num_randdir_good_moves"":0,""num_whilered"":1,""num_whileblue"":0,""num_blue"":1,""num_good_moves"":4}","[415.07142857142856,407.1808016640799,0.3,415.07142857142856,407.1808016640799,103.5,415.07142857142856,407.1808016640799,203.6,415.07142857142856,407.1808016640799,303.6,415.07142857142856,407.1808016640799,407.6,415.07142857142856,407.1808016640799,512.3,415.07142857142856,407.1808016640799,612.4,415.07142857142856,407.1808016640799,717.8,415.07142857142856,407.1808016640799,818.3,415.07142857142856,407.1808016640799,919.2,415.07142857142856,407.1808016640799,1023.6,415.07142857142856,407.1808016640799,1127.4,491.57142857142856,440.1808016640799,1229.2,502.07142857142856,444.6808016640799,1332.5,505.07142857142856,447.6808016640799,1432.9,512.5714285714286,458.1808016640799,1538.4,521.5714285714286,486.6808016640799,1645.1,524.5714285714286,504.6808016640799,1748.8,524.5714285714286,516.6808016640799,1853.4,515.5714285714286,527.1808016640799,1953.6,515.5714285714286,527.1808016640799,2061.8,512.5714285714286,527.1808016640799,2163,512.5714285714286,525.6808016640799,2267.8,509.57142857142856,521.1808016640799,2368,502.07142857142856,509.1808016640799,2473.7,502.07142857142856,509.1808016640799,2578.4,502.07142857142856,509.1808016640799,2678.4,509.57142857142856,527.1808016640799,2778.9,511.07142857142856,536.1808016640799,2883.6,512.5714285714286,536.1808016640799,2987.3,518.5714285714286,539.1808016640799,3088.2,527.5714285714286,551.1808016640799,3193.9,527.5714285714286,551.1808016640799,3295.4,512.5714285714286,536.1808016640799,3397.4,506.57142857142856,530.1808016640799,3497.4,506.57142857142856,530.1808016640799,3603.1,506.57142857142856,530.1808016640799,3711.4,506.57142857142856,530.1808016640799,3813.1,506.57142857142856,530.1808016640799,3919]","[326.1,326.1,1000,0,-673.9,""error"",""-"",""-"",""no_move"",856.5,530.1,1000,0,-143.5,""while_red"",""-"",""-"",""no_move"",2722.3,2395.9,3047.5,1329.5,-1654.7,""error"",""-"",""-"",""no_move"",6186,3463.4,1906.1,3724.1,555.9,""smooth"",""right"",""right"",""good_move"",6737,550.4,2280,6186.6,-1729.6,""error"",""-"",""-"",""no_move"",11028.8,4291.4,2771.8,7739.3,517.7,""smooth"",""down"",""down"",""good_move"",14548.5,3519.2,2895.7,11029.3,623.5,""smooth"",""down"",""down"",""good_move"",20708.6,6159.6,2666.7,17603.2,438.8,""smooth"",""right"",""right"",""good_move""]","",""
"27792","","","","instructions","21","745969","0.0-8.0-2.0","51","1","2025-07-09 09:07:15","7701e855f2ef39aa3fd6c71abdc6918a","216.120.189.162","Mozilla/5.0 (Windows NT 10.0; Win64; x64) AppleWebKit/537.36 (KHTML, like Gecko) Chrome/138.0.0.0 Safari/537.36","WebKit","Chrome","138.0.0.0","Windows","10.0","https://app.prolific.com/","en-GB,en-US;q=0.9,en;q=0.8","667b366d0d0943e90dbee7d1","686d226cabeef709c732f8e1","686e31390e6ceb1995ece521","667b366d0d0943e90dbee7d1","","[{""page_index"":0,""viewing_time"":27791}]","","","","","","","","","","","","","","","","","","","","","","","","","","","","","","","","","","","","","","","","","","",""
"","","","","ctl-task-cpt","22","793333","0.0-8.0-3.0","51","1","2025-07-09 09:07:15","7701e855f2ef39aa3fd6c71abdc6918a","216.120.189.162","Mozilla/5.0 (Windows NT 10.0; Win64; x64) AppleWebKit/537.36 (KHTML, like Gecko) Chrome/138.0.0.0 Safari/537.36","WebKit","Chrome","138.0.0.0","Windows","10.0","https://app.prolific.com/","en-GB,en-US;q=0.9,en;q=0.8","667b366d0d0943e90dbee7d1","686d226cabeef709c732f8e1","686e31390e6ceb1995ece521","667b366d0d0943e90dbee7d1","","","","","","","","","","","","","","","","","win-only","2","g1:SE,g2:NW","0.35","0","3","749448.7","2592.5","6597.7","44352.8","2","4","8","6","2","8","8","8","0","0.06060606060606061","2332.6","4000","135","[""left"",""up""]","{""num_key_presses"":10,""num_perfect"":4,""num_errors"":0,""num_randdir"":6,""num_randdir_good_moves"":4,""num_whilered"":0,""num_whileblue"":0,""num_blue"":2,""num_good_moves"":8}","[409.07142857142856,419.1808016640799,0.3,409.07142857142856,419.1808016640799,100.9,409.07142857142856,419.1808016640799,203.7,409.07142857142856,419.1808016640799,305,409.07142857142856,419.1808016640799,408.4,409.07142857142856,419.1808016640799,517.1,409.07142857142856,419.1808016640799,617.2,409.07142857142856,419.1808016640799,718.4,409.07142857142856,419.1808016640799,824.5,409.07142857142856,419.1808016640799,924.7,409.07142857142856,419.1808016640799,1028.7,406.07142857142856,413.1808016640799,1133.8,406.07142857142856,413.1808016640799,1234.6,406.07142857142856,413.1808016640799,1339.3,311.57142857142856,392.1808016640799,1450.5,50.57142857142857,44.18080166407994,1552.5,29.57142857142857,-14.319198335920063,1654.7,52.07142857142857,-18.819198335920063,1760.2,83.57142857142857,-9.819198335920063,1867.4,74.57142857142857,12.680801664079937,1968.4,59.57142857142857,44.18080166407994,2068.7,55.07142857142857,50.18080166407994,2169.4,55.07142857142857,50.18080166407994,2274.1,55.07142857142857,50.18080166407994,2374.1,55.07142857142857,50.18080166407994,2474.1,55.07142857142857,50.18080166407994,2575.3,55.07142857142857,50.18080166407994,2681.6,55.07142857142857,50.18080166407994,2783.2,55.07142857142857,50.18080166407994,2885.2,55.07142857142857,50.18080166407994,2989.4,55.07142857142857,50.18080166407994,3099.9,55.07142857142857,50.18080166407994,3203.7,55.07142857142857,50.18080166407994,3305.1,55.07142857142857,50.18080166407994,3416.5,55.07142857142857,50.18080166407994,3519.6,59.57142857142857,53.18080166407994,3622.7,73.07142857142857,65.18080166407994,3723.9,77.57142857142857,68.18080166407994,3831.1,80.57142857142857,68.18080166407994,3933.7]","[1290,1290,1000,0.1,289.9,""oops"",""left"",""left"",""good_move"",3554.2,2263.4,1806.5,1290.8,456.9,""oops"",""up"",""up"",""good_move"",6907,3352.1,2759.5,3554.9,592.6,""oops"",""up"",""down"",""bad_move"",10065.2,3157.6,2786.3,6907.6,371.3,""smooth"",""left"",""left"",""good_move"",17281,7215.3,2738,14094,449,""smooth"",""left"",""left"",""good_move"",24555.2,7273.9,2540.4,21570.5,444.3,""smooth"",""up"",""up"",""good_move"",27743.5,3188.1,2548.5,24555.5,639.5,""smooth"",""up"",""up"",""good_move"",30635.8,2891.7,2455.3,27744.1,436.4,""oops"",""up"",""down"",""bad_move"",33958,3322.1,2841.3,30636,480.8,""oops"",""up"",""up"",""good_move"",37646.8,3688.3,3271.3,33958.5,417,""oops"",""up"",""up"",""good_move""]","",""
"28364","","","","instructions","23","821698","0.0-8.0-4.0","51","1","2025-07-09 09:07:15","7701e855f2ef39aa3fd6c71abdc6918a","216.120.189.162","Mozilla/5.0 (Windows NT 10.0; Win64; x64) AppleWebKit/537.36 (KHTML, like Gecko) Chrome/138.0.0.0 Safari/537.36","WebKit","Chrome","138.0.0.0","Windows","10.0","https://app.prolific.com/","en-GB,en-US;q=0.9,en;q=0.8","667b366d0d0943e90dbee7d1","686d226cabeef709c732f8e1","686e31390e6ceb1995ece521","667b366d0d0943e90dbee7d1","","[{""page_index"":0,""viewing_time"":19110},{""page_index"":1,""viewing_time"":9253}]","","","","","","","","","","","","","","","","","","","","","","","","","","","","","","","","","","","","","","","","","","",""
"30248","","","{""green_ball"":[""Ball always moves in the direction I press""]}","survey-multi-select","24","851950","0.0-8.0-5.0-0.0","51","1","2025-07-09 09:07:15","7701e855f2ef39aa3fd6c71abdc6918a","216.120.189.162","Mozilla/5.0 (Windows NT 10.0; Win64; x64) AppleWebKit/537.36 (KHTML, like Gecko) Chrome/138.0.0.0 Safari/537.36","WebKit","Chrome","138.0.0.0","Windows","10.0","https://app.prolific.com/","en-GB,en-US;q=0.9,en;q=0.8","667b366d0d0943e90dbee7d1","686d226cabeef709c732f8e1","686e31390e6ceb1995ece521","667b366d0d0943e90dbee7d1","","","[0]","","","","quiz","","","","","","","","","","","","","","","","","","","","","","","","","","","","","","","","","","","","","false",""
"6088","","<p align='center'><b>INCORRECT.</b> Usually the green ball moves in the indicated direction, but sometimes it shakes and moves randomly. </p>","0","html-button-response","25","858041","0.0-8.0-5.0-1.0","51","1","2025-07-09 09:07:15","7701e855f2ef39aa3fd6c71abdc6918a","216.120.189.162","Mozilla/5.0 (Windows NT 10.0; Win64; x64) AppleWebKit/537.36 (KHTML, like Gecko) Chrome/138.0.0.0 Safari/537.36","WebKit","Chrome","138.0.0.0","Windows","10.0","https://app.prolific.com/","en-GB,en-US;q=0.9,en;q=0.8","667b366d0d0943e90dbee7d1","686d226cabeef709c732f8e1","686e31390e6ceb1995ece521","667b366d0d0943e90dbee7d1","","","","","","","","","","","","","","","","","","","","","","","","","","","","","","","","","","","","","","","","","","","","",""
"6123","","","{""green_ball"":[""Ball sometimes shakes and moves in a random direction""]}","survey-multi-select","26","864166","0.0-8.0-5.1-0.1","51","1","2025-07-09 09:07:15","7701e855f2ef39aa3fd6c71abdc6918a","216.120.189.162","Mozilla/5.0 (Windows NT 10.0; Win64; x64) AppleWebKit/537.36 (KHTML, like Gecko) Chrome/138.0.0.0 Safari/537.36","WebKit","Chrome","138.0.0.0","Windows","10.0","https://app.prolific.com/","en-GB,en-US;q=0.9,en;q=0.8","667b366d0d0943e90dbee7d1","686d226cabeef709c732f8e1","686e31390e6ceb1995ece521","667b366d0d0943e90dbee7d1","","","[0]","","","","quiz","","","","","","","","","","","","","","","","","","","","","","","","","","","","","","","","","","","","","true",""
"4632","","<p align='center'><b>CORRECT!</b> Indeed, the green ball may sometimes shake and move in a random direction.</p>","0","html-button-response","27","868800","0.0-8.0-5.1-1.1","51","1","2025-07-09 09:07:15","7701e855f2ef39aa3fd6c71abdc6918a","216.120.189.162","Mozilla/5.0 (Windows NT 10.0; Win64; x64) AppleWebKit/537.36 (KHTML, like Gecko) Chrome/138.0.0.0 Safari/537.36","WebKit","Chrome","138.0.0.0","Windows","10.0","https://app.prolific.com/","en-GB,en-US;q=0.9,en;q=0.8","667b366d0d0943e90dbee7d1","686d226cabeef709c732f8e1","686e31390e6ceb1995ece521","667b366d0d0943e90dbee7d1","","","","","","","","","","","","","","","","","","","","","","","","","","","","","","","","","","","","","","","","","","","","",""
"6579","","","{""yellow_ball"":[""Ball doesn‘t move and I get -1 penalty point""]}","survey-multi-select","28","875382","0.0-8.0-6.0-0.0","51","1","2025-07-09 09:07:15","7701e855f2ef39aa3fd6c71abdc6918a","216.120.189.162","Mozilla/5.0 (Windows NT 10.0; Win64; x64) AppleWebKit/537.36 (KHTML, like Gecko) Chrome/138.0.0.0 Safari/537.36","WebKit","Chrome","138.0.0.0","Windows","10.0","https://app.prolific.com/","en-GB,en-US;q=0.9,en;q=0.8","667b366d0d0943e90dbee7d1","686d226cabeef709c732f8e1","686e31390e6ceb1995ece521","667b366d0d0943e90dbee7d1","","","[0]","","","","quiz","","","","","","","","","","","","","","","","","","","","","","","","","","","","","","","","","","","","","true",""
"2017","","<p align='center'><b>CORRECT!</b> Indeed, the yellow ball never moves and you receive a penalty.</p>","0","html-button-response","29","877401","0.0-8.0-6.0-1.0","51","1","2025-07-09 09:07:15","7701e855f2ef39aa3fd6c71abdc6918a","216.120.189.162","Mozilla/5.0 (Windows NT 10.0; Win64; x64) AppleWebKit/537.36 (KHTML, like Gecko) Chrome/138.0.0.0 Safari/537.36","WebKit","Chrome","138.0.0.0","Windows","10.0","https://app.prolific.com/","en-GB,en-US;q=0.9,en;q=0.8","667b366d0d0943e90dbee7d1","686d226cabeef709c732f8e1","686e31390e6ceb1995ece521","667b366d0d0943e90dbee7d1","","","","","","","","","","","","","","","","","","","","","","","","","","","","","","","","","","","","","","","","","","","","",""
"4852","","","{""blue_ball"":[""Ball doesn‘t move and I get -1 penalty point""]}","survey-multi-select","30","882255","0.0-8.0-7.0-0.0","51","1","2025-07-09 09:07:15","7701e855f2ef39aa3fd6c71abdc6918a","216.120.189.162","Mozilla/5.0 (Windows NT 10.0; Win64; x64) AppleWebKit/537.36 (KHTML, like Gecko) Chrome/138.0.0.0 Safari/537.36","WebKit","Chrome","138.0.0.0","Windows","10.0","https://app.prolific.com/","en-GB,en-US;q=0.9,en;q=0.8","667b366d0d0943e90dbee7d1","686d226cabeef709c732f8e1","686e31390e6ceb1995ece521","667b366d0d0943e90dbee7d1","","","[0]","","","","quiz","","","","","","","","","","","","","","","","","","","","","","","","","","","","","","","","","","","","","false",""
"3606","","<p align='center'><b>INCORRECT.</b> The blue ball always shakes and moves randomly.</p>","0","html-button-response","31","885863","0.0-8.0-7.0-1.0","51","1","2025-07-09 09:07:15","7701e855f2ef39aa3fd6c71abdc6918a","216.120.189.162","Mozilla/5.0 (Windows NT 10.0; Win64; x64) AppleWebKit/537.36 (KHTML, like Gecko) Chrome/138.0.0.0 Safari/537.36","WebKit","Chrome","138.0.0.0","Windows","10.0","https://app.prolific.com/","en-GB,en-US;q=0.9,en;q=0.8","667b366d0d0943e90dbee7d1","686d226cabeef709c732f8e1","686e31390e6ceb1995ece521","667b366d0d0943e90dbee7d1","","","","","","","","","","","","","","","","","","","","","","","","","","","","","","","","","","","","","","","","","","","","",""
"16925","","","{""blue_ball"":[""Ball always shakes and moves in a random direction""]}","survey-multi-select","32","902792","0.0-8.0-7.1-0.1","51","1","2025-07-09 09:07:15","7701e855f2ef39aa3fd6c71abdc6918a","216.120.189.162","Mozilla/5.0 (Windows NT 10.0; Win64; x64) AppleWebKit/537.36 (KHTML, like Gecko) Chrome/138.0.0.0 Safari/537.36","WebKit","Chrome","138.0.0.0","Windows","10.0","https://app.prolific.com/","en-GB,en-US;q=0.9,en;q=0.8","667b366d0d0943e90dbee7d1","686d226cabeef709c732f8e1","686e31390e6ceb1995ece521","667b366d0d0943e90dbee7d1","","","[0]","","","","quiz","","","","","","","","","","","","","","","","","","","","","","","","","","","","","","","","","","","","","true",""
"2145","","<p align='center'><b>CORRECT!</b> Indeed, the blue ball always shakes and moves in a random direction. Also there is a penalty of -1 point.</p>","0","html-button-response","33","904938","0.0-8.0-7.1-1.1","51","1","2025-07-09 09:07:15","7701e855f2ef39aa3fd6c71abdc6918a","216.120.189.162","Mozilla/5.0 (Windows NT 10.0; Win64; x64) AppleWebKit/537.36 (KHTML, like Gecko) Chrome/138.0.0.0 Safari/537.36","WebKit","Chrome","138.0.0.0","Windows","10.0","https://app.prolific.com/","en-GB,en-US;q=0.9,en;q=0.8","667b366d0d0943e90dbee7d1","686d226cabeef709c732f8e1","686e31390e6ceb1995ece521","667b366d0d0943e90dbee7d1","","","","","","","","","","","","","","","","","","","","","","","","","","","","","","","","","","","","","","","","","","","","",""
"10158","","","{""bonus"":[""When I reach 80% of points""]}","survey-multi-select","34","915098","0.0-8.0-8.0-0.0","51","1","2025-07-09 09:07:15","7701e855f2ef39aa3fd6c71abdc6918a","216.120.189.162","Mozilla/5.0 (Windows NT 10.0; Win64; x64) AppleWebKit/537.36 (KHTML, like Gecko) Chrome/138.0.0.0 Safari/537.36","WebKit","Chrome","138.0.0.0","Windows","10.0","https://app.prolific.com/","en-GB,en-US;q=0.9,en;q=0.8","667b366d0d0943e90dbee7d1","686d226cabeef709c732f8e1","686e31390e6ceb1995ece521","667b366d0d0943e90dbee7d1","","","[0]","","","","quiz","","","","","","","","","","","","","","","","","","","","","","","","","","","","","","","","","","","","","false",""
"1710","","<p align='center'><b>INCORRECT.</b> You receive 2 pounds extra when you reach 50% of points </p>","0","html-button-response","35","916810","0.0-8.0-8.0-1.0","51","1","2025-07-09 09:07:15","7701e855f2ef39aa3fd6c71abdc6918a","216.120.189.162","Mozilla/5.0 (Windows NT 10.0; Win64; x64) AppleWebKit/537.36 (KHTML, like Gecko) Chrome/138.0.0.0 Safari/537.36","WebKit","Chrome","138.0.0.0","Windows","10.0","https://app.prolific.com/","en-GB,en-US;q=0.9,en;q=0.8","667b366d0d0943e90dbee7d1","686d226cabeef709c732f8e1","686e31390e6ceb1995ece521","667b366d0d0943e90dbee7d1","","","","","","","","","","","","","","","","","","","","","","","","","","","","","","","","","","","","","","","","","","","","",""
"2916","","","{""bonus"":[""When I reach 50% of points""]}","survey-multi-select","36","919728","0.0-8.0-8.1-0.1","51","1","2025-07-09 09:07:15","7701e855f2ef39aa3fd6c71abdc6918a","216.120.189.162","Mozilla/5.0 (Windows NT 10.0; Win64; x64) AppleWebKit/537.36 (KHTML, like Gecko) Chrome/138.0.0.0 Safari/537.36","WebKit","Chrome","138.0.0.0","Windows","10.0","https://app.prolific.com/","en-GB,en-US;q=0.9,en;q=0.8","667b366d0d0943e90dbee7d1","686d226cabeef709c732f8e1","686e31390e6ceb1995ece521","667b366d0d0943e90dbee7d1","","","[0]","","","","quiz","","","","","","","","","","","","","","","","","","","","","","","","","","","","","","","","","","","","","true",""
"2445","","<p align='center'><b>CORRECT!</b> Indeed, you receive 2 pounds extra when you reach 50% of points.</p>","0","html-button-response","37","922174","0.0-8.0-8.1-1.1","51","1","2025-07-09 09:07:15","7701e855f2ef39aa3fd6c71abdc6918a","216.120.189.162","Mozilla/5.0 (Windows NT 10.0; Win64; x64) AppleWebKit/537.36 (KHTML, like Gecko) Chrome/138.0.0.0 Safari/537.36","WebKit","Chrome","138.0.0.0","Windows","10.0","https://app.prolific.com/","en-GB,en-US;q=0.9,en;q=0.8","667b366d0d0943e90dbee7d1","686d226cabeef709c732f8e1","686e31390e6ceb1995ece521","667b366d0d0943e90dbee7d1","","","","","","","","","","","","","","","","","","","","","","","","","","","","","","","","","","","","","","","","","","","","",""
"3408","","","","instructions","38","925583","0.0-8.0-9.0","51","1","2025-07-09 09:07:15","7701e855f2ef39aa3fd6c71abdc6918a","216.120.189.162","Mozilla/5.0 (Windows NT 10.0; Win64; x64) AppleWebKit/537.36 (KHTML, like Gecko) Chrome/138.0.0.0 Safari/537.36","WebKit","Chrome","138.0.0.0","Windows","10.0","https://app.prolific.com/","en-GB,en-US;q=0.9,en;q=0.8","667b366d0d0943e90dbee7d1","686d226cabeef709c732f8e1","686e31390e6ceb1995ece521","667b366d0d0943e90dbee7d1","","[{""page_index"":0,""viewing_time"":3408}]","","","","","","","","","","","","","","","","","","","","","","","","","","","","","","","","","","","","","","","","","","",""
"20782","","<p>Before you start with this game please answer the following three questions yourself. </p>
  <p>Through this game, we measure several aspects of your cognitive performance, such as reaction times, multi-tasking capabilities </p>
  <p>and the ability to assess the situation you are in.</p>
  <p></p>
  <p><b>How good do you usually are in such tasks?</b></p>","78","html-slider-response","39","946368","0.0-9.0-0.0","51","1","2025-07-09 09:07:15","7701e855f2ef39aa3fd6c71abdc6918a","216.120.189.162","Mozilla/5.0 (Windows NT 10.0; Win64; x64) AppleWebKit/537.36 (KHTML, like Gecko) Chrome/138.0.0.0 Safari/537.36","WebKit","Chrome","138.0.0.0","Windows","10.0","https://app.prolific.com/","en-GB,en-US;q=0.9,en;q=0.8","667b366d0d0943e90dbee7d1","686d226cabeef709c732f8e1","686e31390e6ceb1995ece521","667b366d0d0943e90dbee7d1","2025-07-09T09:22:02.835Z","","","","","","PreSkillQ","","","","","","","","","","","","","","","","","","","","","","","","","","","","","","","","","","","","","","50"
"16942","","<div style=""width:500px;"">
  <p>How well do you think you will perform in this task compared to other participants?</p>
  </div>","76","html-slider-response","40","963312","0.0-9.0-1.0","51","1","2025-07-09 09:07:15","7701e855f2ef39aa3fd6c71abdc6918a","216.120.189.162","Mozilla/5.0 (Windows NT 10.0; Win64; x64) AppleWebKit/537.36 (KHTML, like Gecko) Chrome/138.0.0.0 Safari/537.36","WebKit","Chrome","138.0.0.0","Windows","10.0","https://app.prolific.com/","en-GB,en-US;q=0.9,en;q=0.8","667b366d0d0943e90dbee7d1","686d226cabeef709c732f8e1","686e31390e6ceb1995ece521","667b366d0d0943e90dbee7d1","2025-07-09T09:22:19.779Z","","","","","","PrePerfQ","","","","","","","","","","","","","","","","","","","","","","","","","","","","","","","","","","","","","","50"
"6489","","<div style=""width:500px;"">
  <p>What best describes how you currently feel?</p>
  </div>","90","html-slider-response","41","969802","0.0-9.0-2.0","51","1","2025-07-09 09:07:15","7701e855f2ef39aa3fd6c71abdc6918a","216.120.189.162","Mozilla/5.0 (Windows NT 10.0; Win64; x64) AppleWebKit/537.36 (KHTML, like Gecko) Chrome/138.0.0.0 Safari/537.36","WebKit","Chrome","138.0.0.0","Windows","10.0","https://app.prolific.com/","en-GB,en-US;q=0.9,en;q=0.8","667b366d0d0943e90dbee7d1","686d226cabeef709c732f8e1","686e31390e6ceb1995ece521","667b366d0d0943e90dbee7d1","2025-07-09T09:22:26.269Z","","","","","","PreMotivationQ","","","","","","","","","","","","","","","","","","","","","","","","","","","","","","","","","","","","","","50"
"","","","","ctl-task-cpt","42","1001341","0.0-10.0-0.0","51","1","2025-07-09 09:07:15","7701e855f2ef39aa3fd6c71abdc6918a","216.120.189.162","Mozilla/5.0 (Windows NT 10.0; Win64; x64) AppleWebKit/537.36 (KHTML, like Gecko) Chrome/138.0.0.0 Safari/537.36","WebKit","Chrome","138.0.0.0","Windows","10.0","https://app.prolific.com/","en-GB,en-US;q=0.9,en;q=0.8","667b366d0d0943e90dbee7d1","686d226cabeef709c732f8e1","686e31390e6ceb1995ece521","667b366d0d0943e90dbee7d1","2025-07-09T09:22:57.808Z","","","","","","","","","","","","","","","","win-only","0","g1:NW,g2:SE","1","1","0","973282.1","4059","9061.3","28526.1","1","4","8","6","2","8","8","8","0","0.06060606060606061","2349.6","3000","40","[""down"",""right""]","{""num_key_presses"":6,""num_perfect"":6,""num_errors"":0,""num_randdir"":0,""num_randdir_good_moves"":0,""num_whilered"":0,""num_whileblue"":0,""num_blue"":1,""num_good_moves"":6}","[419.57142857142856,419.1808016640799,0.4,419.57142857142856,419.1808016640799,102.7,419.57142857142856,419.1808016640799,208.4,419.57142857142856,419.1808016640799,312.4,419.57142857142856,419.1808016640799,414.5,419.57142857142856,419.1808016640799,520.6,419.57142857142856,419.1808016640799,622.5,419.57142857142856,419.1808016640799,728,443.57142857142856,545.1808016640799,832.3,419.57142857142856,548.1808016640799,932.6,398.57142857142856,546.6808016640799,1036.8,538.0714285714286,584.1808016640799,1140.2,914.5714285714286,761.1808016640799,1242.8,926.5714285714286,779.1808016640799,1343.1,935.5714285714286,779.1808016640799,1447.1,935.5714285714286,779.1808016640799,1554.2,935.5714285714286,779.1808016640799,1654.9,917.5714285714286,777.6808016640799,1754.9,836.5714285714286,753.6808016640799,1861.5,796.0714285714286,743.1808016640799,1961.7,790.0714285714286,743.1808016640799,2063.4,790.0714285714286,743.1808016640799,2169.7,790.0714285714286,743.1808016640799,2271.9,790.0714285714286,743.1808016640799,2372.3,790.0714285714286,743.1808016640799,2476.7,790.0714285714286,743.1808016640799,2577.5,790.0714285714286,743.1808016640799,2682.7,790.0714285714286,743.1808016640799,2791.4,790.0714285714286,743.1808016640799,2893,790.0714285714286,743.1808016640799,2997.1,790.0714285714286,743.1808016640799,3098.2,790.0714285714286,743.1808016640799,3204.2,790.0714285714286,743.1808016640799,3305.4,790.0714285714286,743.1808016640799,3407.9,790.0714285714286,743.1808016640799,3511.7,790.0714285714286,743.1808016640799,3612.3,790.0714285714286,743.1808016640799,3718.5,790.0714285714286,743.1808016640799,3819,790.0714285714286,743.1808016640799,3919.1,790.0714285714286,743.1808016640799,4021.9,790.0714285714286,743.1808016640799,4122.6,790.0714285714286,743.1808016640799,4227.1,790.0714285714286,743.1808016640799,4327.7,790.0714285714286,743.1808016640799,4431.7,790.0714285714286,743.1808016640799,4540.1,790.0714285714286,743.1808016640799,4640.1,790.0714285714286,743.1808016640799,4742,790.0714285714286,743.1808016640799,4842.4,790.0714285714286,743.1808016640799,4943.1]","[1682.1,1682.2,1000,0,682.2,""smooth"",""down"",""down"",""good_move"",7320,5637.2,1703.4,5270.4,346.3,""smooth"",""down"",""down"",""good_move"",10259.2,2938.8,2245.2,7320.4,693.6,""smooth"",""right"",""right"",""good_move"",13802.7,3542.8,3126.4,10259.9,416.4,""smooth"",""right"",""right"",""good_move"",16415,2611.9,2122.7,13803.1,489.2,""smooth"",""right"",""right"",""good_move"",19369.4,2954,2516.2,16415.4,437.8,""smooth"",""down"",""down"",""good_move""]","",""
"6695","","<div style=""width:500px;"">
  <p>What determined the result of this run?</p>
  </div>","97","html-slider-response","43","1008038","0.0-10.0-1.0","51","1","2025-07-09 09:07:15","7701e855f2ef39aa3fd6c71abdc6918a","216.120.189.162","Mozilla/5.0 (Windows NT 10.0; Win64; x64) AppleWebKit/537.36 (KHTML, like Gecko) Chrome/138.0.0.0 Safari/537.36","WebKit","Chrome","138.0.0.0","Windows","10.0","https://app.prolific.com/","en-GB,en-US;q=0.9,en;q=0.8","667b366d0d0943e90dbee7d1","686d226cabeef709c732f8e1","686e31390e6ceb1995ece521","667b366d0d0943e90dbee7d1","2025-07-09T09:23:04.505Z","","","","","","AttribQ","","","","","","","","","","","","","","","","","","","","","","","","","","","","","","","","","","","","","","50"
"4992","","<div style=""width:500px;"">
  <p>How much control did you have over the ball?</p>
  </div>","90","html-slider-response","44","1013031","0.0-10.0-2.0","51","1","2025-07-09 09:07:15","7701e855f2ef39aa3fd6c71abdc6918a","216.120.189.162","Mozilla/5.0 (Windows NT 10.0; Win64; x64) AppleWebKit/537.36 (KHTML, like Gecko) Chrome/138.0.0.0 Safari/537.36","WebKit","Chrome","138.0.0.0","Windows","10.0","https://app.prolific.com/","en-GB,en-US;q=0.9,en;q=0.8","667b366d0d0943e90dbee7d1","686d226cabeef709c732f8e1","686e31390e6ceb1995ece521","667b366d0d0943e90dbee7d1","2025-07-09T09:23:09.499Z","","","","","","ControlQ","","","","","","","","","","","","","","","","","","","","","","","","","","","","","","","","","","","","","","50"
"5759","","<div style=""width:500px;"">
  <p>How would you describe your current emotional state?</p>
  </div>","2","html-slider-response","45","1018792","0.0-10.0-3.0","51","1","2025-07-09 09:07:15","7701e855f2ef39aa3fd6c71abdc6918a","216.120.189.162","Mozilla/5.0 (Windows NT 10.0; Win64; x64) AppleWebKit/537.36 (KHTML, like Gecko) Chrome/138.0.0.0 Safari/537.36","WebKit","Chrome","138.0.0.0","Windows","10.0","https://app.prolific.com/","en-GB,en-US;q=0.9,en;q=0.8","667b366d0d0943e90dbee7d1","686d226cabeef709c732f8e1","686e31390e6ceb1995ece521","667b366d0d0943e90dbee7d1","2025-07-09T09:23:15.259Z","","","","","","StressQ","","","","","","","","","","","","","","","","","","","","","","","","","","","","","","","","","","","","","","50"
"5839","","<div style=""width:500px;"">
  <p>What best describes how you currently feel?</p>
  </div>","91","html-slider-response","46","1024633","0.0-10.0-4.0","51","1","2025-07-09 09:07:15","7701e855f2ef39aa3fd6c71abdc6918a","216.120.189.162","Mozilla/5.0 (Windows NT 10.0; Win64; x64) AppleWebKit/537.36 (KHTML, like Gecko) Chrome/138.0.0.0 Safari/537.36","WebKit","Chrome","138.0.0.0","Windows","10.0","https://app.prolific.com/","en-GB,en-US;q=0.9,en;q=0.8","667b366d0d0943e90dbee7d1","686d226cabeef709c732f8e1","686e31390e6ceb1995ece521","667b366d0d0943e90dbee7d1","2025-07-09T09:23:21.100Z","","","","","","MotivationQ","","","","","","","","","","","","","","","","","","","","","","","","","","","","","","","","","","","","","","50"
"","","","","ctl-task-cpt","47","1064993","0.0-10.0-0.1","51","1","2025-07-09 09:07:15","7701e855f2ef39aa3fd6c71abdc6918a","216.120.189.162","Mozilla/5.0 (Windows NT 10.0; Win64; x64) AppleWebKit/537.36 (KHTML, like Gecko) Chrome/138.0.0.0 Safari/537.36","WebKit","Chrome","138.0.0.0","Windows","10.0","https://app.prolific.com/","en-GB,en-US;q=0.9,en;q=0.8","667b366d0d0943e90dbee7d1","686d226cabeef709c732f8e1","686e31390e6ceb1995ece521","667b366d0d0943e90dbee7d1","2025-07-09T09:24:01.460Z","","","","","","","","","","","","","","","","win-only","1","g1:NE,g2:SW","0.9","2","0","1028113.6","4477.4","9478.5","37336.8","1","4","4","6","2","4","3","11","8","0.08333333333333333","2202.7","3000","575","[""down"",""left""]","{""num_key_presses"":7,""num_perfect"":6,""num_errors"":1,""num_randdir"":0,""num_randdir_good_moves"":0,""num_whilered"":0,""num_whileblue"":0,""num_blue"":3,""num_good_moves"":6}","[406.07142857142856,408.6808016640799,0.3,406.07142857142856,408.6808016640799,103.9,406.07142857142856,408.6808016640799,208.7,406.07142857142856,408.6808016640799,319.1,406.07142857142856,408.6808016640799,419.2,406.07142857142856,408.6808016640799,524,406.07142857142856,408.6808016640799,628.7,406.07142857142856,408.6808016640799,728.7,406.07142857142856,408.6808016640799,832.8,406.07142857142856,408.6808016640799,935.2,406.07142857142856,408.6808016640799,1038.1,406.07142857142856,408.6808016640799,1138.6,232.07142857142856,599.1808016640799,1239,38.57142857142857,783.6808016640799,1350.3,-31.92857142857143,836.1808016640799,1453.1,-34.92857142857143,836.1808016640799,1554,-36.42857142857143,834.6808016640799,1666.9,22.07142857142857,804.6808016640799,1769.2,41.57142857142857,791.1808016640799,1870,56.57142857142857,782.1808016640799,1973.2,56.57142857142857,782.1808016640799,2073.7,56.57142857142857,782.1808016640799,2179.4,56.57142857142857,782.1808016640799,2279.7,56.57142857142857,782.1808016640799,2383.3,56.57142857142857,782.1808016640799,2483.7,56.57142857142857,782.1808016640799,2584.8,56.57142857142857,782.1808016640799,2688.7,56.57142857142857,782.1808016640799,2798.3,56.57142857142857,782.1808016640799,2899.3,68.57142857142857,774.6808016640799,3003.2,173.57142857142856,696.6808016640799,3118.8,214.07142857142856,660.6808016640799,3218.8,236.57142857142856,632.1808016640799,3323.2,236.57142857142856,632.1808016640799,3424.5,236.57142857142856,632.1808016640799,3533.9,236.57142857142856,632.1808016640799,3634.6,236.57142857142856,632.1808016640799,3738.2,236.57142857142856,632.1808016640799,3844.8,236.57142857142856,632.1808016640799,3948.7,236.57142857142856,632.1808016640799,4053.8,236.57142857142856,632.1808016640799,4154.2,236.57142857142856,632.1808016640799,4263.4,236.57142857142856,632.1808016640799,4368.2,236.57142857142856,632.1808016640799,4468.5,236.57142857142856,632.1808016640799,4574,236.57142857142856,632.1808016640799,4683.7,236.57142857142856,632.1808016640799,4788.6,236.57142857142856,632.1808016640799,4888.7,236.57142857142856,632.1808016640799,4989.2]","[596.2,596.2,1000,0,-403.8,""error"",""-"",""-"",""no_move"",4050.7,3454.3,1929.7,1598.2,522.9,""smooth"",""down"",""down"",""good_move"",6989.7,2938.4,2387.2,4051.3,551.2,""smooth"",""down"",""down"",""good_move"",13315.6,6325.5,2661.7,10228.3,425.6,""smooth"",""down"",""down"",""good_move"",16424,3108.2,2658.8,13315.8,449.4,""smooth"",""left"",""left"",""good_move"",18772.1,2347.6,1909.7,16424.5,437.9,""smooth"",""left"",""left"",""good_move"",27758.1,8985.6,2189.7,25106.7,461.7,""smooth"",""left"",""left"",""good_move""]","",""
"5066","","<div style=""width:500px;"">
  <p>What determined the result of this run?</p>
  </div>","87","html-slider-response","48","1070062","0.0-10.0-1.1","51","1","2025-07-09 09:07:15","7701e855f2ef39aa3fd6c71abdc6918a","216.120.189.162","Mozilla/5.0 (Windows NT 10.0; Win64; x64) AppleWebKit/537.36 (KHTML, like Gecko) Chrome/138.0.0.0 Safari/537.36","WebKit","Chrome","138.0.0.0","Windows","10.0","https://app.prolific.com/","en-GB,en-US;q=0.9,en;q=0.8","667b366d0d0943e90dbee7d1","686d226cabeef709c732f8e1","686e31390e6ceb1995ece521","667b366d0d0943e90dbee7d1","2025-07-09T09:24:06.529Z","","","","","","AttribQ","","","","","","","","","","","","","","","","","","","","","","","","","","","","","","","","","","","","","","50"
"4398","","<div style=""width:500px;"">
  <p>How much control did you have over the ball?</p>
  </div>","84","html-slider-response","49","1074462","0.0-10.0-2.1","51","1","2025-07-09 09:07:15","7701e855f2ef39aa3fd6c71abdc6918a","216.120.189.162","Mozilla/5.0 (Windows NT 10.0; Win64; x64) AppleWebKit/537.36 (KHTML, like Gecko) Chrome/138.0.0.0 Safari/537.36","WebKit","Chrome","138.0.0.0","Windows","10.0","https://app.prolific.com/","en-GB,en-US;q=0.9,en;q=0.8","667b366d0d0943e90dbee7d1","686d226cabeef709c732f8e1","686e31390e6ceb1995ece521","667b366d0d0943e90dbee7d1","2025-07-09T09:24:10.929Z","","","","","","ControlQ","","","","","","","","","","","","","","","","","","","","","","","","","","","","","","","","","","","","","","50"
"5359","","<div style=""width:500px;"">
  <p>How would you describe your current emotional state?</p>
  </div>","5","html-slider-response","50","1079823","0.0-10.0-3.1","51","1","2025-07-09 09:07:15","7701e855f2ef39aa3fd6c71abdc6918a","216.120.189.162","Mozilla/5.0 (Windows NT 10.0; Win64; x64) AppleWebKit/537.36 (KHTML, like Gecko) Chrome/138.0.0.0 Safari/537.36","WebKit","Chrome","138.0.0.0","Windows","10.0","https://app.prolific.com/","en-GB,en-US;q=0.9,en;q=0.8","667b366d0d0943e90dbee7d1","686d226cabeef709c732f8e1","686e31390e6ceb1995ece521","667b366d0d0943e90dbee7d1","2025-07-09T09:24:16.290Z","","","","","","StressQ","","","","","","","","","","","","","","","","","","","","","","","","","","","","","","","","","","","","","","50"
"5291","","<div style=""width:500px;"">
  <p>What best describes how you currently feel?</p>
  </div>","90","html-slider-response","51","1085116","0.0-10.0-4.1","51","1","2025-07-09 09:07:15","7701e855f2ef39aa3fd6c71abdc6918a","216.120.189.162","Mozilla/5.0 (Windows NT 10.0; Win64; x64) AppleWebKit/537.36 (KHTML, like Gecko) Chrome/138.0.0.0 Safari/537.36","WebKit","Chrome","138.0.0.0","Windows","10.0","https://app.prolific.com/","en-GB,en-US;q=0.9,en;q=0.8","667b366d0d0943e90dbee7d1","686d226cabeef709c732f8e1","686e31390e6ceb1995ece521","667b366d0d0943e90dbee7d1","2025-07-09T09:24:21.583Z","","","","","","MotivationQ","","","","","","","","","","","","","","","","","","","","","","","","","","","","","","","","","","","","","","50"
"","","","","ctl-task-cpt","52","1115759","0.0-10.0-0.2","51","1","2025-07-09 09:07:15","7701e855f2ef39aa3fd6c71abdc6918a","216.120.189.162","Mozilla/5.0 (Windows NT 10.0; Win64; x64) AppleWebKit/537.36 (KHTML, like Gecko) Chrome/138.0.0.0 Safari/537.36","WebKit","Chrome","138.0.0.0","Windows","10.0","https://app.prolific.com/","en-GB,en-US;q=0.9,en;q=0.8","667b366d0d0943e90dbee7d1","686d226cabeef709c732f8e1","686e31390e6ceb1995ece521","667b366d0d0943e90dbee7d1","2025-07-09T09:24:52.226Z","","","","","","","","","","","","","","","","win-only","1","g1:NE,g2:SW","0.8","3","0","1088595.8","2533.2","7536.7","27615.5","1","4","8","6","2","8","8","19","11","0.14393939393939395","1876.2","3000","900","[""down"",""left""]","{""num_key_presses"":6,""num_perfect"":6,""num_errors"":0,""num_randdir"":0,""num_randdir_good_moves"":0,""num_whilered"":0,""num_whileblue"":0,""num_blue"":1,""num_good_moves"":6}","[413.57142857142856,410.1808016640799,0.3,413.57142857142856,410.1808016640799,104.3,413.57142857142856,410.1808016640799,211.3,413.57142857142856,410.1808016640799,312.9,413.57142857142856,410.1808016640799,417,413.57142857142856,410.1808016640799,517.3,413.57142857142856,410.1808016640799,618.1,413.57142857142856,410.1808016640799,719.4,413.57142857142856,410.1808016640799,823,413.57142857142856,410.1808016640799,934.1,287.57142857142856,605.1808016640799,1038.6,175.07142857142856,684.6808016640799,1147.7,121.07142857142857,720.6808016640799,1253.3,106.07142857142857,723.6808016640799,1363.3,73.07142857142857,774.6808016640799,1468.5,59.57142857142857,809.1808016640799,1572.2,59.57142857142857,806.1808016640799,1673.3,59.57142857142857,806.1808016640799,1785.7,59.57142857142857,806.1808016640799,1887.3,59.57142857142857,806.1808016640799,1992.6,59.57142857142857,806.1808016640799,2097.4,59.57142857142857,806.1808016640799,2203.4,59.57142857142857,806.1808016640799,2318.5,59.57142857142857,806.1808016640799,2426.9,59.57142857142857,806.1808016640799,2527.9,59.57142857142857,806.1808016640799,2632.9,59.57142857142857,806.1808016640799,2734,59.57142857142857,806.1808016640799,2839.2,59.57142857142857,806.1808016640799,2945,59.57142857142857,806.1808016640799,3050.3,107.57142857142857,761.1808016640799,3151.7,259.07142857142856,669.6808016640799,3252.8,332.57142857142856,635.1808016640799,3353.4,452.57142857142856,555.6808016640799,3459.2,500.57142857142856,500.1808016640799,3567.8,527.5714285714286,471.6808016640799,3678.8,530.5714285714286,467.1808016640799,3779.6,514.0714285714286,455.1808016640799,3882.9,481.07142857142856,420.6808016640799,3988.7,476.57142857142856,392.1808016640799,4102.4,476.57142857142856,392.1808016640799,4212.3,476.57142857142856,392.1808016640799,4313.6,476.57142857142856,392.1808016640799,4418.2,476.57142857142856,392.1808016640799,4518.4,476.57142857142856,392.1808016640799,4627.9,476.57142857142856,392.1808016640799,4729.6,476.57142857142856,392.1808016640799,4832.4,476.57142857142856,392.1808016640799,4932.9]","[4973.9,4973.9,2531.3,2004.5,438.1,""smooth"",""down"",""down"",""good_move"",8008.1,3033.7,2587.9,4974.4,445.8,""smooth"",""down"",""down"",""good_move"",10625.6,2617.1,2188.9,8008.5,428.3,""smooth"",""down"",""down"",""good_move"",14088.8,3462.8,3046,10626.1,416.8,""smooth"",""left"",""left"",""good_move"",16888.5,2799.1,2356,14089.5,443,""smooth"",""left"",""left"",""good_move"",19986.4,3097.7,2661.6,16888.9,436,""smooth"",""left"",""left"",""good_move""]","",""
"2935","","<div style=""width:500px;"">
  <p>What determined the result of this run?</p>
  </div>","95","html-slider-response","53","1118696","0.0-10.0-1.2","51","1","2025-07-09 09:07:15","7701e855f2ef39aa3fd6c71abdc6918a","216.120.189.162","Mozilla/5.0 (Windows NT 10.0; Win64; x64) AppleWebKit/537.36 (KHTML, like Gecko) Chrome/138.0.0.0 Safari/537.36","WebKit","Chrome","138.0.0.0","Windows","10.0","https://app.prolific.com/","en-GB,en-US;q=0.9,en;q=0.8","667b366d0d0943e90dbee7d1","686d226cabeef709c732f8e1","686e31390e6ceb1995ece521","667b366d0d0943e90dbee7d1","2025-07-09T09:24:55.163Z","","","","","","AttribQ","","","","","","","","","","","","","","","","","","","","","","","","","","","","","","","","","","","","","","50"
"2705","","<div style=""width:500px;"">
  <p>How much control did you have over the ball?</p>
  </div>","100","html-slider-response","54","1121402","0.0-10.0-2.2","51","1","2025-07-09 09:07:15","7701e855f2ef39aa3fd6c71abdc6918a","216.120.189.162","Mozilla/5.0 (Windows NT 10.0; Win64; x64) AppleWebKit/537.36 (KHTML, like Gecko) Chrome/138.0.0.0 Safari/537.36","WebKit","Chrome","138.0.0.0","Windows","10.0","https://app.prolific.com/","en-GB,en-US;q=0.9,en;q=0.8","667b366d0d0943e90dbee7d1","686d226cabeef709c732f8e1","686e31390e6ceb1995ece521","667b366d0d0943e90dbee7d1","2025-07-09T09:24:57.869Z","","","","","","ControlQ","","","","","","","","","","","","","","","","","","","","","","","","","","","","","","","","","","","","","","50"
"3494","","<div style=""width:500px;"">
  <p>How would you describe your current emotional state?</p>
  </div>","6","html-slider-response","55","1124897","0.0-10.0-3.2","51","1","2025-07-09 09:07:15","7701e855f2ef39aa3fd6c71abdc6918a","216.120.189.162","Mozilla/5.0 (Windows NT 10.0; Win64; x64) AppleWebKit/537.36 (KHTML, like Gecko) Chrome/138.0.0.0 Safari/537.36","WebKit","Chrome","138.0.0.0","Windows","10.0","https://app.prolific.com/","en-GB,en-US;q=0.9,en;q=0.8","667b366d0d0943e90dbee7d1","686d226cabeef709c732f8e1","686e31390e6ceb1995ece521","667b366d0d0943e90dbee7d1","2025-07-09T09:25:01.364Z","","","","","","StressQ","","","","","","","","","","","","","","","","","","","","","","","","","","","","","","","","","","","","","","50"
"2173","","<div style=""width:500px;"">
  <p>What best describes how you currently feel?</p>
  </div>","95","html-slider-response","56","1127072","0.0-10.0-4.2","51","1","2025-07-09 09:07:15","7701e855f2ef39aa3fd6c71abdc6918a","216.120.189.162","Mozilla/5.0 (Windows NT 10.0; Win64; x64) AppleWebKit/537.36 (KHTML, like Gecko) Chrome/138.0.0.0 Safari/537.36","WebKit","Chrome","138.0.0.0","Windows","10.0","https://app.prolific.com/","en-GB,en-US;q=0.9,en;q=0.8","667b366d0d0943e90dbee7d1","686d226cabeef709c732f8e1","686e31390e6ceb1995ece521","667b366d0d0943e90dbee7d1","2025-07-09T09:25:03.539Z","","","","","","MotivationQ","","","","","","","","","","","","","","","","","","","","","","","","","","","","","","","","","","","","","","50"
"","","","","ctl-task-cpt","57","1168273","0.0-10.0-0.3","51","1","2025-07-09 09:07:15","7701e855f2ef39aa3fd6c71abdc6918a","216.120.189.162","Mozilla/5.0 (Windows NT 10.0; Win64; x64) AppleWebKit/537.36 (KHTML, like Gecko) Chrome/138.0.0.0 Safari/537.36","WebKit","Chrome","138.0.0.0","Windows","10.0","https://app.prolific.com/","en-GB,en-US;q=0.9,en;q=0.8","667b366d0d0943e90dbee7d1","686d226cabeef709c732f8e1","686e31390e6ceb1995ece521","667b366d0d0943e90dbee7d1","2025-07-09T09:25:44.740Z","","","","","","","","","","","","","","","","win-only","3","g1:SW,g2:NE","0.7","4","0","1130553.2","10262.8","15266.8","38179","1","4","4","6","2","-4","-5","14","19","0.10606060606060606","2192.8","3000","-2180","[""up"",""right""]","{""num_key_presses"":7,""num_perfect"":4,""num_errors"":1,""num_randdir"":2,""num_randdir_good_moves"":0,""num_whilered"":0,""num_whileblue"":1,""num_blue"":1,""num_good_moves"":4}","[418.07142857142856,407.1808016640799,0.5,418.07142857142856,407.1808016640799,102.9,418.07142857142856,407.1808016640799,202.9,418.07142857142856,407.1808016640799,303.3,418.07142857142856,407.1808016640799,411.9,418.07142857142856,407.1808016640799,512.9,418.07142857142856,407.1808016640799,612.9,418.07142857142856,407.1808016640799,715.2,418.07142857142856,407.1808016640799,818.2,418.07142857142856,407.1808016640799,918.6,418.07142857142856,407.1808016640799,1019.6,560.5714285714286,245.18080166407992,1122.9,638.5714285714286,167.18080166407992,1223.1,659.5714285714286,140.18080166407992,1325.7,668.5714285714286,116.18080166407994,1426.6,683.5714285714286,111.68080166407994,1527.6,746.5714285714286,104.18080166407994,1628,812.5714285714286,95.18080166407994,1729.6,812.5714285714286,95.18080166407994,1844.6,812.5714285714286,95.18080166407994,1948.3,812.5714285714286,95.18080166407994,2062.2,812.5714285714286,95.18080166407994,2164,812.5714285714286,95.18080166407994,2268,812.5714285714286,95.18080166407994,2373.2,812.5714285714286,95.18080166407994,2476.6,812.5714285714286,95.18080166407994,2577.9,812.5714285714286,95.18080166407994,2683.6,812.5714285714286,95.18080166407994,2788.5,812.5714285714286,95.18080166407994,2891.6,767.5714285714286,128.18080166407992,2993.3,674.5714285714286,194.18080166407992,3093.4,605.5714285714286,254.18080166407992,3197.9,491.57142857142856,378.6808016640799,3313,469.07142857142856,395.1808016640799,3427.4,469.07142857142856,390.6808016640799,3527.8,445.07142857142856,408.6808016640799,3628.3,382.07142857142856,455.1808016640799,3733,359.57142857142856,476.1808016640799,3838.1,358.07142857142856,473.1808016640799,3938.1,358.07142857142856,473.1808016640799,4038.9,358.07142857142856,473.1808016640799,4143.1,358.07142857142856,473.1808016640799,4246.9,358.07142857142856,473.1808016640799,4360.6,358.07142857142856,473.1808016640799,4463.5,358.07142857142856,473.1808016640799,4563.9,358.07142857142856,473.1808016640799,4676.6,358.07142857142856,473.1808016640799,4776.7,358.07142857142856,473.1808016640799,4878.7,358.07142857142856,473.1808016640799,4993.8]","[1520,1520,1000,0,520,""smooth"",""up"",""up"",""good_move"",4225.2,2704.5,2004.7,1520.8,699.7,""smooth"",""up"",""up"",""good_move"",7546.3,3320.7,2561.8,4225.6,758.9,""smooth"",""up"",""up"",""good_move"",10833.7,3286.9,2901.6,7546.9,385.3,""while_blue"",""right"",""left"",""bad_move"",13616.8,2782.5,2273,10834.4,509.5,""smooth"",""right"",""right"",""good_move"",16391.5,2774,2098.4,13617.5,675.6,""oops"",""right"",""left"",""bad_move"",20178,3786.2,3384,16391.8,402.2,""oops"",""right"",""left"",""bad_move""]","",""
"8790","","<div style=""width:500px;"">
  <p>What determined the result of this run?</p>
  </div>","50","html-slider-response","58","1177065","0.0-10.0-1.3","51","1","2025-07-09 09:07:15","7701e855f2ef39aa3fd6c71abdc6918a","216.120.189.162","Mozilla/5.0 (Windows NT 10.0; Win64; x64) AppleWebKit/537.36 (KHTML, like Gecko) Chrome/138.0.0.0 Safari/537.36","WebKit","Chrome","138.0.0.0","Windows","10.0","https://app.prolific.com/","en-GB,en-US;q=0.9,en;q=0.8","667b366d0d0943e90dbee7d1","686d226cabeef709c732f8e1","686e31390e6ceb1995ece521","667b366d0d0943e90dbee7d1","2025-07-09T09:25:53.532Z","","","","","","AttribQ","","","","","","","","","","","","","","","","","","","","","","","","","","","","","","","","","","","","","","50"
"4799","","<div style=""width:500px;"">
  <p>How much control did you have over the ball?</p>
  </div>","15","html-slider-response","59","1181865","0.0-10.0-2.3","51","1","2025-07-09 09:07:15","7701e855f2ef39aa3fd6c71abdc6918a","216.120.189.162","Mozilla/5.0 (Windows NT 10.0; Win64; x64) AppleWebKit/537.36 (KHTML, like Gecko) Chrome/138.0.0.0 Safari/537.36","WebKit","Chrome","138.0.0.0","Windows","10.0","https://app.prolific.com/","en-GB,en-US;q=0.9,en;q=0.8","667b366d0d0943e90dbee7d1","686d226cabeef709c732f8e1","686e31390e6ceb1995ece521","667b366d0d0943e90dbee7d1","2025-07-09T09:25:58.332Z","","","","","","ControlQ","","","","","","","","","","","","","","","","","","","","","","","","","","","","","","","","","","","","","","50"
"5511","","<div style=""width:500px;"">
  <p>How would you describe your current emotional state?</p>
  </div>","9","html-slider-response","60","1187377","0.0-10.0-3.3","51","1","2025-07-09 09:07:15","7701e855f2ef39aa3fd6c71abdc6918a","216.120.189.162","Mozilla/5.0 (Windows NT 10.0; Win64; x64) AppleWebKit/537.36 (KHTML, like Gecko) Chrome/138.0.0.0 Safari/537.36","WebKit","Chrome","138.0.0.0","Windows","10.0","https://app.prolific.com/","en-GB,en-US;q=0.9,en;q=0.8","667b366d0d0943e90dbee7d1","686d226cabeef709c732f8e1","686e31390e6ceb1995ece521","667b366d0d0943e90dbee7d1","2025-07-09T09:26:03.844Z","","","","","","StressQ","","","","","","","","","","","","","","","","","","","","","","","","","","","","","","","","","","","","","","50"
"5458","","<div style=""width:500px;"">
  <p>What best describes how you currently feel?</p>
  </div>","89","html-slider-response","61","1192837","0.0-10.0-4.3","51","1","2025-07-09 09:07:15","7701e855f2ef39aa3fd6c71abdc6918a","216.120.189.162","Mozilla/5.0 (Windows NT 10.0; Win64; x64) AppleWebKit/537.36 (KHTML, like Gecko) Chrome/138.0.0.0 Safari/537.36","WebKit","Chrome","138.0.0.0","Windows","10.0","https://app.prolific.com/","en-GB,en-US;q=0.9,en;q=0.8","667b366d0d0943e90dbee7d1","686d226cabeef709c732f8e1","686e31390e6ceb1995ece521","667b366d0d0943e90dbee7d1","2025-07-09T09:26:09.304Z","","","","","","MotivationQ","","","","","","","","","","","","","","","","","","","","","","","","","","","","","","","","","","","","","","50"
"","","","","ctl-task-cpt","62","1235532","0.0-10.0-0.4","51","1","2025-07-09 09:07:15","7701e855f2ef39aa3fd6c71abdc6918a","216.120.189.162","Mozilla/5.0 (Windows NT 10.0; Win64; x64) AppleWebKit/537.36 (KHTML, like Gecko) Chrome/138.0.0.0 Safari/537.36","WebKit","Chrome","138.0.0.0","Windows","10.0","https://app.prolific.com/","en-GB,en-US;q=0.9,en;q=0.8","667b366d0d0943e90dbee7d1","686d226cabeef709c732f8e1","686e31390e6ceb1995ece521","667b366d0d0943e90dbee7d1","2025-07-09T09:26:51.999Z","","","","","","","","","","","","","","","","win-only","2","g1:SE,g2:NW","0.6","5","0","1196317.4","2055.8","7057.1","39675.8","1","4","4","6","2","-4","-4","10","14","0.07575757575757576","2042.6","3000","-2275","[""left"",""up""]","{""num_key_presses"":8,""num_perfect"":4,""num_errors"":0,""num_randdir"":4,""num_randdir_good_moves"":2,""num_whilered"":0,""num_whileblue"":0,""num_blue"":2,""num_good_moves"":6}","[416.57142857142856,425.1808016640799,0.3,416.57142857142856,425.1808016640799,100.8,416.57142857142856,425.1808016640799,211.1,416.57142857142856,425.1808016640799,311.5,416.57142857142856,425.1808016640799,415.3,416.57142857142856,425.1808016640799,516.8,416.57142857142856,425.1808016640799,632.6,416.57142857142856,425.1808016640799,736.7,416.57142857142856,425.1808016640799,841,49.07142857142857,137.18080166407992,950.2,5.571428571428569,117.68080166407994,1050.2,-60.42857142857143,27.680801664079937,1150.3,-72.42857142857143,18.680801664079937,1255.9,-48.42857142857143,14.180801664079937,1364.9,-34.92857142857143,24.680801664079937,1465.1,-12.42857142857143,47.18080166407994,1572.6,35.57142857142857,77.18080166407994,1681.9,38.57142857142857,77.18080166407994,1782.8,38.57142857142857,77.18080166407994,1895.6,38.57142857142857,77.18080166407994,2001.8,38.57142857142857,77.18080166407994,2115.3,38.57142857142857,77.18080166407994,2228.8,38.57142857142857,77.18080166407994,2330.2,38.57142857142857,77.18080166407994,2431.4,38.57142857142857,77.18080166407994,2532.1,76.07142857142857,93.68080166407994,2635.9,274.07142857142856,189.68080166407992,2749.6,383.57142857142856,254.18080166407992,2850.1,422.57142857142856,284.1808016640799,2956.2,425.57142857142856,297.6808016640799,3056.8,419.57142857142856,315.6808016640799,3156.8,455.57142857142856,366.6808016640799,3262.4,463.07142857142856,372.6808016640799,3366.8,463.07142857142856,372.6808016640799,3481.5,463.07142857142856,372.6808016640799,3586.9,463.07142857142856,372.6808016640799,3691,463.07142857142856,372.6808016640799,3791.1,463.07142857142856,372.6808016640799,3896.4,500.57142857142856,437.1808016640799,4011.6,511.07142857142856,446.1808016640799,4115.3,511.07142857142856,446.1808016640799,4221.3,511.07142857142856,446.1808016640799,4322.4,511.07142857142856,446.1808016640799,4426.2,511.07142857142856,446.1808016640799,4530.8,511.07142857142856,446.1808016640799,4644.8,511.07142857142856,446.1808016640799,4745.4,511.07142857142856,446.1808016640799,4846.9,511.07142857142856,446.1808016640799,4961.7]","[1413.4,1413.4,1000,0,413.4,""smooth"",""up"",""up"",""good_move"",4421.4,3007.2,2515.6,1414.4,491.4,""smooth"",""up"",""up"",""good_move"",7733.2,3311.6,2798.8,4421.6,512.8,""oops"",""up"",""down"",""bad_move"",10868.3,3134.5,2579.3,7733.8,555.2,""smooth"",""left"",""left"",""good_move"",13772.3,2903.4,2458.4,10868.9,445,""smooth"",""left"",""left"",""good_move"",17098.9,3326.4,2905.2,13772.5,421.2,""oops"",""left"",""left"",""good_move"",27130.1,10030.9,2605.9,23964.7,559.5,""oops"",""up"",""right"",""bad_move"",30437.5,3306.8,2609.1,27130.7,697.7,""oops"",""left"",""left"",""good_move""]","",""
"4340","","<div style=""width:500px;"">
  <p>What determined the result of this run?</p>
  </div>","30","html-slider-response","63","1239875","0.0-10.0-1.4","51","1","2025-07-09 09:07:15","7701e855f2ef39aa3fd6c71abdc6918a","216.120.189.162","Mozilla/5.0 (Windows NT 10.0; Win64; x64) AppleWebKit/537.36 (KHTML, like Gecko) Chrome/138.0.0.0 Safari/537.36","WebKit","Chrome","138.0.0.0","Windows","10.0","https://app.prolific.com/","en-GB,en-US;q=0.9,en;q=0.8","667b366d0d0943e90dbee7d1","686d226cabeef709c732f8e1","686e31390e6ceb1995ece521","667b366d0d0943e90dbee7d1","2025-07-09T09:26:56.342Z","","","","","","AttribQ","","","","","","","","","","","","","","","","","","","","","","","","","","","","","","","","","","","","","","50"
"5268","","<div style=""width:500px;"">
  <p>How much control did you have over the ball?</p>
  </div>","20","html-slider-response","64","1245144","0.0-10.0-2.4","51","1","2025-07-09 09:07:15","7701e855f2ef39aa3fd6c71abdc6918a","216.120.189.162","Mozilla/5.0 (Windows NT 10.0; Win64; x64) AppleWebKit/537.36 (KHTML, like Gecko) Chrome/138.0.0.0 Safari/537.36","WebKit","Chrome","138.0.0.0","Windows","10.0","https://app.prolific.com/","en-GB,en-US;q=0.9,en;q=0.8","667b366d0d0943e90dbee7d1","686d226cabeef709c732f8e1","686e31390e6ceb1995ece521","667b366d0d0943e90dbee7d1","2025-07-09T09:27:01.611Z","","","","","","ControlQ","","","","","","","","","","","","","","","","","","","","","","","","","","","","","","","","","","","","","","50"
"3989","","<div style=""width:500px;"">
  <p>How would you describe your current emotional state?</p>
  </div>","10","html-slider-response","65","1249134","0.0-10.0-3.4","51","1","2025-07-09 09:07:15","7701e855f2ef39aa3fd6c71abdc6918a","216.120.189.162","Mozilla/5.0 (Windows NT 10.0; Win64; x64) AppleWebKit/537.36 (KHTML, like Gecko) Chrome/138.0.0.0 Safari/537.36","WebKit","Chrome","138.0.0.0","Windows","10.0","https://app.prolific.com/","en-GB,en-US;q=0.9,en;q=0.8","667b366d0d0943e90dbee7d1","686d226cabeef709c732f8e1","686e31390e6ceb1995ece521","667b366d0d0943e90dbee7d1","2025-07-09T09:27:05.601Z","","","","","","StressQ","","","","","","","","","","","","","","","","","","","","","","","","","","","","","","","","","","","","","","50"
"3509","","<div style=""width:500px;"">
  <p>What best describes how you currently feel?</p>
  </div>","84","html-slider-response","66","1252645","0.0-10.0-4.4","51","1","2025-07-09 09:07:15","7701e855f2ef39aa3fd6c71abdc6918a","216.120.189.162","Mozilla/5.0 (Windows NT 10.0; Win64; x64) AppleWebKit/537.36 (KHTML, like Gecko) Chrome/138.0.0.0 Safari/537.36","WebKit","Chrome","138.0.0.0","Windows","10.0","https://app.prolific.com/","en-GB,en-US;q=0.9,en;q=0.8","667b366d0d0943e90dbee7d1","686d226cabeef709c732f8e1","686e31390e6ceb1995ece521","667b366d0d0943e90dbee7d1","2025-07-09T09:27:09.112Z","","","","","","MotivationQ","","","","","","","","","","","","","","","","","","","","","","","","","","","","","","","","","","","","","","50"
"","","","","ctl-task-cpt","67","1285430","0.0-10.0-0.5","51","1","2025-07-09 09:07:15","7701e855f2ef39aa3fd6c71abdc6918a","216.120.189.162","Mozilla/5.0 (Windows NT 10.0; Win64; x64) AppleWebKit/537.36 (KHTML, like Gecko) Chrome/138.0.0.0 Safari/537.36","WebKit","Chrome","138.0.0.0","Windows","10.0","https://app.prolific.com/","en-GB,en-US;q=0.9,en;q=0.8","667b366d0d0943e90dbee7d1","686d226cabeef709c732f8e1","686e31390e6ceb1995ece521","667b366d0d0943e90dbee7d1","2025-07-09T09:27:41.897Z","","","","","","","","","","","","","","","","win-only","3","g1:SW,g2:NE","0.5","6","0","1256125.5","1868","6873.2","29777.5","1","4","8","6","2","-8","-10","0","10","0","1761","3000","-2000","[""up"",""right""]","{""num_key_presses"":7,""num_perfect"":1,""num_errors"":2,""num_randdir"":4,""num_randdir_good_moves"":1,""num_whilered"":0,""num_whileblue"":1,""num_blue"":1,""num_good_moves"":1}","[416.57142857142856,411.6808016640799,0.3,416.57142857142856,411.6808016640799,112.1,416.57142857142856,411.6808016640799,212.6,416.57142857142856,411.6808016640799,316,416.57142857142856,411.6808016640799,424.9,416.57142857142856,411.6808016640799,528,416.57142857142856,411.6808016640799,628.8,389.57142857142856,450.6808016640799,729.4,401.57142857142856,429.6808016640799,841.4,620.5714285714286,162.68080166407992,944.2,671.5714285714286,125.18080166407994,1045.3,671.5714285714286,125.18080166407994,1147.7,676.0714285714286,122.18080166407994,1260.7,743.5714285714286,107.18080166407994,1363.9,761.5714285714286,95.18080166407994,1469.7,767.5714285714286,87.68080166407994,1569.7,767.5714285714286,87.68080166407994,1673.3,767.5714285714286,87.68080166407994,1774.3,767.5714285714286,87.68080166407994,1880.1,767.5714285714286,87.68080166407994,1987.2,767.5714285714286,87.68080166407994,2090.8,767.5714285714286,87.68080166407994,2193,767.5714285714286,87.68080166407994,2293,749.5714285714286,107.18080166407994,2394.6,596.5714285714286,290.1808016640799,2496.8,500.57142857142856,401.1808016640799,2599,470.57142857142856,435.6808016640799,2714.1,470.57142857142856,435.6808016640799,2818.5,461.57142857142856,435.6808016640799,2918.6,406.07142857142856,464.1808016640799,3035.5,386.57142857142856,465.6808016640799,3139.6,385.07142857142856,465.6808016640799,3242.9,385.07142857142856,465.6808016640799,3355.6,385.07142857142856,465.6808016640799,3459.5,385.07142857142856,465.6808016640799,3566.7,385.07142857142856,465.6808016640799,3666.8,385.07142857142856,465.6808016640799,3769.4,385.07142857142856,465.6808016640799,3875.1,385.07142857142856,465.6808016640799,3975.2,385.07142857142856,465.6808016640799,4080.5,385.07142857142856,465.6808016640799,4183.2,385.07142857142856,465.6808016640799,4283.5,385.07142857142856,465.6808016640799,4387.9,385.07142857142856,465.6808016640799,4489,385.07142857142856,465.6808016640799,4598.3,385.07142857142856,465.6808016640799,4702.4,385.07142857142856,465.6808016640799,4803.9,385.07142857142856,465.6808016640799,4907.6]","[1539.6,1539.6,1000,0,539.6,""oops"",""up"",""left"",""bad_move"",4526.8,2986.6,2158,1540.2,828.6,""while_blue"",""right"",""down"",""bad_move"",8578.3,4050.7,2514.5,4527.6,1536.2,""oops"",""up"",""down"",""bad_move"",11056.8,2478.2,2034.9,8578.6,443.3,""oops"",""down"",""up"",""good_move"",13850.4,2793,2394.3,11057.4,398.7,""smooth"",""down"",""down"",""bad_move"",14787.8,937.2,2381.5,13850.6,-1444.3,""error"",""-"",""-"",""no_move"",19065.1,4276.9,2228.7,15793.9,1042.5,""oops"",""up"",""left"",""bad_move""]","",""
"7618","","<div style=""width:500px;"">
  <p>What determined the result of this run?</p>
  </div>","26","html-slider-response","68","1293049","0.0-10.0-1.5","51","1","2025-07-09 09:07:15","7701e855f2ef39aa3fd6c71abdc6918a","216.120.189.162","Mozilla/5.0 (Windows NT 10.0; Win64; x64) AppleWebKit/537.36 (KHTML, like Gecko) Chrome/138.0.0.0 Safari/537.36","WebKit","Chrome","138.0.0.0","Windows","10.0","https://app.prolific.com/","en-GB,en-US;q=0.9,en;q=0.8","667b366d0d0943e90dbee7d1","686d226cabeef709c732f8e1","686e31390e6ceb1995ece521","667b366d0d0943e90dbee7d1","2025-07-09T09:27:49.517Z","","","","","","AttribQ","","","","","","","","","","","","","","","","","","","","","","","","","","","","","","","","","","","","","","50"
"5364","","<div style=""width:500px;"">
  <p>How much control did you have over the ball?</p>
  </div>","12","html-slider-response","69","1298415","0.0-10.0-2.5","51","1","2025-07-09 09:07:15","7701e855f2ef39aa3fd6c71abdc6918a","216.120.189.162","Mozilla/5.0 (Windows NT 10.0; Win64; x64) AppleWebKit/537.36 (KHTML, like Gecko) Chrome/138.0.0.0 Safari/537.36","WebKit","Chrome","138.0.0.0","Windows","10.0","https://app.prolific.com/","en-GB,en-US;q=0.9,en;q=0.8","667b366d0d0943e90dbee7d1","686d226cabeef709c732f8e1","686e31390e6ceb1995ece521","667b366d0d0943e90dbee7d1","2025-07-09T09:27:54.882Z","","","","","","ControlQ","","","","","","","","","","","","","","","","","","","","","","","","","","","","","","","","","","","","","","50"
"3463","","<div style=""width:500px;"">
  <p>How would you describe your current emotional state?</p>
  </div>","28","html-slider-response","70","1301879","0.0-10.0-3.5","51","1","2025-07-09 09:07:15","7701e855f2ef39aa3fd6c71abdc6918a","216.120.189.162","Mozilla/5.0 (Windows NT 10.0; Win64; x64) AppleWebKit/537.36 (KHTML, like Gecko) Chrome/138.0.0.0 Safari/537.36","WebKit","Chrome","138.0.0.0","Windows","10.0","https://app.prolific.com/","en-GB,en-US;q=0.9,en;q=0.8","667b366d0d0943e90dbee7d1","686d226cabeef709c732f8e1","686e31390e6ceb1995ece521","667b366d0d0943e90dbee7d1","2025-07-09T09:27:58.346Z","","","","","","StressQ","","","","","","","","","","","","","","","","","","","","","","","","","","","","","","","","","","","","","","50"
"4961","","<div style=""width:500px;"">
  <p>What best describes how you currently feel?</p>
  </div>","90","html-slider-response","71","1306841","0.0-10.0-4.5","51","1","2025-07-09 09:07:15","7701e855f2ef39aa3fd6c71abdc6918a","216.120.189.162","Mozilla/5.0 (Windows NT 10.0; Win64; x64) AppleWebKit/537.36 (KHTML, like Gecko) Chrome/138.0.0.0 Safari/537.36","WebKit","Chrome","138.0.0.0","Windows","10.0","https://app.prolific.com/","en-GB,en-US;q=0.9,en;q=0.8","667b366d0d0943e90dbee7d1","686d226cabeef709c732f8e1","686e31390e6ceb1995ece521","667b366d0d0943e90dbee7d1","2025-07-09T09:28:03.309Z","","","","","","MotivationQ","","","","","","","","","","","","","","","","","","","","","","","","","","","","","","","","","","","","","","50"
"","","","","ctl-task-cpt","72","1364687","0.0-10.0-0.6","51","1","2025-07-09 09:07:15","7701e855f2ef39aa3fd6c71abdc6918a","216.120.189.162","Mozilla/5.0 (Windows NT 10.0; Win64; x64) AppleWebKit/537.36 (KHTML, like Gecko) Chrome/138.0.0.0 Safari/537.36","WebKit","Chrome","138.0.0.0","Windows","10.0","https://app.prolific.com/","en-GB,en-US;q=0.9,en;q=0.8","667b366d0d0943e90dbee7d1","686d226cabeef709c732f8e1","686e31390e6ceb1995ece521","667b366d0d0943e90dbee7d1","2025-07-09T09:29:01.154Z","","","","","","","","","","","","","","","","win-only","0","g1:NW,g2:SE","0.4","7","0","1310321.9","2005.1","7007.4","54826.6","1","4","4","6","2","-4","-5","0","0","0","3118.2","3000","-2030","[""down"",""right""]","{""num_key_presses"":9,""num_perfect"":4,""num_errors"":1,""num_randdir"":4,""num_randdir_good_moves"":2,""num_whilered"":0,""num_whileblue"":1,""num_blue"":6,""num_good_moves"":6}","[427.07142857142856,414.6808016640799,0.4,427.07142857142856,414.6808016640799,102.7,427.07142857142856,414.6808016640799,222.7,427.07142857142856,414.6808016640799,328.8,427.07142857142856,414.6808016640799,430.9,427.07142857142856,414.6808016640799,537.3,427.07142857142856,414.6808016640799,649.5,427.07142857142856,414.6808016640799,754.9,427.07142857142856,414.6808016640799,858,427.07142857142856,414.6808016640799,971.9,427.07142857142856,414.6808016640799,1082.7,493.07142857142856,458.1808016640799,1189.3,530.5714285714286,488.1808016640799,1292.4,536.5714285714286,489.6808016640799,1404.3,467.57142857142856,492.6808016640799,1509.7,424.07142857142856,473.1808016640799,1621.6,407.57142857142856,449.1808016640799,1722.2,388.07142857142856,425.1808016640799,1832.8,374.57142857142856,413.1808016640799,1937.7,374.57142857142856,410.1808016640799,2039.2,364.07142857142856,395.1808016640799,2142.8,364.07142857142856,392.1808016640799,2251.6,458.57142857142856,437.1808016640799,2370.6,611.5714285714286,608.1808016640799,2479.9,706.0714285714286,773.1808016640799,2584.2,733.0714285714286,773.1808016640799,2689.1,733.0714285714286,773.1808016640799,2793.1,733.0714285714286,773.1808016640799,2896.5,733.0714285714286,773.1808016640799,3002,733.0714285714286,773.1808016640799,3107.5,733.0714285714286,773.1808016640799,3210,733.0714285714286,773.1808016640799,3311.3,733.0714285714286,773.1808016640799,3414.7,733.0714285714286,773.1808016640799,3515,733.0714285714286,773.1808016640799,3616.1,733.0714285714286,773.1808016640799,3726.4,733.0714285714286,773.1808016640799,3826.6,733.0714285714286,773.1808016640799,3931.3,733.0714285714286,773.1808016640799,4035.9,733.0714285714286,773.1808016640799,4137,733.0714285714286,773.1808016640799,4239.7,733.0714285714286,773.1808016640799,4348.5,733.0714285714286,773.1808016640799,4451.2,733.0714285714286,773.1808016640799,4551.3,733.0714285714286,773.1808016640799,4658.1,733.0714285714286,773.1808016640799,4760.1,733.0714285714286,773.1808016640799,4860.7,733.0714285714286,773.1808016640799,4962.1]","[1564,1564,1000,0,564,""oops"",""right"",""right"",""good_move"",8473.5,6908.8,2357.6,5652.8,463.1,""smooth"",""right"",""right"",""good_move"",17793.8,9320.1,1413.7,15934.8,445.3,""oops"",""right"",""left"",""bad_move"",21446.6,3652.2,3091,17794.4,561.2,""smooth"",""down"",""down"",""good_move"",32731.6,11284.3,2728.4,29511.9,491.3,""oops"",""down"",""right"",""good_move"",36294.3,3562.1,2995.8,32732.2,566.3,""oops"",""down"",""up"",""bad_move"",39264.1,2969.1,2458.9,36295,510.2,""while_blue"",""right"",""left"",""bad_move"",41826.9,2562.4,2121.7,39264.5,440.7,""smooth"",""down"",""down"",""good_move"",44795.9,2968.5,2508.9,41827.4,459.6,""smooth"",""down"",""down"",""good_move""]","",""
"11163","","<div style=""width:500px;"">
  <p>What determined the result of this run?</p>
  </div>","21","html-slider-response","73","1375852","0.0-10.0-1.6","51","1","2025-07-09 09:07:15","7701e855f2ef39aa3fd6c71abdc6918a","216.120.189.162","Mozilla/5.0 (Windows NT 10.0; Win64; x64) AppleWebKit/537.36 (KHTML, like Gecko) Chrome/138.0.0.0 Safari/537.36","WebKit","Chrome","138.0.0.0","Windows","10.0","https://app.prolific.com/","en-GB,en-US;q=0.9,en;q=0.8","667b366d0d0943e90dbee7d1","686d226cabeef709c732f8e1","686e31390e6ceb1995ece521","667b366d0d0943e90dbee7d1","2025-07-09T09:29:12.319Z","","","","","","AttribQ","","","","","","","","","","","","","","","","","","","","","","","","","","","","","","","","","","","","","","50"
"4700","","<div style=""width:500px;"">
  <p>How much control did you have over the ball?</p>
  </div>","10","html-slider-response","74","1380555","0.0-10.0-2.6","51","1","2025-07-09 09:07:15","7701e855f2ef39aa3fd6c71abdc6918a","216.120.189.162","Mozilla/5.0 (Windows NT 10.0; Win64; x64) AppleWebKit/537.36 (KHTML, like Gecko) Chrome/138.0.0.0 Safari/537.36","WebKit","Chrome","138.0.0.0","Windows","10.0","https://app.prolific.com/","en-GB,en-US;q=0.9,en;q=0.8","667b366d0d0943e90dbee7d1","686d226cabeef709c732f8e1","686e31390e6ceb1995ece521","667b366d0d0943e90dbee7d1","2025-07-09T09:29:17.022Z","","","","","","ControlQ","","","","","","","","","","","","","","","","","","","","","","","","","","","","","","","","","","","","","","50"
"4078","","<div style=""width:500px;"">
  <p>How would you describe your current emotional state?</p>
  </div>","13","html-slider-response","75","1384634","0.0-10.0-3.6","51","1","2025-07-09 09:07:15","7701e855f2ef39aa3fd6c71abdc6918a","216.120.189.162","Mozilla/5.0 (Windows NT 10.0; Win64; x64) AppleWebKit/537.36 (KHTML, like Gecko) Chrome/138.0.0.0 Safari/537.36","WebKit","Chrome","138.0.0.0","Windows","10.0","https://app.prolific.com/","en-GB,en-US;q=0.9,en;q=0.8","667b366d0d0943e90dbee7d1","686d226cabeef709c732f8e1","686e31390e6ceb1995ece521","667b366d0d0943e90dbee7d1","2025-07-09T09:29:21.101Z","","","","","","StressQ","","","","","","","","","","","","","","","","","","","","","","","","","","","","","","","","","","","","","","50"
"4140","","<div style=""width:500px;"">
  <p>What best describes how you currently feel?</p>
  </div>","98","html-slider-response","76","1388776","0.0-10.0-4.6","51","1","2025-07-09 09:07:15","7701e855f2ef39aa3fd6c71abdc6918a","216.120.189.162","Mozilla/5.0 (Windows NT 10.0; Win64; x64) AppleWebKit/537.36 (KHTML, like Gecko) Chrome/138.0.0.0 Safari/537.36","WebKit","Chrome","138.0.0.0","Windows","10.0","https://app.prolific.com/","en-GB,en-US;q=0.9,en;q=0.8","667b366d0d0943e90dbee7d1","686d226cabeef709c732f8e1","686e31390e6ceb1995ece521","667b366d0d0943e90dbee7d1","2025-07-09T09:29:25.243Z","","","","","","MotivationQ","","","","","","","","","","","","","","","","","","","","","","","","","","","","","","","","","","","","","","50"
"","","","","ctl-task-cpt","77","1428469","0.0-10.0-0.7","51","1","2025-07-09 09:07:15","7701e855f2ef39aa3fd6c71abdc6918a","216.120.189.162","Mozilla/5.0 (Windows NT 10.0; Win64; x64) AppleWebKit/537.36 (KHTML, like Gecko) Chrome/138.0.0.0 Safari/537.36","WebKit","Chrome","138.0.0.0","Windows","10.0","https://app.prolific.com/","en-GB,en-US;q=0.9,en;q=0.8","667b366d0d0943e90dbee7d1","686d226cabeef709c732f8e1","686e31390e6ceb1995ece521","667b366d0d0943e90dbee7d1","2025-07-09T09:30:04.936Z","","","","","","","","","","","","","","","","win-only","2","g1:SE,g2:NW","0.3","8","0","1392259.6","2483.1","7487.1","36662.8","1","4","8","6","2","-8","-9","0","0","0","1701.1","3000","-1985","[""left"",""up""]","{""num_key_presses"":9,""num_perfect"":3,""num_errors"":1,""num_randdir"":5,""num_randdir_good_moves"":1,""num_whilered"":0,""num_whileblue"":0,""num_blue"":0,""num_good_moves"":4}","[421.07142857142856,422.1808016640799,0.3,421.07142857142856,422.1808016640799,104.1,421.07142857142856,422.1808016640799,222.1,421.07142857142856,422.1808016640799,335.9,421.07142857142856,422.1808016640799,441.4,421.07142857142856,422.1808016640799,543.8,421.07142857142856,422.1808016640799,644.5,421.07142857142856,422.1808016640799,746,421.07142857142856,422.1808016640799,848.7,284.57142857142856,380.1808016640799,953.4,98.57142857142857,212.18080166407992,1074.2,83.57142857142857,138.68080166407992,1174.3,80.57142857142857,98.18080166407994,1275.3,89.57142857142857,98.18080166407994,1380.3,89.57142857142857,96.68080166407994,1483.1,89.57142857142857,96.68080166407994,1588.3,89.57142857142857,96.68080166407994,1705.1,89.57142857142857,96.68080166407994,1806.5,89.57142857142857,96.68080166407994,1908.2,89.57142857142857,96.68080166407994,2009.4,89.57142857142857,96.68080166407994,2110,139.07142857142856,126.68080166407994,2213.4,317.57142857142856,261.6808016640799,2316.1,365.57142857142856,327.6808016640799,2427.9,391.07142857142856,351.6808016640799,2529.9,404.57142857142856,371.1808016640799,2634.9,425.57142857142856,455.1808016640799,2743.1,475.07142857142856,488.1808016640799,2844.9,475.07142857142856,488.1808016640799,2952.6,475.07142857142856,488.1808016640799,3060.6,475.07142857142856,488.1808016640799,3163.5,475.07142857142856,488.1808016640799,3264.7,475.07142857142856,488.1808016640799,3369.3,475.07142857142856,488.1808016640799,3477.2,475.07142857142856,488.1808016640799,3578.8,475.07142857142856,488.1808016640799,3681.3,475.07142857142856,488.1808016640799,3781.3,475.07142857142856,488.1808016640799,3882.9,475.07142857142856,488.1808016640799,3989.5,475.07142857142856,488.1808016640799,4089.7,475.07142857142856,488.1808016640799,4203.3,475.07142857142856,488.1808016640799,4317.8,475.07142857142856,488.1808016640799,4419.9,475.07142857142856,488.1808016640799,4522.4,475.07142857142856,488.1808016640799,4634.6,475.07142857142856,488.1808016640799,4734.9,475.07142857142856,488.1808016640799,4851.6,475.07142857142856,488.1808016640799,4972.2]","[1436.2,1436.2,1000,0,436.2,""oops"",""left"",""left"",""good_move"",4588.3,3151.3,2693.8,1437.1,457.4,""smooth"",""left"",""left"",""good_move"",7531.6,2943.1,2411.6,4588.6,531.5,""smooth"",""left"",""left"",""good_move"",10853.9,3321.9,2864.6,7532,457.3,""smooth"",""up"",""up"",""good_move"",13483.4,2628.9,2107.2,10854.5,521.7,""oops"",""up"",""down"",""bad_move"",16560.7,3076.7,2606.4,13484.1,470.2,""oops"",""up"",""down"",""bad_move"",19669.3,3108.3,2478.6,16561,629.8,""oops"",""up"",""down"",""bad_move"",22988.3,3318.5,2778.1,19669.8,540.4,""oops"",""up"",""right"",""bad_move"",24884.3,1895.5,2480.1,22988.8,-584.6,""error"",""-"",""-"",""no_move""]","",""
"4395","","<div style=""width:500px;"">
  <p>What determined the result of this run?</p>
  </div>","17","html-slider-response","78","1432865","0.0-10.0-1.7","51","1","2025-07-09 09:07:15","7701e855f2ef39aa3fd6c71abdc6918a","216.120.189.162","Mozilla/5.0 (Windows NT 10.0; Win64; x64) AppleWebKit/537.36 (KHTML, like Gecko) Chrome/138.0.0.0 Safari/537.36","WebKit","Chrome","138.0.0.0","Windows","10.0","https://app.prolific.com/","en-GB,en-US;q=0.9,en;q=0.8","667b366d0d0943e90dbee7d1","686d226cabeef709c732f8e1","686e31390e6ceb1995ece521","667b366d0d0943e90dbee7d1","2025-07-09T09:30:09.333Z","","","","","","AttribQ","","","","","","","","","","","","","","","","","","","","","","","","","","","","","","","","","","","","","","50"
"6093","","<div style=""width:500px;"">
  <p>How much control did you have over the ball?</p>
  </div>","2","html-slider-response","79","1438960","0.0-10.0-2.7","51","1","2025-07-09 09:07:15","7701e855f2ef39aa3fd6c71abdc6918a","216.120.189.162","Mozilla/5.0 (Windows NT 10.0; Win64; x64) AppleWebKit/537.36 (KHTML, like Gecko) Chrome/138.0.0.0 Safari/537.36","WebKit","Chrome","138.0.0.0","Windows","10.0","https://app.prolific.com/","en-GB,en-US;q=0.9,en;q=0.8","667b366d0d0943e90dbee7d1","686d226cabeef709c732f8e1","686e31390e6ceb1995ece521","667b366d0d0943e90dbee7d1","2025-07-09T09:30:15.427Z","","","","","","ControlQ","","","","","","","","","","","","","","","","","","","","","","","","","","","","","","","","","","","","","","50"
"4402","","<div style=""width:500px;"">
  <p>How would you describe your current emotional state?</p>
  </div>","8","html-slider-response","80","1443364","0.0-10.0-3.7","51","1","2025-07-09 09:07:15","7701e855f2ef39aa3fd6c71abdc6918a","216.120.189.162","Mozilla/5.0 (Windows NT 10.0; Win64; x64) AppleWebKit/537.36 (KHTML, like Gecko) Chrome/138.0.0.0 Safari/537.36","WebKit","Chrome","138.0.0.0","Windows","10.0","https://app.prolific.com/","en-GB,en-US;q=0.9,en;q=0.8","667b366d0d0943e90dbee7d1","686d226cabeef709c732f8e1","686e31390e6ceb1995ece521","667b366d0d0943e90dbee7d1","2025-07-09T09:30:19.831Z","","","","","","StressQ","","","","","","","","","","","","","","","","","","","","","","","","","","","","","","","","","","","","","","50"
"4576","","<div style=""width:500px;"">
  <p>What best describes how you currently feel?</p>
  </div>","91","html-slider-response","81","1447943","0.0-10.0-4.7","51","1","2025-07-09 09:07:15","7701e855f2ef39aa3fd6c71abdc6918a","216.120.189.162","Mozilla/5.0 (Windows NT 10.0; Win64; x64) AppleWebKit/537.36 (KHTML, like Gecko) Chrome/138.0.0.0 Safari/537.36","WebKit","Chrome","138.0.0.0","Windows","10.0","https://app.prolific.com/","en-GB,en-US;q=0.9,en;q=0.8","667b366d0d0943e90dbee7d1","686d226cabeef709c732f8e1","686e31390e6ceb1995ece521","667b366d0d0943e90dbee7d1","2025-07-09T09:30:24.410Z","","","","","","MotivationQ","","","","","","","","","","","","","","","","","","","","","","","","","","","","","","","","","","","","","","50"
"","","","","ctl-task-cpt","82","1499888","0.0-10.0-0.8","51","1","2025-07-09 09:07:15","7701e855f2ef39aa3fd6c71abdc6918a","216.120.189.162","Mozilla/5.0 (Windows NT 10.0; Win64; x64) AppleWebKit/537.36 (KHTML, like Gecko) Chrome/138.0.0.0 Safari/537.36","WebKit","Chrome","138.0.0.0","Windows","10.0","https://app.prolific.com/","en-GB,en-US;q=0.9,en;q=0.8","667b366d0d0943e90dbee7d1","686d226cabeef709c732f8e1","686e31390e6ceb1995ece521","667b366d0d0943e90dbee7d1","2025-07-09T09:31:16.355Z","","","","","","","","","","","","","","","","win-only","1","g1:NE,g2:SW","0.2","9","0","1451423.2","1862.8","6865.5","48927.7","1","4","8","6","2","-8","-8","0","0","0","2214.8","3000","-1615","[""down"",""left""]","{""num_key_presses"":9,""num_perfect"":2,""num_errors"":0,""num_randdir"":7,""num_randdir_good_moves"":3,""num_whilered"":0,""num_whileblue"":0,""num_blue"":3,""num_good_moves"":5}","[422.57142857142856,413.1808016640799,0.5,422.57142857142856,413.1808016640799,109,422.57142857142856,413.1808016640799,210.3,422.57142857142856,413.1808016640799,312.9,422.57142857142856,413.1808016640799,413.9,422.57142857142856,413.1808016640799,518.7,422.57142857142856,413.1808016640799,623.1,422.57142857142856,413.1808016640799,723.4,422.57142857142856,413.1808016640799,825.9,422.57142857142856,413.1808016640799,935.1,367.07142857142856,459.6808016640799,1041.5,130.07142857142856,782.1808016640799,1149.8,41.57142857142857,899.1808016640799,1256,41.57142857142857,899.1808016640799,1359.5,41.57142857142857,899.1808016640799,1464.5,32.57142857142857,902.1808016640799,1567.6,26.57142857142857,902.1808016640799,1668.3,49.07142857142857,794.1808016640799,1781.8,52.07142857142857,776.1808016640799,1895.5,52.07142857142857,776.1808016640799,2004.8,52.07142857142857,776.1808016640799,2119.5,52.07142857142857,776.1808016640799,2220.3,52.07142857142857,776.1808016640799,2321.9,52.07142857142857,776.1808016640799,2422.2,52.07142857142857,776.1808016640799,2526.3,52.07142857142857,776.1808016640799,2632.3,52.07142857142857,776.1808016640799,2736.9,52.07142857142857,776.1808016640799,2840.5,52.07142857142857,776.1808016640799,2945.5,52.07142857142857,776.1808016640799,3051.4,52.07142857142857,776.1808016640799,3154.9,52.07142857142857,776.1808016640799,3262,52.07142857142857,776.1808016640799,3366.1,52.07142857142857,776.1808016640799,3471.8,52.07142857142857,776.1808016640799,3576.4,52.07142857142857,776.1808016640799,3678,52.07142857142857,776.1808016640799,3778.5,52.07142857142857,776.1808016640799,3879.5,52.07142857142857,776.1808016640799,3987.6,52.07142857142857,776.1808016640799,4089.3,52.07142857142857,776.1808016640799,4202.2,52.07142857142857,776.1808016640799,4307,52.07142857142857,776.1808016640799,4414.7,52.07142857142857,776.1808016640799,4520.3,52.07142857142857,776.1808016640799,4622.1,52.07142857142857,776.1808016640799,4725.2,52.07142857142857,776.1808016640799,4827.8,52.07142857142857,776.1808016640799,4934.7]","[1934.4,1934.4,1000,0,934.4,""smooth"",""down"",""down"",""good_move"",5327.2,3392.2,2926.8,1935,465.4,""smooth"",""left"",""left"",""good_move"",8892.2,3564.5,3144.3,5327.7,420.2,""oops"",""down"",""up"",""bad_move"",11995.2,3102.2,2703.6,8893,398.6,""oops"",""up"",""right"",""bad_move"",22237.7,10242.1,2560.6,19192.2,484.9,""oops"",""left"",""left"",""good_move"",25984.9,3746.9,3202.3,22238,544.6,""oops"",""down"",""right"",""bad_move"",32838.2,6852.7,3310.4,29083.1,444.7,""oops"",""left"",""down"",""good_move"",35943.1,3104.5,2645.7,32838.6,458.8,""oops"",""left"",""up"",""bad_move"",38631.7,2688.1,2149.3,35943.6,538.8,""oops"",""left"",""down"",""good_move""]","",""
"3932","","<div style=""width:500px;"">
  <p>What determined the result of this run?</p>
  </div>","18","html-slider-response","83","1503821","0.0-10.0-1.8","51","1","2025-07-09 09:07:15","7701e855f2ef39aa3fd6c71abdc6918a","216.120.189.162","Mozilla/5.0 (Windows NT 10.0; Win64; x64) AppleWebKit/537.36 (KHTML, like Gecko) Chrome/138.0.0.0 Safari/537.36","WebKit","Chrome","138.0.0.0","Windows","10.0","https://app.prolific.com/","en-GB,en-US;q=0.9,en;q=0.8","667b366d0d0943e90dbee7d1","686d226cabeef709c732f8e1","686e31390e6ceb1995ece521","667b366d0d0943e90dbee7d1","2025-07-09T09:31:20.288Z","","","","","","AttribQ","","","","","","","","","","","","","","","","","","","","","","","","","","","","","","","","","","","","","","50"
"4422","","<div style=""width:500px;"">
  <p>How much control did you have over the ball?</p>
  </div>","11","html-slider-response","84","1508245","0.0-10.0-2.8","51","1","2025-07-09 09:07:15","7701e855f2ef39aa3fd6c71abdc6918a","216.120.189.162","Mozilla/5.0 (Windows NT 10.0; Win64; x64) AppleWebKit/537.36 (KHTML, like Gecko) Chrome/138.0.0.0 Safari/537.36","WebKit","Chrome","138.0.0.0","Windows","10.0","https://app.prolific.com/","en-GB,en-US;q=0.9,en;q=0.8","667b366d0d0943e90dbee7d1","686d226cabeef709c732f8e1","686e31390e6ceb1995ece521","667b366d0d0943e90dbee7d1","2025-07-09T09:31:24.712Z","","","","","","ControlQ","","","","","","","","","","","","","","","","","","","","","","","","","","","","","","","","","","","","","","50"
"4521","","<div style=""width:500px;"">
  <p>How would you describe your current emotional state?</p>
  </div>","5","html-slider-response","85","1512768","0.0-10.0-3.8","51","1","2025-07-09 09:07:15","7701e855f2ef39aa3fd6c71abdc6918a","216.120.189.162","Mozilla/5.0 (Windows NT 10.0; Win64; x64) AppleWebKit/537.36 (KHTML, like Gecko) Chrome/138.0.0.0 Safari/537.36","WebKit","Chrome","138.0.0.0","Windows","10.0","https://app.prolific.com/","en-GB,en-US;q=0.9,en;q=0.8","667b366d0d0943e90dbee7d1","686d226cabeef709c732f8e1","686e31390e6ceb1995ece521","667b366d0d0943e90dbee7d1","2025-07-09T09:31:29.235Z","","","","","","StressQ","","","","","","","","","","","","","","","","","","","","","","","","","","","","","","","","","","","","","","50"
"4563","","<div style=""width:500px;"">
  <p>What best describes how you currently feel?</p>
  </div>","92","html-slider-response","86","1517332","0.0-10.0-4.8","51","1","2025-07-09 09:07:15","7701e855f2ef39aa3fd6c71abdc6918a","216.120.189.162","Mozilla/5.0 (Windows NT 10.0; Win64; x64) AppleWebKit/537.36 (KHTML, like Gecko) Chrome/138.0.0.0 Safari/537.36","WebKit","Chrome","138.0.0.0","Windows","10.0","https://app.prolific.com/","en-GB,en-US;q=0.9,en;q=0.8","667b366d0d0943e90dbee7d1","686d226cabeef709c732f8e1","686e31390e6ceb1995ece521","667b366d0d0943e90dbee7d1","2025-07-09T09:31:33.800Z","","","","","","MotivationQ","","","","","","","","","","","","","","","","","","","","","","","","","","","","","","","","","","","","","","50"
