"rt","response_timestamp","stimulus","response","trial_type","trial_index","time_elapsed","internal_node_id","run_id","condition","recorded_at","source_code_version","ip","user_agent","device","browser","browser_version","platform","platform_version","referer","accept_language","PROLIFIC_PID","STUDY_ID","SESSION_ID","prolific_id","realtime","view_history","question_order","consent","success","question_id","eventType","responses","item_order","radio_event_ids","radio_event_times","key_event_times","mouse_event_times","straightlining","zigzagging","honeypot","which_type","canvas_config","goals_layout","control_level","trial_number","tutorial_trial_number","trial_start_time","phase1_start_time","phase2_start_time","phase3_start_time","goal_1_value","goal_1_distance","goal_2_value","goal_2_distance","goal_selected","outcome","outcome_total","participant_final_score","participant_initial_score","participant_final_score_prop","goal_choice_rt","allocated_time","allocated_time_remaining","goal_direction","counts","mouse_movements","key_presses","correct","slider_start"
"14953","1752052104726","<p style='font-size:40px;line-height:1.25'><strong>Welcome to the experiment!</strong></p><p style='font-size:1.1em;line-height:1.25'>Thank you for your interest in our experiment! Before you begin, it is important that we obtain your informed consent to participate in the study.</p><p style='font-size:1.1em;line-height:1.25'>On the next screen will be an <strong>information sheet</strong> for you to read. To participate in the study we need you to read this information sheet and the following consent form carefully. If you agree with all the statements, please click the <strong>I agree</strong> button.</p><p style='font-size:1.1em;line-height:1.25'>Press <strong>Next</strong> to read the information sheet.</p>","0","custom-html-button-response","0","14958","0.0-0.0","108","1","2025-07-09 09:08:06","7701e855f2ef39aa3fd6c71abdc6918a","168.210.171.183","Mozilla/5.0 (Windows NT 10.0; Win64; x64) AppleWebKit/537.36 (KHTML, like Gecko) Chrome/138.0.0.0 Safari/537.36","WebKit","Chrome","138.0.0.0","Windows","10.0","https://app.prolific.com/","en-US,en;q=0.9","667abff30a4bfe675c592b14","686d226cabeef709c732f8e1","686e3132f298a207bf5e4bc7","667abff30a4bfe675c592b14","2025-07-09T09:08:24.728Z","","","","","","","","","","","","","","","","","","","","","","","","","","","","","","","","","","","","","","","","","","","",""
"217575","","","","instructions","1","232554","0.0-1.0","108","1","2025-07-09 09:08:06","7701e855f2ef39aa3fd6c71abdc6918a","168.210.171.183","Mozilla/5.0 (Windows NT 10.0; Win64; x64) AppleWebKit/537.36 (KHTML, like Gecko) Chrome/138.0.0.0 Safari/537.36","WebKit","Chrome","138.0.0.0","Windows","10.0","https://app.prolific.com/","en-US,en;q=0.9","667abff30a4bfe675c592b14","686d226cabeef709c732f8e1","686e3132f298a207bf5e4bc7","667abff30a4bfe675c592b14","","[{""page_index"":0,""viewing_time"":186692},{""page_index"":1,""viewing_time"":30882}]","","","","","","","","","","","","","","","","","","","","","","","","","","","","","","","","","","","","","","","","","","",""
"14677","","","{""Q0"":"""",""Q1"":"""",""Q2"":"""",""Q3"":"""",""Q4"":"""",""Q5"":"""",""Q6"":""I agree""}","survey-multi-choice","2","247237","0.0-2.0","108","1","2025-07-09 09:08:06","7701e855f2ef39aa3fd6c71abdc6918a","168.210.171.183","Mozilla/5.0 (Windows NT 10.0; Win64; x64) AppleWebKit/537.36 (KHTML, like Gecko) Chrome/138.0.0.0 Safari/537.36","WebKit","Chrome","138.0.0.0","Windows","10.0","https://app.prolific.com/","en-US,en;q=0.9","667abff30a4bfe675c592b14","686d226cabeef709c732f8e1","686e3132f298a207bf5e4bc7","667abff30a4bfe675c592b14","","","[0,1,2,3,4,5,6]","true","","","","","","","","","","","","","","","","","","","","","","","","","","","","","","","","","","","","","","","","",""
"2636","","","","fullscreen","3","250898","0.0-4.0","108","1","2025-07-09 09:08:06","7701e855f2ef39aa3fd6c71abdc6918a","168.210.171.183","Mozilla/5.0 (Windows NT 10.0; Win64; x64) AppleWebKit/537.36 (KHTML, like Gecko) Chrome/138.0.0.0 Safari/537.36","WebKit","Chrome","138.0.0.0","Windows","10.0","https://app.prolific.com/","en-US,en;q=0.9","667abff30a4bfe675c592b14","686d226cabeef709c732f8e1","686e3132f298a207bf5e4bc7","667abff30a4bfe675c592b14","","","","","true","","","","","","","","","","","","","","","","","","","","","","","","","","","","","","","","","","","","","","","",""
"6712","1752052347383"," <p style='font-size:1.1em;line-height:1.25'>Thank you for completing the consent form and closing all other tabs.</p><p style='font-size:1.1em;line-height:1.25'>We will now invite you to fill in some demographic information and questionnaires, before starting the game.<br>This will take about 5 minutes.<br></p><p style='font-size:1.1em;line-height:1.25'>Press the <strong>Next</strong> button to continue.</p>","0","custom-html-button-response","4","257614","0.0-5.0","108","1","2025-07-09 09:08:06","7701e855f2ef39aa3fd6c71abdc6918a","168.210.171.183","Mozilla/5.0 (Windows NT 10.0; Win64; x64) AppleWebKit/537.36 (KHTML, like Gecko) Chrome/138.0.0.0 Safari/537.36","WebKit","Chrome","138.0.0.0","Windows","10.0","https://app.prolific.com/","en-US,en;q=0.9","667abff30a4bfe675c592b14","686d226cabeef709c732f8e1","686e3132f298a207bf5e4bc7","667abff30a4bfe675c592b14","2025-07-09T09:12:27.384Z","","","","","","","","","","","","","","","","","","","","","","","","","","","","","","","","","","","","","","","","","","","",""
"4478","","","{""age"":""33""}","survey-text","5","262102","0.0-6.0-0.0","108","1","2025-07-09 09:08:06","7701e855f2ef39aa3fd6c71abdc6918a","168.210.171.183","Mozilla/5.0 (Windows NT 10.0; Win64; x64) AppleWebKit/537.36 (KHTML, like Gecko) Chrome/138.0.0.0 Safari/537.36","WebKit","Chrome","138.0.0.0","Windows","10.0","https://app.prolific.com/","en-US,en;q=0.9","667abff30a4bfe675c592b14","686d226cabeef709c732f8e1","686e3132f298a207bf5e4bc7","667abff30a4bfe675c592b14","","","","","","0","demographics","","","","","","","","","","","","","","","","","","","","","","","","","","","","","","","","","","","","","",""
"3546","","","{""gender_identity"":""female/woman""}","survey-multi-choice","6","265660","0.0-6.0-1.0","108","1","2025-07-09 09:08:06","7701e855f2ef39aa3fd6c71abdc6918a","168.210.171.183","Mozilla/5.0 (Windows NT 10.0; Win64; x64) AppleWebKit/537.36 (KHTML, like Gecko) Chrome/138.0.0.0 Safari/537.36","WebKit","Chrome","138.0.0.0","Windows","10.0","https://app.prolific.com/","en-US,en;q=0.9","667abff30a4bfe675c592b14","686d226cabeef709c732f8e1","686e3132f298a207bf5e4bc7","667abff30a4bfe675c592b14","","","[0]","","","1","demographics","","","","","","","","","","","","","","","","","","","","","","","","","","","","","","","","","","","","","",""
"4235","","","{""assigned_sex"":""female""}","survey-multi-choice","7","269898","0.0-6.0-2.0","108","1","2025-07-09 09:08:06","7701e855f2ef39aa3fd6c71abdc6918a","168.210.171.183","Mozilla/5.0 (Windows NT 10.0; Win64; x64) AppleWebKit/537.36 (KHTML, like Gecko) Chrome/138.0.0.0 Safari/537.36","WebKit","Chrome","138.0.0.0","Windows","10.0","https://app.prolific.com/","en-US,en;q=0.9","667abff30a4bfe675c592b14","686d226cabeef709c732f8e1","686e3132f298a207bf5e4bc7","667abff30a4bfe675c592b14","","","[0]","","","2","demographics","","","","","","","","","","","","","","","","","","","","","","","","","","","","","","","","","","","","","",""
"5520","","","{""menstrual_cycle"":""Yes""}","survey-multi-choice","8","275423","0.0-6.0-3.0","108","1","2025-07-09 09:08:06","7701e855f2ef39aa3fd6c71abdc6918a","168.210.171.183","Mozilla/5.0 (Windows NT 10.0; Win64; x64) AppleWebKit/537.36 (KHTML, like Gecko) Chrome/138.0.0.0 Safari/537.36","WebKit","Chrome","138.0.0.0","Windows","10.0","https://app.prolific.com/","en-US,en;q=0.9","667abff30a4bfe675c592b14","686d226cabeef709c732f8e1","686e3132f298a207bf5e4bc7","667abff30a4bfe675c592b14","","","[0]","","","4","demographics","","","","","","","","","","","","","","","","","","","","","","","","","","","","","","","","","","","","","",""
"10990","","","{""education"":""Master's Degree (e.g., MSc)""}","survey-multi-choice","9","286417","0.0-6.0-4.0","108","1","2025-07-09 09:08:06","7701e855f2ef39aa3fd6c71abdc6918a","168.210.171.183","Mozilla/5.0 (Windows NT 10.0; Win64; x64) AppleWebKit/537.36 (KHTML, like Gecko) Chrome/138.0.0.0 Safari/537.36","WebKit","Chrome","138.0.0.0","Windows","10.0","https://app.prolific.com/","en-US,en;q=0.9","667abff30a4bfe675c592b14","686d226cabeef709c732f8e1","686e3132f298a207bf5e4bc7","667abff30a4bfe675c592b14","","","[0]","","","5","demographics","","","","","","","","","","","","","","","","","","","","","","","","","","","","","","","","","","","","","",""
"24216","","","{""education"":""Bachelor's Degree (e.g., BA)""}","survey-multi-choice","10","310638","0.0-6.0-5.0","108","1","2025-07-09 09:08:06","7701e855f2ef39aa3fd6c71abdc6918a","168.210.171.183","Mozilla/5.0 (Windows NT 10.0; Win64; x64) AppleWebKit/537.36 (KHTML, like Gecko) Chrome/138.0.0.0 Safari/537.36","WebKit","Chrome","138.0.0.0","Windows","10.0","https://app.prolific.com/","en-US,en;q=0.9","667abff30a4bfe675c592b14","686d226cabeef709c732f8e1","686e3132f298a207bf5e4bc7","667abff30a4bfe675c592b14","2025-07-09T09:13:20.408Z","","[0]","","","6","demographics","","","","","","","","","","","","","","","","","","","","","","","","","","","","","","","","","","","","","",""
"223559","","","{""mental_health_condition"":""Social anxiety"",""mental_health_treatment"":""Therapy"",""psychiatric_medication"":""No medication""}","survey-text","11","534254","0.0-7.0-0.0","108","1","2025-07-09 09:08:06","7701e855f2ef39aa3fd6c71abdc6918a","168.210.171.183","Mozilla/5.0 (Windows NT 10.0; Win64; x64) AppleWebKit/537.36 (KHTML, like Gecko) Chrome/138.0.0.0 Safari/537.36","WebKit","Chrome","138.0.0.0","Windows","10.0","https://app.prolific.com/","en-US,en;q=0.9","667abff30a4bfe675c592b14","686d226cabeef709c732f8e1","686e3132f298a207bf5e4bc7","667abff30a4bfe675c592b14","2025-07-09T09:17:04.024Z","","","","","1","mental_health","","","","","","","","","","","","","","","","","","","","","","","","","","","","","","","","","","","","","",""
"15494","","","{""depression_history"":[""Yes""]}","survey-multi-select","12","549764","0.0-7.0-1.0","108","1","2025-07-09 09:08:06","7701e855f2ef39aa3fd6c71abdc6918a","168.210.171.183","Mozilla/5.0 (Windows NT 10.0; Win64; x64) AppleWebKit/537.36 (KHTML, like Gecko) Chrome/138.0.0.0 Safari/537.36","WebKit","Chrome","138.0.0.0","Windows","10.0","https://app.prolific.com/","en-US,en;q=0.9","667abff30a4bfe675c592b14","686d226cabeef709c732f8e1","686e3132f298a207bf5e4bc7","667abff30a4bfe675c592b14","","","[0]","","","","mental_health","","","","","","","","","","","","","","","","","","","","","","","","","","","","","","","","","","","","","",""
"17847","","","{""depression_episodes"":""3-5"",""depression_recent"":""Within the past year""}","survey-multi-choice","13","567621","0.0-7.0-2.0-0.0","108","1","2025-07-09 09:08:06","7701e855f2ef39aa3fd6c71abdc6918a","168.210.171.183","Mozilla/5.0 (Windows NT 10.0; Win64; x64) AppleWebKit/537.36 (KHTML, like Gecko) Chrome/138.0.0.0 Safari/537.36","WebKit","Chrome","138.0.0.0","Windows","10.0","https://app.prolific.com/","en-US,en;q=0.9","667abff30a4bfe675c592b14","686d226cabeef709c732f8e1","686e3132f298a207bf5e4bc7","667abff30a4bfe675c592b14","2025-07-09T09:17:37.391Z","","[0,1]","","","3","mental_health","","","","","","","","","","","","","","","","","","","","","","","","","","","","","","","","","","","","","",""
"191517.40000009537","","","","survey-template","14","759164","0.0-7.0-3.0","108","1","2025-07-09 09:08:06","7701e855f2ef39aa3fd6c71abdc6918a","168.210.171.183","Mozilla/5.0 (Windows NT 10.0; Win64; x64) AppleWebKit/537.36 (KHTML, like Gecko) Chrome/138.0.0.0 Safari/537.36","WebKit","Chrome","138.0.0.0","Windows","10.0","https://app.prolific.com/","en-US,en;q=0.9","667abff30a4bfe675c592b14","686d226cabeef709c732f8e1","686e3132f298a207bf5e4bc7","667abff30a4bfe675c592b14","2025-07-09T09:20:48.934Z","","","","","","ius","{""Q01"":""3"",""Q02"":""3"",""Q03"":""4"",""Q04"":""3"",""Q05"":""3"",""Q06"":""3"",""Q07"":""2"",""Q08"":""0"",""Q09"":""4"",""Q10"":""3"",""Q11"":""2"",""Q12"":""4"",""Q13"":""3""}","[0,1,2,3,4,5,6,7,8,9,10,11,12]","[""Q01"",""Q02"",""Q03"",""Q04"",""Q05"",""Q06"",""Q06"",""Q07"",""Q08"",""Q09"",""Q10"",""Q11"",""Q11"",""Q11"",""Q12"",""Q13""]","[8930.400000095367,15891.100000143051,20165.60000014305,32606.60000014305,39212.5,47402.5,53003,56530,59189.60000014305,69312.90000009537,103712.20000004768,176042.60000014305,177777.70000004768,179619.90000009537,186183.90000009537,189921.90000009537]","[]","[8930.400000095367,15891.100000143051,20165.60000014305,32606.60000014305,39212.5,47402.5,53003,56530,59189.60000014305,69312.90000009537,103712.20000004768,176042.60000014305,177777.70000004768,179619.90000009537,186183.90000009537,189921.90000009537,191511.30000019073]","0.5384615384615384","0.5833333333333334","0","","","","","","","","","","","","","","","","","","","","","","","","","","","","",""
"2905","1752052851841","<p style='font-size:1.1em;line-height:1.25'>In the following, we will ask you a few questions relating to your experiences over the past month.<br></p><p style='font-size:1.1em;line-height:1.25'>Press the <strong>Next</strong> button to continue.</p>","0","custom-html-button-response","15","762073","0.0-7.0-4.0","108","1","2025-07-09 09:08:06","7701e855f2ef39aa3fd6c71abdc6918a","168.210.171.183","Mozilla/5.0 (Windows NT 10.0; Win64; x64) AppleWebKit/537.36 (KHTML, like Gecko) Chrome/138.0.0.0 Safari/537.36","WebKit","Chrome","138.0.0.0","Windows","10.0","https://app.prolific.com/","en-US,en;q=0.9","667abff30a4bfe675c592b14","686d226cabeef709c732f8e1","686e3132f298a207bf5e4bc7","667abff30a4bfe675c592b14","2025-07-09T09:20:51.843Z","","","","","","","","","","","","","","","","","","","","","","","","","","","","","","","","","","","","","","","","","","","",""
"168561.5","","","","survey-template","16","930653","0.0-7.0-5.0","108","1","2025-07-09 09:08:06","7701e855f2ef39aa3fd6c71abdc6918a","168.210.171.183","Mozilla/5.0 (Windows NT 10.0; Win64; x64) AppleWebKit/537.36 (KHTML, like Gecko) Chrome/138.0.0.0 Safari/537.36","WebKit","Chrome","138.0.0.0","Windows","10.0","https://app.prolific.com/","en-US,en;q=0.9","667abff30a4bfe675c592b14","686d226cabeef709c732f8e1","686e3132f298a207bf5e4bc7","667abff30a4bfe675c592b14","2025-07-09T09:23:40.423Z","","","","","","pss","{""Q01"":""4"",""Q02"":""3"",""Q03"":""2"",""Q04"":""2"",""Q05"":""2"",""Q06"":""3"",""Q07"":""2"",""Q08"":""2"",""Q09"":""3"",""Q10"":""3""}","[0,1,2,3,4,5,6,7,8,9]","[""Q01"",""Q02"",""Q02"",""Q03"",""Q04"",""Q05"",""Q06"",""Q07"",""Q08"",""Q09"",""Q10""]","[14628.400000095367,19954.5,22070.599999904633,34907.700000047684,46395.799999952316,52247.799999952316,71065.29999995232,78985.5,152425.79999995232,162567.09999990463,167324.79999995232]","[]","[24.799999952316284,14628.400000095367,19954.5,22070.599999904633,34907.700000047684,46395.799999952316,52247.799999952316,71065.29999995232,78567.59999990463,78985.5,80376.09999990463,152425.79999995232,162567.09999990463,167324.79999995232,168556.70000004768]","0.5","0.5555555555555556","0","","","","","","","","","","","","","","","","","","","","","","","","","","","","",""
"2327","1752053022752","<p style='font-size:1.1em;line-height:1.25'>Thank you for your answers! Now we will ask you a few more questions relating to your feelings in the last 24 hours.<br></p><p style='font-size:1.1em;line-height:1.25'>Press the <strong>Next</strong> button to continue.</p>","0","custom-html-button-response","17","932983","0.0-7.0-6.0","108","1","2025-07-09 09:08:06","7701e855f2ef39aa3fd6c71abdc6918a","168.210.171.183","Mozilla/5.0 (Windows NT 10.0; Win64; x64) AppleWebKit/537.36 (KHTML, like Gecko) Chrome/138.0.0.0 Safari/537.36","WebKit","Chrome","138.0.0.0","Windows","10.0","https://app.prolific.com/","en-US,en;q=0.9","667abff30a4bfe675c592b14","686d226cabeef709c732f8e1","686e3132f298a207bf5e4bc7","667abff30a4bfe675c592b14","2025-07-09T09:23:42.753Z","","","","","","","","","","","","","","","","","","","","","","","","","","","","","","","","","","","","","","","","","","","",""
"156155.69999980927","","","","survey-template","18","1089161","0.0-7.0-7.0","108","1","2025-07-09 09:08:06","7701e855f2ef39aa3fd6c71abdc6918a","168.210.171.183","Mozilla/5.0 (Windows NT 10.0; Win64; x64) AppleWebKit/537.36 (KHTML, like Gecko) Chrome/138.0.0.0 Safari/537.36","WebKit","Chrome","138.0.0.0","Windows","10.0","https://app.prolific.com/","en-US,en;q=0.9","667abff30a4bfe675c592b14","686d226cabeef709c732f8e1","686e3132f298a207bf5e4bc7","667abff30a4bfe675c592b14","2025-07-09T09:26:18.931Z","","","","","","drsp","{""Q01"":""1"",""Q02"":""2"",""Q03"":""1"",""Q04"":""3"",""Q05"":""0"",""Q06"":""3"",""Q07"":""2"",""Q08"":""0"",""Q09"":""2"",""Q10"":""3"",""Q11"":""3"",""Q12"":""1"",""Q13"":""1"",""Q14"":""3"",""Q15"":""3"",""Q16"":""4"",""Q17"":""3"",""Q18"":""0"",""Q19"":""3"",""Q20"":""3"",""Q21"":""3""}","[0,1,2,3,4,5,6,7,8,9,10,11,12,13,14,15,16,17,18,19,20]","[""Q01"",""Q02"",""Q03"",""Q04"",""Q05"",""Q05"",""Q06"",""Q07"",""Q08"",""Q09"",""Q10"",""Q11"",""Q12"",""Q13"",""Q14"",""Q15"",""Q16"",""Q17"",""Q18"",""Q19"",""Q20"",""Q21""]","[17640.299999952316,27102.599999904633,32156.89999985695,35516.09999990463,39771.799999952316,41723.299999952316,47883.299999952316,51925.39999985695,55476.89999985695,71471.19999980927,74035.59999990463,79615.09999990463,89469.69999980927,97672.09999990463,108738.69999980927,112738.59999990463,119552.69999980927,123677.5,126878.79999995232,139688,152886.69999980927,154465.09999990463]","[]","[45.799999952316284,17640.299999952316,27102.599999904633,32156.89999985695,35516.09999990463,39771.799999952316,41723.299999952316,47883.299999952316,51925.39999985695,55476.89999985695,71471.19999980927,74035.59999990463,79615.09999990463,89469.69999980927,97672.09999990463,108738.69999980927,112738.59999990463,119552.69999980927,123677.5,126878.79999995232,139688,152886.69999980927,154465.09999990463,156144.09999990463]","0.47619047619047616","0.3","0","","","","","","","","","","","","","","","","","","","","","","","","","","","","",""
"97366.70000004768","","","","survey-template","19","1186538","0.0-7.0-8.0","108","1","2025-07-09 09:08:06","7701e855f2ef39aa3fd6c71abdc6918a","168.210.171.183","Mozilla/5.0 (Windows NT 10.0; Win64; x64) AppleWebKit/537.36 (KHTML, like Gecko) Chrome/138.0.0.0 Safari/537.36","WebKit","Chrome","138.0.0.0","Windows","10.0","https://app.prolific.com/","en-US,en;q=0.9","667abff30a4bfe675c592b14","686d226cabeef709c732f8e1","686e3132f298a207bf5e4bc7","667abff30a4bfe675c592b14","2025-07-09T09:27:56.308Z","","","","","","stress","{""Q01"":""3"",""Q02"":""3"",""Q03"":""1""}","[0,1,2]","[""Q01"",""Q02"",""Q03"",""Q03""]","[81690,84735.70000004768,90724.10000014305,94671.70000004768]","[]","[81690,84735.70000004768,90724.10000014305,94671.70000004768,97364.79999995232]","0.3333333333333333","1","0","","","","","","","","","","","","","","","","","","","","","","","","","","","","",""
"125110","","","","instructions","20","1311659","0.0-8.0-0.0","108","1","2025-07-09 09:08:06","7701e855f2ef39aa3fd6c71abdc6918a","168.210.171.183","Mozilla/5.0 (Windows NT 10.0; Win64; x64) AppleWebKit/537.36 (KHTML, like Gecko) Chrome/138.0.0.0 Safari/537.36","WebKit","Chrome","138.0.0.0","Windows","10.0","https://app.prolific.com/","en-US,en;q=0.9","667abff30a4bfe675c592b14","686d226cabeef709c732f8e1","686e3132f298a207bf5e4bc7","667abff30a4bfe675c592b14","","[{""page_index"":0,""viewing_time"":27659},{""page_index"":1,""viewing_time"":6843},{""page_index"":2,""viewing_time"":38115},{""page_index"":1,""viewing_time"":25087},{""page_index"":2,""viewing_time"":2027},{""page_index"":3,""viewing_time"":25379}]","","","","","","","","","","","","","","","","","","","","","","","","","","","","","","","","","","","","","","","","","","",""
"","","","","ctl-task-cpt","21","1328586","0.0-8.0-1.0","108","1","2025-07-09 09:08:06","7701e855f2ef39aa3fd6c71abdc6918a","168.210.171.183","Mozilla/5.0 (Windows NT 10.0; Win64; x64) AppleWebKit/537.36 (KHTML, like Gecko) Chrome/138.0.0.0 Safari/537.36","WebKit","Chrome","138.0.0.0","Windows","10.0","https://app.prolific.com/","en-US,en;q=0.9","667abff30a4bfe675c592b14","686d226cabeef709c732f8e1","686e3132f298a207bf5e4bc7","667abff30a4bfe675c592b14","","","","","","","","","","","","","","","","","win-only","1","g1:NE,g2:SW","1","0","1","1315347.8","2881.8","6884.9","13906.2","2","4","4","6","2","-4","-4","0","0","0","3933.1","4000","-2375","[""down"",""left""]","{""num_key_presses"":0,""num_perfect"":0,""num_errors"":0,""num_randdir"":0,""num_randdir_good_moves"":0,""num_whilered"":0,""num_whileblue"":0,""num_blue"":0,""num_good_moves"":0}","[297.22232142857143,297.12857142857143,0.7,297.22232142857143,297.12857142857143,102.3,297.22232142857143,297.12857142857143,205.8,297.22232142857143,297.12857142857143,308.9,297.22232142857143,297.12857142857143,408.9,297.22232142857143,297.12857142857143,509,297.22232142857143,297.12857142857143,611.1,297.22232142857143,297.12857142857143,720.6,297.22232142857143,297.12857142857143,827.9,297.22232142857143,297.12857142857143,928.1,297.22232142857143,297.12857142857143,1028.7,297.22232142857143,297.12857142857143,1137.1,297.22232142857143,297.12857142857143,1239.9,297.22232142857143,297.12857142857143,1344.9,297.22232142857143,297.12857142857143,1449.4,297.22232142857143,297.12857142857143,1558.6,297.22232142857143,297.12857142857143,1659.1,297.22232142857143,297.12857142857143,1761.6,297.22232142857143,297.12857142857143,1862.4,297.22232142857143,297.12857142857143,1963,297.22232142857143,297.12857142857143,2069.7,301.22232142857143,320.12857142857143,2175.6,301.22232142857143,375.12857142857143,2281.1,301.22232142857143,396.12857142857143,2383.2,300.22232142857143,404.12857142857143,2484.9,299.22232142857143,410.12857142857143,2586.8,301.22232142857143,415.12857142857143,2688.9,302.22232142857143,421.12857142857143,2789.6,302.22232142857143,421.12857142857143,2890.7,240.22232142857143,472.12857142857143,3008.8,198.22232142857143,501.12857142857143,3112.5,198.22232142857143,501.12857142857143,3215.7,198.22232142857143,501.12857142857143,3321,72.22232142857143,532.1285714285714,3426.5,60.222321428571426,533.1285714285714,3535.8,58.222321428571426,534.1285714285714,3637.3,56.222321428571426,535.1285714285714,3737.4,56.222321428571426,535.1285714285714,3837.9,56.222321428571426,535.1285714285714,3952.8]","[]","",""
"24799","","","","instructions","22","1353386","0.0-8.0-2.0","108","1","2025-07-09 09:08:06","7701e855f2ef39aa3fd6c71abdc6918a","168.210.171.183","Mozilla/5.0 (Windows NT 10.0; Win64; x64) AppleWebKit/537.36 (KHTML, like Gecko) Chrome/138.0.0.0 Safari/537.36","WebKit","Chrome","138.0.0.0","Windows","10.0","https://app.prolific.com/","en-US,en;q=0.9","667abff30a4bfe675c592b14","686d226cabeef709c732f8e1","686e3132f298a207bf5e4bc7","667abff30a4bfe675c592b14","","[{""page_index"":0,""viewing_time"":24797}]","","","","","","","","","","","","","","","","","","","","","","","","","","","","","","","","","","","","","","","","","","",""
"","","","","ctl-task-cpt","23","1370843","0.0-8.0-3.0","108","1","2025-07-09 09:08:06","7701e855f2ef39aa3fd6c71abdc6918a","168.210.171.183","Mozilla/5.0 (Windows NT 10.0; Win64; x64) AppleWebKit/537.36 (KHTML, like Gecko) Chrome/138.0.0.0 Safari/537.36","WebKit","Chrome","138.0.0.0","Windows","10.0","https://app.prolific.com/","en-US,en;q=0.9","667abff30a4bfe675c592b14","686d226cabeef709c732f8e1","686e3132f298a207bf5e4bc7","667abff30a4bfe675c592b14","","","","","","","","","","","","","","","","","win-only","1","g1:NE,g2:SW","0.35","0","3","1357070.4","3883.9","7894.9","14448.1","2","4","8","6","2","-8","-8","0","0","0","4010.9","4000","-2275","[""down"",""left""]","{""num_key_presses"":0,""num_perfect"":0,""num_errors"":0,""num_randdir"":0,""num_randdir_good_moves"":0,""num_whilered"":0,""num_whileblue"":0,""num_blue"":0,""num_good_moves"":0}","[300.22232142857143,293.12857142857143,0.9,300.22232142857143,293.12857142857143,104.4,300.22232142857143,293.12857142857143,217,300.22232142857143,293.12857142857143,323.9,300.22232142857143,293.12857142857143,425.9,300.22232142857143,293.12857142857143,527.2,300.22232142857143,293.12857142857143,627.3,300.22232142857143,293.12857142857143,731.4,300.22232142857143,293.12857142857143,833.4,300.22232142857143,293.12857142857143,942.3,300.22232142857143,293.12857142857143,1043.5,300.22232142857143,293.12857142857143,1144.4,300.22232142857143,293.12857142857143,1247.4,300.22232142857143,293.12857142857143,1360.4,300.22232142857143,293.12857142857143,1465.6,267.22232142857143,332.12857142857143,1576.6,153.22232142857143,461.12857142857143,1678.6,107.22232142857143,518.1285714285714,1786.2,95.22232142857143,533.1285714285714,1899.6,69.22232142857143,545.1285714285714,1999.7,44.222321428571426,551.1285714285714,2103.6,28.222321428571426,551.1285714285714,2215.3,24.222321428571426,549.1285714285714,2317.3,24.222321428571426,548.1285714285714,2418.1,24.222321428571426,548.1285714285714,2526.4,24.222321428571426,548.1285714285714,2631.1,24.222321428571426,548.1285714285714,2732.8,24.222321428571426,548.1285714285714,2836,24.222321428571426,548.1285714285714,2938.6,24.222321428571426,548.1285714285714,3048.2,24.222321428571426,548.1285714285714,3148.9,24.222321428571426,548.1285714285714,3259.8,24.222321428571426,548.1285714285714,3363.4,24.222321428571426,548.1285714285714,3466.1,24.222321428571426,548.1285714285714,3567,24.222321428571426,548.1285714285714,3676.2,24.222321428571426,548.1285714285714,3777.7,24.222321428571426,548.1285714285714,3877.8,24.222321428571426,548.1285714285714,3984.7]","[]","",""
"54011","","","","instructions","24","1424855","0.0-8.0-4.0","108","1","2025-07-09 09:08:06","7701e855f2ef39aa3fd6c71abdc6918a","168.210.171.183","Mozilla/5.0 (Windows NT 10.0; Win64; x64) AppleWebKit/537.36 (KHTML, like Gecko) Chrome/138.0.0.0 Safari/537.36","WebKit","Chrome","138.0.0.0","Windows","10.0","https://app.prolific.com/","en-US,en;q=0.9","667abff30a4bfe675c592b14","686d226cabeef709c732f8e1","686e3132f298a207bf5e4bc7","667abff30a4bfe675c592b14","","[{""page_index"":0,""viewing_time"":13040},{""page_index"":1,""viewing_time"":4053},{""page_index"":0,""viewing_time"":2382},{""page_index"":1,""viewing_time"":34535}]","","","","","","","","","","","","","","","","","","","","","","","","","","","","","","","","","","","","","","","","","","",""
"46230","","","{""green_ball"":[""Ball always moves in the direction I press""]}","survey-multi-select","25","1471097","0.0-8.0-5.0-0.0","108","1","2025-07-09 09:08:06","7701e855f2ef39aa3fd6c71abdc6918a","168.210.171.183","Mozilla/5.0 (Windows NT 10.0; Win64; x64) AppleWebKit/537.36 (KHTML, like Gecko) Chrome/138.0.0.0 Safari/537.36","WebKit","Chrome","138.0.0.0","Windows","10.0","https://app.prolific.com/","en-US,en;q=0.9","667abff30a4bfe675c592b14","686d226cabeef709c732f8e1","686e3132f298a207bf5e4bc7","667abff30a4bfe675c592b14","","","[0]","","","","quiz","","","","","","","","","","","","","","","","","","","","","","","","","","","","","","","","","","","","","false",""
"7761","","<p align='center'><b>INCORRECT.</b> Usually the green ball moves in the indicated direction, but sometimes it shakes and moves randomly. </p>","0","html-button-response","26","1478868","0.0-8.0-5.0-1.0","108","1","2025-07-09 09:08:06","7701e855f2ef39aa3fd6c71abdc6918a","168.210.171.183","Mozilla/5.0 (Windows NT 10.0; Win64; x64) AppleWebKit/537.36 (KHTML, like Gecko) Chrome/138.0.0.0 Safari/537.36","WebKit","Chrome","138.0.0.0","Windows","10.0","https://app.prolific.com/","en-US,en;q=0.9","667abff30a4bfe675c592b14","686d226cabeef709c732f8e1","686e3132f298a207bf5e4bc7","667abff30a4bfe675c592b14","","","","","","","","","","","","","","","","","","","","","","","","","","","","","","","","","","","","","","","","","","","","",""
"38092","","","{""green_ball"":[""Ball always shakes and moves in a random direction""]}","survey-multi-select","27","1516972","0.0-8.0-5.1-0.1","108","1","2025-07-09 09:08:06","7701e855f2ef39aa3fd6c71abdc6918a","168.210.171.183","Mozilla/5.0 (Windows NT 10.0; Win64; x64) AppleWebKit/537.36 (KHTML, like Gecko) Chrome/138.0.0.0 Safari/537.36","WebKit","Chrome","138.0.0.0","Windows","10.0","https://app.prolific.com/","en-US,en;q=0.9","667abff30a4bfe675c592b14","686d226cabeef709c732f8e1","686e3132f298a207bf5e4bc7","667abff30a4bfe675c592b14","","","[0]","","","","quiz","","","","","","","","","","","","","","","","","","","","","","","","","","","","","","","","","","","","","false",""
"7649","","<p align='center'><b>INCORRECT.</b> Usually the green ball moves in the indicated direction, but sometimes it shakes and moves randomly. </p>","0","html-button-response","28","1524624","0.0-8.0-5.1-1.1","108","1","2025-07-09 09:08:06","7701e855f2ef39aa3fd6c71abdc6918a","168.210.171.183","Mozilla/5.0 (Windows NT 10.0; Win64; x64) AppleWebKit/537.36 (KHTML, like Gecko) Chrome/138.0.0.0 Safari/537.36","WebKit","Chrome","138.0.0.0","Windows","10.0","https://app.prolific.com/","en-US,en;q=0.9","667abff30a4bfe675c592b14","686d226cabeef709c732f8e1","686e3132f298a207bf5e4bc7","667abff30a4bfe675c592b14","","","","","","","","","","","","","","","","","","","","","","","","","","","","","","","","","","","","","","","","","","","","",""
"9148","","","{""green_ball"":[""Ball sometimes shakes and moves in a random direction""]}","survey-multi-select","29","1533778","0.0-8.0-5.2-0.2","108","1","2025-07-09 09:08:06","7701e855f2ef39aa3fd6c71abdc6918a","168.210.171.183","Mozilla/5.0 (Windows NT 10.0; Win64; x64) AppleWebKit/537.36 (KHTML, like Gecko) Chrome/138.0.0.0 Safari/537.36","WebKit","Chrome","138.0.0.0","Windows","10.0","https://app.prolific.com/","en-US,en;q=0.9","667abff30a4bfe675c592b14","686d226cabeef709c732f8e1","686e3132f298a207bf5e4bc7","667abff30a4bfe675c592b14","","","[0]","","","","quiz","","","","","","","","","","","","","","","","","","","","","","","","","","","","","","","","","","","","","true",""
"3595","","<p align='center'><b>CORRECT!</b> Indeed, the green ball may sometimes shake and move in a random direction.</p>","0","html-button-response","30","1537375","0.0-8.0-5.2-1.2","108","1","2025-07-09 09:08:06","7701e855f2ef39aa3fd6c71abdc6918a","168.210.171.183","Mozilla/5.0 (Windows NT 10.0; Win64; x64) AppleWebKit/537.36 (KHTML, like Gecko) Chrome/138.0.0.0 Safari/537.36","WebKit","Chrome","138.0.0.0","Windows","10.0","https://app.prolific.com/","en-US,en;q=0.9","667abff30a4bfe675c592b14","686d226cabeef709c732f8e1","686e3132f298a207bf5e4bc7","667abff30a4bfe675c592b14","","","","","","","","","","","","","","","","","","","","","","","","","","","","","","","","","","","","","","","","","","","","",""
"12109","","","{""yellow_ball"":[""Ball doesn‘t move and I get -1 penalty point""]}","survey-multi-select","31","1549488","0.0-8.0-6.0-0.0","108","1","2025-07-09 09:08:06","7701e855f2ef39aa3fd6c71abdc6918a","168.210.171.183","Mozilla/5.0 (Windows NT 10.0; Win64; x64) AppleWebKit/537.36 (KHTML, like Gecko) Chrome/138.0.0.0 Safari/537.36","WebKit","Chrome","138.0.0.0","Windows","10.0","https://app.prolific.com/","en-US,en;q=0.9","667abff30a4bfe675c592b14","686d226cabeef709c732f8e1","686e3132f298a207bf5e4bc7","667abff30a4bfe675c592b14","","","[0]","","","","quiz","","","","","","","","","","","","","","","","","","","","","","","","","","","","","","","","","","","","","true",""
"4483","","<p align='center'><b>CORRECT!</b> Indeed, the yellow ball never moves and you receive a penalty.</p>","0","html-button-response","32","1553975","0.0-8.0-6.0-1.0","108","1","2025-07-09 09:08:06","7701e855f2ef39aa3fd6c71abdc6918a","168.210.171.183","Mozilla/5.0 (Windows NT 10.0; Win64; x64) AppleWebKit/537.36 (KHTML, like Gecko) Chrome/138.0.0.0 Safari/537.36","WebKit","Chrome","138.0.0.0","Windows","10.0","https://app.prolific.com/","en-US,en;q=0.9","667abff30a4bfe675c592b14","686d226cabeef709c732f8e1","686e3132f298a207bf5e4bc7","667abff30a4bfe675c592b14","","","","","","","","","","","","","","","","","","","","","","","","","","","","","","","","","","","","","","","","","","","","",""
"14132","","","{""blue_ball"":[""Ball always shakes and moves in a random direction""]}","survey-multi-select","33","1568115","0.0-8.0-7.0-0.0","108","1","2025-07-09 09:08:06","7701e855f2ef39aa3fd6c71abdc6918a","168.210.171.183","Mozilla/5.0 (Windows NT 10.0; Win64; x64) AppleWebKit/537.36 (KHTML, like Gecko) Chrome/138.0.0.0 Safari/537.36","WebKit","Chrome","138.0.0.0","Windows","10.0","https://app.prolific.com/","en-US,en;q=0.9","667abff30a4bfe675c592b14","686d226cabeef709c732f8e1","686e3132f298a207bf5e4bc7","667abff30a4bfe675c592b14","","","[0]","","","","quiz","","","","","","","","","","","","","","","","","","","","","","","","","","","","","","","","","","","","","true",""
"7311","","<p align='center'><b>CORRECT!</b> Indeed, the blue ball always shakes and moves in a random direction. Also there is a penalty of -1 point.</p>","0","html-button-response","34","1575430","0.0-8.0-7.0-1.0","108","1","2025-07-09 09:08:06","7701e855f2ef39aa3fd6c71abdc6918a","168.210.171.183","Mozilla/5.0 (Windows NT 10.0; Win64; x64) AppleWebKit/537.36 (KHTML, like Gecko) Chrome/138.0.0.0 Safari/537.36","WebKit","Chrome","138.0.0.0","Windows","10.0","https://app.prolific.com/","en-US,en;q=0.9","667abff30a4bfe675c592b14","686d226cabeef709c732f8e1","686e3132f298a207bf5e4bc7","667abff30a4bfe675c592b14","","","","","","","","","","","","","","","","","","","","","","","","","","","","","","","","","","","","","","","","","","","","",""
"6141","","","{""bonus"":[""When I reach 50% of points""]}","survey-multi-select","35","1581575","0.0-8.0-8.0-0.0","108","1","2025-07-09 09:08:06","7701e855f2ef39aa3fd6c71abdc6918a","168.210.171.183","Mozilla/5.0 (Windows NT 10.0; Win64; x64) AppleWebKit/537.36 (KHTML, like Gecko) Chrome/138.0.0.0 Safari/537.36","WebKit","Chrome","138.0.0.0","Windows","10.0","https://app.prolific.com/","en-US,en;q=0.9","667abff30a4bfe675c592b14","686d226cabeef709c732f8e1","686e3132f298a207bf5e4bc7","667abff30a4bfe675c592b14","","","[0]","","","","quiz","","","","","","","","","","","","","","","","","","","","","","","","","","","","","","","","","","","","","true",""
"3989","","<p align='center'><b>CORRECT!</b> Indeed, you receive 2 pounds extra when you reach 50% of points.</p>","0","html-button-response","36","1585567","0.0-8.0-8.0-1.0","108","1","2025-07-09 09:08:06","7701e855f2ef39aa3fd6c71abdc6918a","168.210.171.183","Mozilla/5.0 (Windows NT 10.0; Win64; x64) AppleWebKit/537.36 (KHTML, like Gecko) Chrome/138.0.0.0 Safari/537.36","WebKit","Chrome","138.0.0.0","Windows","10.0","https://app.prolific.com/","en-US,en;q=0.9","667abff30a4bfe675c592b14","686d226cabeef709c732f8e1","686e3132f298a207bf5e4bc7","667abff30a4bfe675c592b14","","","","","","","","","","","","","","","","","","","","","","","","","","","","","","","","","","","","","","","","","","","","",""
"3341","","","","instructions","37","1588909","0.0-8.0-9.0","108","1","2025-07-09 09:08:06","7701e855f2ef39aa3fd6c71abdc6918a","168.210.171.183","Mozilla/5.0 (Windows NT 10.0; Win64; x64) AppleWebKit/537.36 (KHTML, like Gecko) Chrome/138.0.0.0 Safari/537.36","WebKit","Chrome","138.0.0.0","Windows","10.0","https://app.prolific.com/","en-US,en;q=0.9","667abff30a4bfe675c592b14","686d226cabeef709c732f8e1","686e3132f298a207bf5e4bc7","667abff30a4bfe675c592b14","","[{""page_index"":0,""viewing_time"":3341}]","","","","","","","","","","","","","","","","","","","","","","","","","","","","","","","","","","","","","","","","","","",""
"23675","","<p>Before you start with this game please answer the following three questions yourself. </p>
  <p>Through this game, we measure several aspects of your cognitive performance, such as reaction times, multi-tasking capabilities </p>
  <p>and the ability to assess the situation you are in.</p>
  <p></p>
  <p><b>How good do you usually are in such tasks?</b></p>","90","html-slider-response","38","1612594","0.0-9.0-0.0","108","1","2025-07-09 09:08:06","7701e855f2ef39aa3fd6c71abdc6918a","168.210.171.183","Mozilla/5.0 (Windows NT 10.0; Win64; x64) AppleWebKit/537.36 (KHTML, like Gecko) Chrome/138.0.0.0 Safari/537.36","WebKit","Chrome","138.0.0.0","Windows","10.0","https://app.prolific.com/","en-US,en;q=0.9","667abff30a4bfe675c592b14","686d226cabeef709c732f8e1","686e3132f298a207bf5e4bc7","667abff30a4bfe675c592b14","2025-07-09T09:35:02.365Z","","","","","","PreSkillQ","","","","","","","","","","","","","","","","","","","","","","","","","","","","","","","","","","","","","","50"
"8054","","<div style=""width:500px;"">
  <p>How well do you think you will perform in this task compared to other participants?</p>
  </div>","100","html-slider-response","39","1620654","0.0-9.0-1.0","108","1","2025-07-09 09:08:06","7701e855f2ef39aa3fd6c71abdc6918a","168.210.171.183","Mozilla/5.0 (Windows NT 10.0; Win64; x64) AppleWebKit/537.36 (KHTML, like Gecko) Chrome/138.0.0.0 Safari/537.36","WebKit","Chrome","138.0.0.0","Windows","10.0","https://app.prolific.com/","en-US,en;q=0.9","667abff30a4bfe675c592b14","686d226cabeef709c732f8e1","686e3132f298a207bf5e4bc7","667abff30a4bfe675c592b14","2025-07-09T09:35:10.424Z","","","","","","PrePerfQ","","","","","","","","","","","","","","","","","","","","","","","","","","","","","","","","","","","","","","50"
"5348","","<div style=""width:500px;"">
  <p>What best describes how you currently feel?</p>
  </div>","72","html-slider-response","40","1626008","0.0-9.0-2.0","108","1","2025-07-09 09:08:06","7701e855f2ef39aa3fd6c71abdc6918a","168.210.171.183","Mozilla/5.0 (Windows NT 10.0; Win64; x64) AppleWebKit/537.36 (KHTML, like Gecko) Chrome/138.0.0.0 Safari/537.36","WebKit","Chrome","138.0.0.0","Windows","10.0","https://app.prolific.com/","en-US,en;q=0.9","667abff30a4bfe675c592b14","686d226cabeef709c732f8e1","686e3132f298a207bf5e4bc7","667abff30a4bfe675c592b14","2025-07-09T09:35:15.779Z","","","","","","PreMotivationQ","","","","","","","","","","","","","","","","","","","","","","","","","","","","","","","","","","","","","","50"
"","","","","ctl-task-cpt","41","1642562","0.0-10.0-0.0","108","1","2025-07-09 09:08:06","7701e855f2ef39aa3fd6c71abdc6918a","168.210.171.183","Mozilla/5.0 (Windows NT 10.0; Win64; x64) AppleWebKit/537.36 (KHTML, like Gecko) Chrome/138.0.0.0 Safari/537.36","WebKit","Chrome","138.0.0.0","Windows","10.0","https://app.prolific.com/","en-US,en;q=0.9","667abff30a4bfe675c592b14","686d226cabeef709c732f8e1","686e3132f298a207bf5e4bc7","667abff30a4bfe675c592b14","2025-07-09T09:35:32.332Z","","","","","","","","","","","","","","","","win-only","3","g1:SW,g2:NE","1","1","0","1629675.4","3317.7","8334.6","13545.7","1","4","8","6","1","-1","-1","0","0","0","3451.3","3000","-1895","[""down"",""left""]","{""num_key_presses"":0,""num_perfect"":0,""num_errors"":0,""num_randdir"":0,""num_randdir_good_moves"":0,""num_whilered"":0,""num_whileblue"":0,""num_blue"":0,""num_good_moves"":0}","[299.22232142857143,301.12857142857143,2.2,299.22232142857143,301.12857142857143,108.7,299.22232142857143,301.12857142857143,211.2,299.22232142857143,301.12857142857143,313.6,299.22232142857143,301.12857142857143,417.7,299.22232142857143,301.12857142857143,525,299.22232142857143,301.12857142857143,628.7,299.22232142857143,301.12857142857143,728.8,299.22232142857143,301.12857142857143,833.8,277.22232142857143,362.12857142857143,934.2,258.22232142857143,429.12857142857143,1040.3,256.22232142857143,435.12857142857143,1145.3,255.22232142857143,437.12857142857143,1251.5,255.22232142857143,439.12857142857143,1355.9,255.22232142857143,439.12857142857143,1457.6,255.22232142857143,439.12857142857143,1560,255.22232142857143,439.12857142857143,1663.1,255.22232142857143,439.12857142857143,1763.4,255.22232142857143,439.12857142857143,1882.1,255.22232142857143,439.12857142857143,1990.8,255.22232142857143,439.12857142857143,2099.2,255.22232142857143,439.12857142857143,2209.8,144.22232142857143,523.1285714285714,2310.3,116.22232142857143,549.1285714285714,2413.7,115.22232142857143,545.1285714285714,2518,119.22232142857143,537.1285714285714,2618.3,140.22232142857143,516.1285714285714,2732,180.22232142857143,469.12857142857143,2833.1,177.22232142857143,475.12857142857143,2950.3,102.22232142857143,532.1285714285714,3052.7,56.222321428571426,556.1285714285714,3155.2,12.222321428571426,575.1285714285714,3263.3,5.222321428571426,574.1285714285714,3370,5.222321428571426,573.1285714285714,3474.6,5.222321428571426,573.1285714285714,3576.5,14.222321428571426,571.1285714285714,3680.5,105.22232142857143,556.1285714285714,3782.8,216.22232142857143,496.12857142857143,3884,259.22232142857143,467.12857142857143,3996.8,259.22232142857143,466.12857142857143,4098.5,260.22232142857143,461.12857142857143,4203.1,260.22232142857143,459.12857142857143,4307.2,259.22232142857143,458.12857142857143,4410.3,259.22232142857143,458.12857142857143,4510.6,259.22232142857143,458.12857142857143,4613.7,259.22232142857143,458.12857142857143,4714.2,259.22232142857143,458.12857142857143,4824.8,259.22232142857143,458.12857142857143,4925.6]","[]","",""
"11338","","<div style=""width:500px;"">
  <p>What determined the result of this run?</p>
  </div>","50","html-slider-response","42","1653902","0.0-10.0-1.0","108","1","2025-07-09 09:08:06","7701e855f2ef39aa3fd6c71abdc6918a","168.210.171.183","Mozilla/5.0 (Windows NT 10.0; Win64; x64) AppleWebKit/537.36 (KHTML, like Gecko) Chrome/138.0.0.0 Safari/537.36","WebKit","Chrome","138.0.0.0","Windows","10.0","https://app.prolific.com/","en-US,en;q=0.9","667abff30a4bfe675c592b14","686d226cabeef709c732f8e1","686e3132f298a207bf5e4bc7","667abff30a4bfe675c592b14","2025-07-09T09:35:43.672Z","","","","","","AttribQ","","","","","","","","","","","","","","","","","","","","","","","","","","","","","","","","","","","","","","50"
"5220","","<div style=""width:500px;"">
  <p>How much control did you have over the ball?</p>
  </div>","33","html-slider-response","43","1659124","0.0-10.0-2.0","108","1","2025-07-09 09:08:06","7701e855f2ef39aa3fd6c71abdc6918a","168.210.171.183","Mozilla/5.0 (Windows NT 10.0; Win64; x64) AppleWebKit/537.36 (KHTML, like Gecko) Chrome/138.0.0.0 Safari/537.36","WebKit","Chrome","138.0.0.0","Windows","10.0","https://app.prolific.com/","en-US,en;q=0.9","667abff30a4bfe675c592b14","686d226cabeef709c732f8e1","686e3132f298a207bf5e4bc7","667abff30a4bfe675c592b14","2025-07-09T09:35:48.894Z","","","","","","ControlQ","","","","","","","","","","","","","","","","","","","","","","","","","","","","","","","","","","","","","","50"
"6560","","<div style=""width:500px;"">
  <p>How would you describe your current emotional state?</p>
  </div>","62","html-slider-response","44","1665688","0.0-10.0-3.0","108","1","2025-07-09 09:08:06","7701e855f2ef39aa3fd6c71abdc6918a","168.210.171.183","Mozilla/5.0 (Windows NT 10.0; Win64; x64) AppleWebKit/537.36 (KHTML, like Gecko) Chrome/138.0.0.0 Safari/537.36","WebKit","Chrome","138.0.0.0","Windows","10.0","https://app.prolific.com/","en-US,en;q=0.9","667abff30a4bfe675c592b14","686d226cabeef709c732f8e1","686e3132f298a207bf5e4bc7","667abff30a4bfe675c592b14","2025-07-09T09:35:55.459Z","","","","","","StressQ","","","","","","","","","","","","","","","","","","","","","","","","","","","","","","","","","","","","","","50"
"8585","","<div style=""width:500px;"">
  <p>What best describes how you currently feel?</p>
  </div>","64","html-slider-response","45","1674277","0.0-10.0-4.0","108","1","2025-07-09 09:08:06","7701e855f2ef39aa3fd6c71abdc6918a","168.210.171.183","Mozilla/5.0 (Windows NT 10.0; Win64; x64) AppleWebKit/537.36 (KHTML, like Gecko) Chrome/138.0.0.0 Safari/537.36","WebKit","Chrome","138.0.0.0","Windows","10.0","https://app.prolific.com/","en-US,en;q=0.9","667abff30a4bfe675c592b14","686d226cabeef709c732f8e1","686e3132f298a207bf5e4bc7","667abff30a4bfe675c592b14","2025-07-09T09:36:04.047Z","","","","","","MotivationQ","","","","","","","","","","","","","","","","","","","","","","","","","","","","","","","","","","","","","","50"
"","","","","ctl-task-cpt","46","1691987","0.0-10.0-0.1","108","1","2025-07-09 09:08:06","7701e855f2ef39aa3fd6c71abdc6918a","168.210.171.183","Mozilla/5.0 (Windows NT 10.0; Win64; x64) AppleWebKit/537.36 (KHTML, like Gecko) Chrome/138.0.0.0 Safari/537.36","WebKit","Chrome","138.0.0.0","Windows","10.0","https://app.prolific.com/","en-US,en;q=0.9","667abff30a4bfe675c592b14","686d226cabeef709c732f8e1","686e3132f298a207bf5e4bc7","667abff30a4bfe675c592b14","2025-07-09T09:36:21.758Z","","","","","","","","","","","","","","","","win-only","2","g1:SE,g2:NW","0.9","2","0","1677943","4066.8","9068.7","14696.9","1","4","4","6","1","-1","-1","0","0","0","2433","3000","-2070","[""down"",""right""]","{""num_key_presses"":0,""num_perfect"":0,""num_errors"":0,""num_randdir"":0,""num_randdir_good_moves"":0,""num_whilered"":0,""num_whileblue"":0,""num_blue"":0,""num_good_moves"":0}","[297.22232142857143,290.12857142857143,1.8,297.22232142857143,290.12857142857143,106.4,297.22232142857143,290.12857142857143,217.7,297.22232142857143,290.12857142857143,324.8,297.22232142857143,290.12857142857143,426.2,297.22232142857143,290.12857142857143,531.3,297.22232142857143,290.12857142857143,633.4,297.22232142857143,290.12857142857143,735.3,297.22232142857143,290.12857142857143,836.7,305.22232142857143,320.12857142857143,946.1,305.22232142857143,325.12857142857143,1046.9,305.22232142857143,327.12857142857143,1151.3,312.22232142857143,346.12857142857143,1264.2,326.22232142857143,361.12857142857143,1365.6,333.22232142857143,365.12857142857143,1470.1,335.22232142857143,367.12857142857143,1573.9,340.22232142857143,366.12857142857143,1683.4,388.22232142857143,377.12857142857143,1784.4,537.2223214285714,475.12857142857143,1900.2,560.2223214285714,496.12857142857143,2000.2,566.2223214285714,530.1285714285714,2115.1,567.2223214285714,534.1285714285714,2219.4,563.2223214285714,537.1285714285714,2320.2,563.2223214285714,537.1285714285714,2425.7,563.2223214285714,537.1285714285714,2526.4,563.2223214285714,537.1285714285714,2636.3,563.2223214285714,537.1285714285714,2740,563.2223214285714,537.1285714285714,2840.2,563.2223214285714,537.1285714285714,2946.2,563.2223214285714,537.1285714285714,3055.2,563.2223214285714,537.1285714285714,3156,563.2223214285714,537.1285714285714,3261.8,563.2223214285714,537.1285714285714,3364.5,563.2223214285714,537.1285714285714,3465.3,563.2223214285714,537.1285714285714,3570.1,563.2223214285714,537.1285714285714,3680.7,563.2223214285714,537.1285714285714,3783,563.2223214285714,537.1285714285714,3883.7,563.2223214285714,537.1285714285714,3986.7,563.2223214285714,537.1285714285714,4089.7,515.2223214285714,562.1285714285714,4215.3,445.22232142857143,563.1285714285714,4327.3,397.22232142857143,558.1285714285714,4428.7,363.22232142857143,545.1285714285714,4535.3,315.22232142857143,519.1285714285714,4647.6,300.22232142857143,501.12857142857143,4748.4,301.22232142857143,501.12857142857143,4853.3,302.22232142857143,501.12857142857143,4961.9]","[]","",""
"5793","","<div style=""width:500px;"">
  <p>What determined the result of this run?</p>
  </div>","51","html-slider-response","47","1697782","0.0-10.0-1.1","108","1","2025-07-09 09:08:06","7701e855f2ef39aa3fd6c71abdc6918a","168.210.171.183","Mozilla/5.0 (Windows NT 10.0; Win64; x64) AppleWebKit/537.36 (KHTML, like Gecko) Chrome/138.0.0.0 Safari/537.36","WebKit","Chrome","138.0.0.0","Windows","10.0","https://app.prolific.com/","en-US,en;q=0.9","667abff30a4bfe675c592b14","686d226cabeef709c732f8e1","686e3132f298a207bf5e4bc7","667abff30a4bfe675c592b14","2025-07-09T09:36:27.552Z","","","","","","AttribQ","","","","","","","","","","","","","","","","","","","","","","","","","","","","","","","","","","","","","","50"
"4944","","<div style=""width:500px;"">
  <p>How much control did you have over the ball?</p>
  </div>","51","html-slider-response","48","1702735","0.0-10.0-2.1","108","1","2025-07-09 09:08:06","7701e855f2ef39aa3fd6c71abdc6918a","168.210.171.183","Mozilla/5.0 (Windows NT 10.0; Win64; x64) AppleWebKit/537.36 (KHTML, like Gecko) Chrome/138.0.0.0 Safari/537.36","WebKit","Chrome","138.0.0.0","Windows","10.0","https://app.prolific.com/","en-US,en;q=0.9","667abff30a4bfe675c592b14","686d226cabeef709c732f8e1","686e3132f298a207bf5e4bc7","667abff30a4bfe675c592b14","2025-07-09T09:36:32.505Z","","","","","","ControlQ","","","","","","","","","","","","","","","","","","","","","","","","","","","","","","","","","","","","","","50"
"5461","","<div style=""width:500px;"">
  <p>How would you describe your current emotional state?</p>
  </div>","56","html-slider-response","49","1708198","0.0-10.0-3.1","108","1","2025-07-09 09:08:06","7701e855f2ef39aa3fd6c71abdc6918a","168.210.171.183","Mozilla/5.0 (Windows NT 10.0; Win64; x64) AppleWebKit/537.36 (KHTML, like Gecko) Chrome/138.0.0.0 Safari/537.36","WebKit","Chrome","138.0.0.0","Windows","10.0","https://app.prolific.com/","en-US,en;q=0.9","667abff30a4bfe675c592b14","686d226cabeef709c732f8e1","686e3132f298a207bf5e4bc7","667abff30a4bfe675c592b14","2025-07-09T09:36:37.968Z","","","","","","StressQ","","","","","","","","","","","","","","","","","","","","","","","","","","","","","","","","","","","","","","50"
"3819","","<div style=""width:500px;"">
  <p>What best describes how you currently feel?</p>
  </div>","48","html-slider-response","50","1712020","0.0-10.0-4.1","108","1","2025-07-09 09:08:06","7701e855f2ef39aa3fd6c71abdc6918a","168.210.171.183","Mozilla/5.0 (Windows NT 10.0; Win64; x64) AppleWebKit/537.36 (KHTML, like Gecko) Chrome/138.0.0.0 Safari/537.36","WebKit","Chrome","138.0.0.0","Windows","10.0","https://app.prolific.com/","en-US,en;q=0.9","667abff30a4bfe675c592b14","686d226cabeef709c732f8e1","686e3132f298a207bf5e4bc7","667abff30a4bfe675c592b14","2025-07-09T09:36:41.790Z","","","","","","MotivationQ","","","","","","","","","","","","","","","","","","","","","","","","","","","","","","","","","","","","","","50"
"","","","","ctl-task-cpt","51","1757284","0.0-10.0-0.2","108","1","2025-07-09 09:08:06","7701e855f2ef39aa3fd6c71abdc6918a","168.210.171.183","Mozilla/5.0 (Windows NT 10.0; Win64; x64) AppleWebKit/537.36 (KHTML, like Gecko) Chrome/138.0.0.0 Safari/537.36","WebKit","Chrome","138.0.0.0","Windows","10.0","https://app.prolific.com/","en-US,en;q=0.9","667abff30a4bfe675c592b14","686d226cabeef709c732f8e1","686e3132f298a207bf5e4bc7","667abff30a4bfe675c592b14","2025-07-09T09:37:27.054Z","","","","","","","","","","","","","","","","win-only","3","g1:SW,g2:NE","0.8","3","0","1715682","2143","7152.1","42247.1","1","4","4","6","2","-4","-7","0","0","0","2015.2","3000","-2225","[""up"",""right""]","{""num_key_presses"":11,""num_perfect"":4,""num_errors"":3,""num_randdir"":2,""num_randdir_good_moves"":2,""num_whilered"":2,""num_whileblue"":0,""num_blue"":2,""num_good_moves"":5}","[297.22232142857143,296.12857142857143,1,297.22232142857143,296.12857142857143,101.1,297.22232142857143,296.12857142857143,202.3,297.22232142857143,296.12857142857143,312.8,297.22232142857143,296.12857142857143,413.3,297.22232142857143,296.12857142857143,513.6,297.22232142857143,296.12857142857143,614.7,297.22232142857143,296.12857142857143,721.4,297.22232142857143,296.12857142857143,821.6,288.22232142857143,312.12857142857143,934.2,272.22232142857143,341.12857142857143,1044.9,262.22232142857143,361.12857142857143,1155.4,328.22232142857143,342.12857142857143,1256.6,531.2223214285714,130.12857142857143,1356.7,555.2223214285714,105.12857142857143,1466.1,562.2223214285714,95.12857142857143,1575.8,561.2223214285714,89.12857142857143,1685.3,557.2223214285714,81.12857142857143,1790.7,556.2223214285714,81.12857142857143,1891.3,556.2223214285714,81.12857142857143,1997.7,556.2223214285714,81.12857142857143,2098.8,556.2223214285714,81.12857142857143,2200.9,556.2223214285714,81.12857142857143,2313.7,556.2223214285714,81.12857142857143,2420.3,556.2223214285714,81.12857142857143,2529.5,556.2223214285714,81.12857142857143,2632.8,556.2223214285714,81.12857142857143,2733.9,556.2223214285714,81.12857142857143,2839.6,556.2223214285714,81.12857142857143,2947.9,556.2223214285714,81.12857142857143,3059.9,556.2223214285714,81.12857142857143,3164.5,556.2223214285714,81.12857142857143,3268.2,556.2223214285714,81.12857142857143,3374.7,556.2223214285714,81.12857142857143,3482,556.2223214285714,81.12857142857143,3583.1,556.2223214285714,81.12857142857143,3683.8,556.2223214285714,81.12857142857143,3785.1,556.2223214285714,81.12857142857143,3887.7,556.2223214285714,81.12857142857143,4001.7,556.2223214285714,81.12857142857143,4109.3,556.2223214285714,81.12857142857143,4214.2,556.2223214285714,81.12857142857143,4318.1,556.2223214285714,81.12857142857143,4424.9,556.2223214285714,81.12857142857143,4529.2,556.2223214285714,81.12857142857143,4633.9,556.2223214285714,81.12857142857143,4734.4,556.2223214285714,81.12857142857143,4841.7,556.2223214285714,81.12857142857143,4942.2]","[455.7,455.7,1000,0,-544.2,""error"",""-"",""-"",""no_move"",8324.1,7867.4,2498.7,5324.2,501.2,""smooth"",""down"",""down"",""bad_move"",9883.5,1558.3,2333.8,8325.2,-775.5,""error"",""-"",""-"",""no_move"",10270.5,385.9,2333.8,8325.2,-388.5,""while_red"",""-"",""-"",""no_move"",10717.9,833.3,2333.8,8325.2,58.9,""while_red"",""-"",""-"",""no_move"",14253.3,4368.7,2521.5,10891.3,840.5,""oops"",""up"",""right"",""good_move"",14875.2,621,2700.1,14254.2,-2079.1,""error"",""-"",""-"",""no_move"",22855.1,7979.4,2220.1,20050.3,584.7,""oops"",""right"",""up"",""good_move"",27407.7,4551.7,3308,22856,1243.7,""smooth"",""right"",""right"",""good_move"",29967.2,2558.2,2000.5,27409,557.7,""smooth"",""right"",""right"",""good_move"",32609.6,2641.1,2103.6,29968.5,537.5,""smooth"",""up"",""up"",""good_move""]","",""
"7025","","<div style=""width:500px;"">
  <p>What determined the result of this run?</p>
  </div>","58","html-slider-response","52","1764312","0.0-10.0-1.2","108","1","2025-07-09 09:08:06","7701e855f2ef39aa3fd6c71abdc6918a","168.210.171.183","Mozilla/5.0 (Windows NT 10.0; Win64; x64) AppleWebKit/537.36 (KHTML, like Gecko) Chrome/138.0.0.0 Safari/537.36","WebKit","Chrome","138.0.0.0","Windows","10.0","https://app.prolific.com/","en-US,en;q=0.9","667abff30a4bfe675c592b14","686d226cabeef709c732f8e1","686e3132f298a207bf5e4bc7","667abff30a4bfe675c592b14","2025-07-09T09:37:34.082Z","","","","","","AttribQ","","","","","","","","","","","","","","","","","","","","","","","","","","","","","","","","","","","","","","50"
"3724","","<div style=""width:500px;"">
  <p>How much control did you have over the ball?</p>
  </div>","56","html-slider-response","53","1768039","0.0-10.0-2.2","108","1","2025-07-09 09:08:06","7701e855f2ef39aa3fd6c71abdc6918a","168.210.171.183","Mozilla/5.0 (Windows NT 10.0; Win64; x64) AppleWebKit/537.36 (KHTML, like Gecko) Chrome/138.0.0.0 Safari/537.36","WebKit","Chrome","138.0.0.0","Windows","10.0","https://app.prolific.com/","en-US,en;q=0.9","667abff30a4bfe675c592b14","686d226cabeef709c732f8e1","686e3132f298a207bf5e4bc7","667abff30a4bfe675c592b14","2025-07-09T09:37:37.809Z","","","","","","ControlQ","","","","","","","","","","","","","","","","","","","","","","","","","","","","","","","","","","","","","","50"
"8282","","<div style=""width:500px;"">
  <p>How would you describe your current emotional state?</p>
  </div>","81","html-slider-response","54","1776326","0.0-10.0-3.2","108","1","2025-07-09 09:08:06","7701e855f2ef39aa3fd6c71abdc6918a","168.210.171.183","Mozilla/5.0 (Windows NT 10.0; Win64; x64) AppleWebKit/537.36 (KHTML, like Gecko) Chrome/138.0.0.0 Safari/537.36","WebKit","Chrome","138.0.0.0","Windows","10.0","https://app.prolific.com/","en-US,en;q=0.9","667abff30a4bfe675c592b14","686d226cabeef709c732f8e1","686e3132f298a207bf5e4bc7","667abff30a4bfe675c592b14","2025-07-09T09:37:46.096Z","","","","","","StressQ","","","","","","","","","","","","","","","","","","","","","","","","","","","","","","","","","","","","","","50"
"4385","","<div style=""width:500px;"">
  <p>What best describes how you currently feel?</p>
  </div>","57","html-slider-response","55","1780714","0.0-10.0-4.2","108","1","2025-07-09 09:08:06","7701e855f2ef39aa3fd6c71abdc6918a","168.210.171.183","Mozilla/5.0 (Windows NT 10.0; Win64; x64) AppleWebKit/537.36 (KHTML, like Gecko) Chrome/138.0.0.0 Safari/537.36","WebKit","Chrome","138.0.0.0","Windows","10.0","https://app.prolific.com/","en-US,en;q=0.9","667abff30a4bfe675c592b14","686d226cabeef709c732f8e1","686e3132f298a207bf5e4bc7","667abff30a4bfe675c592b14","2025-07-09T09:37:50.484Z","","","","","","MotivationQ","","","","","","","","","","","","","","","","","","","","","","","","","","","","","","","","","","","","","","50"
"","","","","ctl-task-cpt","56","1806849","0.0-10.0-0.3","108","1","2025-07-09 09:08:06","7701e855f2ef39aa3fd6c71abdc6918a","168.210.171.183","Mozilla/5.0 (Windows NT 10.0; Win64; x64) AppleWebKit/537.36 (KHTML, like Gecko) Chrome/138.0.0.0 Safari/537.36","WebKit","Chrome","138.0.0.0","Windows","10.0","https://app.prolific.com/","en-US,en;q=0.9","667abff30a4bfe675c592b14","686d226cabeef709c732f8e1","686e3132f298a207bf5e4bc7","667abff30a4bfe675c592b14","2025-07-09T09:38:16.619Z","","","","","","","","","","","","","","","","win-only","3","g1:SW,g2:NE","0.7","4","0","1784372","1915.5","6924.4","23099.2","1","4","8","6","1","1","0","0","0","0","2560.1","3000","1770","[""down"",""left""]","{""num_key_presses"":5,""num_perfect"":4,""num_errors"":1,""num_randdir"":0,""num_randdir_good_moves"":0,""num_whilered"":0,""num_whileblue"":0,""num_blue"":1,""num_good_moves"":4}","[300.22232142857143,295.12857142857143,0.5,300.22232142857143,295.12857142857143,107.4,300.22232142857143,295.12857142857143,214.1,300.22232142857143,295.12857142857143,315.8,300.22232142857143,295.12857142857143,425.7,300.22232142857143,295.12857142857143,588.1,300.22232142857143,295.12857142857143,690.8,300.22232142857143,295.12857142857143,794.1,300.22232142857143,295.12857142857143,904.3,300.22232142857143,295.12857142857143,1014.9,300.22232142857143,295.12857142857143,1118.8,300.22232142857143,295.12857142857143,1226.8,300.22232142857143,295.12857142857143,1332.4,300.22232142857143,295.12857142857143,1445.8,293.22232142857143,302.12857142857143,1546.5,273.22232142857143,338.12857142857143,1653.1,211.22232142857143,414.12857142857143,1760.2,144.22232142857143,485.12857142857143,1862.4,81.22232142857143,554.1285714285714,1978.6,69.22232142857143,568.1285714285714,2084.1,69.22232142857143,568.1285714285714,2184.6,64.22232142857143,560.1285714285714,2286.2,63.222321428571426,555.1285714285714,2397.5,63.222321428571426,555.1285714285714,2498.3,63.222321428571426,555.1285714285714,2599.9,63.222321428571426,555.1285714285714,2703.4,63.222321428571426,555.1285714285714,2815.9,63.222321428571426,555.1285714285714,2928.2,63.222321428571426,555.1285714285714,3036.2,63.222321428571426,555.1285714285714,3149,63.222321428571426,555.1285714285714,3250.8,63.222321428571426,555.1285714285714,3363.9,63.222321428571426,555.1285714285714,3468.8,63.222321428571426,555.1285714285714,3574.2,63.222321428571426,555.1285714285714,3680.3,63.222321428571426,555.1285714285714,3787.3,63.222321428571426,555.1285714285714,3891.1,63.222321428571426,555.1285714285714,3997,63.222321428571426,555.1285714285714,4102.8,63.222321428571426,555.1285714285714,4213.8,63.222321428571426,555.1285714285714,4327.2,63.222321428571426,555.1285714285714,4433.6,63.222321428571426,555.1285714285714,4538.1,63.222321428571426,555.1285714285714,4640.3,63.222321428571426,555.1285714285714,4741.1,63.222321428571426,555.1285714285714,4841.9,63.222321428571426,555.1285714285714,4946.1]","[3177.4,3177.5,2122.1,2011.7,-956.3,""error"",""-"",""-"",""no_move"",7345.3,4167.2,2593.8,4178.5,573,""smooth"",""down"",""down"",""good_move"",10523.1,3172.3,2456.5,7350.8,715.8,""smooth"",""down"",""down"",""good_move"",13024.7,2500.6,2115.2,10524.2,385.3,""smooth"",""left"",""left"",""good_move"",16020.4,2994.5,2622,13026.1,372.4,""smooth"",""left"",""left"",""good_move""]","",""
"3781","","<div style=""width:500px;"">
  <p>What determined the result of this run?</p>
  </div>","68","html-slider-response","57","1810632","0.0-10.0-1.3","108","1","2025-07-09 09:08:06","7701e855f2ef39aa3fd6c71abdc6918a","168.210.171.183","Mozilla/5.0 (Windows NT 10.0; Win64; x64) AppleWebKit/537.36 (KHTML, like Gecko) Chrome/138.0.0.0 Safari/537.36","WebKit","Chrome","138.0.0.0","Windows","10.0","https://app.prolific.com/","en-US,en;q=0.9","667abff30a4bfe675c592b14","686d226cabeef709c732f8e1","686e3132f298a207bf5e4bc7","667abff30a4bfe675c592b14","2025-07-09T09:38:20.402Z","","","","","","AttribQ","","","","","","","","","","","","","","","","","","","","","","","","","","","","","","","","","","","","","","50"
"4069","","<div style=""width:500px;"">
  <p>How much control did you have over the ball?</p>
  </div>","65","html-slider-response","58","1814703","0.0-10.0-2.3","108","1","2025-07-09 09:08:06","7701e855f2ef39aa3fd6c71abdc6918a","168.210.171.183","Mozilla/5.0 (Windows NT 10.0; Win64; x64) AppleWebKit/537.36 (KHTML, like Gecko) Chrome/138.0.0.0 Safari/537.36","WebKit","Chrome","138.0.0.0","Windows","10.0","https://app.prolific.com/","en-US,en;q=0.9","667abff30a4bfe675c592b14","686d226cabeef709c732f8e1","686e3132f298a207bf5e4bc7","667abff30a4bfe675c592b14","2025-07-09T09:38:24.474Z","","","","","","ControlQ","","","","","","","","","","","","","","","","","","","","","","","","","","","","","","","","","","","","","","50"
"4134","","<div style=""width:500px;"">
  <p>How would you describe your current emotional state?</p>
  </div>","56","html-slider-response","59","1818846","0.0-10.0-3.3","108","1","2025-07-09 09:08:06","7701e855f2ef39aa3fd6c71abdc6918a","168.210.171.183","Mozilla/5.0 (Windows NT 10.0; Win64; x64) AppleWebKit/537.36 (KHTML, like Gecko) Chrome/138.0.0.0 Safari/537.36","WebKit","Chrome","138.0.0.0","Windows","10.0","https://app.prolific.com/","en-US,en;q=0.9","667abff30a4bfe675c592b14","686d226cabeef709c732f8e1","686e3132f298a207bf5e4bc7","667abff30a4bfe675c592b14","2025-07-09T09:38:28.616Z","","","","","","StressQ","","","","","","","","","","","","","","","","","","","","","","","","","","","","","","","","","","","","","","50"
"4400","","<div style=""width:500px;"">
  <p>What best describes how you currently feel?</p>
  </div>","65","html-slider-response","60","1823250","0.0-10.0-4.3","108","1","2025-07-09 09:08:06","7701e855f2ef39aa3fd6c71abdc6918a","168.210.171.183","Mozilla/5.0 (Windows NT 10.0; Win64; x64) AppleWebKit/537.36 (KHTML, like Gecko) Chrome/138.0.0.0 Safari/537.36","WebKit","Chrome","138.0.0.0","Windows","10.0","https://app.prolific.com/","en-US,en;q=0.9","667abff30a4bfe675c592b14","686d226cabeef709c732f8e1","686e3132f298a207bf5e4bc7","667abff30a4bfe675c592b14","2025-07-09T09:38:33.020Z","","","","","","MotivationQ","","","","","","","","","","","","","","","","","","","","","","","","","","","","","","","","","","","","","","50"
"","","","","ctl-task-cpt","61","1865262","0.0-10.0-0.4","108","1","2025-07-09 09:08:06","7701e855f2ef39aa3fd6c71abdc6918a","168.210.171.183","Mozilla/5.0 (Windows NT 10.0; Win64; x64) AppleWebKit/537.36 (KHTML, like Gecko) Chrome/138.0.0.0 Safari/537.36","WebKit","Chrome","138.0.0.0","Windows","10.0","https://app.prolific.com/","en-US,en;q=0.9","667abff30a4bfe675c592b14","686d226cabeef709c732f8e1","686e3132f298a207bf5e4bc7","667abff30a4bfe675c592b14","2025-07-09T09:39:15.032Z","","","","","","","","","","","","","","","","win-only","0","g1:NW,g2:SE","0.6","5","0","1826905.2","5861.4","10874.5","38991","1","4","8","6","1","1","-1","0","0","0","2783.2","3000","1565","[""left"",""up""]","{""num_key_presses"":7,""num_perfect"":3,""num_errors"":2,""num_randdir"":2,""num_randdir_good_moves"":1,""num_whilered"":0,""num_whileblue"":1,""num_blue"":3,""num_good_moves"":5}","[293.22232142857143,293.12857142857143,2,293.22232142857143,293.12857142857143,111.7,293.22232142857143,293.12857142857143,219.5,293.22232142857143,293.12857142857143,322.2,293.22232142857143,293.12857142857143,430.5,293.22232142857143,293.12857142857143,532,293.22232142857143,293.12857142857143,633.3,293.22232142857143,293.12857142857143,736.6,293.22232142857143,293.12857142857143,839.6,293.22232142857143,293.12857142857143,944.8,322.22232142857143,326.12857142857143,1075.6,427.22232142857143,444.12857142857143,1178.7,476.22232142857143,499.12857142857143,1286.2,519.2223214285714,535.1285714285714,1421.6,533.2223214285714,545.1285714285714,1530.6,534.2223214285714,546.1285714285714,1632.2,534.2223214285714,546.1285714285714,1742,534.2223214285714,546.1285714285714,1847.5,534.2223214285714,546.1285714285714,1961.2,95.22232142857143,163.12857142857143,2083.2,-2.7776785714285737,60.128571428571426,2191.9,-5.777678571428574,40.128571428571426,2313.4,10.222321428571426,30.128571428571426,2437.8,42.222321428571426,36.128571428571426,2555.1,42.222321428571426,37.128571428571426,2671.3,42.222321428571426,37.128571428571426,2777.6,42.222321428571426,37.128571428571426,2895.8,42.222321428571426,37.128571428571426,2998.6,42.222321428571426,37.128571428571426,3112.3,42.222321428571426,37.128571428571426,3212.8,42.222321428571426,37.128571428571426,3315.6,42.222321428571426,37.128571428571426,3425.2,42.222321428571426,37.128571428571426,3540,42.222321428571426,37.128571428571426,3645.9,42.222321428571426,37.128571428571426,3761.7,42.222321428571426,37.128571428571426,3875,42.222321428571426,37.128571428571426,3982.8,42.222321428571426,37.128571428571426,4088.4,42.222321428571426,37.128571428571426,4193.6,86.22232142857143,88.12857142857143,4303.1,131.22232142857143,150.12857142857143,4419.2,146.22232142857143,168.12857142857143,4532,150.22232142857143,173.12857142857143,4637.1,153.22232142857143,178.12857142857143,4741.2,157.22232142857143,183.12857142857143,4853.7,158.22232142857143,184.12857142857143,4962.5]","[1694.7,1694.7,1000,0,694.7,""smooth"",""up"",""up"",""good_move"",4821.7,3124.7,2659.8,1697.2,464.7,""smooth"",""up"",""up"",""good_move"",7463.4,2640.1,2240.6,4823.3,399.5,""oops"",""left"",""down"",""bad_move"",9152.5,1687.1,2875.2,7465.5,-1188.1,""error"",""-"",""-"",""no_move"",13659.1,4504.7,3073.1,10158.1,427.9,""while_blue"",""left"",""up"",""good_move"",21387.8,7726.9,2829.9,18134.7,423.2,""smooth"",""left"",""left"",""good_move"",27906.5,6517.7,2437.6,25089.7,379.3,""oops"",""left"",""left"",""good_move""]","",""
"3329","","<div style=""width:500px;"">
  <p>What determined the result of this run?</p>
  </div>","66","html-slider-response","62","1868597","0.0-10.0-1.4","108","1","2025-07-09 09:08:06","7701e855f2ef39aa3fd6c71abdc6918a","168.210.171.183","Mozilla/5.0 (Windows NT 10.0; Win64; x64) AppleWebKit/537.36 (KHTML, like Gecko) Chrome/138.0.0.0 Safari/537.36","WebKit","Chrome","138.0.0.0","Windows","10.0","https://app.prolific.com/","en-US,en;q=0.9","667abff30a4bfe675c592b14","686d226cabeef709c732f8e1","686e3132f298a207bf5e4bc7","667abff30a4bfe675c592b14","2025-07-09T09:39:18.368Z","","","","","","AttribQ","","","","","","","","","","","","","","","","","","","","","","","","","","","","","","","","","","","","","","50"
"6838","","<div style=""width:500px;"">
  <p>How much control did you have over the ball?</p>
  </div>","67","html-slider-response","63","1875439","0.0-10.0-2.4","108","1","2025-07-09 09:08:06","7701e855f2ef39aa3fd6c71abdc6918a","168.210.171.183","Mozilla/5.0 (Windows NT 10.0; Win64; x64) AppleWebKit/537.36 (KHTML, like Gecko) Chrome/138.0.0.0 Safari/537.36","WebKit","Chrome","138.0.0.0","Windows","10.0","https://app.prolific.com/","en-US,en;q=0.9","667abff30a4bfe675c592b14","686d226cabeef709c732f8e1","686e3132f298a207bf5e4bc7","667abff30a4bfe675c592b14","2025-07-09T09:39:25.209Z","","","","","","ControlQ","","","","","","","","","","","","","","","","","","","","","","","","","","","","","","","","","","","","","","50"
"3134","","<div style=""width:500px;"">
  <p>How would you describe your current emotional state?</p>
  </div>","59","html-slider-response","64","1878578","0.0-10.0-3.4","108","1","2025-07-09 09:08:06","7701e855f2ef39aa3fd6c71abdc6918a","168.210.171.183","Mozilla/5.0 (Windows NT 10.0; Win64; x64) AppleWebKit/537.36 (KHTML, like Gecko) Chrome/138.0.0.0 Safari/537.36","WebKit","Chrome","138.0.0.0","Windows","10.0","https://app.prolific.com/","en-US,en;q=0.9","667abff30a4bfe675c592b14","686d226cabeef709c732f8e1","686e3132f298a207bf5e4bc7","667abff30a4bfe675c592b14","2025-07-09T09:39:28.348Z","","","","","","StressQ","","","","","","","","","","","","","","","","","","","","","","","","","","","","","","","","","","","","","","50"
"4803","","<div style=""width:500px;"">
  <p>What best describes how you currently feel?</p>
  </div>","67","html-slider-response","65","1883384","0.0-10.0-4.4","108","1","2025-07-09 09:08:06","7701e855f2ef39aa3fd6c71abdc6918a","168.210.171.183","Mozilla/5.0 (Windows NT 10.0; Win64; x64) AppleWebKit/537.36 (KHTML, like Gecko) Chrome/138.0.0.0 Safari/537.36","WebKit","Chrome","138.0.0.0","Windows","10.0","https://app.prolific.com/","en-US,en;q=0.9","667abff30a4bfe675c592b14","686d226cabeef709c732f8e1","686e3132f298a207bf5e4bc7","667abff30a4bfe675c592b14","2025-07-09T09:39:33.154Z","","","","","","MotivationQ","","","","","","","","","","","","","","","","","","","","","","","","","","","","","","","","","","","","","","50"
"","","","","ctl-task-cpt","66","1935868","0.0-10.0-0.5","108","1","2025-07-09 09:08:06","7701e855f2ef39aa3fd6c71abdc6918a","168.210.171.183","Mozilla/5.0 (Windows NT 10.0; Win64; x64) AppleWebKit/537.36 (KHTML, like Gecko) Chrome/138.0.0.0 Safari/537.36","WebKit","Chrome","138.0.0.0","Windows","10.0","https://app.prolific.com/","en-US,en;q=0.9","667abff30a4bfe675c592b14","686d226cabeef709c732f8e1","686e3132f298a207bf5e4bc7","667abff30a4bfe675c592b14","2025-07-09T09:40:25.638Z","","","","","","","","","","","","","","","","win-only","0","g1:NW,g2:SE","0.5","6","0","1887034.8","1856.3","6877.2","49458.5","1","4","4","6","1","-1","-3","0","0","0","2231.9","3000","-1230","[""left"",""up""]","{""num_key_presses"":12,""num_perfect"":5,""num_errors"":2,""num_randdir"":5,""num_randdir_good_moves"":1,""num_whilered"":0,""num_whileblue"":0,""num_blue"":2,""num_good_moves"":5}","[298.22232142857143,295.12857142857143,1.4,298.22232142857143,295.12857142857143,110.1,298.22232142857143,295.12857142857143,236.9,298.22232142857143,295.12857142857143,344.9,298.22232142857143,295.12857142857143,446.2,298.22232142857143,295.12857142857143,560,298.22232142857143,295.12857142857143,668.4,298.22232142857143,295.12857142857143,775.3,298.22232142857143,295.12857142857143,878.2,298.22232142857143,295.12857142857143,988.9,200.22232142857143,218.12857142857143,1089,155.22232142857143,161.12857142857143,1203.3,138.22232142857143,135.12857142857143,1312.5,120.22232142857143,103.12857142857143,1420,100.22232142857143,73.12857142857143,1536.1,84.22232142857143,56.128571428571426,1648.5,80.22232142857143,54.128571428571426,1755.5,79.22232142857143,54.128571428571426,1865.8,79.22232142857143,54.128571428571426,1975.7,79.22232142857143,54.128571428571426,2082.5,79.22232142857143,54.128571428571426,2188.4,79.22232142857143,54.128571428571426,2300.8,79.22232142857143,54.128571428571426,2408.9,79.22232142857143,54.128571428571426,2513.7,79.22232142857143,54.128571428571426,2627,79.22232142857143,54.128571428571426,2730.6,79.22232142857143,54.128571428571426,2832.7,79.22232142857143,54.128571428571426,2941.1,79.22232142857143,54.128571428571426,3044.1,79.22232142857143,54.128571428571426,3156.6,79.22232142857143,54.128571428571426,3260.9,79.22232142857143,54.128571428571426,3371.8,79.22232142857143,54.128571428571426,3474.8,79.22232142857143,54.128571428571426,3577.9,79.22232142857143,54.128571428571426,3684.1,79.22232142857143,54.128571428571426,3787.8,79.22232142857143,54.128571428571426,3893.1,131.22232142857143,110.12857142857143,4019.9,228.22232142857143,205.12857142857143,4135,228.22232142857143,205.12857142857143,4244.2,228.22232142857143,205.12857142857143,4348.3,228.22232142857143,205.12857142857143,4449.5,228.22232142857143,205.12857142857143,4553.8,228.22232142857143,205.12857142857143,4660.5,228.22232142857143,205.12857142857143,4763,228.22232142857143,205.12857142857143,4878.4,228.22232142857143,205.12857142857143,4993.2]","[1561.5,1561.6,1000,0,561.6,""smooth"",""up"",""up"",""good_move"",5030.8,3467,2463.7,1564,1003.1,""smooth"",""left"",""left"",""good_move"",11565.6,6533.3,2423.8,8706,435.8,""oops"",""left"",""right"",""bad_move"",14494.9,2927.9,2084.3,11567.1,843.6,""oops"",""up"",""down"",""bad_move"",20280.7,5779.9,2134.2,17665,481.6,""oops"",""up"",""right"",""bad_move"",20505.7,223.9,2998,20281.8,-2774.1,""error"",""-"",""-"",""no_move"",24809.4,4302.4,2719.3,21511.3,578.8,""oops"",""left"",""down"",""bad_move"",28001.4,3186.6,2500.2,24814.8,686.4,""smooth"",""right"",""right"",""bad_move"",30370.8,2368.2,1937,28002.6,431.2,""oops"",""left"",""up"",""good_move"",32122.8,1750.5,2791.3,30372.3,-1040.8,""error"",""-"",""-"",""no_move"",36515.3,4385.8,2591.9,33136.6,786.8,""smooth"",""left"",""left"",""good_move"",39887.3,3370.4,2590.4,36516.9,780,""smooth"",""left"",""left"",""good_move""]","",""
"4668","","<div style=""width:500px;"">
  <p>What determined the result of this run?</p>
  </div>","63","html-slider-response","67","1940540","0.0-10.0-1.5","108","1","2025-07-09 09:08:06","7701e855f2ef39aa3fd6c71abdc6918a","168.210.171.183","Mozilla/5.0 (Windows NT 10.0; Win64; x64) AppleWebKit/537.36 (KHTML, like Gecko) Chrome/138.0.0.0 Safari/537.36","WebKit","Chrome","138.0.0.0","Windows","10.0","https://app.prolific.com/","en-US,en;q=0.9","667abff30a4bfe675c592b14","686d226cabeef709c732f8e1","686e3132f298a207bf5e4bc7","667abff30a4bfe675c592b14","2025-07-09T09:40:30.310Z","","","","","","AttribQ","","","","","","","","","","","","","","","","","","","","","","","","","","","","","","","","","","","","","","50"
"6424","","<div style=""width:500px;"">
  <p>How much control did you have over the ball?</p>
  </div>","27","html-slider-response","68","1946969","0.0-10.0-2.5","108","1","2025-07-09 09:08:06","7701e855f2ef39aa3fd6c71abdc6918a","168.210.171.183","Mozilla/5.0 (Windows NT 10.0; Win64; x64) AppleWebKit/537.36 (KHTML, like Gecko) Chrome/138.0.0.0 Safari/537.36","WebKit","Chrome","138.0.0.0","Windows","10.0","https://app.prolific.com/","en-US,en;q=0.9","667abff30a4bfe675c592b14","686d226cabeef709c732f8e1","686e3132f298a207bf5e4bc7","667abff30a4bfe675c592b14","2025-07-09T09:40:36.739Z","","","","","","ControlQ","","","","","","","","","","","","","","","","","","","","","","","","","","","","","","","","","","","","","","50"
"4443","","<div style=""width:500px;"">
  <p>How would you describe your current emotional state?</p>
  </div>","43","html-slider-response","69","1951415","0.0-10.0-3.5","108","1","2025-07-09 09:08:06","7701e855f2ef39aa3fd6c71abdc6918a","168.210.171.183","Mozilla/5.0 (Windows NT 10.0; Win64; x64) AppleWebKit/537.36 (KHTML, like Gecko) Chrome/138.0.0.0 Safari/537.36","WebKit","Chrome","138.0.0.0","Windows","10.0","https://app.prolific.com/","en-US,en;q=0.9","667abff30a4bfe675c592b14","686d226cabeef709c732f8e1","686e3132f298a207bf5e4bc7","667abff30a4bfe675c592b14","2025-07-09T09:40:41.185Z","","","","","","StressQ","","","","","","","","","","","","","","","","","","","","","","","","","","","","","","","","","","","","","","50"
"4127","","<div style=""width:500px;"">
  <p>What best describes how you currently feel?</p>
  </div>","54","html-slider-response","70","1955545","0.0-10.0-4.5","108","1","2025-07-09 09:08:06","7701e855f2ef39aa3fd6c71abdc6918a","168.210.171.183","Mozilla/5.0 (Windows NT 10.0; Win64; x64) AppleWebKit/537.36 (KHTML, like Gecko) Chrome/138.0.0.0 Safari/537.36","WebKit","Chrome","138.0.0.0","Windows","10.0","https://app.prolific.com/","en-US,en;q=0.9","667abff30a4bfe675c592b14","686d226cabeef709c732f8e1","686e3132f298a207bf5e4bc7","667abff30a4bfe675c592b14","2025-07-09T09:40:45.316Z","","","","","","MotivationQ","","","","","","","","","","","","","","","","","","","","","","","","","","","","","","","","","","","","","","50"
"","","","","ctl-task-cpt","71","2003387","0.0-10.0-0.6","108","1","2025-07-09 09:08:06","7701e855f2ef39aa3fd6c71abdc6918a","168.210.171.183","Mozilla/5.0 (Windows NT 10.0; Win64; x64) AppleWebKit/537.36 (KHTML, like Gecko) Chrome/138.0.0.0 Safari/537.36","WebKit","Chrome","138.0.0.0","Windows","10.0","https://app.prolific.com/","en-US,en;q=0.9","667abff30a4bfe675c592b14","686d226cabeef709c732f8e1","686e3132f298a207bf5e4bc7","667abff30a4bfe675c592b14","2025-07-09T09:41:33.158Z","","","","","","","","","","","","","","","","win-only","3","g1:SW,g2:NE","0.4","7","0","1959195.2","2383","7388.5","44816.5","1","4","4","6","1","1","1","1","0","0.007575757575757576","1547.8","3000","160","[""down"",""left""]","{""num_key_presses"":12,""num_perfect"":5,""num_errors"":0,""num_randdir"":7,""num_randdir_good_moves"":3,""num_whilered"":0,""num_whileblue"":0,""num_blue"":1,""num_good_moves"":8}","[292.22232142857143,294.12857142857143,0.5,292.22232142857143,294.12857142857143,104.3,292.22232142857143,294.12857142857143,212.6,292.22232142857143,294.12857142857143,320.3,292.22232142857143,294.12857142857143,422.1,292.22232142857143,294.12857142857143,533,292.22232142857143,294.12857142857143,635.4,292.22232142857143,294.12857142857143,742.5,194.22232142857143,371.12857142857143,843.3,87.22232142857143,508.12857142857143,950.9,82.22232142857143,521.1285714285714,1061.4,81.22232142857143,521.1285714285714,1167.6,78.22232142857143,529.1285714285714,1268.2,77.22232142857143,530.1285714285714,1378.2,77.22232142857143,530.1285714285714,1488.2,77.22232142857143,530.1285714285714,1601.4,77.22232142857143,530.1285714285714,1704.5,77.22232142857143,530.1285714285714,1811.5,77.22232142857143,530.1285714285714,1926.4,77.22232142857143,530.1285714285714,2028.2,77.22232142857143,530.1285714285714,2134.5,77.22232142857143,530.1285714285714,2237.8,77.22232142857143,530.1285714285714,2338.2,77.22232142857143,530.1285714285714,2443.3,77.22232142857143,530.1285714285714,2553,77.22232142857143,530.1285714285714,2656.1,77.22232142857143,530.1285714285714,2769.4,77.22232142857143,530.1285714285714,2875.9,77.22232142857143,530.1285714285714,2977.9,77.22232142857143,530.1285714285714,3094.3,77.22232142857143,530.1285714285714,3198.7,193.22232142857143,437.12857142857143,3314,229.22232142857143,404.12857142857143,3432.6,282.22232142857143,349.12857142857143,3546.8,282.22232142857143,350.12857142857143,3652.6,281.22232142857143,350.12857142857143,3764.5,272.22232142857143,356.12857142857143,3874.3,266.22232142857143,356.12857142857143,3985.3,265.22232142857143,356.12857142857143,4100.9,265.22232142857143,356.12857142857143,4212.1,265.22232142857143,356.12857142857143,4316.7,265.22232142857143,356.12857142857143,4423.4,265.22232142857143,356.12857142857143,4523.6,265.22232142857143,356.12857142857143,4634.9,265.22232142857143,356.12857142857143,4743.2,265.22232142857143,356.12857142857143,4857.7,265.22232142857143,356.12857142857143,4970.1]","[1579.7,1579.7,1000,0,579.7,""oops"",""down"",""right"",""bad_move"",4328.7,2747.2,2028.3,1581.5,718.9,""oops"",""left"",""up"",""bad_move"",7305,2974.9,2272.1,4330.1,702.8,""oops"",""left"",""right"",""bad_move"",10019.1,2711.9,2253,7307.3,458.8,""oops"",""down"",""right"",""bad_move"",13094.9,3073.7,2427.3,10021.2,646.4,""smooth"",""down"",""down"",""good_move"",16310.6,3214.4,2691,13096.2,523.4,""oops"",""down"",""down"",""good_move"",19145.7,2832.4,2381.1,16313.3,451.3,""smooth"",""down"",""down"",""good_move"",21895.5,2747.9,2349.1,19147.6,398.8,""smooth"",""left"",""left"",""good_move"",25458.6,3561.4,3072.7,21897.2,488.7,""oops"",""left"",""left"",""good_move"",28885.6,3424.4,2967.7,25461.2,456.7,""smooth"",""left"",""left"",""good_move"",34474.7,5587.7,2370.3,31672.6,431.8,""smooth"",""left"",""left"",""good_move"",37188.1,2712.6,2237,34475.5,475.6,""oops"",""left"",""left"",""good_move""]","",""
"4580","","<div style=""width:500px;"">
  <p>What determined the result of this run?</p>
  </div>","68","html-slider-response","72","2007969","0.0-10.0-1.6","108","1","2025-07-09 09:08:06","7701e855f2ef39aa3fd6c71abdc6918a","168.210.171.183","Mozilla/5.0 (Windows NT 10.0; Win64; x64) AppleWebKit/537.36 (KHTML, like Gecko) Chrome/138.0.0.0 Safari/537.36","WebKit","Chrome","138.0.0.0","Windows","10.0","https://app.prolific.com/","en-US,en;q=0.9","667abff30a4bfe675c592b14","686d226cabeef709c732f8e1","686e3132f298a207bf5e4bc7","667abff30a4bfe675c592b14","2025-07-09T09:41:37.740Z","","","","","","AttribQ","","","","","","","","","","","","","","","","","","","","","","","","","","","","","","","","","","","","","","50"
"3439","","<div style=""width:500px;"">
  <p>How much control did you have over the ball?</p>
  </div>","64","html-slider-response","73","2011411","0.0-10.0-2.6","108","1","2025-07-09 09:08:06","7701e855f2ef39aa3fd6c71abdc6918a","168.210.171.183","Mozilla/5.0 (Windows NT 10.0; Win64; x64) AppleWebKit/537.36 (KHTML, like Gecko) Chrome/138.0.0.0 Safari/537.36","WebKit","Chrome","138.0.0.0","Windows","10.0","https://app.prolific.com/","en-US,en;q=0.9","667abff30a4bfe675c592b14","686d226cabeef709c732f8e1","686e3132f298a207bf5e4bc7","667abff30a4bfe675c592b14","2025-07-09T09:41:41.181Z","","","","","","ControlQ","","","","","","","","","","","","","","","","","","","","","","","","","","","","","","","","","","","","","","50"
"3967","","<div style=""width:500px;"">
  <p>How would you describe your current emotional state?</p>
  </div>","41","html-slider-response","74","2015382","0.0-10.0-3.6","108","1","2025-07-09 09:08:06","7701e855f2ef39aa3fd6c71abdc6918a","168.210.171.183","Mozilla/5.0 (Windows NT 10.0; Win64; x64) AppleWebKit/537.36 (KHTML, like Gecko) Chrome/138.0.0.0 Safari/537.36","WebKit","Chrome","138.0.0.0","Windows","10.0","https://app.prolific.com/","en-US,en;q=0.9","667abff30a4bfe675c592b14","686d226cabeef709c732f8e1","686e3132f298a207bf5e4bc7","667abff30a4bfe675c592b14","2025-07-09T09:41:45.152Z","","","","","","StressQ","","","","","","","","","","","","","","","","","","","","","","","","","","","","","","","","","","","","","","50"
"4314","","<div style=""width:500px;"">
  <p>What best describes how you currently feel?</p>
  </div>","55","html-slider-response","75","2019699","0.0-10.0-4.6","108","1","2025-07-09 09:08:06","7701e855f2ef39aa3fd6c71abdc6918a","168.210.171.183","Mozilla/5.0 (Windows NT 10.0; Win64; x64) AppleWebKit/537.36 (KHTML, like Gecko) Chrome/138.0.0.0 Safari/537.36","WebKit","Chrome","138.0.0.0","Windows","10.0","https://app.prolific.com/","en-US,en;q=0.9","667abff30a4bfe675c592b14","686d226cabeef709c732f8e1","686e3132f298a207bf5e4bc7","667abff30a4bfe675c592b14","2025-07-09T09:41:49.470Z","","","","","","MotivationQ","","","","","","","","","","","","","","","","","","","","","","","","","","","","","","","","","","","","","","50"
"","","","","ctl-task-cpt","76","2063594","0.0-10.0-0.7","108","1","2025-07-09 09:08:06","7701e855f2ef39aa3fd6c71abdc6918a","168.210.171.183","Mozilla/5.0 (Windows NT 10.0; Win64; x64) AppleWebKit/537.36 (KHTML, like Gecko) Chrome/138.0.0.0 Safari/537.36","WebKit","Chrome","138.0.0.0","Windows","10.0","https://app.prolific.com/","en-US,en;q=0.9","667abff30a4bfe675c592b14","686d226cabeef709c732f8e1","686e3132f298a207bf5e4bc7","667abff30a4bfe675c592b14","2025-07-09T09:42:33.365Z","","","","","","","","","","","","","","","","win-only","3","g1:SW,g2:NE","0.3","8","0","2023344.2","2345.6","7350.7","40856","1","4","8","6","1","1","1","2","1","0.015151515151515152","1923.9","3000","920","[""down"",""left""]","{""num_key_presses"":8,""num_perfect"":2,""num_errors"":0,""num_randdir"":6,""num_randdir_good_moves"":4,""num_whilered"":0,""num_whileblue"":0,""num_blue"":3,""num_good_moves"":6}","[296.22232142857143,293.12857142857143,0.4,296.22232142857143,293.12857142857143,102.4,296.22232142857143,293.12857142857143,206.5,296.22232142857143,293.12857142857143,319.9,296.22232142857143,293.12857142857143,424.5,296.22232142857143,293.12857142857143,527.6,296.22232142857143,293.12857142857143,635.2,296.22232142857143,293.12857142857143,737,296.22232142857143,293.12857142857143,846.8,223.22232142857143,384.12857142857143,947.1,144.22232142857143,503.12857142857143,1049.4,115.22232142857143,531.1285714285714,1151.4,103.22232142857143,538.1285714285714,1260.3,67.22232142857143,548.1285714285714,1368.7,47.222321428571426,551.1285714285714,1469.9,45.222321428571426,550.1285714285714,1570.1,45.222321428571426,550.1285714285714,1671.5,45.222321428571426,550.1285714285714,1776.3,45.222321428571426,550.1285714285714,1888.1,45.222321428571426,550.1285714285714,1990.7,45.222321428571426,550.1285714285714,2103.3,45.222321428571426,550.1285714285714,2207.2,45.222321428571426,550.1285714285714,2319.1,45.222321428571426,550.1285714285714,2423.1,45.222321428571426,550.1285714285714,2523.1,45.222321428571426,550.1285714285714,2627.5,45.222321428571426,550.1285714285714,2730.1,45.222321428571426,550.1285714285714,2832,45.222321428571426,550.1285714285714,2935.7,45.222321428571426,550.1285714285714,3041.3,45.222321428571426,550.1285714285714,3150.2,56.222321428571426,540.1285714285714,3269.2,173.22232142857143,422.12857142857143,3389.5,198.22232142857143,405.12857142857143,3498.3,216.22232142857143,394.12857142857143,3606.4,246.22232142857143,368.12857142857143,3716.5,248.22232142857143,366.12857142857143,3822.5,248.22232142857143,366.12857142857143,3934.8,248.22232142857143,366.12857142857143,4047.6,248.22232142857143,366.12857142857143,4148,248.22232142857143,366.12857142857143,4253.7,248.22232142857143,366.12857142857143,4357.7,248.22232142857143,366.12857142857143,4466.6,248.22232142857143,366.12857142857143,4569.5,248.22232142857143,366.12857142857143,4674.6,248.22232142857143,366.12857142857143,4788.5,248.22232142857143,366.12857142857143,4893.3,248.22232142857143,366.12857142857143,4997.5]","[1539.8,1539.9,1000,0,539.9,""oops"",""left"",""up"",""bad_move"",3968.6,2425.5,1470.2,1543.1,955.3,""oops"",""down"",""down"",""good_move"",6254.1,2276.4,1582.9,3977.8,693.4,""smooth"",""down"",""down"",""good_move"",8377.9,2119.8,1390.1,6258.1,729.7,""smooth"",""down"",""down"",""good_move"",15567.2,7188.2,3042.6,12139.6,385,""oops"",""left"",""left"",""good_move"",26296.5,10728.2,2724,23103.6,468.9,""oops"",""left"",""up"",""bad_move"",29666.4,3368,2593.9,26298.4,774.1,""oops"",""left"",""down"",""good_move"",33279.1,3611.5,3106.7,29667.6,504.8,""oops"",""right"",""left"",""good_move""]","",""
"3605","","<div style=""width:500px;"">
  <p>What determined the result of this run?</p>
  </div>","63","html-slider-response","77","2067202","0.0-10.0-1.7","108","1","2025-07-09 09:08:06","7701e855f2ef39aa3fd6c71abdc6918a","168.210.171.183","Mozilla/5.0 (Windows NT 10.0; Win64; x64) AppleWebKit/537.36 (KHTML, like Gecko) Chrome/138.0.0.0 Safari/537.36","WebKit","Chrome","138.0.0.0","Windows","10.0","https://app.prolific.com/","en-US,en;q=0.9","667abff30a4bfe675c592b14","686d226cabeef709c732f8e1","686e3132f298a207bf5e4bc7","667abff30a4bfe675c592b14","2025-07-09T09:42:36.973Z","","","","","","AttribQ","","","","","","","","","","","","","","","","","","","","","","","","","","","","","","","","","","","","","","50"
"5618","","<div style=""width:500px;"">
  <p>How much control did you have over the ball?</p>
  </div>","63","html-slider-response","78","2072823","0.0-10.0-2.7","108","1","2025-07-09 09:08:06","7701e855f2ef39aa3fd6c71abdc6918a","168.210.171.183","Mozilla/5.0 (Windows NT 10.0; Win64; x64) AppleWebKit/537.36 (KHTML, like Gecko) Chrome/138.0.0.0 Safari/537.36","WebKit","Chrome","138.0.0.0","Windows","10.0","https://app.prolific.com/","en-US,en;q=0.9","667abff30a4bfe675c592b14","686d226cabeef709c732f8e1","686e3132f298a207bf5e4bc7","667abff30a4bfe675c592b14","2025-07-09T09:42:42.594Z","","","","","","ControlQ","","","","","","","","","","","","","","","","","","","","","","","","","","","","","","","","","","","","","","50"
"3216","","<div style=""width:500px;"">
  <p>How would you describe your current emotional state?</p>
  </div>","60","html-slider-response","79","2076046","0.0-10.0-3.7","108","1","2025-07-09 09:08:06","7701e855f2ef39aa3fd6c71abdc6918a","168.210.171.183","Mozilla/5.0 (Windows NT 10.0; Win64; x64) AppleWebKit/537.36 (KHTML, like Gecko) Chrome/138.0.0.0 Safari/537.36","WebKit","Chrome","138.0.0.0","Windows","10.0","https://app.prolific.com/","en-US,en;q=0.9","667abff30a4bfe675c592b14","686d226cabeef709c732f8e1","686e3132f298a207bf5e4bc7","667abff30a4bfe675c592b14","2025-07-09T09:42:45.817Z","","","","","","StressQ","","","","","","","","","","","","","","","","","","","","","","","","","","","","","","","","","","","","","","50"
"10617","","<div style=""width:500px;"">
  <p>What best describes how you currently feel?</p>
  </div>","69","html-slider-response","80","2086667","0.0-10.0-4.7","108","1","2025-07-09 09:08:06","7701e855f2ef39aa3fd6c71abdc6918a","168.210.171.183","Mozilla/5.0 (Windows NT 10.0; Win64; x64) AppleWebKit/537.36 (KHTML, like Gecko) Chrome/138.0.0.0 Safari/537.36","WebKit","Chrome","138.0.0.0","Windows","10.0","https://app.prolific.com/","en-US,en;q=0.9","667abff30a4bfe675c592b14","686d226cabeef709c732f8e1","686e3132f298a207bf5e4bc7","667abff30a4bfe675c592b14","2025-07-09T09:42:56.437Z","","","","","","MotivationQ","","","","","","","","","","","","","","","","","","","","","","","","","","","","","","","","","","","","","","50"
"","","","","ctl-task-cpt","81","2162504","0.0-10.0-0.8","108","1","2025-07-09 09:08:06","7701e855f2ef39aa3fd6c71abdc6918a","168.210.171.183","Mozilla/5.0 (Windows NT 10.0; Win64; x64) AppleWebKit/537.36 (KHTML, like Gecko) Chrome/138.0.0.0 Safari/537.36","WebKit","Chrome","138.0.0.0","Windows","10.0","https://app.prolific.com/","en-US,en;q=0.9","667abff30a4bfe675c592b14","686d226cabeef709c732f8e1","686e3132f298a207bf5e4bc7","667abff30a4bfe675c592b14","2025-07-09T09:44:12.274Z","","","","","","","","","","","","","","","","win-only","1","g1:NE,g2:SW","0.2","9","0","2090310.3","2281.4","7309","72814.8","1","4","4","6","1","-1","-2","0","2","0","1639.3","3000","-1185","[""up"",""right""]","{""num_key_presses"":18,""num_perfect"":3,""num_errors"":1,""num_randdir"":14,""num_randdir_good_moves"":7,""num_whilered"":0,""num_whileblue"":0,""num_blue"":2,""num_good_moves"":8}","[294.22232142857143,292.12857142857143,1.6,294.22232142857143,292.12857142857143,100.3,294.22232142857143,292.12857142857143,208.5,294.22232142857143,292.12857142857143,315.8,294.22232142857143,292.12857142857143,423.2,294.22232142857143,292.12857142857143,533.8,294.22232142857143,292.12857142857143,649.6,403.22232142857143,197.12857142857143,756.7,495.22232142857143,126.12857142857143,864,511.22232142857143,108.12857142857143,982.3,516.2223214285714,97.12857142857143,1109.2,520.2223214285714,87.12857142857143,1217,521.2223214285714,81.12857142857143,1331.2,521.2223214285714,79.12857142857143,1433.9,521.2223214285714,79.12857142857143,1539.9,521.2223214285714,79.12857142857143,1648.6,521.2223214285714,79.12857142857143,1749.4,521.2223214285714,79.12857142857143,1851.3,521.2223214285714,79.12857142857143,1963,521.2223214285714,79.12857142857143,2067.4,521.2223214285714,79.12857142857143,2172.1,521.2223214285714,79.12857142857143,2292.5,521.2223214285714,79.12857142857143,2395.8,521.2223214285714,79.12857142857143,2508.6,521.2223214285714,79.12857142857143,2609.5,466.22232142857143,140.12857142857143,2709.8,408.22232142857143,189.12857142857143,2822.2,386.22232142857143,214.12857142857143,2929.5,386.22232142857143,215.12857142857143,3048.3,386.22232142857143,217.12857142857143,3152.2,383.22232142857143,224.12857142857143,3257.6,375.22232142857143,235.12857142857143,3362.1,371.22232142857143,241.12857142857143,3475.9,364.22232142857143,245.12857142857143,3597.9,364.22232142857143,245.12857142857143,3713.9,364.22232142857143,245.12857142857143,3816.3,364.22232142857143,245.12857142857143,3921.9,364.22232142857143,245.12857142857143,4045.4,364.22232142857143,245.12857142857143,4151,364.22232142857143,245.12857142857143,4261.5,364.22232142857143,245.12857142857143,4366,364.22232142857143,245.12857142857143,4476.1,364.22232142857143,245.12857142857143,4578.4,364.22232142857143,245.12857142857143,4686.2,364.22232142857143,245.12857142857143,4795.5,364.22232142857143,245.12857142857143,4900.4]","[1649.6,1649.6,1000,0,649.7,""oops"",""right"",""down"",""bad_move"",5136.8,3485.6,3024.8,1651.2,460.8,""oops"",""left"",""left"",""bad_move"",12918.9,7779.6,3165.8,9288.3,464.9,""oops"",""up"",""left"",""bad_move"",16404,3484.3,2250,12919.7,1234.3,""oops"",""right"",""down"",""bad_move"",19288.1,2882.9,2286.5,16405.2,596.4,""smooth"",""down"",""down"",""bad_move"",22337.1,3046,2472.6,19291.2,573.4,""oops"",""right"",""left"",""bad_move"",25121.3,2783,2371.3,22338.6,411.6,""oops"",""left"",""right"",""good_move"",28018.6,2895.6,2442.7,25123,452.9,""oops"",""left"",""up"",""good_move"",31338.9,3317.2,2815.3,28021.7,501.9,""smooth"",""left"",""left"",""bad_move"",34037.1,2697,2111.7,31340.2,585.3,""oops"",""left"",""up"",""good_move"",36670.1,2631.8,2126.4,34038.3,505.4,""smooth"",""up"",""up"",""good_move"",39569.1,2897.9,1853.9,36671.3,1044,""oops"",""up"",""up"",""good_move"",42864,3291.2,2503.4,39572.8,787.8,""oops"",""up"",""up"",""good_move"",45866.9,2994.8,2645.8,42872.1,349,""oops"",""right"",""down"",""bad_move"",48753.2,2884.1,2423.7,45869.2,460.3,""oops"",""up"",""right"",""good_move"",54920.8,6165.4,2663.4,51822.2,435.2,""oops"",""up"",""down"",""bad_move"",57809.9,2888.4,2472.5,54921.5,415.9,""oops"",""down"",""up"",""good_move"",60854.9,3042.3,3172.3,57812.7,-130,""error"",""-"",""-"",""no_move""]","",""
"4132","","<div style=""width:500px;"">
  <p>What determined the result of this run?</p>
  </div>","54","html-slider-response","82","2166641","0.0-10.0-1.8","108","1","2025-07-09 09:08:06","7701e855f2ef39aa3fd6c71abdc6918a","168.210.171.183","Mozilla/5.0 (Windows NT 10.0; Win64; x64) AppleWebKit/537.36 (KHTML, like Gecko) Chrome/138.0.0.0 Safari/537.36","WebKit","Chrome","138.0.0.0","Windows","10.0","https://app.prolific.com/","en-US,en;q=0.9","667abff30a4bfe675c592b14","686d226cabeef709c732f8e1","686e3132f298a207bf5e4bc7","667abff30a4bfe675c592b14","2025-07-09T09:44:16.411Z","","","","","","AttribQ","","","","","","","","","","","","","","","","","","","","","","","","","","","","","","","","","","","","","","50"
"2936","","<div style=""width:500px;"">
  <p>How much control did you have over the ball?</p>
  </div>","43","html-slider-response","83","2169583","0.0-10.0-2.8","108","1","2025-07-09 09:08:06","7701e855f2ef39aa3fd6c71abdc6918a","168.210.171.183","Mozilla/5.0 (Windows NT 10.0; Win64; x64) AppleWebKit/537.36 (KHTML, like Gecko) Chrome/138.0.0.0 Safari/537.36","WebKit","Chrome","138.0.0.0","Windows","10.0","https://app.prolific.com/","en-US,en;q=0.9","667abff30a4bfe675c592b14","686d226cabeef709c732f8e1","686e3132f298a207bf5e4bc7","667abff30a4bfe675c592b14","2025-07-09T09:44:19.353Z","","","","","","ControlQ","","","","","","","","","","","","","","","","","","","","","","","","","","","","","","","","","","","","","","50"
"3170","","<div style=""width:500px;"">
  <p>How would you describe your current emotional state?</p>
  </div>","49","html-slider-response","84","2172757","0.0-10.0-3.8","108","1","2025-07-09 09:08:06","7701e855f2ef39aa3fd6c71abdc6918a","168.210.171.183","Mozilla/5.0 (Windows NT 10.0; Win64; x64) AppleWebKit/537.36 (KHTML, like Gecko) Chrome/138.0.0.0 Safari/537.36","WebKit","Chrome","138.0.0.0","Windows","10.0","https://app.prolific.com/","en-US,en;q=0.9","667abff30a4bfe675c592b14","686d226cabeef709c732f8e1","686e3132f298a207bf5e4bc7","667abff30a4bfe675c592b14","2025-07-09T09:44:22.527Z","","","","","","StressQ","","","","","","","","","","","","","","","","","","","","","","","","","","","","","","","","","","","","","","50"
"3223","","<div style=""width:500px;"">
  <p>What best describes how you currently feel?</p>
  </div>","50","html-slider-response","85","2175985","0.0-10.0-4.8","108","1","2025-07-09 09:08:06","7701e855f2ef39aa3fd6c71abdc6918a","168.210.171.183","Mozilla/5.0 (Windows NT 10.0; Win64; x64) AppleWebKit/537.36 (KHTML, like Gecko) Chrome/138.0.0.0 Safari/537.36","WebKit","Chrome","138.0.0.0","Windows","10.0","https://app.prolific.com/","en-US,en;q=0.9","667abff30a4bfe675c592b14","686d226cabeef709c732f8e1","686e3132f298a207bf5e4bc7","667abff30a4bfe675c592b14","2025-07-09T09:44:25.755Z","","","","","","MotivationQ","","","","","","","","","","","","","","","","","","","","","","","","","","","","","","","","","","","","","","50"
