"rt","response_timestamp","stimulus","response","trial_type","trial_index","time_elapsed","internal_node_id","run_id","condition","recorded_at","source_code_version","ip","user_agent","device","browser","browser_version","platform","platform_version","referer","accept_language","PROLIFIC_PID","STUDY_ID","SESSION_ID","prolific_id","realtime","view_history","question_order","consent","success","question_id","eventType","responses","item_order","radio_event_ids","radio_event_times","key_event_times","mouse_event_times","straightlining","zigzagging","honeypot","which_type","canvas_config","goals_layout","control_level","trial_number","tutorial_trial_number","trial_start_time","phase1_start_time","phase2_start_time","phase3_start_time","goal_1_value","goal_1_distance","goal_2_value","goal_2_distance","goal_selected","outcome","outcome_total","participant_final_score","participant_initial_score","participant_final_score_prop","goal_choice_rt","allocated_time","allocated_time_remaining","goal_direction","counts","mouse_movements","key_presses","correct","slider_start","sub_question"
"5712","1752052053329","<p style='font-size:40px;line-height:1.25'><strong>Welcome to the experiment!</strong></p><p style='font-size:1.1em;line-height:1.25'>Thank you for your interest in our experiment! Before you begin, it is important that we obtain your informed consent to participate in the study.</p><p style='font-size:1.1em;line-height:1.25'>On the next screen will be an <strong>information sheet</strong> for you to read. To participate in the study we need you to read this information sheet and the following consent form carefully. If you agree with all the statements, please click the <strong>I agree</strong> button.</p><p style='font-size:1.1em;line-height:1.25'>Press <strong>Next</strong> to read the information sheet.</p>","0","custom-html-button-response","0","5713","0.0-0.0","70","1","2025-07-09 09:07:27","7701e855f2ef39aa3fd6c71abdc6918a","78.142.226.11","Mozilla/5.0 (Windows NT 10.0; Win64; x64) AppleWebKit/537.36 (KHTML, like Gecko) Chrome/138.0.0.0 Safari/537.36","WebKit","Chrome","138.0.0.0","Windows","10.0","https://app.prolific.com/","pl-PL,pl;q=0.9,en-US;q=0.8,en;q=0.7","60547b4561f591f963b10ca7","686d226cabeef709c732f8e1","686e313b29c080798df9d929","60547b4561f591f963b10ca7","2025-07-09T09:07:33.330Z","","","","","","","","","","","","","","","","","","","","","","","","","","","","","","","","","","","","","","","","","","","","",""
"5360","","","","instructions","1","11074","0.0-1.0","70","1","2025-07-09 09:07:27","7701e855f2ef39aa3fd6c71abdc6918a","78.142.226.11","Mozilla/5.0 (Windows NT 10.0; Win64; x64) AppleWebKit/537.36 (KHTML, like Gecko) Chrome/138.0.0.0 Safari/537.36","WebKit","Chrome","138.0.0.0","Windows","10.0","https://app.prolific.com/","pl-PL,pl;q=0.9,en-US;q=0.8,en;q=0.7","60547b4561f591f963b10ca7","686d226cabeef709c732f8e1","686e313b29c080798df9d929","60547b4561f591f963b10ca7","","[{""page_index"":0,""viewing_time"":3867},{""page_index"":1,""viewing_time"":1492}]","","","","","","","","","","","","","","","","","","","","","","","","","","","","","","","","","","","","","","","","","","","",""
"3978","","","{""Q0"":"""",""Q1"":"""",""Q2"":"""",""Q3"":"""",""Q4"":"""",""Q5"":"""",""Q6"":""I agree""}","survey-multi-choice","2","15055","0.0-2.0","70","1","2025-07-09 09:07:27","7701e855f2ef39aa3fd6c71abdc6918a","78.142.226.11","Mozilla/5.0 (Windows NT 10.0; Win64; x64) AppleWebKit/537.36 (KHTML, like Gecko) Chrome/138.0.0.0 Safari/537.36","WebKit","Chrome","138.0.0.0","Windows","10.0","https://app.prolific.com/","pl-PL,pl;q=0.9,en-US;q=0.8,en;q=0.7","60547b4561f591f963b10ca7","686d226cabeef709c732f8e1","686e313b29c080798df9d929","60547b4561f591f963b10ca7","","","[0,1,2,3,4,5,6]","true","","","","","","","","","","","","","","","","","","","","","","","","","","","","","","","","","","","","","","","","","",""
"16572","","","","fullscreen","3","32633","0.0-4.0","70","1","2025-07-09 09:07:27","7701e855f2ef39aa3fd6c71abdc6918a","78.142.226.11","Mozilla/5.0 (Windows NT 10.0; Win64; x64) AppleWebKit/537.36 (KHTML, like Gecko) Chrome/138.0.0.0 Safari/537.36","WebKit","Chrome","138.0.0.0","Windows","10.0","https://app.prolific.com/","pl-PL,pl;q=0.9,en-US;q=0.8,en;q=0.7","60547b4561f591f963b10ca7","686d226cabeef709c732f8e1","686e313b29c080798df9d929","60547b4561f591f963b10ca7","","","","","true","","","","","","","","","","","","","","","","","","","","","","","","","","","","","","","","","","","","","","","","",""
"3952","1752052084203"," <p style='font-size:1.1em;line-height:1.25'>Thank you for completing the consent form and closing all other tabs.</p><p style='font-size:1.1em;line-height:1.25'>We will now invite you to fill in some demographic information and questionnaires, before starting the game.<br>This will take about 5 minutes.<br></p><p style='font-size:1.1em;line-height:1.25'>Press the <strong>Next</strong> button to continue.</p>","0","custom-html-button-response","4","36587","0.0-5.0","70","1","2025-07-09 09:07:27","7701e855f2ef39aa3fd6c71abdc6918a","78.142.226.11","Mozilla/5.0 (Windows NT 10.0; Win64; x64) AppleWebKit/537.36 (KHTML, like Gecko) Chrome/138.0.0.0 Safari/537.36","WebKit","Chrome","138.0.0.0","Windows","10.0","https://app.prolific.com/","pl-PL,pl;q=0.9,en-US;q=0.8,en;q=0.7","60547b4561f591f963b10ca7","686d226cabeef709c732f8e1","686e313b29c080798df9d929","60547b4561f591f963b10ca7","2025-07-09T09:08:04.204Z","","","","","","","","","","","","","","","","","","","","","","","","","","","","","","","","","","","","","","","","","","","","",""
"3260","","","{""age"":""33""}","survey-text","5","39852","0.0-6.0-0.0","70","1","2025-07-09 09:07:27","7701e855f2ef39aa3fd6c71abdc6918a","78.142.226.11","Mozilla/5.0 (Windows NT 10.0; Win64; x64) AppleWebKit/537.36 (KHTML, like Gecko) Chrome/138.0.0.0 Safari/537.36","WebKit","Chrome","138.0.0.0","Windows","10.0","https://app.prolific.com/","pl-PL,pl;q=0.9,en-US;q=0.8,en;q=0.7","60547b4561f591f963b10ca7","686d226cabeef709c732f8e1","686e313b29c080798df9d929","60547b4561f591f963b10ca7","","","","","","0","demographics","","","","","","","","","","","","","","","","","","","","","","","","","","","","","","","","","","","","","","",""
"2641","","","{""gender_identity"":""female/woman""}","survey-multi-choice","6","42496","0.0-6.0-1.0","70","1","2025-07-09 09:07:27","7701e855f2ef39aa3fd6c71abdc6918a","78.142.226.11","Mozilla/5.0 (Windows NT 10.0; Win64; x64) AppleWebKit/537.36 (KHTML, like Gecko) Chrome/138.0.0.0 Safari/537.36","WebKit","Chrome","138.0.0.0","Windows","10.0","https://app.prolific.com/","pl-PL,pl;q=0.9,en-US;q=0.8,en;q=0.7","60547b4561f591f963b10ca7","686d226cabeef709c732f8e1","686e313b29c080798df9d929","60547b4561f591f963b10ca7","","","[0]","","","1","demographics","","","","","","","","","","","","","","","","","","","","","","","","","","","","","","","","","","","","","","",""
"2921","","","{""assigned_sex"":""female""}","survey-multi-choice","7","45420","0.0-6.0-2.0","70","1","2025-07-09 09:07:27","7701e855f2ef39aa3fd6c71abdc6918a","78.142.226.11","Mozilla/5.0 (Windows NT 10.0; Win64; x64) AppleWebKit/537.36 (KHTML, like Gecko) Chrome/138.0.0.0 Safari/537.36","WebKit","Chrome","138.0.0.0","Windows","10.0","https://app.prolific.com/","pl-PL,pl;q=0.9,en-US;q=0.8,en;q=0.7","60547b4561f591f963b10ca7","686d226cabeef709c732f8e1","686e313b29c080798df9d929","60547b4561f591f963b10ca7","","","[0]","","","2","demographics","","","","","","","","","","","","","","","","","","","","","","","","","","","","","","","","","","","","","","",""
"4223","","","{""menstrual_cycle"":""Yes""}","survey-multi-choice","8","49647","0.0-6.0-3.0","70","1","2025-07-09 09:07:27","7701e855f2ef39aa3fd6c71abdc6918a","78.142.226.11","Mozilla/5.0 (Windows NT 10.0; Win64; x64) AppleWebKit/537.36 (KHTML, like Gecko) Chrome/138.0.0.0 Safari/537.36","WebKit","Chrome","138.0.0.0","Windows","10.0","https://app.prolific.com/","pl-PL,pl;q=0.9,en-US;q=0.8,en;q=0.7","60547b4561f591f963b10ca7","686d226cabeef709c732f8e1","686e313b29c080798df9d929","60547b4561f591f963b10ca7","","","[0]","","","4","demographics","","","","","","","","","","","","","","","","","","","","","","","","","","","","","","","","","","","","","","",""
"7617","","","{""education"":""Master's Degree (e.g., MSc)""}","survey-multi-choice","9","57265","0.0-6.0-4.0","70","1","2025-07-09 09:07:27","7701e855f2ef39aa3fd6c71abdc6918a","78.142.226.11","Mozilla/5.0 (Windows NT 10.0; Win64; x64) AppleWebKit/537.36 (KHTML, like Gecko) Chrome/138.0.0.0 Safari/537.36","WebKit","Chrome","138.0.0.0","Windows","10.0","https://app.prolific.com/","pl-PL,pl;q=0.9,en-US;q=0.8,en;q=0.7","60547b4561f591f963b10ca7","686d226cabeef709c732f8e1","686e313b29c080798df9d929","60547b4561f591f963b10ca7","","","[0]","","","5","demographics","","","","","","","","","","","","","","","","","","","","","","","","","","","","","","","","","","","","","","",""
"23435","","","{""education"":""Others""}","survey-multi-choice","10","80701","0.0-6.0-5.0","70","1","2025-07-09 09:07:27","7701e855f2ef39aa3fd6c71abdc6918a","78.142.226.11","Mozilla/5.0 (Windows NT 10.0; Win64; x64) AppleWebKit/537.36 (KHTML, like Gecko) Chrome/138.0.0.0 Safari/537.36","WebKit","Chrome","138.0.0.0","Windows","10.0","https://app.prolific.com/","pl-PL,pl;q=0.9,en-US;q=0.8,en;q=0.7","60547b4561f591f963b10ca7","686d226cabeef709c732f8e1","686e313b29c080798df9d929","60547b4561f591f963b10ca7","2025-07-09T09:08:48.319Z","","[0]","","","6","demographics","","","","","","","","","","","","","","","","","","","","","","","","","","","","","","","","","","","","","","",""
"335117","","","{""mental_health_condition"":""Anxiety neurosis / GAD"",""mental_health_treatment"":""Cognitive behavioral theraphy"",""psychiatric_medication"":""N/A""}","survey-text","11","415827","0.0-7.0-0.0","70","1","2025-07-09 09:07:27","7701e855f2ef39aa3fd6c71abdc6918a","78.142.226.11","Mozilla/5.0 (Windows NT 10.0; Win64; x64) AppleWebKit/537.36 (KHTML, like Gecko) Chrome/138.0.0.0 Safari/537.36","WebKit","Chrome","138.0.0.0","Windows","10.0","https://app.prolific.com/","pl-PL,pl;q=0.9,en-US;q=0.8,en;q=0.7","60547b4561f591f963b10ca7","686d226cabeef709c732f8e1","686e313b29c080798df9d929","60547b4561f591f963b10ca7","2025-07-09T09:14:23.444Z","","","","","1","mental_health","","","","","","","","","","","","","","","","","","","","","","","","","","","","","","","","","","","","","","",""
"5091","","","{""depression_history"":[""Yes""]}","survey-multi-select","12","420922","0.0-7.0-1.0","70","1","2025-07-09 09:07:27","7701e855f2ef39aa3fd6c71abdc6918a","78.142.226.11","Mozilla/5.0 (Windows NT 10.0; Win64; x64) AppleWebKit/537.36 (KHTML, like Gecko) Chrome/138.0.0.0 Safari/537.36","WebKit","Chrome","138.0.0.0","Windows","10.0","https://app.prolific.com/","pl-PL,pl;q=0.9,en-US;q=0.8,en;q=0.7","60547b4561f591f963b10ca7","686d226cabeef709c732f8e1","686e313b29c080798df9d929","60547b4561f591f963b10ca7","","","[0]","","","","mental_health","","","","","","","","","","","","","","","","","","","","","","","","","","","","","","","","","","","","","","",""
"8659","","","{""depression_episodes"":""more than 5"",""depression_recent"":""Within the past year""}","survey-multi-choice","13","429584","0.0-7.0-2.0-0.0","70","1","2025-07-09 09:07:27","7701e855f2ef39aa3fd6c71abdc6918a","78.142.226.11","Mozilla/5.0 (Windows NT 10.0; Win64; x64) AppleWebKit/537.36 (KHTML, like Gecko) Chrome/138.0.0.0 Safari/537.36","WebKit","Chrome","138.0.0.0","Windows","10.0","https://app.prolific.com/","pl-PL,pl;q=0.9,en-US;q=0.8,en;q=0.7","60547b4561f591f963b10ca7","686d226cabeef709c732f8e1","686e313b29c080798df9d929","60547b4561f591f963b10ca7","2025-07-09T09:14:37.201Z","","[0,1]","","","3","mental_health","","","","","","","","","","","","","","","","","","","","","","","","","","","","","","","","","","","","","","",""
"86431.40000000596","","","","survey-template","14","516019","0.0-7.0-3.0","70","1","2025-07-09 09:07:27","7701e855f2ef39aa3fd6c71abdc6918a","78.142.226.11","Mozilla/5.0 (Windows NT 10.0; Win64; x64) AppleWebKit/537.36 (KHTML, like Gecko) Chrome/138.0.0.0 Safari/537.36","WebKit","Chrome","138.0.0.0","Windows","10.0","https://app.prolific.com/","pl-PL,pl;q=0.9,en-US;q=0.8,en;q=0.7","60547b4561f591f963b10ca7","686d226cabeef709c732f8e1","686e313b29c080798df9d929","60547b4561f591f963b10ca7","2025-07-09T09:16:03.636Z","","","","","","ius","{""Q01"":""2"",""Q02"":""4"",""Q03"":""3"",""Q04"":""4"",""Q05"":""3"",""Q06"":""2"",""Q07"":""3"",""Q08"":""0"",""Q09"":""3"",""Q10"":""3"",""Q11"":""3"",""Q12"":""3"",""Q13"":""3""}","[0,1,2,3,4,5,6,7,8,9,10,11,12]","[""Q01"",""Q02"",""Q03"",""Q04"",""Q05"",""Q06"",""Q07"",""Q08"",""Q09"",""Q10"",""Q11"",""Q13"",""Q12""]","[42326.09999999404,44392.80000001192,49130.80000001192,54103.5,55559.40000000596,58433.59999999404,60895,66325.19999998808,70945.40000000596,72440.80000001192,74474.69999998808,83201.59999999404,85038.09999999404]","[]","[41480.09999999404,42326.09999999404,44392.80000001192,49130.80000001192,51690.19999998808,52537.09999999404,54103.5,55559.40000000596,58433.59999999404,60895,66325.19999998808,70945.40000000596,72440.80000001192,74474.69999998808,79839.09999999404,81154.59999999404,81751.80000001192,82576.19999998808,83201.59999999404,84215.80000001192,85038.09999999404,86425.69999998808]","0.6153846153846154","0.4166666666666667","0","","","","","","","","","","","","","","","","","","","","","","","","","","","","","",""
"2211","1752052565848","<p style='font-size:1.1em;line-height:1.25'>In the following, we will ask you a few questions relating to your experiences over the past month.<br></p><p style='font-size:1.1em;line-height:1.25'>Press the <strong>Next</strong> button to continue.</p>","0","custom-html-button-response","15","518232","0.0-7.0-4.0","70","1","2025-07-09 09:07:27","7701e855f2ef39aa3fd6c71abdc6918a","78.142.226.11","Mozilla/5.0 (Windows NT 10.0; Win64; x64) AppleWebKit/537.36 (KHTML, like Gecko) Chrome/138.0.0.0 Safari/537.36","WebKit","Chrome","138.0.0.0","Windows","10.0","https://app.prolific.com/","pl-PL,pl;q=0.9,en-US;q=0.8,en;q=0.7","60547b4561f591f963b10ca7","686d226cabeef709c732f8e1","686e313b29c080798df9d929","60547b4561f591f963b10ca7","2025-07-09T09:16:05.849Z","","","","","","","","","","","","","","","","","","","","","","","","","","","","","","","","","","","","","","","","","","","","",""
"88335.5","","","","survey-template","16","606573","0.0-7.0-5.0","70","1","2025-07-09 09:07:27","7701e855f2ef39aa3fd6c71abdc6918a","78.142.226.11","Mozilla/5.0 (Windows NT 10.0; Win64; x64) AppleWebKit/537.36 (KHTML, like Gecko) Chrome/138.0.0.0 Safari/537.36","WebKit","Chrome","138.0.0.0","Windows","10.0","https://app.prolific.com/","pl-PL,pl;q=0.9,en-US;q=0.8,en;q=0.7","60547b4561f591f963b10ca7","686d226cabeef709c732f8e1","686e313b29c080798df9d929","60547b4561f591f963b10ca7","2025-07-09T09:17:34.191Z","","","","","","pss","{""Q01"":""3"",""Q02"":""3"",""Q03"":""3"",""Q04"":""2"",""Q05"":""2"",""Q06"":""3"",""Q07"":""2"",""Q08"":""3"",""Q09"":""3"",""Q10"":""2""}","[0,1,2,3,4,5,6,7,8,9]","[""Q01"",""Q02"",""Q03"",""Q04"",""Q05"",""Q06"",""Q07"",""Q08"",""Q09"",""Q10""]","[30316.30000001192,33264.19999998808,38156,62385.80000001192,64075.19999998808,67405.09999999404,72072.90000000596,77060.30000001192,83248,87375.30000001192]","[]","[0.30000001192092896,30316.30000001192,33264.19999998808,35654,37222.30000001192,38156,61427,62385.80000001192,64075.19999998808,67405.09999999404,70668.59999999404,72072.90000000596,77060.30000001192,82433.40000000596,83248,87375.30000001192,88333.19999998808]","0.5","0.5555555555555556","0","","","","","","","","","","","","","","","","","","","","","","","","","","","","","",""
"1541","1752052655733","<p style='font-size:1.1em;line-height:1.25'>Thank you for your answers! Now we will ask you a few more questions relating to your feelings in the last 24 hours.<br></p><p style='font-size:1.1em;line-height:1.25'>Press the <strong>Next</strong> button to continue.</p>","0","custom-html-button-response","17","608117","0.0-7.0-6.0","70","1","2025-07-09 09:07:27","7701e855f2ef39aa3fd6c71abdc6918a","78.142.226.11","Mozilla/5.0 (Windows NT 10.0; Win64; x64) AppleWebKit/537.36 (KHTML, like Gecko) Chrome/138.0.0.0 Safari/537.36","WebKit","Chrome","138.0.0.0","Windows","10.0","https://app.prolific.com/","pl-PL,pl;q=0.9,en-US;q=0.8,en;q=0.7","60547b4561f591f963b10ca7","686d226cabeef709c732f8e1","686e313b29c080798df9d929","60547b4561f591f963b10ca7","2025-07-09T09:17:35.734Z","","","","","","","","","","","","","","","","","","","","","","","","","","","","","","","","","","","","","","","","","","","","",""
"61243.40000000596","","","","survey-template","18","669365","0.0-7.0-7.0","70","1","2025-07-09 09:07:27","7701e855f2ef39aa3fd6c71abdc6918a","78.142.226.11","Mozilla/5.0 (Windows NT 10.0; Win64; x64) AppleWebKit/537.36 (KHTML, like Gecko) Chrome/138.0.0.0 Safari/537.36","WebKit","Chrome","138.0.0.0","Windows","10.0","https://app.prolific.com/","pl-PL,pl;q=0.9,en-US;q=0.8,en;q=0.7","60547b4561f591f963b10ca7","686d226cabeef709c732f8e1","686e313b29c080798df9d929","60547b4561f591f963b10ca7","2025-07-09T09:18:36.982Z","","","","","","drsp","{""Q01"":""1"",""Q02"":""1"",""Q03"":""2"",""Q04"":""4"",""Q05"":""4"",""Q06"":""1"",""Q07"":""4"",""Q08"":""3"",""Q09"":""4"",""Q10"":""4"",""Q11"":""4"",""Q12"":""0"",""Q13"":""0"",""Q14"":""4"",""Q15"":""4"",""Q16"":""4"",""Q17"":""5"",""Q18"":""2"",""Q19"":""3"",""Q20"":""3"",""Q21"":""2""}","[0,1,2,3,4,5,6,7,8,9,10,11,12,13,14,15,16,17,18,19,20]","[""Q01"",""Q02"",""Q03"",""Q04"",""Q05"",""Q06"",""Q07"",""Q08"",""Q09"",""Q10"",""Q11"",""Q12"",""Q13"",""Q14"",""Q15"",""Q16"",""Q17"",""Q18"",""Q19"",""Q20"",""Q21""]","[3299.5,4879.199999988079,5972.799999982119,7813.4000000059605,12509.299999982119,14695.90000000596,18074.5,19478,22404.69999998808,24470.5,26475.5,28376.5,39200.40000000596,40603.79999998212,43477.59999999404,45188.19999998808,46404.59999999404,51417.79999998212,54688,57460.40000000596,59919.69999998808]","[]","[0.19999998807907104,3299.5,4879.199999988079,5972.799999982119,7813.4000000059605,9109.799999982119,9996.59999999404,11587.40000000596,12509.299999982119,13679.40000000596,14695.90000000596,18074.5,19478,21386.40000000596,22404.69999998808,23471,24470.5,25512.90000000596,26475.5,27661.5,28376.5,39200.40000000596,40603.79999998212,43477.59999999404,45188.19999998808,46404.59999999404,51417.79999998212,54688,56780.5,57460.40000000596,59919.69999998808,61238.69999998808]","0.42857142857142855","0.3","0","","","","","","","","","","","","","","","","","","","","","","","","","","","","","",""
"11330.90000000596","","","","survey-template","19","680698","0.0-7.0-8.0","70","1","2025-07-09 09:07:27","7701e855f2ef39aa3fd6c71abdc6918a","78.142.226.11","Mozilla/5.0 (Windows NT 10.0; Win64; x64) AppleWebKit/537.36 (KHTML, like Gecko) Chrome/138.0.0.0 Safari/537.36","WebKit","Chrome","138.0.0.0","Windows","10.0","https://app.prolific.com/","pl-PL,pl;q=0.9,en-US;q=0.8,en;q=0.7","60547b4561f591f963b10ca7","686d226cabeef709c732f8e1","686e313b29c080798df9d929","60547b4561f591f963b10ca7","2025-07-09T09:18:48.315Z","","","","","","stress","{""Q01"":""3"",""Q02"":""4"",""Q03"":""3""}","[0,1,2]","[""Q01"",""Q02"",""Q03""]","[4243,9303.5,10429.40000000596]","[]","[4243,6057.4000000059605,7889.9000000059605,8497.5,9303.5,10429.40000000596,11327.59999999404]","0.6666666666666666","0","0","","","","","","","","","","","","","","","","","","","","","","","","","","","","","",""
"395155","","","","instructions","20","1075855","0.0-8.0-0.0","70","1","2025-07-09 09:07:27","7701e855f2ef39aa3fd6c71abdc6918a","78.142.226.11","Mozilla/5.0 (Windows NT 10.0; Win64; x64) AppleWebKit/537.36 (KHTML, like Gecko) Chrome/138.0.0.0 Safari/537.36","WebKit","Chrome","138.0.0.0","Windows","10.0","https://app.prolific.com/","pl-PL,pl;q=0.9,en-US;q=0.8,en;q=0.7","60547b4561f591f963b10ca7","686d226cabeef709c732f8e1","686e313b29c080798df9d929","60547b4561f591f963b10ca7","","[{""page_index"":0,""viewing_time"":360587},{""page_index"":1,""viewing_time"":16180},{""page_index"":2,""viewing_time"":5846},{""page_index"":3,""viewing_time"":12541}]","","","","","","","","","","","","","","","","","","","","","","","","","","","","","","","","","","","","","","","","","","","",""
"","","","","ctl-task-cpt","21","1105504","0.0-8.0-1.0","70","1","2025-07-09 09:07:27","7701e855f2ef39aa3fd6c71abdc6918a","78.142.226.11","Mozilla/5.0 (Windows NT 10.0; Win64; x64) AppleWebKit/537.36 (KHTML, like Gecko) Chrome/138.0.0.0 Safari/537.36","WebKit","Chrome","138.0.0.0","Windows","10.0","https://app.prolific.com/","pl-PL,pl;q=0.9,en-US;q=0.8,en;q=0.7","60547b4561f591f963b10ca7","686d226cabeef709c732f8e1","686e313b29c080798df9d929","60547b4561f591f963b10ca7","","","","","","","","","","","","","","","","","win-only","3","g1:SW,g2:NE","1","0","1","1076924.2","2451.1","6452.2","26638.7","2","4","4","6","1","2","0","0","0","0","1289.4","4000","2475","[""down"",""left""]","{""num_key_presses"":6,""num_perfect"":4,""num_errors"":2,""num_randdir"":0,""num_randdir_good_moves"":0,""num_whilered"":0,""num_whileblue"":0,""num_blue"":2,""num_good_moves"":4}","[421.57142857142856,424.47767857142856,0.2,421.57142857142856,424.47767857142856,102.5,421.57142857142856,424.47767857142856,204.6,421.57142857142856,424.47767857142856,304.8,421.57142857142856,424.47767857142856,407.4,381.57142857142856,450.47767857142856,510.9,332.57142857142856,504.47767857142856,614.9,331.57142857142856,505.47767857142856,719.6,331.57142857142856,505.47767857142856,820,323.57142857142856,514.4776785714286,921.1,76.57142857142857,778.4776785714286,1026.5,76.57142857142857,778.4776785714286,1131.1,76.57142857142857,778.4776785714286,1235.6,76.57142857142857,778.4776785714286,1340,76.57142857142857,778.4776785714286,1444.9,76.57142857142857,778.4776785714286,1545.1,76.57142857142857,778.4776785714286,1645.2,76.57142857142857,778.4776785714286,1750.2,-426.42857142857144,904.4776785714286,1854.6,-427.42857142857144,904.4776785714286,1954.9,-427.42857142857144,904.4776785714286,2055.8,-427.42857142857144,904.4776785714286,2160.4,-427.42857142857144,904.4776785714286,2264.7,-427.42857142857144,904.4776785714286,2366,-427.42857142857144,904.4776785714286,2470.2,-427.42857142857144,904.4776785714286,2570.3,-427.42857142857144,904.4776785714286,2675.7,-427.42857142857144,904.4776785714286,2780.9,-427.42857142857144,904.4776785714286,2884.8,-427.42857142857144,904.4776785714286,2985.3,-427.42857142857144,904.4776785714286,3089.4,-427.42857142857144,904.4776785714286,3190,-427.42857142857144,904.4776785714286,3291.3,-427.42857142857144,904.4776785714286,3391.3,-427.42857142857144,904.4776785714286,3495.3,-427.42857142857144,904.4776785714286,3600.4,-427.42857142857144,904.4776785714286,3700.7,-427.42857142857144,904.4776785714286,3800.9,-427.42857142857144,904.4776785714286,3904.3]","[1364.6,1364.5,1000,0.1,364.5,""smooth"",""down"",""down"",""good_move"",1610.6,244.7,3206.1,1365.9,-2961.3,""error"",""-"",""-"",""no_move"",9287.3,7675.6,2879.6,5910.1,497.7,""smooth"",""down"",""down"",""good_move"",9496.2,207.9,2380.5,9288.3,-2172.6,""error"",""-"",""-"",""no_move"",17733.6,8237.3,2969.9,14404.3,359.4,""smooth"",""left"",""left"",""good_move"",20087.1,2353.3,2025.5,17733.8,327.8,""smooth"",""left"",""left"",""good_move""]","","",""
"7487","","","","instructions","22","1112992","0.0-8.0-2.0","70","1","2025-07-09 09:07:27","7701e855f2ef39aa3fd6c71abdc6918a","78.142.226.11","Mozilla/5.0 (Windows NT 10.0; Win64; x64) AppleWebKit/537.36 (KHTML, like Gecko) Chrome/138.0.0.0 Safari/537.36","WebKit","Chrome","138.0.0.0","Windows","10.0","https://app.prolific.com/","pl-PL,pl;q=0.9,en-US;q=0.8,en;q=0.7","60547b4561f591f963b10ca7","686d226cabeef709c732f8e1","686e313b29c080798df9d929","60547b4561f591f963b10ca7","","[{""page_index"":0,""viewing_time"":7487}]","","","","","","","","","","","","","","","","","","","","","","","","","","","","","","","","","","","","","","","","","","","",""
"","","","","ctl-task-cpt","23","1171571","0.0-8.0-3.0","70","1","2025-07-09 09:07:27","7701e855f2ef39aa3fd6c71abdc6918a","78.142.226.11","Mozilla/5.0 (Windows NT 10.0; Win64; x64) AppleWebKit/537.36 (KHTML, like Gecko) Chrome/138.0.0.0 Safari/537.36","WebKit","Chrome","138.0.0.0","Windows","10.0","https://app.prolific.com/","pl-PL,pl;q=0.9,en-US;q=0.8,en;q=0.7","60547b4561f591f963b10ca7","686d226cabeef709c732f8e1","686e313b29c080798df9d929","60547b4561f591f963b10ca7","","","","","","","","","","","","","","","","","win-only","3","g1:SW,g2:NE","0.35","0","3","1114055","1772.6","5775.7","55570.6","2","4","8","6","2","-8","-8","0","0","0","895.2","4000","-3005","[""up"",""right""]","{""num_key_presses"":11,""num_perfect"":4,""num_errors"":0,""num_randdir"":7,""num_randdir_good_moves"":3,""num_whilered"":0,""num_whileblue"":0,""num_blue"":5,""num_good_moves"":7}","[413.57142857142856,415.47767857142856,2,413.57142857142856,415.47767857142856,102.8,413.57142857142856,415.47767857142856,202.8,413.57142857142856,415.47767857142856,302.8,431.57142857142856,387.47767857142856,403.3,820.5714285714286,-41.52232142857143,509.2,807.5714285714286,-32.52232142857143,613.6,768.5714285714286,12.47767857142857,718,743.5714285714286,48.47767857142857,819.4,743.5714285714286,48.47767857142857,923.2,743.5714285714286,48.47767857142857,1028.3,743.5714285714286,48.47767857142857,1128.3,745.5714285714286,81.47767857142857,1228.6,876.5714285714286,840.4776785714286,1329.9,876.5714285714286,840.4776785714286,1433.4,876.5714285714286,840.4776785714286,1533.6,876.5714285714286,840.4776785714286,1638.1,876.5714285714286,840.4776785714286,1739.6,876.5714285714286,840.4776785714286,1839.9,876.5714285714286,840.4776785714286,1943.2,876.5714285714286,840.4776785714286,2048.2,876.5714285714286,840.4776785714286,2148.5,876.5714285714286,840.4776785714286,2255,876.5714285714286,840.4776785714286,2358.3,876.5714285714286,840.4776785714286,2463.5,876.5714285714286,840.4776785714286,2563.6,876.5714285714286,840.4776785714286,2667.9,876.5714285714286,840.4776785714286,2768.4,876.5714285714286,840.4776785714286,2868.4,876.5714285714286,840.4776785714286,2968.7,876.5714285714286,840.4776785714286,3069.3,876.5714285714286,840.4776785714286,3172.7,876.5714285714286,840.4776785714286,3273,876.5714285714286,840.4776785714286,3374.4,876.5714285714286,840.4776785714286,3478.7,876.5714285714286,840.4776785714286,3579.5,876.5714285714286,840.4776785714286,3683.8,876.5714285714286,840.4776785714286,3787.8,876.5714285714286,840.4776785714286,3888,876.5714285714286,840.4776785714286,3988.9]","[5154,5154,2798.8,2004.8,350.4,""smooth"",""up"",""up"",""good_move"",8587,3432.3,3051.9,5154.7,380.4,""oops"",""up"",""right"",""good_move"",10966.7,2379.6,2002.1,8587.2,377.5,""smooth"",""up"",""up"",""good_move"",13911.2,2943.9,2588.9,10967.3,355,""oops"",""up"",""down"",""bad_move"",17036.5,3125,2822.4,13911.5,302.6,""oops"",""up"",""right"",""good_move"",25603.2,8566.5,2428.9,22839.6,334.7,""oops"",""up"",""left"",""bad_move"",28489.4,2885.7,2524.4,25603.7,361.3,""oops"",""up"",""up"",""good_move"",31639.2,3149.6,2807.4,28489.6,342.2,""oops"",""up"",""down"",""bad_move"",33885.6,2245.7,1877.9,31639.9,367.8,""smooth"",""up"",""up"",""good_move"",44599.4,10713.6,3022.1,41229.8,347.5,""smooth"",""up"",""up"",""good_move"",47311.4,2711.9,2412.5,44599.5,299.4,""oops"",""right"",""left"",""bad_move""]","","",""
"9738","","","","instructions","24","1181309","0.0-8.0-4.0","70","1","2025-07-09 09:07:27","7701e855f2ef39aa3fd6c71abdc6918a","78.142.226.11","Mozilla/5.0 (Windows NT 10.0; Win64; x64) AppleWebKit/537.36 (KHTML, like Gecko) Chrome/138.0.0.0 Safari/537.36","WebKit","Chrome","138.0.0.0","Windows","10.0","https://app.prolific.com/","pl-PL,pl;q=0.9,en-US;q=0.8,en;q=0.7","60547b4561f591f963b10ca7","686d226cabeef709c732f8e1","686e313b29c080798df9d929","60547b4561f591f963b10ca7","","[{""page_index"":0,""viewing_time"":7516},{""page_index"":1,""viewing_time"":2221}]","","","","","","","","","","","","","","","","","","","","","","","","","","","","","","","","","","","","","","","","","","","",""
"9856","","","{""green_ball"":[""Ball sometimes shakes and moves in a random direction""]}","survey-multi-select","25","1191173","0.0-8.0-5.0-0.0","70","1","2025-07-09 09:07:27","7701e855f2ef39aa3fd6c71abdc6918a","78.142.226.11","Mozilla/5.0 (Windows NT 10.0; Win64; x64) AppleWebKit/537.36 (KHTML, like Gecko) Chrome/138.0.0.0 Safari/537.36","WebKit","Chrome","138.0.0.0","Windows","10.0","https://app.prolific.com/","pl-PL,pl;q=0.9,en-US;q=0.8,en;q=0.7","60547b4561f591f963b10ca7","686d226cabeef709c732f8e1","686e313b29c080798df9d929","60547b4561f591f963b10ca7","","","[0]","","","","quiz","","","","","","","","","","","","","","","","","","","","","","","","","","","","","","","","","","","","","true","",""
"1218","","<p align='center'><b>CORRECT!</b> Indeed, the green ball may sometimes shake and move in a random direction.</p>","0","html-button-response","26","1192392","0.0-8.0-5.0-1.0","70","1","2025-07-09 09:07:27","7701e855f2ef39aa3fd6c71abdc6918a","78.142.226.11","Mozilla/5.0 (Windows NT 10.0; Win64; x64) AppleWebKit/537.36 (KHTML, like Gecko) Chrome/138.0.0.0 Safari/537.36","WebKit","Chrome","138.0.0.0","Windows","10.0","https://app.prolific.com/","pl-PL,pl;q=0.9,en-US;q=0.8,en;q=0.7","60547b4561f591f963b10ca7","686d226cabeef709c732f8e1","686e313b29c080798df9d929","60547b4561f591f963b10ca7","","","","","","","","","","","","","","","","","","","","","","","","","","","","","","","","","","","","","","","","","","","","","",""
"6803","","","{""yellow_ball"":[""Ball doesn‘t move and I get -1 penalty point""]}","survey-multi-select","27","1199196","0.0-8.0-6.0-0.0","70","1","2025-07-09 09:07:27","7701e855f2ef39aa3fd6c71abdc6918a","78.142.226.11","Mozilla/5.0 (Windows NT 10.0; Win64; x64) AppleWebKit/537.36 (KHTML, like Gecko) Chrome/138.0.0.0 Safari/537.36","WebKit","Chrome","138.0.0.0","Windows","10.0","https://app.prolific.com/","pl-PL,pl;q=0.9,en-US;q=0.8,en;q=0.7","60547b4561f591f963b10ca7","686d226cabeef709c732f8e1","686e313b29c080798df9d929","60547b4561f591f963b10ca7","","","[0]","","","","quiz","","","","","","","","","","","","","","","","","","","","","","","","","","","","","","","","","","","","","true","",""
"1287","","<p align='center'><b>CORRECT!</b> Indeed, the yellow ball never moves and you receive a penalty.</p>","0","html-button-response","28","1200484","0.0-8.0-6.0-1.0","70","1","2025-07-09 09:07:27","7701e855f2ef39aa3fd6c71abdc6918a","78.142.226.11","Mozilla/5.0 (Windows NT 10.0; Win64; x64) AppleWebKit/537.36 (KHTML, like Gecko) Chrome/138.0.0.0 Safari/537.36","WebKit","Chrome","138.0.0.0","Windows","10.0","https://app.prolific.com/","pl-PL,pl;q=0.9,en-US;q=0.8,en;q=0.7","60547b4561f591f963b10ca7","686d226cabeef709c732f8e1","686e313b29c080798df9d929","60547b4561f591f963b10ca7","","","","","","","","","","","","","","","","","","","","","","","","","","","","","","","","","","","","","","","","","","","","","",""
"14180","","","{""blue_ball"":[""Ball always shakes and moves in a random direction""]}","survey-multi-select","29","1214666","0.0-8.0-7.0-0.0","70","1","2025-07-09 09:07:27","7701e855f2ef39aa3fd6c71abdc6918a","78.142.226.11","Mozilla/5.0 (Windows NT 10.0; Win64; x64) AppleWebKit/537.36 (KHTML, like Gecko) Chrome/138.0.0.0 Safari/537.36","WebKit","Chrome","138.0.0.0","Windows","10.0","https://app.prolific.com/","pl-PL,pl;q=0.9,en-US;q=0.8,en;q=0.7","60547b4561f591f963b10ca7","686d226cabeef709c732f8e1","686e313b29c080798df9d929","60547b4561f591f963b10ca7","","","[0]","","","","quiz","","","","","","","","","","","","","","","","","","","","","","","","","","","","","","","","","","","","","true","",""
"1439","","<p align='center'><b>CORRECT!</b> Indeed, the blue ball always shakes and moves in a random direction. Also there is a penalty of -1 point.</p>","0","html-button-response","30","1216106","0.0-8.0-7.0-1.0","70","1","2025-07-09 09:07:27","7701e855f2ef39aa3fd6c71abdc6918a","78.142.226.11","Mozilla/5.0 (Windows NT 10.0; Win64; x64) AppleWebKit/537.36 (KHTML, like Gecko) Chrome/138.0.0.0 Safari/537.36","WebKit","Chrome","138.0.0.0","Windows","10.0","https://app.prolific.com/","pl-PL,pl;q=0.9,en-US;q=0.8,en;q=0.7","60547b4561f591f963b10ca7","686d226cabeef709c732f8e1","686e313b29c080798df9d929","60547b4561f591f963b10ca7","","","","","","","","","","","","","","","","","","","","","","","","","","","","","","","","","","","","","","","","","","","","","",""
"10778","","","{""bonus"":[""When I reach all possible points""]}","survey-multi-select","31","1226885","0.0-8.0-8.0-0.0","70","1","2025-07-09 09:07:27","7701e855f2ef39aa3fd6c71abdc6918a","78.142.226.11","Mozilla/5.0 (Windows NT 10.0; Win64; x64) AppleWebKit/537.36 (KHTML, like Gecko) Chrome/138.0.0.0 Safari/537.36","WebKit","Chrome","138.0.0.0","Windows","10.0","https://app.prolific.com/","pl-PL,pl;q=0.9,en-US;q=0.8,en;q=0.7","60547b4561f591f963b10ca7","686d226cabeef709c732f8e1","686e313b29c080798df9d929","60547b4561f591f963b10ca7","","","[0]","","","","quiz","","","","","","","","","","","","","","","","","","","","","","","","","","","","","","","","","","","","","false","",""
"1401","","<p align='center'><b>INCORRECT.</b> You receive 2 pounds extra when you reach 50% of points </p>","0","html-button-response","32","1228287","0.0-8.0-8.0-1.0","70","1","2025-07-09 09:07:27","7701e855f2ef39aa3fd6c71abdc6918a","78.142.226.11","Mozilla/5.0 (Windows NT 10.0; Win64; x64) AppleWebKit/537.36 (KHTML, like Gecko) Chrome/138.0.0.0 Safari/537.36","WebKit","Chrome","138.0.0.0","Windows","10.0","https://app.prolific.com/","pl-PL,pl;q=0.9,en-US;q=0.8,en;q=0.7","60547b4561f591f963b10ca7","686d226cabeef709c732f8e1","686e313b29c080798df9d929","60547b4561f591f963b10ca7","","","","","","","","","","","","","","","","","","","","","","","","","","","","","","","","","","","","","","","","","","","","","",""
"2364","","","{""bonus"":[""When I reach 50% of points""]}","survey-multi-select","33","1230652","0.0-8.0-8.1-0.1","70","1","2025-07-09 09:07:27","7701e855f2ef39aa3fd6c71abdc6918a","78.142.226.11","Mozilla/5.0 (Windows NT 10.0; Win64; x64) AppleWebKit/537.36 (KHTML, like Gecko) Chrome/138.0.0.0 Safari/537.36","WebKit","Chrome","138.0.0.0","Windows","10.0","https://app.prolific.com/","pl-PL,pl;q=0.9,en-US;q=0.8,en;q=0.7","60547b4561f591f963b10ca7","686d226cabeef709c732f8e1","686e313b29c080798df9d929","60547b4561f591f963b10ca7","","","[0]","","","","quiz","","","","","","","","","","","","","","","","","","","","","","","","","","","","","","","","","","","","","true","",""
"1275","","<p align='center'><b>CORRECT!</b> Indeed, you receive 2 pounds extra when you reach 50% of points.</p>","0","html-button-response","34","1231928","0.0-8.0-8.1-1.1","70","1","2025-07-09 09:07:27","7701e855f2ef39aa3fd6c71abdc6918a","78.142.226.11","Mozilla/5.0 (Windows NT 10.0; Win64; x64) AppleWebKit/537.36 (KHTML, like Gecko) Chrome/138.0.0.0 Safari/537.36","WebKit","Chrome","138.0.0.0","Windows","10.0","https://app.prolific.com/","pl-PL,pl;q=0.9,en-US;q=0.8,en;q=0.7","60547b4561f591f963b10ca7","686d226cabeef709c732f8e1","686e313b29c080798df9d929","60547b4561f591f963b10ca7","","","","","","","","","","","","","","","","","","","","","","","","","","","","","","","","","","","","","","","","","","","","","",""
"13529","","","","instructions","35","1245458","0.0-8.0-9.0","70","1","2025-07-09 09:07:27","7701e855f2ef39aa3fd6c71abdc6918a","78.142.226.11","Mozilla/5.0 (Windows NT 10.0; Win64; x64) AppleWebKit/537.36 (KHTML, like Gecko) Chrome/138.0.0.0 Safari/537.36","WebKit","Chrome","138.0.0.0","Windows","10.0","https://app.prolific.com/","pl-PL,pl;q=0.9,en-US;q=0.8,en;q=0.7","60547b4561f591f963b10ca7","686d226cabeef709c732f8e1","686e313b29c080798df9d929","60547b4561f591f963b10ca7","","[{""page_index"":0,""viewing_time"":13529}]","","","","","","","","","","","","","","","","","","","","","","","","","","","","","","","","","","","","","","","","","","","",""
"58051","","<p>Before you start with this game please answer the following three questions yourself. </p>
  <p>Through this game, we measure several aspects of your cognitive performance, such as reaction times, multi-tasking capabilities </p>
  <p>and the ability to assess the situation you are in.</p>
  <p></p>
  <p><b>How good do you usually are in such tasks?</b></p>","76","html-slider-response","36","1303513","0.0-9.0-0.0","70","1","2025-07-09 09:07:27","7701e855f2ef39aa3fd6c71abdc6918a","78.142.226.11","Mozilla/5.0 (Windows NT 10.0; Win64; x64) AppleWebKit/537.36 (KHTML, like Gecko) Chrome/138.0.0.0 Safari/537.36","WebKit","Chrome","138.0.0.0","Windows","10.0","https://app.prolific.com/","pl-PL,pl;q=0.9,en-US;q=0.8,en;q=0.7","60547b4561f591f963b10ca7","686d226cabeef709c732f8e1","686e313b29c080798df9d929","60547b4561f591f963b10ca7","2025-07-09T09:29:11.131Z","","","","","","PreSkillQ","","","","","","","","","","","","","","","","","","","","","","","","","","","","","","","","","","","","","","50",""
"7029","","<div style=""width:500px;"">
  <p>How well do you think you will perform in this task compared to other participants?</p>
  </div>","61","html-slider-response","37","1310545","0.0-9.0-1.0","70","1","2025-07-09 09:07:27","7701e855f2ef39aa3fd6c71abdc6918a","78.142.226.11","Mozilla/5.0 (Windows NT 10.0; Win64; x64) AppleWebKit/537.36 (KHTML, like Gecko) Chrome/138.0.0.0 Safari/537.36","WebKit","Chrome","138.0.0.0","Windows","10.0","https://app.prolific.com/","pl-PL,pl;q=0.9,en-US;q=0.8,en;q=0.7","60547b4561f591f963b10ca7","686d226cabeef709c732f8e1","686e313b29c080798df9d929","60547b4561f591f963b10ca7","2025-07-09T09:29:18.163Z","","","","","","PrePerfQ","","","","","","","","","","","","","","","","","","","","","","","","","","","","","","","","","","","","","","50",""
"3258","","<div style=""width:500px;"">
  <p>What best describes how you currently feel?</p>
  </div>","36","html-slider-response","38","1313804","0.0-9.0-2.0","70","1","2025-07-09 09:07:27","7701e855f2ef39aa3fd6c71abdc6918a","78.142.226.11","Mozilla/5.0 (Windows NT 10.0; Win64; x64) AppleWebKit/537.36 (KHTML, like Gecko) Chrome/138.0.0.0 Safari/537.36","WebKit","Chrome","138.0.0.0","Windows","10.0","https://app.prolific.com/","pl-PL,pl;q=0.9,en-US;q=0.8,en;q=0.7","60547b4561f591f963b10ca7","686d226cabeef709c732f8e1","686e313b29c080798df9d929","60547b4561f591f963b10ca7","2025-07-09T09:29:21.422Z","","","","","","PreMotivationQ","","","","","","","","","","","","","","","","","","","","","","","","","","","","","","","","","","","","","","50",""
"","","","","ctl-task-cpt","39","1335131","0.0-10.0-0.0","70","1","2025-07-09 09:07:27","7701e855f2ef39aa3fd6c71abdc6918a","78.142.226.11","Mozilla/5.0 (Windows NT 10.0; Win64; x64) AppleWebKit/537.36 (KHTML, like Gecko) Chrome/138.0.0.0 Safari/537.36","WebKit","Chrome","138.0.0.0","Windows","10.0","https://app.prolific.com/","pl-PL,pl;q=0.9,en-US;q=0.8,en;q=0.7","60547b4561f591f963b10ca7","686d226cabeef709c732f8e1","686e313b29c080798df9d929","60547b4561f591f963b10ca7","2025-07-09T09:29:42.748Z","","","","","","","","","","","","","","","","win-only","0","g1:NW,g2:SE","1","1","0","1314869.6","1127","6131.2","18320.5","1","4","4","6","1","1","1","1","0","0.007575757575757576","1055.3","3000","1795","[""left"",""up""]","{""num_key_presses"":4,""num_perfect"":4,""num_errors"":0,""num_randdir"":0,""num_randdir_good_moves"":0,""num_whilered"":0,""num_whileblue"":0,""num_blue"":1,""num_good_moves"":4}","[408.57142857142856,413.47767857142856,0.1,408.57142857142856,413.47767857142856,104.2,408.57142857142856,413.47767857142856,209.2,408.57142857142856,413.47767857142856,313.9,408.57142857142856,413.47767857142856,415.8,408.57142857142856,413.47767857142856,518.3,196.57142857142856,254.47767857142856,619.1,168.57142857142856,198.47767857142856,719.6,168.57142857142856,198.47767857142856,823.7,78.57142857142857,68.47767857142857,928.4,75.57142857142857,64.47767857142857,1029.7,75.57142857142857,64.47767857142857,1133.8,75.57142857142857,64.47767857142857,1234.5,75.57142857142857,64.47767857142857,1339.4,-281.42857142857144,394.47767857142856,1443.7,-451.42857142857144,549.4776785714286,1548.8,-451.42857142857144,549.4776785714286,1653.6,-451.42857142857144,549.4776785714286,1754.8,-451.42857142857144,549.4776785714286,1855,-451.42857142857144,549.4776785714286,1958.5,-451.42857142857144,549.4776785714286,2058.7,-451.42857142857144,549.4776785714286,2163.9,-451.42857142857144,549.4776785714286,2268.4,-451.42857142857144,549.4776785714286,2368.9,-451.42857142857144,549.4776785714286,2474,-451.42857142857144,549.4776785714286,2574.2,-451.42857142857144,549.4776785714286,2678.6,-451.42857142857144,549.4776785714286,2779.6,-451.42857142857144,549.4776785714286,2884,-451.42857142857144,549.4776785714286,2984.1,-451.42857142857144,549.4776785714286,3085.2,-451.42857142857144,549.4776785714286,3189.2,-451.42857142857144,549.4776785714286,3294.1,-451.42857142857144,549.4776785714286,3398.4,-451.42857142857144,549.4776785714286,3499.6,-451.42857142857144,549.4776785714286,3603.6,-451.42857142857144,549.4776785714286,3705.1,-451.42857142857144,549.4776785714286,3808.4,-451.42857142857144,549.4776785714286,3909.6,-451.42857142857144,549.4776785714286,4013.5,-451.42857142857144,549.4776785714286,4120.1,-451.42857142857144,549.4776785714286,4224,-451.42857142857144,549.4776785714286,4328.4,-451.42857142857144,549.4776785714286,4429.6,-451.42857142857144,549.4776785714286,4529.8,-451.42857142857144,549.4776785714286,4633.7,-451.42857142857144,549.4776785714286,4733.8,-451.42857142857144,549.4776785714286,4839.6,-451.42857142857144,549.4776785714286,4943.6]","[1297.2,1297.2,1000,0,297.2,""smooth"",""up"",""up"",""good_move"",3593,2295,1952.2,1298,342.8,""smooth"",""up"",""up"",""good_move"",6333,2739.9,2425.8,3593.1,314.1,""smooth"",""left"",""left"",""good_move"",12102.6,5769.4,2004.4,9824.1,274.1,""smooth"",""left"",""left"",""good_move""]","","",""
"5610","","<div style=""width:500px;"">
  <p>What determined the result of this run?</p>
  </div>","29","html-slider-response","40","1340743","0.0-10.0-1.0","70","1","2025-07-09 09:07:27","7701e855f2ef39aa3fd6c71abdc6918a","78.142.226.11","Mozilla/5.0 (Windows NT 10.0; Win64; x64) AppleWebKit/537.36 (KHTML, like Gecko) Chrome/138.0.0.0 Safari/537.36","WebKit","Chrome","138.0.0.0","Windows","10.0","https://app.prolific.com/","pl-PL,pl;q=0.9,en-US;q=0.8,en;q=0.7","60547b4561f591f963b10ca7","686d226cabeef709c732f8e1","686e313b29c080798df9d929","60547b4561f591f963b10ca7","2025-07-09T09:29:48.360Z","","","","","","AttribQ","","","","","","","","","","","","","","","","","","","","","","","","","","","","","","","","","","","","","","50",""
"5292","","<div style=""width:500px;"">
  <p>How much control did you have over the ball?</p>
  </div>","100","html-slider-response","41","1346040","0.0-10.0-2.0","70","1","2025-07-09 09:07:27","7701e855f2ef39aa3fd6c71abdc6918a","78.142.226.11","Mozilla/5.0 (Windows NT 10.0; Win64; x64) AppleWebKit/537.36 (KHTML, like Gecko) Chrome/138.0.0.0 Safari/537.36","WebKit","Chrome","138.0.0.0","Windows","10.0","https://app.prolific.com/","pl-PL,pl;q=0.9,en-US;q=0.8,en;q=0.7","60547b4561f591f963b10ca7","686d226cabeef709c732f8e1","686e313b29c080798df9d929","60547b4561f591f963b10ca7","2025-07-09T09:29:53.658Z","","","","","","ControlQ","","","","","","","","","","","","","","","","","","","","","","","","","","","","","","","","","","","","","","50",""
"4303","","<div style=""width:500px;"">
  <p>How would you describe your current emotional state?</p>
  </div>","66","html-slider-response","42","1350348","0.0-10.0-3.0","70","1","2025-07-09 09:07:27","7701e855f2ef39aa3fd6c71abdc6918a","78.142.226.11","Mozilla/5.0 (Windows NT 10.0; Win64; x64) AppleWebKit/537.36 (KHTML, like Gecko) Chrome/138.0.0.0 Safari/537.36","WebKit","Chrome","138.0.0.0","Windows","10.0","https://app.prolific.com/","pl-PL,pl;q=0.9,en-US;q=0.8,en;q=0.7","60547b4561f591f963b10ca7","686d226cabeef709c732f8e1","686e313b29c080798df9d929","60547b4561f591f963b10ca7","2025-07-09T09:29:57.965Z","","","","","","StressQ","","","","","","","","","","","","","","","","","","","","","","","","","","","","","","","","","","","","","","50",""
"4304","","<div style=""width:500px;"">
  <p>What best describes how you currently feel?</p>
  </div>","36","html-slider-response","43","1354654","0.0-10.0-4.0","70","1","2025-07-09 09:07:27","7701e855f2ef39aa3fd6c71abdc6918a","78.142.226.11","Mozilla/5.0 (Windows NT 10.0; Win64; x64) AppleWebKit/537.36 (KHTML, like Gecko) Chrome/138.0.0.0 Safari/537.36","WebKit","Chrome","138.0.0.0","Windows","10.0","https://app.prolific.com/","pl-PL,pl;q=0.9,en-US;q=0.8,en;q=0.7","60547b4561f591f963b10ca7","686d226cabeef709c732f8e1","686e313b29c080798df9d929","60547b4561f591f963b10ca7","2025-07-09T09:30:02.271Z","","","","","","MotivationQ","","","","","","","","","","","","","","","","","","","","","","","","","","","","","","","","","","","","","","50",""
"","","","","ctl-task-cpt","44","1395224","0.0-10.0-0.1","70","1","2025-07-09 09:07:27","7701e855f2ef39aa3fd6c71abdc6918a","78.142.226.11","Mozilla/5.0 (Windows NT 10.0; Win64; x64) AppleWebKit/537.36 (KHTML, like Gecko) Chrome/138.0.0.0 Safari/537.36","WebKit","Chrome","138.0.0.0","Windows","10.0","https://app.prolific.com/","pl-PL,pl;q=0.9,en-US;q=0.8,en;q=0.7","60547b4561f591f963b10ca7","686d226cabeef709c732f8e1","686e313b29c080798df9d929","60547b4561f591f963b10ca7","2025-07-09T09:30:42.841Z","","","","","","","","","","","","","","","","win-only","3","g1:SW,g2:NE","0.9","2","0","1355726.5","1630.8","6635.9","37542.1","1","4","8","6","2","8","8","9","1","0.06818181818181818","1096.1","3000","1215","[""up"",""right""]","{""num_key_presses"":6,""num_perfect"":6,""num_errors"":0,""num_randdir"":0,""num_randdir_good_moves"":0,""num_whilered"":0,""num_whileblue"":0,""num_blue"":4,""num_good_moves"":6}","[428.57142857142856,415.47767857142856,0,428.57142857142856,415.47767857142856,104.8,428.57142857142856,415.47767857142856,209.6,428.57142857142856,415.47767857142856,310.5,428.57142857142856,415.47767857142856,411.2,428.57142857142856,415.47767857142856,514.9,277.57142857142856,331.47767857142856,619.5,796.5714285714286,-74.52232142857143,719.6,794.5714285714286,-59.52232142857143,820.5,787.5714285714286,-32.52232142857143,925.6,774.5714285714286,55.47767857142857,1030,774.5714285714286,55.47767857142857,1134.8,774.5714285714286,55.47767857142857,1235,774.5714285714286,55.47767857142857,1340.4,774.5714285714286,55.47767857142857,1444.8,1160.5714285714287,223.47767857142856,1545.6,1164.5714285714287,229.47767857142856,1646.1,1164.5714285714287,229.47767857142856,1750.5,1164.5714285714287,229.47767857142856,1854.6,1164.5714285714287,229.47767857142856,1954.8,1164.5714285714287,229.47767857142856,2056.2,1164.5714285714287,229.47767857142856,2160.6,1164.5714285714287,229.47767857142856,2264.7,1164.5714285714287,229.47767857142856,2364.8,1164.5714285714287,229.47767857142856,2465.9,1164.5714285714287,229.47767857142856,2570.3,1164.5714285714287,229.47767857142856,2674.5,1164.5714285714287,229.47767857142856,2774.9,1164.5714285714287,229.47767857142856,2881.2,1164.5714285714287,229.47767857142856,2985.2,1164.5714285714287,229.47767857142856,3085.3,1164.5714285714287,229.47767857142856,3185.3,1164.5714285714287,229.47767857142856,3290.3,1164.5714285714287,229.47767857142856,3390.6,1164.5714285714287,229.47767857142856,3494.7,1164.5714285714287,229.47767857142856,3595,1164.5714285714287,229.47767857142856,3699.6,1164.5714285714287,229.47767857142856,3799.9,1164.5714285714287,229.47767857142856,3905.7,1164.5714285714287,229.47767857142856,4009.9,1164.5714285714287,229.47767857142856,4111.4,1164.5714285714287,229.47767857142856,4216.4,1164.5714285714287,229.47767857142856,4319.8,1164.5714285714287,229.47767857142856,4425.6,1164.5714285714287,229.47767857142856,4530.4,1164.5714285714287,229.47767857142856,4634.7,1164.5714285714287,229.47767857142856,4736.1,1164.5714285714287,229.47767857142856,4839.8,1164.5714285714287,229.47767857142856,4945.6]","[1346,1346,1000,0,346,""smooth"",""up"",""up"",""good_move"",11003,9656.3,2080.2,8640.1,282.7,""smooth"",""up"",""up"",""good_move"",17629.3,6626.2,3030.9,14309.9,288.5,""smooth"",""up"",""up"",""good_move"",20866.2,3236.5,2900.7,17629.7,335.8,""smooth"",""right"",""right"",""good_move"",26992.9,6126.3,2370.2,24330.2,292.5,""smooth"",""right"",""right"",""good_move"",30817.2,3823.8,3554.6,26993.4,269.2,""smooth"",""right"",""right"",""good_move""]","","",""
"2429","","<div style=""width:500px;"">
  <p>What determined the result of this run?</p>
  </div>","17","html-slider-response","45","1397654","0.0-10.0-1.1","70","1","2025-07-09 09:07:27","7701e855f2ef39aa3fd6c71abdc6918a","78.142.226.11","Mozilla/5.0 (Windows NT 10.0; Win64; x64) AppleWebKit/537.36 (KHTML, like Gecko) Chrome/138.0.0.0 Safari/537.36","WebKit","Chrome","138.0.0.0","Windows","10.0","https://app.prolific.com/","pl-PL,pl;q=0.9,en-US;q=0.8,en;q=0.7","60547b4561f591f963b10ca7","686d226cabeef709c732f8e1","686e313b29c080798df9d929","60547b4561f591f963b10ca7","2025-07-09T09:30:45.272Z","","","","","","AttribQ","","","","","","","","","","","","","","","","","","","","","","","","","","","","","","","","","","","","","","50",""
"3317","","<div style=""width:500px;"">
  <p>How much control did you have over the ball?</p>
  </div>","100","html-slider-response","46","1400972","0.0-10.0-2.1","70","1","2025-07-09 09:07:27","7701e855f2ef39aa3fd6c71abdc6918a","78.142.226.11","Mozilla/5.0 (Windows NT 10.0; Win64; x64) AppleWebKit/537.36 (KHTML, like Gecko) Chrome/138.0.0.0 Safari/537.36","WebKit","Chrome","138.0.0.0","Windows","10.0","https://app.prolific.com/","pl-PL,pl;q=0.9,en-US;q=0.8,en;q=0.7","60547b4561f591f963b10ca7","686d226cabeef709c732f8e1","686e313b29c080798df9d929","60547b4561f591f963b10ca7","2025-07-09T09:30:48.589Z","","","","","","ControlQ","","","","","","","","","","","","","","","","","","","","","","","","","","","","","","","","","","","","","","50",""
"4327","","<div style=""width:500px;"">
  <p>How would you describe your current emotional state?</p>
  </div>","61","html-slider-response","47","1405300","0.0-10.0-3.1","70","1","2025-07-09 09:07:27","7701e855f2ef39aa3fd6c71abdc6918a","78.142.226.11","Mozilla/5.0 (Windows NT 10.0; Win64; x64) AppleWebKit/537.36 (KHTML, like Gecko) Chrome/138.0.0.0 Safari/537.36","WebKit","Chrome","138.0.0.0","Windows","10.0","https://app.prolific.com/","pl-PL,pl;q=0.9,en-US;q=0.8,en;q=0.7","60547b4561f591f963b10ca7","686d226cabeef709c732f8e1","686e313b29c080798df9d929","60547b4561f591f963b10ca7","2025-07-09T09:30:52.917Z","","","","","","StressQ","","","","","","","","","","","","","","","","","","","","","","","","","","","","","","","","","","","","","","50",""
"2337","","<div style=""width:500px;"">
  <p>What best describes how you currently feel?</p>
  </div>","41","html-slider-response","48","1407638","0.0-10.0-4.1","70","1","2025-07-09 09:07:27","7701e855f2ef39aa3fd6c71abdc6918a","78.142.226.11","Mozilla/5.0 (Windows NT 10.0; Win64; x64) AppleWebKit/537.36 (KHTML, like Gecko) Chrome/138.0.0.0 Safari/537.36","WebKit","Chrome","138.0.0.0","Windows","10.0","https://app.prolific.com/","pl-PL,pl;q=0.9,en-US;q=0.8,en;q=0.7","60547b4561f591f963b10ca7","686d226cabeef709c732f8e1","686e313b29c080798df9d929","60547b4561f591f963b10ca7","2025-07-09T09:30:55.255Z","","","","","","MotivationQ","","","","","","","","","","","","","","","","","","","","","","","","","","","","","","","","","","","","","","50",""
"","","","","ctl-task-cpt","49","1458442","0.0-10.0-0.2","70","1","2025-07-09 09:07:27","7701e855f2ef39aa3fd6c71abdc6918a","78.142.226.11","Mozilla/5.0 (Windows NT 10.0; Win64; x64) AppleWebKit/537.36 (KHTML, like Gecko) Chrome/138.0.0.0 Safari/537.36","WebKit","Chrome","138.0.0.0","Windows","10.0","https://app.prolific.com/","pl-PL,pl;q=0.9,en-US;q=0.8,en;q=0.7","60547b4561f591f963b10ca7","686d226cabeef709c732f8e1","686e313b29c080798df9d929","60547b4561f591f963b10ca7","2025-07-09T09:31:46.059Z","","","","","","","","","","","","","","","","win-only","0","g1:NW,g2:SE","0.8","3","0","1408701.2","1538","6542.4","47786","1","4","4","6","2","-4","-4","5","9","0.03787878787878788","894.7","3000","-3015","[""down"",""right""]","{""num_key_presses"":9,""num_perfect"":7,""num_errors"":0,""num_randdir"":2,""num_randdir_good_moves"":0,""num_whilered"":0,""num_whileblue"":0,""num_blue"":4,""num_good_moves"":7}","[419.57142857142856,425.47767857142856,0.2,419.57142857142856,425.47767857142856,102.6,419.57142857142856,425.47767857142856,202.8,419.57142857142856,425.47767857142856,303.5,419.57142857142856,425.47767857142856,407.6,419.57142857142856,425.47767857142856,508.1,773.5714285714286,789.4776785714286,609,789.5714285714286,814.4776785714286,713.1,791.5714285714286,816.4776785714286,818.5,791.5714285714286,816.4776785714286,923.7,791.5714285714286,816.4776785714286,1027.1,791.5714285714286,816.4776785714286,1127.1,791.5714285714286,816.4776785714286,1227.1,310.57142857142856,959.4776785714286,1328.2,207.57142857142856,959.4776785714286,1428.5,207.57142857142856,959.4776785714286,1532.7,207.57142857142856,959.4776785714286,1638.3,207.57142857142856,959.4776785714286,1743.2,207.57142857142856,959.4776785714286,1848.5,207.57142857142856,959.4776785714286,1953.1,207.57142857142856,959.4776785714286,2057.1,207.57142857142856,959.4776785714286,2158.3,207.57142857142856,959.4776785714286,2263,207.57142857142856,959.4776785714286,2368.1,207.57142857142856,959.4776785714286,2472.7,207.57142857142856,959.4776785714286,2573.4,207.57142857142856,959.4776785714286,2678.3,207.57142857142856,959.4776785714286,2783.2,207.57142857142856,959.4776785714286,2883.3,207.57142857142856,959.4776785714286,2987.5,207.57142857142856,959.4776785714286,3088.4,207.57142857142856,959.4776785714286,3192.6,207.57142857142856,959.4776785714286,3293,207.57142857142856,959.4776785714286,3397.4,207.57142857142856,959.4776785714286,3498.4,207.57142857142856,959.4776785714286,3604,207.57142857142856,959.4776785714286,3708.4,207.57142857142856,959.4776785714286,3812.9,207.57142857142856,959.4776785714286,3917.9,207.57142857142856,959.4776785714286,4018.3,207.57142857142856,959.4776785714286,4122.7,207.57142857142856,959.4776785714286,4222.8,207.57142857142856,959.4776785714286,4327.8,207.57142857142856,959.4776785714286,4428,207.57142857142856,959.4776785714286,4532.8,207.57142857142856,959.4776785714286,4638,207.57142857142856,959.4776785714286,4742.4,207.57142857142856,959.4776785714286,4843.8,207.57142857142856,959.4776785714286,4948]","[8527.1,8527.1,2133,6049.3,344.8,""smooth"",""down"",""down"",""good_move"",12141.2,3613.2,3303.1,8528,310.1,""smooth"",""right"",""right"",""good_move"",14757.3,2615.5,2246,12141.8,369.5,""oops"",""down"",""up"",""bad_move"",16926.5,2168.5,1842.8,14758,325.7,""smooth"",""down"",""down"",""good_move"",23252.5,6325.7,2556.5,20403.8,292.2,""oops"",""right"",""left"",""bad_move"",26425.3,3172.6,2863.1,23252.7,309.5,""smooth"",""down"",""down"",""good_move"",29366.2,2940.8,2638.6,26425.5,302.1,""smooth"",""right"",""right"",""good_move"",32329.9,2963.4,2672.7,29366.5,290.7,""smooth"",""down"",""down"",""good_move"",34534.6,2204.5,1933,32330.1,271.5,""smooth"",""right"",""right"",""good_move""]","","",""
"2463","","<div style=""width:500px;"">
  <p>What determined the result of this run?</p>
  </div>","14","html-slider-response","50","1460906","0.0-10.0-1.2","70","1","2025-07-09 09:07:27","7701e855f2ef39aa3fd6c71abdc6918a","78.142.226.11","Mozilla/5.0 (Windows NT 10.0; Win64; x64) AppleWebKit/537.36 (KHTML, like Gecko) Chrome/138.0.0.0 Safari/537.36","WebKit","Chrome","138.0.0.0","Windows","10.0","https://app.prolific.com/","pl-PL,pl;q=0.9,en-US;q=0.8,en;q=0.7","60547b4561f591f963b10ca7","686d226cabeef709c732f8e1","686e313b29c080798df9d929","60547b4561f591f963b10ca7","2025-07-09T09:31:48.523Z","","","","","","AttribQ","","","","","","","","","","","","","","","","","","","","","","","","","","","","","","","","","","","","","","50",""
"7191","","<div style=""width:500px;"">
  <p>How much control did you have over the ball?</p>
  </div>","44","html-slider-response","51","1468098","0.0-10.0-2.2","70","1","2025-07-09 09:07:27","7701e855f2ef39aa3fd6c71abdc6918a","78.142.226.11","Mozilla/5.0 (Windows NT 10.0; Win64; x64) AppleWebKit/537.36 (KHTML, like Gecko) Chrome/138.0.0.0 Safari/537.36","WebKit","Chrome","138.0.0.0","Windows","10.0","https://app.prolific.com/","pl-PL,pl;q=0.9,en-US;q=0.8,en;q=0.7","60547b4561f591f963b10ca7","686d226cabeef709c732f8e1","686e313b29c080798df9d929","60547b4561f591f963b10ca7","2025-07-09T09:31:55.715Z","","","","","","ControlQ","","","","","","","","","","","","","","","","","","","","","","","","","","","","","","","","","","","","","","50",""
"3308","","<div style=""width:500px;"">
  <p>How would you describe your current emotional state?</p>
  </div>","60","html-slider-response","52","1471407","0.0-10.0-3.2","70","1","2025-07-09 09:07:27","7701e855f2ef39aa3fd6c71abdc6918a","78.142.226.11","Mozilla/5.0 (Windows NT 10.0; Win64; x64) AppleWebKit/537.36 (KHTML, like Gecko) Chrome/138.0.0.0 Safari/537.36","WebKit","Chrome","138.0.0.0","Windows","10.0","https://app.prolific.com/","pl-PL,pl;q=0.9,en-US;q=0.8,en;q=0.7","60547b4561f591f963b10ca7","686d226cabeef709c732f8e1","686e313b29c080798df9d929","60547b4561f591f963b10ca7","2025-07-09T09:31:59.024Z","","","","","","StressQ","","","","","","","","","","","","","","","","","","","","","","","","","","","","","","","","","","","","","","50",""
"3379","","<div style=""width:500px;"">
  <p>What best describes how you currently feel?</p>
  </div>","36","html-slider-response","53","1474787","0.0-10.0-4.2","70","1","2025-07-09 09:07:27","7701e855f2ef39aa3fd6c71abdc6918a","78.142.226.11","Mozilla/5.0 (Windows NT 10.0; Win64; x64) AppleWebKit/537.36 (KHTML, like Gecko) Chrome/138.0.0.0 Safari/537.36","WebKit","Chrome","138.0.0.0","Windows","10.0","https://app.prolific.com/","pl-PL,pl;q=0.9,en-US;q=0.8,en;q=0.7","60547b4561f591f963b10ca7","686d226cabeef709c732f8e1","686e313b29c080798df9d929","60547b4561f591f963b10ca7","2025-07-09T09:32:02.404Z","","","","","","MotivationQ","","","","","","","","","","","","","","","","","","","","","","","","","","","","","","","","","","","","","","50",""
"","","","","ctl-task-cpt","54","1508262","0.0-10.0-0.3","70","1","2025-07-09 09:07:27","7701e855f2ef39aa3fd6c71abdc6918a","78.142.226.11","Mozilla/5.0 (Windows NT 10.0; Win64; x64) AppleWebKit/537.36 (KHTML, like Gecko) Chrome/138.0.0.0 Safari/537.36","WebKit","Chrome","138.0.0.0","Windows","10.0","https://app.prolific.com/","pl-PL,pl;q=0.9,en-US;q=0.8,en;q=0.7","60547b4561f591f963b10ca7","686d226cabeef709c732f8e1","686e313b29c080798df9d929","60547b4561f591f963b10ca7","2025-07-09T09:32:35.879Z","","","","","","","","","","","","","","","","win-only","0","g1:NW,g2:SE","0.7","4","0","1475852.7","1207.2","6211.2","30455.5","1","4","8","6","2","8","8","13","5","0.09848484848484848","1255.7","3000","660","[""down"",""right""]","{""num_key_presses"":8,""num_perfect"":5,""num_errors"":0,""num_randdir"":3,""num_randdir_good_moves"":2,""num_whilered"":0,""num_whileblue"":0,""num_blue"":1,""num_good_moves"":7}","[420.57142857142856,413.47767857142856,0.1,420.57142857142856,413.47767857142856,105.8,420.57142857142856,413.47767857142856,208.5,420.57142857142856,413.47767857142856,309.1,420.57142857142856,413.47767857142856,413.9,420.57142857142856,413.47767857142856,514.3,420.57142857142856,413.47767857142856,618.9,689.5714285714286,661.4776785714286,719.7,719.5714285714286,704.4776785714286,823.5,719.5714285714286,704.4776785714286,924.3,719.5714285714286,704.4776785714286,1025.3,737.5714285714286,733.4776785714286,1128.8,737.5714285714286,733.4776785714286,1229.6,737.5714285714286,733.4776785714286,1334,737.5714285714286,733.4776785714286,1439,737.5714285714286,733.4776785714286,1543.3,1249.5714285714287,760.4776785714286,1644.5,1375.5714285714287,764.4776785714286,1744.7,1375.5714285714287,764.4776785714286,1848.6,1375.5714285714287,764.4776785714286,1953.6,1375.5714285714287,764.4776785714286,2053.9,1375.5714285714287,764.4776785714286,2159.3,1375.5714285714287,764.4776785714286,2265.1,1375.5714285714287,764.4776785714286,2369.2,1375.5714285714287,764.4776785714286,2469.8,1375.5714285714287,764.4776785714286,2573.6,1375.5714285714287,764.4776785714286,2674.3,1375.5714285714287,764.4776785714286,2774.5,1375.5714285714287,764.4776785714286,2879,1375.5714285714287,764.4776785714286,2979.4,1375.5714285714287,764.4776785714286,3084,1375.5714285714287,764.4776785714286,3185.1,1375.5714285714287,764.4776785714286,3289.5,1375.5714285714287,764.4776785714286,3393.6,1375.5714285714287,764.4776785714286,3494.1,1375.5714285714287,764.4776785714286,3598.5,1375.5714285714287,764.4776785714286,3699.7,1375.5714285714287,764.4776785714286,3799.9,1375.5714285714287,764.4776785714286,3904.1,1375.5714285714287,764.4776785714286,4004.2,1375.5714285714287,764.4776785714286,4108.6,1375.5714285714287,764.4776785714286,4209.7,1375.5714285714287,764.4776785714286,4313.9,1375.5714285714287,764.4776785714286,4418.3,1375.5714285714287,764.4776785714286,4519.2,1375.5714285714287,764.4776785714286,4624.6,1375.5714285714287,764.4776785714286,4729.4,1375.5714285714287,764.4776785714286,4833.9,1375.5714285714287,764.4776785714286,4935.3]","[4637.5,4637.5,2354,2001.3,282.2,""smooth"",""down"",""down"",""good_move"",6579.4,1941.7,1514.7,4637.7,427,""smooth"",""down"",""down"",""good_move"",9792.9,3213.4,2925.5,6579.5,287.9,""oops"",""right"",""left"",""bad_move"",12113.3,2319.9,2035.7,9793.4,284.2,""oops"",""down"",""down"",""good_move"",14792.2,2678.5,2401.6,12113.7,276.9,""smooth"",""right"",""right"",""good_move"",18026.2,3233.9,2930.9,14792.3,303,""smooth"",""right"",""right"",""good_move"",20949.6,2923.1,2657.4,18026.6,265.7,""oops"",""right"",""right"",""good_move"",24157.2,3207.3,2941.6,20949.9,265.7,""smooth"",""right"",""right"",""good_move""]","","",""
"6187","","<div style=""width:500px;"">
  <p>What determined the result of this run?</p>
  </div>","12","html-slider-response","55","1514451","0.0-10.0-1.3","70","1","2025-07-09 09:07:27","7701e855f2ef39aa3fd6c71abdc6918a","78.142.226.11","Mozilla/5.0 (Windows NT 10.0; Win64; x64) AppleWebKit/537.36 (KHTML, like Gecko) Chrome/138.0.0.0 Safari/537.36","WebKit","Chrome","138.0.0.0","Windows","10.0","https://app.prolific.com/","pl-PL,pl;q=0.9,en-US;q=0.8,en;q=0.7","60547b4561f591f963b10ca7","686d226cabeef709c732f8e1","686e313b29c080798df9d929","60547b4561f591f963b10ca7","2025-07-09T09:32:42.068Z","","","","","","AttribQ","","","","","","","","","","","","","","","","","","","","","","","","","","","","","","","","","","","","","","50",""
"3285","","<div style=""width:500px;"">
  <p>How much control did you have over the ball?</p>
  </div>","60","html-slider-response","56","1517739","0.0-10.0-2.3","70","1","2025-07-09 09:07:27","7701e855f2ef39aa3fd6c71abdc6918a","78.142.226.11","Mozilla/5.0 (Windows NT 10.0; Win64; x64) AppleWebKit/537.36 (KHTML, like Gecko) Chrome/138.0.0.0 Safari/537.36","WebKit","Chrome","138.0.0.0","Windows","10.0","https://app.prolific.com/","pl-PL,pl;q=0.9,en-US;q=0.8,en;q=0.7","60547b4561f591f963b10ca7","686d226cabeef709c732f8e1","686e313b29c080798df9d929","60547b4561f591f963b10ca7","2025-07-09T09:32:45.356Z","","","","","","ControlQ","","","","","","","","","","","","","","","","","","","","","","","","","","","","","","","","","","","","","","50",""
"3547","","<div style=""width:500px;"">
  <p>How would you describe your current emotional state?</p>
  </div>","57","html-slider-response","57","1521286","0.0-10.0-3.3","70","1","2025-07-09 09:07:27","7701e855f2ef39aa3fd6c71abdc6918a","78.142.226.11","Mozilla/5.0 (Windows NT 10.0; Win64; x64) AppleWebKit/537.36 (KHTML, like Gecko) Chrome/138.0.0.0 Safari/537.36","WebKit","Chrome","138.0.0.0","Windows","10.0","https://app.prolific.com/","pl-PL,pl;q=0.9,en-US;q=0.8,en;q=0.7","60547b4561f591f963b10ca7","686d226cabeef709c732f8e1","686e313b29c080798df9d929","60547b4561f591f963b10ca7","2025-07-09T09:32:48.903Z","","","","","","StressQ","","","","","","","","","","","","","","","","","","","","","","","","","","","","","","","","","","","","","","50",""
"2140","","<div style=""width:500px;"">
  <p>What best describes how you currently feel?</p>
  </div>","42","html-slider-response","58","1523428","0.0-10.0-4.3","70","1","2025-07-09 09:07:27","7701e855f2ef39aa3fd6c71abdc6918a","78.142.226.11","Mozilla/5.0 (Windows NT 10.0; Win64; x64) AppleWebKit/537.36 (KHTML, like Gecko) Chrome/138.0.0.0 Safari/537.36","WebKit","Chrome","138.0.0.0","Windows","10.0","https://app.prolific.com/","pl-PL,pl;q=0.9,en-US;q=0.8,en;q=0.7","60547b4561f591f963b10ca7","686d226cabeef709c732f8e1","686e313b29c080798df9d929","60547b4561f591f963b10ca7","2025-07-09T09:32:51.046Z","","","","","","MotivationQ","","","","","","","","","","","","","","","","","","","","","","","","","","","","","","","","","","","","","","50",""
"","","","","ctl-task-cpt","59","1563980","0.0-10.0-0.4","70","1","2025-07-09 09:07:27","7701e855f2ef39aa3fd6c71abdc6918a","78.142.226.11","Mozilla/5.0 (Windows NT 10.0; Win64; x64) AppleWebKit/537.36 (KHTML, like Gecko) Chrome/138.0.0.0 Safari/537.36","WebKit","Chrome","138.0.0.0","Windows","10.0","https://app.prolific.com/","pl-PL,pl;q=0.9,en-US;q=0.8,en;q=0.7","60547b4561f591f963b10ca7","686d226cabeef709c732f8e1","686e313b29c080798df9d929","60547b4561f591f963b10ca7","2025-07-09T09:33:31.597Z","","","","","","","","","","","","","","","","win-only","1","g1:NE,g2:SW","0.6","5","0","1524492","997.3","6001.1","37530.4","1","4","4","6","2","4","4","17","13","0.12878787878787878","977.6","3000","550","[""down"",""left""]","{""num_key_presses"":8,""num_perfect"":6,""num_errors"":0,""num_randdir"":2,""num_randdir_good_moves"":1,""num_whilered"":0,""num_whileblue"":0,""num_blue"":3,""num_good_moves"":7}","[416.57142857142856,409.47767857142856,0.2,416.57142857142856,409.47767857142856,103.3,416.57142857142856,409.47767857142856,208.4,416.57142857142856,409.47767857142856,313.1,416.57142857142856,409.47767857142856,418.3,416.57142857142856,409.47767857142856,519.4,416.57142857142856,409.47767857142856,623,220.57142857142856,592.4776785714286,723.4,130.57142857142856,694.4776785714286,823.8,130.57142857142856,694.4776785714286,924.4,130.57142857142856,694.4776785714286,1029.6,130.57142857142856,694.4776785714286,1133.1,130.57142857142856,694.4776785714286,1233.4,130.57142857142856,694.4776785714286,1334,130.57142857142856,694.4776785714286,1439.2,130.57142857142856,694.4776785714286,1541.6,-240.42857142857144,883.4776785714286,1644.9,-159.42857142857144,863.4776785714286,1749.7,-69.42857142857143,838.4776785714286,1853.1,-15.42857142857143,801.4776785714286,1954.4,4.571428571428569,788.4776785714286,2058.2,4.571428571428569,788.4776785714286,2163.5,4.571428571428569,788.4776785714286,2264.2,4.571428571428569,788.4776785714286,2368.6,4.571428571428569,788.4776785714286,2468.7,4.571428571428569,788.4776785714286,2569.4,4.571428571428569,788.4776785714286,2673.2,39.57142857142857,754.4776785714286,2773.5,42.57142857142857,750.4776785714286,2878.4,42.57142857142857,750.4776785714286,2978.5,42.57142857142857,750.4776785714286,3078.7,42.57142857142857,750.4776785714286,3183,-64.42857142857143,764.4776785714286,3283.1,-543.4285714285714,882.4776785714286,3383.8,-543.4285714285714,882.4776785714286,3488.3,-543.4285714285714,882.4776785714286,3588.9,-543.4285714285714,882.4776785714286,3694,-543.4285714285714,882.4776785714286,3797.9,-543.4285714285714,882.4776785714286,3898.2,-543.4285714285714,882.4776785714286,3998.9,-543.4285714285714,882.4776785714286,4104.3,-543.4285714285714,882.4776785714286,4208.1,-543.4285714285714,882.4776785714286,4308.1,-543.4285714285714,882.4776785714286,4409.3,-543.4285714285714,882.4776785714286,4513.3,-543.4285714285714,882.4776785714286,4613.6,-543.4285714285714,882.4776785714286,4714.7,-543.4285714285714,882.4776785714286,4818.9,-543.4285714285714,882.4776785714286,4923.3]","[1354.6,1354.6,1000,0,354.6,""smooth"",""down"",""down"",""good_move"",3913.6,2558.6,2239.5,1355,319.1,""oops"",""down"",""left"",""good_move"",6563.7,2650,2354.1,3913.8,295.9,""smooth"",""down"",""down"",""good_move"",9499.2,2935.2,2643.5,6564,291.7,""oops"",""down"",""right"",""bad_move"",15528.9,6029.3,2734.2,12455.5,339.2,""smooth"",""down"",""down"",""good_move"",18034.2,2505.2,2220,15529,285.2,""smooth"",""left"",""left"",""good_move"",28553,10518.6,2479.1,25774.5,299.4,""smooth"",""left"",""left"",""good_move"",31440.2,2887,2579.2,28553.2,307.8,""smooth"",""left"",""left"",""good_move""]","","",""
"6009","","<div style=""width:500px;"">
  <p>What determined the result of this run?</p>
  </div>","7","html-slider-response","60","1569990","0.0-10.0-1.4","70","1","2025-07-09 09:07:27","7701e855f2ef39aa3fd6c71abdc6918a","78.142.226.11","Mozilla/5.0 (Windows NT 10.0; Win64; x64) AppleWebKit/537.36 (KHTML, like Gecko) Chrome/138.0.0.0 Safari/537.36","WebKit","Chrome","138.0.0.0","Windows","10.0","https://app.prolific.com/","pl-PL,pl;q=0.9,en-US;q=0.8,en;q=0.7","60547b4561f591f963b10ca7","686d226cabeef709c732f8e1","686e313b29c080798df9d929","60547b4561f591f963b10ca7","2025-07-09T09:33:37.607Z","","","","","","AttribQ","","","","","","","","","","","","","","","","","","","","","","","","","","","","","","","","","","","","","","50",""
"2968","","<div style=""width:500px;"">
  <p>How much control did you have over the ball?</p>
  </div>","60","html-slider-response","61","1572960","0.0-10.0-2.4","70","1","2025-07-09 09:07:27","7701e855f2ef39aa3fd6c71abdc6918a","78.142.226.11","Mozilla/5.0 (Windows NT 10.0; Win64; x64) AppleWebKit/537.36 (KHTML, like Gecko) Chrome/138.0.0.0 Safari/537.36","WebKit","Chrome","138.0.0.0","Windows","10.0","https://app.prolific.com/","pl-PL,pl;q=0.9,en-US;q=0.8,en;q=0.7","60547b4561f591f963b10ca7","686d226cabeef709c732f8e1","686e313b29c080798df9d929","60547b4561f591f963b10ca7","2025-07-09T09:33:40.577Z","","","","","","ControlQ","","","","","","","","","","","","","","","","","","","","","","","","","","","","","","","","","","","","","","50",""
"3036","","<div style=""width:500px;"">
  <p>How would you describe your current emotional state?</p>
  </div>","62","html-slider-response","62","1575999","0.0-10.0-3.4","70","1","2025-07-09 09:07:27","7701e855f2ef39aa3fd6c71abdc6918a","78.142.226.11","Mozilla/5.0 (Windows NT 10.0; Win64; x64) AppleWebKit/537.36 (KHTML, like Gecko) Chrome/138.0.0.0 Safari/537.36","WebKit","Chrome","138.0.0.0","Windows","10.0","https://app.prolific.com/","pl-PL,pl;q=0.9,en-US;q=0.8,en;q=0.7","60547b4561f591f963b10ca7","686d226cabeef709c732f8e1","686e313b29c080798df9d929","60547b4561f591f963b10ca7","2025-07-09T09:33:43.616Z","","","","","","StressQ","","","","","","","","","","","","","","","","","","","","","","","","","","","","","","","","","","","","","","50",""
"24194","","<div style=""width:500px;"">
  <p>What best describes how you currently feel?</p>
  </div>","38","html-slider-response","63","1600194","0.0-10.0-4.4","70","1","2025-07-09 09:07:27","7701e855f2ef39aa3fd6c71abdc6918a","78.142.226.11","Mozilla/5.0 (Windows NT 10.0; Win64; x64) AppleWebKit/537.36 (KHTML, like Gecko) Chrome/138.0.0.0 Safari/537.36","WebKit","Chrome","138.0.0.0","Windows","10.0","https://app.prolific.com/","pl-PL,pl;q=0.9,en-US;q=0.8,en;q=0.7","60547b4561f591f963b10ca7","686d226cabeef709c732f8e1","686e313b29c080798df9d929","60547b4561f591f963b10ca7","2025-07-09T09:34:07.811Z","","","","","","MotivationQ","","","","","","","","","","","","","","","","","","","","","","","","","","","","","","","","","","","","","","50",""
"","","","","ctl-task-cpt","64","1646880","0.0-10.0-0.5","70","1","2025-07-09 09:07:27","7701e855f2ef39aa3fd6c71abdc6918a","78.142.226.11","Mozilla/5.0 (Windows NT 10.0; Win64; x64) AppleWebKit/537.36 (KHTML, like Gecko) Chrome/138.0.0.0 Safari/537.36","WebKit","Chrome","138.0.0.0","Windows","10.0","https://app.prolific.com/","pl-PL,pl;q=0.9,en-US;q=0.8,en;q=0.7","60547b4561f591f963b10ca7","686d226cabeef709c732f8e1","686e313b29c080798df9d929","60547b4561f591f963b10ca7","2025-07-09T09:34:54.497Z","","","","","","","","","","","","","","","","win-only","3","g1:SW,g2:NE","0.5","6","0","1601257.5","977.1","5981.8","43667.1","1","4","8","6","2","-8","-8","9","17","0.06818181818181818","887.6","3000","-3015","[""up"",""right""]","{""num_key_presses"":9,""num_perfect"":4,""num_errors"":0,""num_randdir"":5,""num_randdir_good_moves"":3,""num_whilered"":0,""num_whileblue"":0,""num_blue"":3,""num_good_moves"":7}","[410.57142857142856,410.47767857142856,0.1,410.57142857142856,410.47767857142856,103.9,410.57142857142856,410.47767857142856,208.5,410.57142857142856,410.47767857142856,309.3,410.57142857142856,410.47767857142856,414.3,342.57142857142856,492.47767857142856,518.5,773.5714285714286,48.47767857142857,619.6,771.5714285714286,48.47767857142857,723.4,771.5714285714286,48.47767857142857,824.4,771.5714285714286,48.47767857142857,930.9,771.5714285714286,48.47767857142857,1034.5,771.5714285714286,48.47767857142857,1136.2,771.5714285714286,48.47767857142857,1238.9,771.5714285714286,48.47767857142857,1343.6,1014.5714285714286,235.47767857142856,1444.3,1037.5714285714287,304.47767857142856,1544.3,1037.5714285714287,304.47767857142856,1645.1,1037.5714285714287,304.47767857142856,1749,1037.5714285714287,304.47767857142856,1849.7,1037.5714285714287,304.47767857142856,1953.3,1037.5714285714287,304.47767857142856,2053.4,1037.5714285714287,304.47767857142856,2154,1037.5714285714287,304.47767857142856,2254.3,1037.5714285714287,304.47767857142856,2358.8,1037.5714285714287,304.47767857142856,2465,1037.5714285714287,304.47767857142856,2569.8,1037.5714285714287,304.47767857142856,2673.9,1037.5714285714287,304.47767857142856,2778.1,1037.5714285714287,304.47767857142856,2878.5,1037.5714285714287,304.47767857142856,2984.8,1037.5714285714287,304.47767857142856,3084.9,1037.5714285714287,304.47767857142856,3189.1,1037.5714285714287,304.47767857142856,3294.3,1037.5714285714287,304.47767857142856,3398.2,1037.5714285714287,304.47767857142856,3498.9,1037.5714285714287,304.47767857142856,3604.3,1037.5714285714287,304.47767857142856,3708.2,1037.5714285714287,304.47767857142856,3808.2,1037.5714285714287,304.47767857142856,3908.4,1037.5714285714287,304.47767857142856,4008.5,1037.5714285714287,304.47767857142856,4109.2,1037.5714285714287,304.47767857142856,4213.6,1037.5714285714287,304.47767857142856,4319.3,1037.5714285714287,304.47767857142856,4423.6,1037.5714285714287,304.47767857142856,4528.2,1037.5714285714287,304.47767857142856,4629.4,1037.5714285714287,304.47767857142856,4734.3,1037.5714285714287,304.47767857142856,4838.8,1037.5714285714287,304.47767857142856,4944.4]","[1388.5,1388.5,1000,0,388.5,""oops"",""right"",""down"",""bad_move"",11312.6,9923.9,2518.8,8433.4,360.4,""smooth"",""right"",""right"",""good_move"",14894.2,3581.3,3057.4,11312.9,523.9,""smooth"",""right"",""right"",""good_move"",18211.8,3317.3,3058.5,14894.5,258.8,""oops"",""up"",""up"",""good_move"",20538.9,2326.9,1999.8,18212,327.1,""oops"",""up"",""left"",""bad_move"",23339.7,2800.3,2492.2,20539.4,308.1,""oops"",""up"",""right"",""good_move"",25677.8,2337.9,2073.6,23339.9,264.3,""smooth"",""up"",""up"",""good_move"",28129,2450.8,2129.4,25678.2,321.4,""oops"",""up"",""up"",""good_move"",34691,6561.8,2676.4,31769.4,245.2,""smooth"",""right"",""right"",""good_move""]","","",""
"3574","","<div style=""width:500px;"">
  <p>What determined the result of this run?</p>
  </div>","10","html-slider-response","65","1650455","0.0-10.0-1.5","70","1","2025-07-09 09:07:27","7701e855f2ef39aa3fd6c71abdc6918a","78.142.226.11","Mozilla/5.0 (Windows NT 10.0; Win64; x64) AppleWebKit/537.36 (KHTML, like Gecko) Chrome/138.0.0.0 Safari/537.36","WebKit","Chrome","138.0.0.0","Windows","10.0","https://app.prolific.com/","pl-PL,pl;q=0.9,en-US;q=0.8,en;q=0.7","60547b4561f591f963b10ca7","686d226cabeef709c732f8e1","686e313b29c080798df9d929","60547b4561f591f963b10ca7","2025-07-09T09:34:58.072Z","","","","","","AttribQ","","","","","","","","","","","","","","","","","","","","","","","","","","","","","","","","","","","","","","50",""
"4333","","<div style=""width:500px;"">
  <p>How much control did you have over the ball?</p>
  </div>","23","html-slider-response","66","1654789","0.0-10.0-2.5","70","1","2025-07-09 09:07:27","7701e855f2ef39aa3fd6c71abdc6918a","78.142.226.11","Mozilla/5.0 (Windows NT 10.0; Win64; x64) AppleWebKit/537.36 (KHTML, like Gecko) Chrome/138.0.0.0 Safari/537.36","WebKit","Chrome","138.0.0.0","Windows","10.0","https://app.prolific.com/","pl-PL,pl;q=0.9,en-US;q=0.8,en;q=0.7","60547b4561f591f963b10ca7","686d226cabeef709c732f8e1","686e313b29c080798df9d929","60547b4561f591f963b10ca7","2025-07-09T09:35:02.406Z","","","","","","ControlQ","","","","","","","","","","","","","","","","","","","","","","","","","","","","","","","","","","","","","","50",""
"3278","","<div style=""width:500px;"">
  <p>How would you describe your current emotional state?</p>
  </div>","62","html-slider-response","67","1658069","0.0-10.0-3.5","70","1","2025-07-09 09:07:27","7701e855f2ef39aa3fd6c71abdc6918a","78.142.226.11","Mozilla/5.0 (Windows NT 10.0; Win64; x64) AppleWebKit/537.36 (KHTML, like Gecko) Chrome/138.0.0.0 Safari/537.36","WebKit","Chrome","138.0.0.0","Windows","10.0","https://app.prolific.com/","pl-PL,pl;q=0.9,en-US;q=0.8,en;q=0.7","60547b4561f591f963b10ca7","686d226cabeef709c732f8e1","686e313b29c080798df9d929","60547b4561f591f963b10ca7","2025-07-09T09:35:05.687Z","","","","","","StressQ","","","","","","","","","","","","","","","","","","","","","","","","","","","","","","","","","","","","","","50",""
"2642","","<div style=""width:500px;"">
  <p>What best describes how you currently feel?</p>
  </div>","36","html-slider-response","68","1660715","0.0-10.0-4.5","70","1","2025-07-09 09:07:27","7701e855f2ef39aa3fd6c71abdc6918a","78.142.226.11","Mozilla/5.0 (Windows NT 10.0; Win64; x64) AppleWebKit/537.36 (KHTML, like Gecko) Chrome/138.0.0.0 Safari/537.36","WebKit","Chrome","138.0.0.0","Windows","10.0","https://app.prolific.com/","pl-PL,pl;q=0.9,en-US;q=0.8,en;q=0.7","60547b4561f591f963b10ca7","686d226cabeef709c732f8e1","686e313b29c080798df9d929","60547b4561f591f963b10ca7","2025-07-09T09:35:08.332Z","","","","","","MotivationQ","","","","","","","","","","","","","","","","","","","","","","","","","","","","","","","","","","","","","","50",""
"","","","","ctl-task-cpt","69","1716724","0.0-10.0-0.6","70","1","2025-07-09 09:07:27","7701e855f2ef39aa3fd6c71abdc6918a","78.142.226.11","Mozilla/5.0 (Windows NT 10.0; Win64; x64) AppleWebKit/537.36 (KHTML, like Gecko) Chrome/138.0.0.0 Safari/537.36","WebKit","Chrome","138.0.0.0","Windows","10.0","https://app.prolific.com/","pl-PL,pl;q=0.9,en-US;q=0.8,en;q=0.7","60547b4561f591f963b10ca7","686d226cabeef709c732f8e1","686e313b29c080798df9d929","60547b4561f591f963b10ca7","2025-07-09T09:36:04.341Z","","","","","","","","","","","","","","","","win-only","1","g1:NE,g2:SW","0.4","7","0","1661779.5","1431.7","6436.6","52990.5","1","4","8","6","2","-8","-8","1","9","0.007575757575757576","999.6","3000","-2965","[""down"",""left""]","{""num_key_presses"":10,""num_perfect"":4,""num_errors"":0,""num_randdir"":6,""num_randdir_good_moves"":2,""num_whilered"":0,""num_whileblue"":0,""num_blue"":5,""num_good_moves"":6}","[415.57142857142856,422.47767857142856,0.3,415.57142857142856,422.47767857142856,103.8,415.57142857142856,422.47767857142856,204.2,415.57142857142856,422.47767857142856,308.9,415.57142857142856,422.47767857142856,409.3,415.57142857142856,422.47767857142856,513.9,230.57142857142856,561.4776785714286,614.5,11.57142857142857,753.4776785714286,720.7,10.57142857142857,755.4776785714286,823.6,10.57142857142857,755.4776785714286,925.3,10.57142857142857,755.4776785714286,1030.3,10.57142857142857,755.4776785714286,1134.8,10.57142857142857,755.4776785714286,1235,10.57142857142857,755.4776785714286,1335.2,-431.42857142857144,902.4776785714286,1439,-543.4285714285714,959.4776785714286,1540.4,-543.4285714285714,959.4776785714286,1640.8,-543.4285714285714,959.4776785714286,1740.9,-543.4285714285714,959.4776785714286,1844,-543.4285714285714,959.4776785714286,1948.7,-543.4285714285714,959.4776785714286,2049.3,-543.4285714285714,959.4776785714286,2149.8,-543.4285714285714,959.4776785714286,2255.6,-543.4285714285714,959.4776785714286,2359.2,-543.4285714285714,959.4776785714286,2465.2,-543.4285714285714,959.4776785714286,2569.1,-543.4285714285714,959.4776785714286,2675.7,-543.4285714285714,959.4776785714286,2778.8,-543.4285714285714,959.4776785714286,2879.9,-543.4285714285714,959.4776785714286,2985.5,-543.4285714285714,959.4776785714286,3090.7,-543.4285714285714,959.4776785714286,3194.1,-543.4285714285714,959.4776785714286,3299.5,-543.4285714285714,959.4776785714286,3403.7,-543.4285714285714,959.4776785714286,3503.8,-543.4285714285714,959.4776785714286,3604.8,-543.4285714285714,959.4776785714286,3708.9,-543.4285714285714,959.4776785714286,3808.9,-543.4285714285714,959.4776785714286,3909.5,-543.4285714285714,959.4776785714286,4014.5,-543.4285714285714,959.4776785714286,4118.8,-543.4285714285714,959.4776785714286,4219.6,-543.4285714285714,959.4776785714286,4323.8,-543.4285714285714,959.4776785714286,4424.1,-543.4285714285714,959.4776785714286,4528.6,-543.4285714285714,959.4776785714286,4629.4,-543.4285714285714,959.4776785714286,4735.4,-543.4285714285714,959.4776785714286,4839.4,-543.4285714285714,959.4776785714286,4939.5]","[1315,1315,1000,0,315,""smooth"",""left"",""left"",""good_move"",4733.4,3418.2,3136.7,1315.2,281.5,""smooth"",""down"",""down"",""good_move"",7603.4,2869.6,2554.4,4733.8,315.2,""oops"",""left"",""left"",""good_move"",13375.5,5771.9,1599.9,11424.5,351.1,""smooth"",""down"",""down"",""good_move"",16321.2,2945.5,2674.7,13375.7,270.8,""oops"",""left"",""down"",""good_move"",18942.8,2621.5,2345.2,16321.3,276.3,""oops"",""left"",""right"",""bad_move"",24327.3,5384.1,2465.6,21568.5,293.2,""smooth"",""left"",""left"",""good_move"",27347.5,3019.9,2726.4,24327.6,293.5,""oops"",""left"",""right"",""bad_move"",29861.3,2513.6,2191.1,27347.7,322.5,""oops"",""left"",""up"",""bad_move"",43868.4,14006.9,2908.1,40679.7,280.6,""oops"",""left"",""right"",""bad_move""]","","",""
"3501","","<div style=""width:500px;"">
  <p>What determined the result of this run?</p>
  </div>","12","html-slider-response","70","1720226","0.0-10.0-1.6","70","1","2025-07-09 09:07:27","7701e855f2ef39aa3fd6c71abdc6918a","78.142.226.11","Mozilla/5.0 (Windows NT 10.0; Win64; x64) AppleWebKit/537.36 (KHTML, like Gecko) Chrome/138.0.0.0 Safari/537.36","WebKit","Chrome","138.0.0.0","Windows","10.0","https://app.prolific.com/","pl-PL,pl;q=0.9,en-US;q=0.8,en;q=0.7","60547b4561f591f963b10ca7","686d226cabeef709c732f8e1","686e313b29c080798df9d929","60547b4561f591f963b10ca7","2025-07-09T09:36:07.843Z","","","","","","AttribQ","","","","","","","","","","","","","","","","","","","","","","","","","","","","","","","","","","","","","","50",""
"3674","","<div style=""width:500px;"">
  <p>How much control did you have over the ball?</p>
  </div>","12","html-slider-response","71","1723901","0.0-10.0-2.6","70","1","2025-07-09 09:07:27","7701e855f2ef39aa3fd6c71abdc6918a","78.142.226.11","Mozilla/5.0 (Windows NT 10.0; Win64; x64) AppleWebKit/537.36 (KHTML, like Gecko) Chrome/138.0.0.0 Safari/537.36","WebKit","Chrome","138.0.0.0","Windows","10.0","https://app.prolific.com/","pl-PL,pl;q=0.9,en-US;q=0.8,en;q=0.7","60547b4561f591f963b10ca7","686d226cabeef709c732f8e1","686e313b29c080798df9d929","60547b4561f591f963b10ca7","2025-07-09T09:36:11.518Z","","","","","","ControlQ","","","","","","","","","","","","","","","","","","","","","","","","","","","","","","","","","","","","","","50",""
"3987","","<div style=""width:500px;"">
  <p>How would you describe your current emotional state?</p>
  </div>","60","html-slider-response","72","1727889","0.0-10.0-3.6","70","1","2025-07-09 09:07:27","7701e855f2ef39aa3fd6c71abdc6918a","78.142.226.11","Mozilla/5.0 (Windows NT 10.0; Win64; x64) AppleWebKit/537.36 (KHTML, like Gecko) Chrome/138.0.0.0 Safari/537.36","WebKit","Chrome","138.0.0.0","Windows","10.0","https://app.prolific.com/","pl-PL,pl;q=0.9,en-US;q=0.8,en;q=0.7","60547b4561f591f963b10ca7","686d226cabeef709c732f8e1","686e313b29c080798df9d929","60547b4561f591f963b10ca7","2025-07-09T09:36:15.506Z","","","","","","StressQ","","","","","","","","","","","","","","","","","","","","","","","","","","","","","","","","","","","","","","50",""
"5405","","<div style=""width:500px;"">
  <p>What best describes how you currently feel?</p>
  </div>","36","html-slider-response","73","1733295","0.0-10.0-4.6","70","1","2025-07-09 09:07:27","7701e855f2ef39aa3fd6c71abdc6918a","78.142.226.11","Mozilla/5.0 (Windows NT 10.0; Win64; x64) AppleWebKit/537.36 (KHTML, like Gecko) Chrome/138.0.0.0 Safari/537.36","WebKit","Chrome","138.0.0.0","Windows","10.0","https://app.prolific.com/","pl-PL,pl;q=0.9,en-US;q=0.8,en;q=0.7","60547b4561f591f963b10ca7","686d226cabeef709c732f8e1","686e313b29c080798df9d929","60547b4561f591f963b10ca7","2025-07-09T09:36:20.912Z","","","","","","MotivationQ","","","","","","","","","","","","","","","","","","","","","","","","","","","","","","","","","","","","","","50",""
"","","","","ctl-task-cpt","74","1778231","0.0-10.0-0.7","70","1","2025-07-09 09:07:27","7701e855f2ef39aa3fd6c71abdc6918a","78.142.226.11","Mozilla/5.0 (Windows NT 10.0; Win64; x64) AppleWebKit/537.36 (KHTML, like Gecko) Chrome/138.0.0.0 Safari/537.36","WebKit","Chrome","138.0.0.0","Windows","10.0","https://app.prolific.com/","pl-PL,pl;q=0.9,en-US;q=0.8,en;q=0.7","60547b4561f591f963b10ca7","686d226cabeef709c732f8e1","686e313b29c080798df9d929","60547b4561f591f963b10ca7","2025-07-09T09:37:05.848Z","","","","","","","","","","","","","","","","win-only","0","g1:NW,g2:SE","0.3","8","0","1734358","1264.6","6266.6","41917.6","1","4","4","6","2","-4","-4","0","1","0","1074.3","3000","-3005","[""down"",""right""]","{""num_key_presses"":7,""num_perfect"":1,""num_errors"":0,""num_randdir"":6,""num_randdir_good_moves"":3,""num_whilered"":0,""num_whileblue"":0,""num_blue"":3,""num_good_moves"":4}","[410.57142857142856,417.47767857142856,0.3,410.57142857142856,417.47767857142856,103.8,410.57142857142856,417.47767857142856,210.1,410.57142857142856,417.47767857142856,312.4,410.57142857142856,417.47767857142856,413.5,410.57142857142856,417.47767857142856,518.1,410.57142857142856,417.47767857142856,622.1,732.5714285714286,714.4776785714286,727.1,777.5714285714286,757.4776785714286,832,780.5714285714286,759.4776785714286,932,780.5714285714286,759.4776785714286,1033.2,780.5714285714286,759.4776785714286,1133.1,780.5714285714286,759.4776785714286,1233.7,780.5714285714286,759.4776785714286,1334.5,950.5714285714286,728.4776785714286,1436.6,1375.5714285714287,694.4776785714286,1542.1,1375.5714285714287,694.4776785714286,1642.5,1375.5714285714287,694.4776785714286,1746.7,1375.5714285714287,694.4776785714286,1847,1375.5714285714287,694.4776785714286,1948.2,1375.5714285714287,694.4776785714286,2053.9,1375.5714285714287,694.4776785714286,2156.1,1375.5714285714287,694.4776785714286,2256.7,1375.5714285714287,694.4776785714286,2357.3,1375.5714285714287,694.4776785714286,2460.9,1375.5714285714287,694.4776785714286,2563.7,1375.5714285714287,694.4776785714286,2666.4,1375.5714285714287,694.4776785714286,2830.9,1375.5714285714287,694.4776785714286,2934.3,1375.5714285714287,694.4776785714286,3037.6,1375.5714285714287,694.4776785714286,3141.6,1375.5714285714287,694.4776785714286,3246.1,1375.5714285714287,694.4776785714286,3351.2,1375.5714285714287,694.4776785714286,3451.2,1375.5714285714287,694.4776785714286,3552.3,1375.5714285714287,694.4776785714286,3653.2,1375.5714285714287,694.4776785714286,3756.2,1375.5714285714287,694.4776785714286,3856.3,1375.5714285714287,694.4776785714286,3961,1375.5714285714287,694.4776785714286,4061.3,1375.5714285714287,694.4776785714286,4166.2,1375.5714285714287,694.4776785714286,4268.4,1375.5714285714287,694.4776785714286,4371.4,1375.5714285714287,694.4776785714286,4472.4,1375.5714285714287,694.4776785714286,4577,1375.5714285714287,694.4776785714286,4680.7,1375.5714285714287,694.4776785714286,4781.4,1375.5714285714287,694.4776785714286,4881.9,1375.5714285714287,694.4776785714286,4986.3]","[1360.8,1360.8,1000,0,360.8,""oops"",""right"",""down"",""good_move"",8908.3,7547.2,2922.6,5514.8,470.9,""oops"",""right"",""down"",""good_move"",11697.3,2788.6,2462.7,8908.7,325.9,""oops"",""down"",""left"",""bad_move"",14790.9,3093.3,2755,11697.6,338.3,""oops"",""right"",""up"",""bad_move"",17807.3,3015.3,2675.6,14792,339.7,""oops"",""right"",""right"",""good_move"",30082.2,12274.6,3456,26198.8,427.4,""smooth"",""down"",""down"",""good_move"",33044.2,2962,2596.2,30082.3,365.8,""oops"",""down"",""left"",""bad_move""]","","",""
"6072","","<div style=""width:500px;"">
  <p>What determined the result of this run?</p>
  </div>","11","html-slider-response","75","1784304","0.0-10.0-1.7","70","1","2025-07-09 09:07:27","7701e855f2ef39aa3fd6c71abdc6918a","78.142.226.11","Mozilla/5.0 (Windows NT 10.0; Win64; x64) AppleWebKit/537.36 (KHTML, like Gecko) Chrome/138.0.0.0 Safari/537.36","WebKit","Chrome","138.0.0.0","Windows","10.0","https://app.prolific.com/","pl-PL,pl;q=0.9,en-US;q=0.8,en;q=0.7","60547b4561f591f963b10ca7","686d226cabeef709c732f8e1","686e313b29c080798df9d929","60547b4561f591f963b10ca7","2025-07-09T09:37:11.921Z","","","","","","AttribQ","","","","","","","","","","","","","","","","","","","","","","","","","","","","","","","","","","","","","","50",""
"4529","","<div style=""width:500px;"">
  <p>How much control did you have over the ball?</p>
  </div>","1","html-slider-response","76","1788835","0.0-10.0-2.7","70","1","2025-07-09 09:07:27","7701e855f2ef39aa3fd6c71abdc6918a","78.142.226.11","Mozilla/5.0 (Windows NT 10.0; Win64; x64) AppleWebKit/537.36 (KHTML, like Gecko) Chrome/138.0.0.0 Safari/537.36","WebKit","Chrome","138.0.0.0","Windows","10.0","https://app.prolific.com/","pl-PL,pl;q=0.9,en-US;q=0.8,en;q=0.7","60547b4561f591f963b10ca7","686d226cabeef709c732f8e1","686e313b29c080798df9d929","60547b4561f591f963b10ca7","2025-07-09T09:37:16.452Z","","","","","","ControlQ","","","","","","","","","","","","","","","","","","","","","","","","","","","","","","","","","","","","","","50",""
"4938","","<div style=""width:500px;"">
  <p>How would you describe your current emotional state?</p>
  </div>","77","html-slider-response","77","1793774","0.0-10.0-3.7","70","1","2025-07-09 09:07:27","7701e855f2ef39aa3fd6c71abdc6918a","78.142.226.11","Mozilla/5.0 (Windows NT 10.0; Win64; x64) AppleWebKit/537.36 (KHTML, like Gecko) Chrome/138.0.0.0 Safari/537.36","WebKit","Chrome","138.0.0.0","Windows","10.0","https://app.prolific.com/","pl-PL,pl;q=0.9,en-US;q=0.8,en;q=0.7","60547b4561f591f963b10ca7","686d226cabeef709c732f8e1","686e313b29c080798df9d929","60547b4561f591f963b10ca7","2025-07-09T09:37:21.391Z","","","","","","StressQ","","","","","","","","","","","","","","","","","","","","","","","","","","","","","","","","","","","","","","50",""
"6031","","<div style=""width:500px;"">
  <p>What best describes how you currently feel?</p>
  </div>","23","html-slider-response","78","1799808","0.0-10.0-4.7","70","1","2025-07-09 09:07:27","7701e855f2ef39aa3fd6c71abdc6918a","78.142.226.11","Mozilla/5.0 (Windows NT 10.0; Win64; x64) AppleWebKit/537.36 (KHTML, like Gecko) Chrome/138.0.0.0 Safari/537.36","WebKit","Chrome","138.0.0.0","Windows","10.0","https://app.prolific.com/","pl-PL,pl;q=0.9,en-US;q=0.8,en;q=0.7","60547b4561f591f963b10ca7","686d226cabeef709c732f8e1","686e313b29c080798df9d929","60547b4561f591f963b10ca7","2025-07-09T09:37:27.425Z","","","","","","MotivationQ","","","","","","","","","","","","","","","","","","","","","","","","","","","","","","","","","","","","","","50",""
"","","","","ctl-task-cpt","79","1845622","0.0-10.0-0.8","70","1","2025-07-09 09:07:27","7701e855f2ef39aa3fd6c71abdc6918a","78.142.226.11","Mozilla/5.0 (Windows NT 10.0; Win64; x64) AppleWebKit/537.36 (KHTML, like Gecko) Chrome/138.0.0.0 Safari/537.36","WebKit","Chrome","138.0.0.0","Windows","10.0","https://app.prolific.com/","pl-PL,pl;q=0.9,en-US;q=0.8,en;q=0.7","60547b4561f591f963b10ca7","686d226cabeef709c732f8e1","686e313b29c080798df9d929","60547b4561f591f963b10ca7","2025-07-09T09:38:13.239Z","","","","","","","","","","","","","","","","win-only","2","g1:SE,g2:NW","0.2","9","0","1800876.4","1182.7","6185.6","42790.8","1","4","4","6","1","-1","-1","0","0","0","1033.7","3000","-3010","[""down"",""right""]","{""num_key_presses"":10,""num_perfect"":2,""num_errors"":0,""num_randdir"":8,""num_randdir_good_moves"":4,""num_whilered"":0,""num_whileblue"":0,""num_blue"":2,""num_good_moves"":6}","[417.57142857142856,413.47767857142856,0.2,417.57142857142856,413.47767857142856,103.2,417.57142857142856,413.47767857142856,209.3,417.57142857142856,413.47767857142856,310.6,417.57142857142856,413.47767857142856,413.4,417.57142857142856,413.47767857142856,514,677.5714285714286,689.4776785714286,614.6,702.5714285714286,738.4776785714286,714.7,705.5714285714286,749.4776785714286,818.3,705.5714285714286,749.4776785714286,918.8,705.5714285714286,749.4776785714286,1020.1,705.5714285714286,749.4776785714286,1123.9,705.5714285714286,749.4776785714286,1229.1,705.5714285714286,749.4776785714286,1333,945.5714285714286,716.4776785714286,1433.2,1375.5714285714287,714.4776785714286,1538.3,1375.5714285714287,714.4776785714286,1638.4,1375.5714285714287,714.4776785714286,1738.9,1375.5714285714287,714.4776785714286,1843.3,1375.5714285714287,714.4776785714286,1947.6,1375.5714285714287,714.4776785714286,2048.2,1375.5714285714287,714.4776785714286,2152.6,1375.5714285714287,714.4776785714286,2252.8,1375.5714285714287,714.4776785714286,2352.9,1375.5714285714287,714.4776785714286,2453.7,1375.5714285714287,714.4776785714286,2557.9,1375.5714285714287,714.4776785714286,2659.3,1375.5714285714287,714.4776785714286,2764.1,1375.5714285714287,714.4776785714286,2868.1,1375.5714285714287,714.4776785714286,2968.4,1375.5714285714287,714.4776785714286,3072.7,1375.5714285714287,714.4776785714286,3173.7,1375.5714285714287,714.4776785714286,3278.6,1375.5714285714287,714.4776785714286,3384,1375.5714285714287,714.4776785714286,3487.5,1375.5714285714287,714.4776785714286,3588.3,1375.5714285714287,714.4776785714286,3692.8,1375.5714285714287,714.4776785714286,3794.2,1375.5714285714287,714.4776785714286,3898,1375.5714285714287,714.4776785714286,3999,1375.5714285714287,714.4776785714286,4103.7,1375.5714285714287,714.4776785714286,4204,1375.5714285714287,714.4776785714286,4308.1,1375.5714285714287,714.4776785714286,4412.9,1375.5714285714287,714.4776785714286,4513,1375.5714285714287,714.4776785714286,4614.4,1375.5714285714287,714.4776785714286,4718.3,1375.5714285714287,714.4776785714286,4822.5,1375.5714285714287,714.4776785714286,4923.2]","[1336.4,1336.4,1000,0,336.4,""oops"",""right"",""left"",""bad_move"",4719.7,3383,3093.6,1336.7,289.4,""smooth"",""down"",""down"",""good_move"",7060.5,2340.2,2044.7,4720.3,295.5,""oops"",""down"",""down"",""good_move"",9824.8,2764.1,2469.1,7060.9,294.9,""oops"",""right"",""left"",""bad_move"",13008.2,3182.9,2833.9,9825.3,349,""smooth"",""right"",""right"",""good_move"",15784.1,2775.4,2452.4,13008.7,323,""oops"",""right"",""right"",""good_move"",19338.9,3554.4,3258.3,15784.5,296.1,""oops"",""right"",""right"",""good_move"",21814.9,2475.4,2157.4,19339.5,318,""oops"",""right"",""up"",""bad_move"",24460.3,2645,2362.6,21815.3,282.4,""oops"",""right"",""down"",""good_move"",30791.5,6330.8,2965.7,27570,255.8,""oops"",""right"",""left"",""bad_move""]","","",""
"4522","","<div style=""width:500px;"">
  <p>What determined the result of this run?</p>
  </div>","3","html-slider-response","80","1850146","0.0-10.0-1.8","70","1","2025-07-09 09:07:27","7701e855f2ef39aa3fd6c71abdc6918a","78.142.226.11","Mozilla/5.0 (Windows NT 10.0; Win64; x64) AppleWebKit/537.36 (KHTML, like Gecko) Chrome/138.0.0.0 Safari/537.36","WebKit","Chrome","138.0.0.0","Windows","10.0","https://app.prolific.com/","pl-PL,pl;q=0.9,en-US;q=0.8,en;q=0.7","60547b4561f591f963b10ca7","686d226cabeef709c732f8e1","686e313b29c080798df9d929","60547b4561f591f963b10ca7","2025-07-09T09:38:17.763Z","","","","","","AttribQ","","","","","","","","","","","","","","","","","","","","","","","","","","","","","","","","","","","","","","50",""
"3184","","<div style=""width:500px;"">
  <p>How much control did you have over the ball?</p>
  </div>","0","html-slider-response","81","1853333","0.0-10.0-2.8","70","1","2025-07-09 09:07:27","7701e855f2ef39aa3fd6c71abdc6918a","78.142.226.11","Mozilla/5.0 (Windows NT 10.0; Win64; x64) AppleWebKit/537.36 (KHTML, like Gecko) Chrome/138.0.0.0 Safari/537.36","WebKit","Chrome","138.0.0.0","Windows","10.0","https://app.prolific.com/","pl-PL,pl;q=0.9,en-US;q=0.8,en;q=0.7","60547b4561f591f963b10ca7","686d226cabeef709c732f8e1","686e313b29c080798df9d929","60547b4561f591f963b10ca7","2025-07-09T09:38:20.950Z","","","","","","ControlQ","","","","","","","","","","","","","","","","","","","","","","","","","","","","","","","","","","","","","","50",""
"3291","","<div style=""width:500px;"">
  <p>How would you describe your current emotional state?</p>
  </div>","78","html-slider-response","82","1856626","0.0-10.0-3.8","70","1","2025-07-09 09:07:27","7701e855f2ef39aa3fd6c71abdc6918a","78.142.226.11","Mozilla/5.0 (Windows NT 10.0; Win64; x64) AppleWebKit/537.36 (KHTML, like Gecko) Chrome/138.0.0.0 Safari/537.36","WebKit","Chrome","138.0.0.0","Windows","10.0","https://app.prolific.com/","pl-PL,pl;q=0.9,en-US;q=0.8,en;q=0.7","60547b4561f591f963b10ca7","686d226cabeef709c732f8e1","686e313b29c080798df9d929","60547b4561f591f963b10ca7","2025-07-09T09:38:24.244Z","","","","","","StressQ","","","","","","","","","","","","","","","","","","","","","","","","","","","","","","","","","","","","","","50",""
"4134","","<div style=""width:500px;"">
  <p>What best describes how you currently feel?</p>
  </div>","15","html-slider-response","83","1860764","0.0-10.0-4.8","70","1","2025-07-09 09:07:27","7701e855f2ef39aa3fd6c71abdc6918a","78.142.226.11","Mozilla/5.0 (Windows NT 10.0; Win64; x64) AppleWebKit/537.36 (KHTML, like Gecko) Chrome/138.0.0.0 Safari/537.36","WebKit","Chrome","138.0.0.0","Windows","10.0","https://app.prolific.com/","pl-PL,pl;q=0.9,en-US;q=0.8,en;q=0.7","60547b4561f591f963b10ca7","686d226cabeef709c732f8e1","686e313b29c080798df9d929","60547b4561f591f963b10ca7","2025-07-09T09:38:28.382Z","","","","","","MotivationQ","","","","","","","","","","","","","","","","","","","","","","","","","","","","","","","","","","","","","","50",""
