"rt","response_timestamp","stimulus","response","trial_type","trial_index","time_elapsed","internal_node_id","run_id","condition","recorded_at","source_code_version","ip","user_agent","device","browser","browser_version","platform","platform_version","referer","accept_language","PROLIFIC_PID","STUDY_ID","SESSION_ID","prolific_id","realtime","view_history","question_order","consent","success","question_id","eventType","responses","item_order","radio_event_ids","radio_event_times","key_event_times","mouse_event_times","straightlining","zigzagging","honeypot","which_type","canvas_config","goals_layout","control_level","trial_number","tutorial_trial_number","trial_start_time","phase1_start_time","phase2_start_time","phase3_start_time","goal_1_value","goal_1_distance","goal_2_value","goal_2_distance","goal_selected","outcome","outcome_total","participant_final_score","participant_initial_score","participant_final_score_prop","goal_choice_rt","allocated_time","allocated_time_remaining","goal_direction","counts","mouse_movements","key_presses","correct","slider_start"
"100051","1752052449147","<p style='font-size:40px;line-height:1.25'><strong>Welcome to the experiment!</strong></p><p style='font-size:1.1em;line-height:1.25'>Thank you for your interest in our experiment! Before you begin, it is important that we obtain your informed consent to participate in the study.</p><p style='font-size:1.1em;line-height:1.25'>On the next screen will be an <strong>information sheet</strong> for you to read. To participate in the study we need you to read this information sheet and the following consent form carefully. If you agree with all the statements, please click the <strong>I agree</strong> button.</p><p style='font-size:1.1em;line-height:1.25'>Press <strong>Next</strong> to read the information sheet.</p>","0","custom-html-button-response","0","100061","0.0-0.0","174","1","2025-07-09 09:12:24","7701e855f2ef39aa3fd6c71abdc6918a","105.1.83.172","Mozilla/5.0 (Windows NT 10.0; Win64; x64) AppleWebKit/537.36 (KHTML, like Gecko) Chrome/138.0.0.0 Safari/537.36","WebKit","Chrome","138.0.0.0","Windows","10.0","https://app.prolific.com/","en-US,en;q=0.9","67b89f64c09d83ec36fdd403","686d226cabeef709c732f8e1","686e313dfa6eb02757c40773","67b89f64c09d83ec36fdd403","2025-07-09T09:14:09.152Z","","","","","","","","","","","","","","","","","","","","","","","","","","","","","","","","","","","","","","","","","","","",""
"240294","","","","instructions","1","340362","0.0-1.0","174","1","2025-07-09 09:12:24","7701e855f2ef39aa3fd6c71abdc6918a","105.1.83.172","Mozilla/5.0 (Windows NT 10.0; Win64; x64) AppleWebKit/537.36 (KHTML, like Gecko) Chrome/138.0.0.0 Safari/537.36","WebKit","Chrome","138.0.0.0","Windows","10.0","https://app.prolific.com/","en-US,en;q=0.9","67b89f64c09d83ec36fdd403","686d226cabeef709c732f8e1","686e313dfa6eb02757c40773","67b89f64c09d83ec36fdd403","","[{""page_index"":0,""viewing_time"":161800},{""page_index"":1,""viewing_time"":78490}]","","","","","","","","","","","","","","","","","","","","","","","","","","","","","","","","","","","","","","","","","","",""
"10392","","","{""Q0"":"""",""Q1"":"""",""Q2"":"""",""Q3"":"""",""Q4"":"""",""Q5"":"""",""Q6"":""I agree""}","survey-multi-choice","2","350798","0.0-2.0","174","1","2025-07-09 09:12:24","7701e855f2ef39aa3fd6c71abdc6918a","105.1.83.172","Mozilla/5.0 (Windows NT 10.0; Win64; x64) AppleWebKit/537.36 (KHTML, like Gecko) Chrome/138.0.0.0 Safari/537.36","WebKit","Chrome","138.0.0.0","Windows","10.0","https://app.prolific.com/","en-US,en;q=0.9","67b89f64c09d83ec36fdd403","686d226cabeef709c732f8e1","686e313dfa6eb02757c40773","67b89f64c09d83ec36fdd403","","","[0,1,2,3,4,5,6]","true","","","","","","","","","","","","","","","","","","","","","","","","","","","","","","","","","","","","","","","","",""
"81126","","","","fullscreen","3","432950","0.0-4.0","174","1","2025-07-09 09:12:24","7701e855f2ef39aa3fd6c71abdc6918a","105.1.83.172","Mozilla/5.0 (Windows NT 10.0; Win64; x64) AppleWebKit/537.36 (KHTML, like Gecko) Chrome/138.0.0.0 Safari/537.36","WebKit","Chrome","138.0.0.0","Windows","10.0","https://app.prolific.com/","en-US,en;q=0.9","67b89f64c09d83ec36fdd403","686d226cabeef709c732f8e1","686e313dfa6eb02757c40773","67b89f64c09d83ec36fdd403","","","","","true","","","","","","","","","","","","","","","","","","","","","","","","","","","","","","","","","","","","","","","",""
"8954","1752052790995"," <p style='font-size:1.1em;line-height:1.25'>Thank you for completing the consent form and closing all other tabs.</p><p style='font-size:1.1em;line-height:1.25'>We will now invite you to fill in some demographic information and questionnaires, before starting the game.<br>This will take about 5 minutes.<br></p><p style='font-size:1.1em;line-height:1.25'>Press the <strong>Next</strong> button to continue.</p>","0","custom-html-button-response","4","441911","0.0-5.0","174","1","2025-07-09 09:12:24","7701e855f2ef39aa3fd6c71abdc6918a","105.1.83.172","Mozilla/5.0 (Windows NT 10.0; Win64; x64) AppleWebKit/537.36 (KHTML, like Gecko) Chrome/138.0.0.0 Safari/537.36","WebKit","Chrome","138.0.0.0","Windows","10.0","https://app.prolific.com/","en-US,en;q=0.9","67b89f64c09d83ec36fdd403","686d226cabeef709c732f8e1","686e313dfa6eb02757c40773","67b89f64c09d83ec36fdd403","2025-07-09T09:19:51.001Z","","","","","","","","","","","","","","","","","","","","","","","","","","","","","","","","","","","","","","","","","","","",""
"18134","","","{""age"":""28""}","survey-text","5","460064","0.0-6.0-0.0","174","1","2025-07-09 09:12:24","7701e855f2ef39aa3fd6c71abdc6918a","105.1.83.172","Mozilla/5.0 (Windows NT 10.0; Win64; x64) AppleWebKit/537.36 (KHTML, like Gecko) Chrome/138.0.0.0 Safari/537.36","WebKit","Chrome","138.0.0.0","Windows","10.0","https://app.prolific.com/","en-US,en;q=0.9","67b89f64c09d83ec36fdd403","686d226cabeef709c732f8e1","686e313dfa6eb02757c40773","67b89f64c09d83ec36fdd403","","","","","","0","demographics","","","","","","","","","","","","","","","","","","","","","","","","","","","","","","","","","","","","","",""
"5619","","","{""gender_identity"":""female/woman""}","survey-multi-choice","6","465686","0.0-6.0-1.0","174","1","2025-07-09 09:12:24","7701e855f2ef39aa3fd6c71abdc6918a","105.1.83.172","Mozilla/5.0 (Windows NT 10.0; Win64; x64) AppleWebKit/537.36 (KHTML, like Gecko) Chrome/138.0.0.0 Safari/537.36","WebKit","Chrome","138.0.0.0","Windows","10.0","https://app.prolific.com/","en-US,en;q=0.9","67b89f64c09d83ec36fdd403","686d226cabeef709c732f8e1","686e313dfa6eb02757c40773","67b89f64c09d83ec36fdd403","","","[0]","","","1","demographics","","","","","","","","","","","","","","","","","","","","","","","","","","","","","","","","","","","","","",""
"11573","","","{""assigned_sex"":""female""}","survey-multi-choice","7","477263","0.0-6.0-2.0","174","1","2025-07-09 09:12:24","7701e855f2ef39aa3fd6c71abdc6918a","105.1.83.172","Mozilla/5.0 (Windows NT 10.0; Win64; x64) AppleWebKit/537.36 (KHTML, like Gecko) Chrome/138.0.0.0 Safari/537.36","WebKit","Chrome","138.0.0.0","Windows","10.0","https://app.prolific.com/","en-US,en;q=0.9","67b89f64c09d83ec36fdd403","686d226cabeef709c732f8e1","686e313dfa6eb02757c40773","67b89f64c09d83ec36fdd403","","","[0]","","","2","demographics","","","","","","","","","","","","","","","","","","","","","","","","","","","","","","","","","","","","","",""
"6301","","","{""menstrual_cycle"":""Yes""}","survey-multi-choice","8","483567","0.0-6.0-3.0","174","1","2025-07-09 09:12:24","7701e855f2ef39aa3fd6c71abdc6918a","105.1.83.172","Mozilla/5.0 (Windows NT 10.0; Win64; x64) AppleWebKit/537.36 (KHTML, like Gecko) Chrome/138.0.0.0 Safari/537.36","WebKit","Chrome","138.0.0.0","Windows","10.0","https://app.prolific.com/","en-US,en;q=0.9","67b89f64c09d83ec36fdd403","686d226cabeef709c732f8e1","686e313dfa6eb02757c40773","67b89f64c09d83ec36fdd403","","","[0]","","","4","demographics","","","","","","","","","","","","","","","","","","","","","","","","","","","","","","","","","","","","","",""
"8111","","","{""education"":""Doctoral Degree (e.g., PhD)""}","survey-multi-choice","9","491680","0.0-6.0-4.0","174","1","2025-07-09 09:12:24","7701e855f2ef39aa3fd6c71abdc6918a","105.1.83.172","Mozilla/5.0 (Windows NT 10.0; Win64; x64) AppleWebKit/537.36 (KHTML, like Gecko) Chrome/138.0.0.0 Safari/537.36","WebKit","Chrome","138.0.0.0","Windows","10.0","https://app.prolific.com/","en-US,en;q=0.9","67b89f64c09d83ec36fdd403","686d226cabeef709c732f8e1","686e313dfa6eb02757c40773","67b89f64c09d83ec36fdd403","","","[0]","","","5","demographics","","","","","","","","","","","","","","","","","","","","","","","","","","","","","","","","","","","","","",""
"7656","","","{""education"":""Doctoral Degree (e.g., PhD)""}","survey-multi-choice","10","499340","0.0-6.0-5.0","174","1","2025-07-09 09:12:24","7701e855f2ef39aa3fd6c71abdc6918a","105.1.83.172","Mozilla/5.0 (Windows NT 10.0; Win64; x64) AppleWebKit/537.36 (KHTML, like Gecko) Chrome/138.0.0.0 Safari/537.36","WebKit","Chrome","138.0.0.0","Windows","10.0","https://app.prolific.com/","en-US,en;q=0.9","67b89f64c09d83ec36fdd403","686d226cabeef709c732f8e1","686e313dfa6eb02757c40773","67b89f64c09d83ec36fdd403","2025-07-09T09:20:48.431Z","","[0]","","","6","demographics","","","","","","","","","","","","","","","","","","","","","","","","","","","","","","","","","","","","","",""
"70713","","","{""mental_health_condition"":""Yes, ADHD"",""mental_health_treatment"":""none"",""psychiatric_medication"":""No""}","survey-text","11","570060","0.0-7.0-0.0","174","1","2025-07-09 09:12:24","7701e855f2ef39aa3fd6c71abdc6918a","105.1.83.172","Mozilla/5.0 (Windows NT 10.0; Win64; x64) AppleWebKit/537.36 (KHTML, like Gecko) Chrome/138.0.0.0 Safari/537.36","WebKit","Chrome","138.0.0.0","Windows","10.0","https://app.prolific.com/","en-US,en;q=0.9","67b89f64c09d83ec36fdd403","686d226cabeef709c732f8e1","686e313dfa6eb02757c40773","67b89f64c09d83ec36fdd403","2025-07-09T09:21:59.152Z","","","","","1","mental_health","","","","","","","","","","","","","","","","","","","","","","","","","","","","","","","","","","","","","",""
"17556","","","{""depression_history"":[""No""]}","survey-multi-select","12","587640","0.0-7.0-1.0","174","1","2025-07-09 09:12:24","7701e855f2ef39aa3fd6c71abdc6918a","105.1.83.172","Mozilla/5.0 (Windows NT 10.0; Win64; x64) AppleWebKit/537.36 (KHTML, like Gecko) Chrome/138.0.0.0 Safari/537.36","WebKit","Chrome","138.0.0.0","Windows","10.0","https://app.prolific.com/","en-US,en;q=0.9","67b89f64c09d83ec36fdd403","686d226cabeef709c732f8e1","686e313dfa6eb02757c40773","67b89f64c09d83ec36fdd403","","","[0]","","","","mental_health","","","","","","","","","","","","","","","","","","","","","","","","","","","","","","","","","","","","","",""
"142226.5","","","","survey-template","13","729885","0.0-7.0-3.0","174","1","2025-07-09 09:12:24","7701e855f2ef39aa3fd6c71abdc6918a","105.1.83.172","Mozilla/5.0 (Windows NT 10.0; Win64; x64) AppleWebKit/537.36 (KHTML, like Gecko) Chrome/138.0.0.0 Safari/537.36","WebKit","Chrome","138.0.0.0","Windows","10.0","https://app.prolific.com/","en-US,en;q=0.9","67b89f64c09d83ec36fdd403","686d226cabeef709c732f8e1","686e313dfa6eb02757c40773","67b89f64c09d83ec36fdd403","2025-07-09T09:24:38.976Z","","","","","","ius","{""Q01"":""2"",""Q02"":""3"",""Q03"":""2"",""Q04"":""3"",""Q05"":""3"",""Q06"":""1"",""Q07"":""1"",""Q08"":""0"",""Q09"":""2"",""Q10"":""1"",""Q11"":""2"",""Q12"":""3"",""Q13"":""2""}","[0,1,2,3,4,5,6,7,8,9,10,11,12]","[""Q01"",""Q02"",""Q03"",""Q04"",""Q04"",""Q05"",""Q06"",""Q07"",""Q08"",""Q09"",""Q10"",""Q11"",""Q12"",""Q13""]","[11318.10000000149,18265.10000000149,24093.89999999851,43368.70000000298,49267.79999999702,55153.10000000149,64259.10000000149,80262.70000000298,87132,91682.39999999851,101709.89999999851,109453.5,132703.6000000015,139228.8999999985]","[]","[11318.10000000149,18265.10000000149,24093.89999999851,43368.70000000298,49267.79999999702,52743.20000000298,54209.20000000298,55153.10000000149,64259.10000000149,80262.70000000298,87132,91682.39999999851,101709.89999999851,109453.5,132703.6000000015,139228.8999999985,142222.6000000015]","0.38461538461538464","0.6666666666666666","0","","","","","","","","","","","","","","","","","","","","","","","","","","","","",""
"3688","1752053082667","<p style='font-size:1.1em;line-height:1.25'>In the following, we will ask you a few questions relating to your experiences over the past month.<br></p><p style='font-size:1.1em;line-height:1.25'>Press the <strong>Next</strong> button to continue.</p>","0","custom-html-button-response","14","733578","0.0-7.0-4.0","174","1","2025-07-09 09:12:24","7701e855f2ef39aa3fd6c71abdc6918a","105.1.83.172","Mozilla/5.0 (Windows NT 10.0; Win64; x64) AppleWebKit/537.36 (KHTML, like Gecko) Chrome/138.0.0.0 Safari/537.36","WebKit","Chrome","138.0.0.0","Windows","10.0","https://app.prolific.com/","en-US,en;q=0.9","67b89f64c09d83ec36fdd403","686d226cabeef709c732f8e1","686e313dfa6eb02757c40773","67b89f64c09d83ec36fdd403","2025-07-09T09:24:42.668Z","","","","","","","","","","","","","","","","","","","","","","","","","","","","","","","","","","","","","","","","","","","",""
"76931.79999999702","","","","survey-template","15","810522","0.0-7.0-5.0","174","1","2025-07-09 09:12:24","7701e855f2ef39aa3fd6c71abdc6918a","105.1.83.172","Mozilla/5.0 (Windows NT 10.0; Win64; x64) AppleWebKit/537.36 (KHTML, like Gecko) Chrome/138.0.0.0 Safari/537.36","WebKit","Chrome","138.0.0.0","Windows","10.0","https://app.prolific.com/","en-US,en;q=0.9","67b89f64c09d83ec36fdd403","686d226cabeef709c732f8e1","686e313dfa6eb02757c40773","67b89f64c09d83ec36fdd403","2025-07-09T09:25:59.613Z","","","","","","pss","{""Q01"":""1"",""Q02"":""1"",""Q03"":""1"",""Q04"":""3"",""Q05"":""3"",""Q06"":""1"",""Q07"":""1"",""Q08"":""1"",""Q09"":""1"",""Q10"":""2""}","[0,1,2,3,4,5,6,7,8,9]","[""Q01"",""Q02"",""Q03"",""Q04"",""Q05"",""Q06"",""Q07"",""Q08"",""Q09"",""Q10""]","[14750.89999999851,24474.69999999553,27089.69999999553,30399.09999999404,32829.39999999851,35028,41563.39999999851,55042.5,61397.89999999851,68838.69999999553]","[]","[0,13939.5,14750.89999999851,24474.69999999553,27089.69999999553,30399.09999999404,32829.39999999851,34243.69999999553,35028,41563.39999999851,55042.5,61397.89999999851,68838.69999999553,76928.89999999851]","0.7","0.1111111111111111","0","","","","","","","","","","","","","","","","","","","","","","","","","","","","",""
"2757","1752053162372","<p style='font-size:1.1em;line-height:1.25'>Thank you for your answers! Now we will ask you a few more questions relating to your feelings in the last 24 hours.<br></p><p style='font-size:1.1em;line-height:1.25'>Press the <strong>Next</strong> button to continue.</p>","0","custom-html-button-response","16","813282","0.0-7.0-6.0","174","1","2025-07-09 09:12:24","7701e855f2ef39aa3fd6c71abdc6918a","105.1.83.172","Mozilla/5.0 (Windows NT 10.0; Win64; x64) AppleWebKit/537.36 (KHTML, like Gecko) Chrome/138.0.0.0 Safari/537.36","WebKit","Chrome","138.0.0.0","Windows","10.0","https://app.prolific.com/","en-US,en;q=0.9","67b89f64c09d83ec36fdd403","686d226cabeef709c732f8e1","686e313dfa6eb02757c40773","67b89f64c09d83ec36fdd403","2025-07-09T09:26:02.373Z","","","","","","","","","","","","","","","","","","","","","","","","","","","","","","","","","","","","","","","","","","","",""
"89374.29999999702","","","","survey-template","17","902665","0.0-7.0-7.0","174","1","2025-07-09 09:12:24","7701e855f2ef39aa3fd6c71abdc6918a","105.1.83.172","Mozilla/5.0 (Windows NT 10.0; Win64; x64) AppleWebKit/537.36 (KHTML, like Gecko) Chrome/138.0.0.0 Safari/537.36","WebKit","Chrome","138.0.0.0","Windows","10.0","https://app.prolific.com/","en-US,en;q=0.9","67b89f64c09d83ec36fdd403","686d226cabeef709c732f8e1","686e313dfa6eb02757c40773","67b89f64c09d83ec36fdd403","2025-07-09T09:27:31.756Z","","","","","","drsp","{""Q01"":""0"",""Q02"":""0"",""Q03"":""2"",""Q04"":""0"",""Q05"":""1"",""Q06"":""0"",""Q07"":""2"",""Q08"":""2"",""Q09"":""0"",""Q10"":""0"",""Q11"":""0"",""Q12"":""0"",""Q13"":""0"",""Q14"":""0"",""Q15"":""2"",""Q16"":""0"",""Q17"":""0"",""Q18"":""1"",""Q19"":""0"",""Q20"":""0"",""Q21"":""0""}","[0,1,2,3,4,5,6,7,8,9,10,11,12,13,14,15,16,17,18,19,20]","[""Q01"",""Q02"",""Q03"",""Q04"",""Q05"",""Q06"",""Q07"",""Q08"",""Q08"",""Q09"",""Q10"",""Q11"",""Q12"",""Q13"",""Q14"",""Q15"",""Q16"",""Q17"",""Q18"",""Q18"",""Q19"",""Q20"",""Q21""]","[9719.89999999851,11682.29999999702,15497.79999999702,19691.20000000298,21530.20000000298,24638.60000000149,27370.39999999851,31783.79999999702,34792.70000000298,37685,40900.20000000298,43109.89999999851,44789.60000000149,50710.60000000149,53685.60000000149,58145.89999999851,60161.89999999851,61682.29999999702,67702.70000000298,70905.29999999702,80078.20000000298,84755.20000000298,86744.5]","[]","[0,7977.29999999702,9719.89999999851,11682.29999999702,15497.79999999702,18045.10000000149,19691.20000000298,21530.20000000298,24638.60000000149,27370.39999999851,31783.79999999702,34792.70000000298,37685,40900.20000000298,43109.89999999851,44789.60000000149,50710.60000000149,53685.60000000149,58145.89999999851,60161.89999999851,61682.29999999702,67702.70000000298,70905.29999999702,80078.20000000298,84755.20000000298,86744.5,89364.5]","0.7142857142857143","0.2","0","","","","","","","","","","","","","","","","","","","","","","","","","","","","",""
"18056.10000000149","","","","survey-template","18","920726","0.0-7.0-8.0","174","1","2025-07-09 09:12:24","7701e855f2ef39aa3fd6c71abdc6918a","105.1.83.172","Mozilla/5.0 (Windows NT 10.0; Win64; x64) AppleWebKit/537.36 (KHTML, like Gecko) Chrome/138.0.0.0 Safari/537.36","WebKit","Chrome","138.0.0.0","Windows","10.0","https://app.prolific.com/","en-US,en;q=0.9","67b89f64c09d83ec36fdd403","686d226cabeef709c732f8e1","686e313dfa6eb02757c40773","67b89f64c09d83ec36fdd403","2025-07-09T09:27:49.817Z","","","","","","stress","{""Q01"":""0"",""Q02"":""5"",""Q03"":""0""}","[0,1,2]","[""Q01"",""Q02"",""Q03""]","[5751.10000000149,12929.60000000149,15443.39999999851]","[]","[5751.10000000149,8719.20000000298,11425.79999999702,12095.10000000149,12929.60000000149,15443.39999999851,18054.70000000298]","1","0","0","","","","","","","","","","","","","","","","","","","","","","","","","","","","",""
"239182","","","","instructions","19","1159915","0.0-8.0-0.0","174","1","2025-07-09 09:12:24","7701e855f2ef39aa3fd6c71abdc6918a","105.1.83.172","Mozilla/5.0 (Windows NT 10.0; Win64; x64) AppleWebKit/537.36 (KHTML, like Gecko) Chrome/138.0.0.0 Safari/537.36","WebKit","Chrome","138.0.0.0","Windows","10.0","https://app.prolific.com/","en-US,en;q=0.9","67b89f64c09d83ec36fdd403","686d226cabeef709c732f8e1","686e313dfa6eb02757c40773","67b89f64c09d83ec36fdd403","","[{""page_index"":0,""viewing_time"":143662},{""page_index"":1,""viewing_time"":41363},{""page_index"":2,""viewing_time"":30373},{""page_index"":3,""viewing_time"":23782}]","","","","","","","","","","","","","","","","","","","","","","","","","","","","","","","","","","","","","","","","","","",""
"","","","","ctl-task-cpt","20","1193696","0.0-8.0-1.0","174","1","2025-07-09 09:12:24","7701e855f2ef39aa3fd6c71abdc6918a","105.1.83.172","Mozilla/5.0 (Windows NT 10.0; Win64; x64) AppleWebKit/537.36 (KHTML, like Gecko) Chrome/138.0.0.0 Safari/537.36","WebKit","Chrome","138.0.0.0","Windows","10.0","https://app.prolific.com/","en-US,en;q=0.9","67b89f64c09d83ec36fdd403","686d226cabeef709c732f8e1","686e313dfa6eb02757c40773","67b89f64c09d83ec36fdd403","","","","","","","","","","","","","","","","","win-only","3","g1:SW,g2:NE","1","0","1","1164239.4","1400.6","5412.2","30729.6","2","4","4","6","1","-2","-4","0","0","0","4011.5","4000","-2265","[""down"",""left""]","{""num_key_presses"":8,""num_perfect"":6,""num_errors"":2,""num_randdir"":0,""num_randdir_good_moves"":0,""num_whilered"":0,""num_whileblue"":1,""num_blue"":1,""num_good_moves"":2}","[301.22232142857143,296.12857142857143,1.4,301.22232142857143,296.12857142857143,101,301.22232142857143,296.12857142857143,202.2,301.22232142857143,296.12857142857143,309.7,300.22232142857143,296.12857142857143,415.3,288.22232142857143,300.12857142857143,516,233.22232142857143,323.12857142857143,617.1,228.22232142857143,326.12857142857143,721.6,231.22232142857143,328.12857142857143,826.7,235.22232142857143,333.12857142857143,929,237.22232142857143,338.12857142857143,1030.4,240.22232142857143,343.12857142857143,1132.8,243.22232142857143,349.12857142857143,1237.6,245.22232142857143,351.12857142857143,1345.9,245.22232142857143,351.12857142857143,1448.3,245.22232142857143,351.12857142857143,1554.8,245.22232142857143,351.12857142857143,1663,245.22232142857143,351.12857142857143,1765.7,245.22232142857143,351.12857142857143,1872.7,245.22232142857143,351.12857142857143,1975.2,245.22232142857143,351.12857142857143,2076.6,245.22232142857143,351.12857142857143,2178,245.22232142857143,351.12857142857143,2284.2,245.22232142857143,351.12857142857143,2394.5,245.22232142857143,351.12857142857143,2498.9,245.22232142857143,351.12857142857143,2602,245.22232142857143,351.12857142857143,2708.9,245.22232142857143,351.12857142857143,2809.1,245.22232142857143,351.12857142857143,2911.9,245.22232142857143,351.12857142857143,3013.7,245.22232142857143,351.12857142857143,3121.2,245.22232142857143,351.12857142857143,3226.1,245.22232142857143,351.12857142857143,3326.1,245.22232142857143,351.12857142857143,3427.2,245.22232142857143,351.12857142857143,3528.4,245.22232142857143,351.12857142857143,3638.5,245.22232142857143,351.12857142857143,3743.8,245.22232142857143,351.12857142857143,3845.5,245.22232142857143,351.12857142857143,3950.4]","[4042.1,4042.1,1000,0,3042.1,""smooth"",""left"",""left"",""good_move"",4387.3,338.3,2745.1,4049.3,-2407.1,""error"",""-"",""-"",""no_move"",8030.4,3641.7,1840.1,5390.2,800.2,""while_blue"",""up"",""down"",""good_move"",11530,3496.5,2810.4,8033.5,686.1,""smooth"",""right"",""right"",""bad_move"",14040.6,2509.7,2038.7,11531.1,470.8,""smooth"",""right"",""right"",""bad_move"",17433.2,3386.8,2983.9,14046.5,402.8,""smooth"",""right"",""right"",""bad_move"",19912.3,2477.5,2063.7,17434.8,413.8,""smooth"",""up"",""up"",""bad_move"",22599.6,2684.9,2243.4,19914.7,441.5,""smooth"",""up"",""up"",""bad_move""]","",""
"30188","","","","instructions","21","1223885","0.0-8.0-2.0","174","1","2025-07-09 09:12:24","7701e855f2ef39aa3fd6c71abdc6918a","105.1.83.172","Mozilla/5.0 (Windows NT 10.0; Win64; x64) AppleWebKit/537.36 (KHTML, like Gecko) Chrome/138.0.0.0 Safari/537.36","WebKit","Chrome","138.0.0.0","Windows","10.0","https://app.prolific.com/","en-US,en;q=0.9","67b89f64c09d83ec36fdd403","686d226cabeef709c732f8e1","686e313dfa6eb02757c40773","67b89f64c09d83ec36fdd403","","[{""page_index"":0,""viewing_time"":30187}]","","","","","","","","","","","","","","","","","","","","","","","","","","","","","","","","","","","","","","","","","","",""
"","","","","ctl-task-cpt","22","1283245","0.0-8.0-3.0","174","1","2025-07-09 09:12:24","7701e855f2ef39aa3fd6c71abdc6918a","105.1.83.172","Mozilla/5.0 (Windows NT 10.0; Win64; x64) AppleWebKit/537.36 (KHTML, like Gecko) Chrome/138.0.0.0 Safari/537.36","WebKit","Chrome","138.0.0.0","Windows","10.0","https://app.prolific.com/","en-US,en;q=0.9","67b89f64c09d83ec36fdd403","686d226cabeef709c732f8e1","686e313dfa6eb02757c40773","67b89f64c09d83ec36fdd403","","","","","","","","","","","","","","","","","win-only","3","g1:SW,g2:NE","0.35","0","3","1228176.6","3283.3","7291.9","56331.3","2","4","8","6","2","-8","-13","0","0","0","4008.6","4000","-2190","[""up"",""right""]","{""num_key_presses"":15,""num_perfect"":4,""num_errors"":5,""num_randdir"":6,""num_randdir_good_moves"":4,""num_whilered"":0,""num_whileblue"":2,""num_blue"":3,""num_good_moves"":7}","[300.22232142857143,296.12857142857143,0.8,300.22232142857143,296.12857142857143,103.3,300.22232142857143,296.12857142857143,211,300.22232142857143,296.12857142857143,321.3,300.22232142857143,296.12857142857143,428.6,300.22232142857143,296.12857142857143,529.8,300.22232142857143,296.12857142857143,641.9,263.22232142857143,335.12857142857143,743.8,203.22232142857143,440.12857142857143,846.5,177.22232142857143,509.12857142857143,947.9,174.22232142857143,511.12857142857143,1054,174.22232142857143,512.1285714285714,1154.4,174.22232142857143,511.12857142857143,1256.3,175.22232142857143,510.12857142857143,1358,175.22232142857143,513.1285714285714,1465,165.22232142857143,530.1285714285714,1574.4,159.22232142857143,532.1285714285714,1680.9,157.22232142857143,532.1285714285714,1787.3,156.22232142857143,532.1285714285714,1887.5,156.22232142857143,532.1285714285714,1990.4,156.22232142857143,532.1285714285714,2090.4,156.22232142857143,532.1285714285714,2199.3,156.22232142857143,532.1285714285714,2310.9,156.22232142857143,532.1285714285714,2413.6,156.22232142857143,532.1285714285714,2513.8,156.22232142857143,532.1285714285714,2618.7,156.22232142857143,532.1285714285714,2729.3,156.22232142857143,532.1285714285714,2832.4,156.22232142857143,532.1285714285714,2932.9,156.22232142857143,532.1285714285714,3034.2,156.22232142857143,532.1285714285714,3138.6,156.22232142857143,532.1285714285714,3240,156.22232142857143,532.1285714285714,3342.7,156.22232142857143,532.1285714285714,3444,156.22232142857143,532.1285714285714,3551,156.22232142857143,532.1285714285714,3652.4,156.22232142857143,532.1285714285714,3752.6,156.22232142857143,532.1285714285714,3858.9,156.22232142857143,532.1285714285714,3960.9]","[1456.8,1456.7,1000,0.1,456.7,""oops"",""up"",""down"",""bad_move"",3117.4,1649,2110,1468.5,-461,""error"",""-"",""-"",""no_move"",11198.1,8079.6,3085.4,7597.2,515.5,""smooth"",""left"",""left"",""bad_move"",13734.3,2531.6,2018.2,11202.7,513.4,""oops"",""left"",""down"",""bad_move"",16152.4,2416.4,2599.6,13736,-183.2,""error"",""-"",""-"",""no_move"",20501.3,4348.3,2463,17153.6,884.8,""oops"",""up"",""up"",""good_move"",23165.3,2662.9,2064.4,20502.4,598.5,""smooth"",""up"",""up"",""good_move"",25549.3,2382.2,2323.2,23167.2,58.9,""while_blue"",""up"",""up"",""good_move"",29185.8,3634.8,2784.4,25551,850.4,""oops"",""up"",""up"",""good_move"",32467.2,3280.7,2675,29186.6,605.7,""smooth"",""left"",""left"",""bad_move"",35244.1,2775.4,2438,32468.7,337.4,""oops"",""down"",""right"",""good_move"",37526.5,2279.1,1987.7,35247.8,291,""while_blue"",""down"",""up"",""good_move"",40562.9,3020.1,2529.4,37542.8,490.7,""oops"",""down"",""right"",""good_move"",43133.2,2555.1,2394.5,40578.2,160.5,""smooth"",""left"",""left"",""bad_move"",45143.1,2003.2,2214.7,43139.9,-211.5,""error"",""-"",""-"",""no_move""]","",""
"69268","","","","instructions","23","1352514","0.0-8.0-4.0","174","1","2025-07-09 09:12:24","7701e855f2ef39aa3fd6c71abdc6918a","105.1.83.172","Mozilla/5.0 (Windows NT 10.0; Win64; x64) AppleWebKit/537.36 (KHTML, like Gecko) Chrome/138.0.0.0 Safari/537.36","WebKit","Chrome","138.0.0.0","Windows","10.0","https://app.prolific.com/","en-US,en;q=0.9","67b89f64c09d83ec36fdd403","686d226cabeef709c732f8e1","686e313dfa6eb02757c40773","67b89f64c09d83ec36fdd403","","[{""page_index"":0,""viewing_time"":15708},{""page_index"":1,""viewing_time"":53560}]","","","","","","","","","","","","","","","","","","","","","","","","","","","","","","","","","","","","","","","","","","",""
"21252","","","{""green_ball"":[""Ball always moves in the direction I press"",""Ball sometimes shakes and moves in a random direction""]}","survey-multi-select","24","1373794","0.0-8.0-5.0-0.0","174","1","2025-07-09 09:12:24","7701e855f2ef39aa3fd6c71abdc6918a","105.1.83.172","Mozilla/5.0 (Windows NT 10.0; Win64; x64) AppleWebKit/537.36 (KHTML, like Gecko) Chrome/138.0.0.0 Safari/537.36","WebKit","Chrome","138.0.0.0","Windows","10.0","https://app.prolific.com/","en-US,en;q=0.9","67b89f64c09d83ec36fdd403","686d226cabeef709c732f8e1","686e313dfa6eb02757c40773","67b89f64c09d83ec36fdd403","","","[0]","","","","quiz","","","","","","","","","","","","","","","","","","","","","","","","","","","","","","","","","","","","","false",""
"5030","","<p align='center'><b>INCORRECT.</b> Usually the green ball moves in the indicated direction, but sometimes it shakes and moves randomly. </p>","0","html-button-response","25","1378845","0.0-8.0-5.0-1.0","174","1","2025-07-09 09:12:24","7701e855f2ef39aa3fd6c71abdc6918a","105.1.83.172","Mozilla/5.0 (Windows NT 10.0; Win64; x64) AppleWebKit/537.36 (KHTML, like Gecko) Chrome/138.0.0.0 Safari/537.36","WebKit","Chrome","138.0.0.0","Windows","10.0","https://app.prolific.com/","en-US,en;q=0.9","67b89f64c09d83ec36fdd403","686d226cabeef709c732f8e1","686e313dfa6eb02757c40773","67b89f64c09d83ec36fdd403","","","","","","","","","","","","","","","","","","","","","","","","","","","","","","","","","","","","","","","","","","","","",""
"10154","","","{""green_ball"":[""Ball always moves in the direction I press""]}","survey-multi-select","26","1389008","0.0-8.0-5.1-0.1","174","1","2025-07-09 09:12:24","7701e855f2ef39aa3fd6c71abdc6918a","105.1.83.172","Mozilla/5.0 (Windows NT 10.0; Win64; x64) AppleWebKit/537.36 (KHTML, like Gecko) Chrome/138.0.0.0 Safari/537.36","WebKit","Chrome","138.0.0.0","Windows","10.0","https://app.prolific.com/","en-US,en;q=0.9","67b89f64c09d83ec36fdd403","686d226cabeef709c732f8e1","686e313dfa6eb02757c40773","67b89f64c09d83ec36fdd403","","","[0]","","","","quiz","","","","","","","","","","","","","","","","","","","","","","","","","","","","","","","","","","","","","false",""
"10113","","<p align='center'><b>INCORRECT.</b> Usually the green ball moves in the indicated direction, but sometimes it shakes and moves randomly. </p>","0","html-button-response","27","1399124","0.0-8.0-5.1-1.1","174","1","2025-07-09 09:12:24","7701e855f2ef39aa3fd6c71abdc6918a","105.1.83.172","Mozilla/5.0 (Windows NT 10.0; Win64; x64) AppleWebKit/537.36 (KHTML, like Gecko) Chrome/138.0.0.0 Safari/537.36","WebKit","Chrome","138.0.0.0","Windows","10.0","https://app.prolific.com/","en-US,en;q=0.9","67b89f64c09d83ec36fdd403","686d226cabeef709c732f8e1","686e313dfa6eb02757c40773","67b89f64c09d83ec36fdd403","","","","","","","","","","","","","","","","","","","","","","","","","","","","","","","","","","","","","","","","","","","","",""
"16658","","","{""green_ball"":[""Ball always moves in the direction I press"",""Ball sometimes shakes and moves in a random direction""]}","survey-multi-select","28","1415789","0.0-8.0-5.2-0.2","174","1","2025-07-09 09:12:24","7701e855f2ef39aa3fd6c71abdc6918a","105.1.83.172","Mozilla/5.0 (Windows NT 10.0; Win64; x64) AppleWebKit/537.36 (KHTML, like Gecko) Chrome/138.0.0.0 Safari/537.36","WebKit","Chrome","138.0.0.0","Windows","10.0","https://app.prolific.com/","en-US,en;q=0.9","67b89f64c09d83ec36fdd403","686d226cabeef709c732f8e1","686e313dfa6eb02757c40773","67b89f64c09d83ec36fdd403","","","[0]","","","","quiz","","","","","","","","","","","","","","","","","","","","","","","","","","","","","","","","","","","","","false",""
"8696","","<p align='center'><b>INCORRECT.</b> Usually the green ball moves in the indicated direction, but sometimes it shakes and moves randomly. </p>","0","html-button-response","29","1424492","0.0-8.0-5.2-1.2","174","1","2025-07-09 09:12:24","7701e855f2ef39aa3fd6c71abdc6918a","105.1.83.172","Mozilla/5.0 (Windows NT 10.0; Win64; x64) AppleWebKit/537.36 (KHTML, like Gecko) Chrome/138.0.0.0 Safari/537.36","WebKit","Chrome","138.0.0.0","Windows","10.0","https://app.prolific.com/","en-US,en;q=0.9","67b89f64c09d83ec36fdd403","686d226cabeef709c732f8e1","686e313dfa6eb02757c40773","67b89f64c09d83ec36fdd403","","","","","","","","","","","","","","","","","","","","","","","","","","","","","","","","","","","","","","","","","","","","",""
"17668","","","{""green_ball"":[""Ball always shakes and moves in a random direction"",""Ball always moves in the direction I press"",""Ball sometimes shakes and moves in a random direction""]}","survey-multi-select","30","1442165","0.0-8.0-5.3-0.3","174","1","2025-07-09 09:12:24","7701e855f2ef39aa3fd6c71abdc6918a","105.1.83.172","Mozilla/5.0 (Windows NT 10.0; Win64; x64) AppleWebKit/537.36 (KHTML, like Gecko) Chrome/138.0.0.0 Safari/537.36","WebKit","Chrome","138.0.0.0","Windows","10.0","https://app.prolific.com/","en-US,en;q=0.9","67b89f64c09d83ec36fdd403","686d226cabeef709c732f8e1","686e313dfa6eb02757c40773","67b89f64c09d83ec36fdd403","","","[0]","","","","quiz","","","","","","","","","","","","","","","","","","","","","","","","","","","","","","","","","","","","","false",""
"1523","","<p align='center'><b>INCORRECT.</b> Usually the green ball moves in the indicated direction, but sometimes it shakes and moves randomly. </p>","0","html-button-response","31","1443692","0.0-8.0-5.3-1.3","174","1","2025-07-09 09:12:24","7701e855f2ef39aa3fd6c71abdc6918a","105.1.83.172","Mozilla/5.0 (Windows NT 10.0; Win64; x64) AppleWebKit/537.36 (KHTML, like Gecko) Chrome/138.0.0.0 Safari/537.36","WebKit","Chrome","138.0.0.0","Windows","10.0","https://app.prolific.com/","en-US,en;q=0.9","67b89f64c09d83ec36fdd403","686d226cabeef709c732f8e1","686e313dfa6eb02757c40773","67b89f64c09d83ec36fdd403","","","","","","","","","","","","","","","","","","","","","","","","","","","","","","","","","","","","","","","","","","","","",""
"3068","","","{""green_ball"":[""Ball sometimes shakes and moves in a random direction""]}","survey-multi-select","32","1446766","0.0-8.0-5.4-0.4","174","1","2025-07-09 09:12:24","7701e855f2ef39aa3fd6c71abdc6918a","105.1.83.172","Mozilla/5.0 (Windows NT 10.0; Win64; x64) AppleWebKit/537.36 (KHTML, like Gecko) Chrome/138.0.0.0 Safari/537.36","WebKit","Chrome","138.0.0.0","Windows","10.0","https://app.prolific.com/","en-US,en;q=0.9","67b89f64c09d83ec36fdd403","686d226cabeef709c732f8e1","686e313dfa6eb02757c40773","67b89f64c09d83ec36fdd403","","","[0]","","","","quiz","","","","","","","","","","","","","","","","","","","","","","","","","","","","","","","","","","","","","true",""
"81922","","<p align='center'><b>CORRECT!</b> Indeed, the green ball may sometimes shake and move in a random direction.</p>","0","html-button-response","33","1528692","0.0-8.0-5.4-1.4","174","1","2025-07-09 09:12:24","7701e855f2ef39aa3fd6c71abdc6918a","105.1.83.172","Mozilla/5.0 (Windows NT 10.0; Win64; x64) AppleWebKit/537.36 (KHTML, like Gecko) Chrome/138.0.0.0 Safari/537.36","WebKit","Chrome","138.0.0.0","Windows","10.0","https://app.prolific.com/","en-US,en;q=0.9","67b89f64c09d83ec36fdd403","686d226cabeef709c732f8e1","686e313dfa6eb02757c40773","67b89f64c09d83ec36fdd403","","","","","","","","","","","","","","","","","","","","","","","","","","","","","","","","","","","","","","","","","","","","",""
"9451","","","{""yellow_ball"":[""Ball doesn‘t move and I get -1 penalty point""]}","survey-multi-select","34","1538156","0.0-8.0-6.0-0.0","174","1","2025-07-09 09:12:24","7701e855f2ef39aa3fd6c71abdc6918a","105.1.83.172","Mozilla/5.0 (Windows NT 10.0; Win64; x64) AppleWebKit/537.36 (KHTML, like Gecko) Chrome/138.0.0.0 Safari/537.36","WebKit","Chrome","138.0.0.0","Windows","10.0","https://app.prolific.com/","en-US,en;q=0.9","67b89f64c09d83ec36fdd403","686d226cabeef709c732f8e1","686e313dfa6eb02757c40773","67b89f64c09d83ec36fdd403","","","[0]","","","","quiz","","","","","","","","","","","","","","","","","","","","","","","","","","","","","","","","","","","","","true",""
"1301","","<p align='center'><b>CORRECT!</b> Indeed, the yellow ball never moves and you receive a penalty.</p>","0","html-button-response","35","1539466","0.0-8.0-6.0-1.0","174","1","2025-07-09 09:12:24","7701e855f2ef39aa3fd6c71abdc6918a","105.1.83.172","Mozilla/5.0 (Windows NT 10.0; Win64; x64) AppleWebKit/537.36 (KHTML, like Gecko) Chrome/138.0.0.0 Safari/537.36","WebKit","Chrome","138.0.0.0","Windows","10.0","https://app.prolific.com/","en-US,en;q=0.9","67b89f64c09d83ec36fdd403","686d226cabeef709c732f8e1","686e313dfa6eb02757c40773","67b89f64c09d83ec36fdd403","","","","","","","","","","","","","","","","","","","","","","","","","","","","","","","","","","","","","","","","","","","","",""
"5485","","","{""blue_ball"":[""Ball always shakes and moves in a random direction""]}","survey-multi-select","36","1544957","0.0-8.0-7.0-0.0","174","1","2025-07-09 09:12:24","7701e855f2ef39aa3fd6c71abdc6918a","105.1.83.172","Mozilla/5.0 (Windows NT 10.0; Win64; x64) AppleWebKit/537.36 (KHTML, like Gecko) Chrome/138.0.0.0 Safari/537.36","WebKit","Chrome","138.0.0.0","Windows","10.0","https://app.prolific.com/","en-US,en;q=0.9","67b89f64c09d83ec36fdd403","686d226cabeef709c732f8e1","686e313dfa6eb02757c40773","67b89f64c09d83ec36fdd403","","","[0]","","","","quiz","","","","","","","","","","","","","","","","","","","","","","","","","","","","","","","","","","","","","true",""
"2111","","<p align='center'><b>CORRECT!</b> Indeed, the blue ball always shakes and moves in a random direction. Also there is a penalty of -1 point.</p>","0","html-button-response","37","1547072","0.0-8.0-7.0-1.0","174","1","2025-07-09 09:12:24","7701e855f2ef39aa3fd6c71abdc6918a","105.1.83.172","Mozilla/5.0 (Windows NT 10.0; Win64; x64) AppleWebKit/537.36 (KHTML, like Gecko) Chrome/138.0.0.0 Safari/537.36","WebKit","Chrome","138.0.0.0","Windows","10.0","https://app.prolific.com/","en-US,en;q=0.9","67b89f64c09d83ec36fdd403","686d226cabeef709c732f8e1","686e313dfa6eb02757c40773","67b89f64c09d83ec36fdd403","","","","","","","","","","","","","","","","","","","","","","","","","","","","","","","","","","","","","","","","","","","","",""
"8138","","","{""bonus"":[""When I reach 50% of points""]}","survey-multi-select","38","1555219","0.0-8.0-8.0-0.0","174","1","2025-07-09 09:12:24","7701e855f2ef39aa3fd6c71abdc6918a","105.1.83.172","Mozilla/5.0 (Windows NT 10.0; Win64; x64) AppleWebKit/537.36 (KHTML, like Gecko) Chrome/138.0.0.0 Safari/537.36","WebKit","Chrome","138.0.0.0","Windows","10.0","https://app.prolific.com/","en-US,en;q=0.9","67b89f64c09d83ec36fdd403","686d226cabeef709c732f8e1","686e313dfa6eb02757c40773","67b89f64c09d83ec36fdd403","","","[0]","","","","quiz","","","","","","","","","","","","","","","","","","","","","","","","","","","","","","","","","","","","","true",""
"4704","","<p align='center'><b>CORRECT!</b> Indeed, you receive 2 pounds extra when you reach 50% of points.</p>","0","html-button-response","39","1559928","0.0-8.0-8.0-1.0","174","1","2025-07-09 09:12:24","7701e855f2ef39aa3fd6c71abdc6918a","105.1.83.172","Mozilla/5.0 (Windows NT 10.0; Win64; x64) AppleWebKit/537.36 (KHTML, like Gecko) Chrome/138.0.0.0 Safari/537.36","WebKit","Chrome","138.0.0.0","Windows","10.0","https://app.prolific.com/","en-US,en;q=0.9","67b89f64c09d83ec36fdd403","686d226cabeef709c732f8e1","686e313dfa6eb02757c40773","67b89f64c09d83ec36fdd403","","","","","","","","","","","","","","","","","","","","","","","","","","","","","","","","","","","","","","","","","","","","",""
"147104","","","","instructions","40","1707036","0.0-8.0-9.0","174","1","2025-07-09 09:12:24","7701e855f2ef39aa3fd6c71abdc6918a","105.1.83.172","Mozilla/5.0 (Windows NT 10.0; Win64; x64) AppleWebKit/537.36 (KHTML, like Gecko) Chrome/138.0.0.0 Safari/537.36","WebKit","Chrome","138.0.0.0","Windows","10.0","https://app.prolific.com/","en-US,en;q=0.9","67b89f64c09d83ec36fdd403","686d226cabeef709c732f8e1","686e313dfa6eb02757c40773","67b89f64c09d83ec36fdd403","","[{""page_index"":0,""viewing_time"":147100}]","","","","","","","","","","","","","","","","","","","","","","","","","","","","","","","","","","","","","","","","","","",""
"18408","","<p>Before you start with this game please answer the following three questions yourself. </p>
  <p>Through this game, we measure several aspects of your cognitive performance, such as reaction times, multi-tasking capabilities </p>
  <p>and the ability to assess the situation you are in.</p>
  <p></p>
  <p><b>How good do you usually are in such tasks?</b></p>","58","html-slider-response","41","1725467","0.0-9.0-0.0","174","1","2025-07-09 09:12:24","7701e855f2ef39aa3fd6c71abdc6918a","105.1.83.172","Mozilla/5.0 (Windows NT 10.0; Win64; x64) AppleWebKit/537.36 (KHTML, like Gecko) Chrome/138.0.0.0 Safari/537.36","WebKit","Chrome","138.0.0.0","Windows","10.0","https://app.prolific.com/","en-US,en;q=0.9","67b89f64c09d83ec36fdd403","686d226cabeef709c732f8e1","686e313dfa6eb02757c40773","67b89f64c09d83ec36fdd403","2025-07-09T09:41:14.557Z","","","","","","PreSkillQ","","","","","","","","","","","","","","","","","","","","","","","","","","","","","","","","","","","","","","50"
"16298","","<div style=""width:500px;"">
  <p>How well do you think you will perform in this task compared to other participants?</p>
  </div>","58","html-slider-response","42","1741772","0.0-9.0-1.0","174","1","2025-07-09 09:12:24","7701e855f2ef39aa3fd6c71abdc6918a","105.1.83.172","Mozilla/5.0 (Windows NT 10.0; Win64; x64) AppleWebKit/537.36 (KHTML, like Gecko) Chrome/138.0.0.0 Safari/537.36","WebKit","Chrome","138.0.0.0","Windows","10.0","https://app.prolific.com/","en-US,en;q=0.9","67b89f64c09d83ec36fdd403","686d226cabeef709c732f8e1","686e313dfa6eb02757c40773","67b89f64c09d83ec36fdd403","2025-07-09T09:41:30.863Z","","","","","","PrePerfQ","","","","","","","","","","","","","","","","","","","","","","","","","","","","","","","","","","","","","","50"
"9074","","<div style=""width:500px;"">
  <p>What best describes how you currently feel?</p>
  </div>","80","html-slider-response","43","1750853","0.0-9.0-2.0","174","1","2025-07-09 09:12:24","7701e855f2ef39aa3fd6c71abdc6918a","105.1.83.172","Mozilla/5.0 (Windows NT 10.0; Win64; x64) AppleWebKit/537.36 (KHTML, like Gecko) Chrome/138.0.0.0 Safari/537.36","WebKit","Chrome","138.0.0.0","Windows","10.0","https://app.prolific.com/","en-US,en;q=0.9","67b89f64c09d83ec36fdd403","686d226cabeef709c732f8e1","686e313dfa6eb02757c40773","67b89f64c09d83ec36fdd403","2025-07-09T09:41:39.943Z","","","","","","PreMotivationQ","","","","","","","","","","","","","","","","","","","","","","","","","","","","","","","","","","","","","","50"
"","","","","ctl-task-cpt","44","1780352","0.0-10.0-0.0","174","1","2025-07-09 09:12:24","7701e855f2ef39aa3fd6c71abdc6918a","105.1.83.172","Mozilla/5.0 (Windows NT 10.0; Win64; x64) AppleWebKit/537.36 (KHTML, like Gecko) Chrome/138.0.0.0 Safari/537.36","WebKit","Chrome","138.0.0.0","Windows","10.0","https://app.prolific.com/","en-US,en;q=0.9","67b89f64c09d83ec36fdd403","686d226cabeef709c732f8e1","686e313dfa6eb02757c40773","67b89f64c09d83ec36fdd403","2025-07-09T09:42:09.442Z","","","","","","","","","","","","","","","","win-only","1","g1:NE,g2:SW","1","1","0","1755158.4","1989.5","6994.2","26454.1","1","4","8","6","2","8","7","7","0","0.05303030303030303","1492.8","3000","835","[""down"",""left""]","{""num_key_presses"":7,""num_perfect"":6,""num_errors"":1,""num_randdir"":0,""num_randdir_good_moves"":0,""num_whilered"":0,""num_whileblue"":0,""num_blue"":0,""num_good_moves"":6}","[292.22232142857143,303.12857142857143,5.7,292.22232142857143,303.12857142857143,102.4,292.22232142857143,303.12857142857143,207.3,292.22232142857143,303.12857142857143,308.3,292.22232142857143,303.12857142857143,408.4,292.22232142857143,303.12857142857143,522.2,296.22232142857143,292.12857142857143,625.4,314.22232142857143,270.12857142857143,727,308.22232142857143,276.12857142857143,838.7,195.22232142857143,384.12857142857143,955.3,192.22232142857143,388.12857142857143,1065.5,101.22232142857143,490.12857142857143,1169.3,77.22232142857143,525.1285714285714,1273.6,54.222321428571426,532.1285714285714,1376.9,30.222321428571426,538.1285714285714,1478.4,30.222321428571426,538.1285714285714,1585.6,30.222321428571426,538.1285714285714,1690.9,30.222321428571426,538.1285714285714,1794.6,30.222321428571426,538.1285714285714,1901,30.222321428571426,538.1285714285714,2010.2,30.222321428571426,538.1285714285714,2116.2,30.222321428571426,538.1285714285714,2221.1,30.222321428571426,538.1285714285714,2322.8,30.222321428571426,538.1285714285714,2424.8,30.222321428571426,538.1285714285714,2527.4,30.222321428571426,538.1285714285714,2631.7,30.222321428571426,538.1285714285714,2736.1,30.222321428571426,538.1285714285714,2837.5,30.222321428571426,538.1285714285714,2937.5,30.222321428571426,538.1285714285714,3040.1,30.222321428571426,538.1285714285714,3140.1,30.222321428571426,538.1285714285714,3247.3,30.222321428571426,538.1285714285714,3348.1,30.222321428571426,538.1285714285714,3449.5,30.222321428571426,538.1285714285714,3558.3,30.222321428571426,538.1285714285714,3662.4,30.222321428571426,538.1285714285714,3764.8,30.222321428571426,538.1285714285714,3865.8,30.222321428571426,538.1285714285714,3966,30.222321428571426,538.1285714285714,4066.7,30.222321428571426,538.1285714285714,4167.3,30.222321428571426,538.1285714285714,4267.6,30.222321428571426,538.1285714285714,4368.2,30.222321428571426,538.1285714285714,4475,30.222321428571426,538.1285714285714,4583.9,30.222321428571426,538.1285714285714,4688.8,30.222321428571426,538.1285714285714,4793.8,30.222321428571426,538.1285714285714,4894.6]","[300.6,300.6,1000,0,-699.4,""error"",""-"",""-"",""no_move"",5145.3,4843.6,2890.5,1305.7,949.2,""smooth"",""left"",""left"",""good_move"",7714,2566.6,2124.3,5147.4,442.3,""smooth"",""left"",""left"",""good_move"",10014.3,2298.4,1970.5,7715.9,327.9,""smooth"",""left"",""left"",""good_move"",13500.8,3485,3003,10015.8,482,""smooth"",""down"",""down"",""good_move"",16652,3149.2,2326,13502.8,823.2,""smooth"",""down"",""down"",""good_move"",19348.6,2670.7,2361,16677.9,309.7,""smooth"",""down"",""down"",""good_move""]","",""
"14638","","<div style=""width:500px;"">
  <p>What determined the result of this run?</p>
  </div>","100","html-slider-response","45","1794994","0.0-10.0-1.0","174","1","2025-07-09 09:12:24","7701e855f2ef39aa3fd6c71abdc6918a","105.1.83.172","Mozilla/5.0 (Windows NT 10.0; Win64; x64) AppleWebKit/537.36 (KHTML, like Gecko) Chrome/138.0.0.0 Safari/537.36","WebKit","Chrome","138.0.0.0","Windows","10.0","https://app.prolific.com/","en-US,en;q=0.9","67b89f64c09d83ec36fdd403","686d226cabeef709c732f8e1","686e313dfa6eb02757c40773","67b89f64c09d83ec36fdd403","2025-07-09T09:42:24.086Z","","","","","","AttribQ","","","","","","","","","","","","","","","","","","","","","","","","","","","","","","","","","","","","","","50"
"6635","","<div style=""width:500px;"">
  <p>How much control did you have over the ball?</p>
  </div>","100","html-slider-response","46","1801634","0.0-10.0-2.0","174","1","2025-07-09 09:12:24","7701e855f2ef39aa3fd6c71abdc6918a","105.1.83.172","Mozilla/5.0 (Windows NT 10.0; Win64; x64) AppleWebKit/537.36 (KHTML, like Gecko) Chrome/138.0.0.0 Safari/537.36","WebKit","Chrome","138.0.0.0","Windows","10.0","https://app.prolific.com/","en-US,en;q=0.9","67b89f64c09d83ec36fdd403","686d226cabeef709c732f8e1","686e313dfa6eb02757c40773","67b89f64c09d83ec36fdd403","2025-07-09T09:42:30.731Z","","","","","","ControlQ","","","","","","","","","","","","","","","","","","","","","","","","","","","","","","","","","","","","","","50"
"23364","","<div style=""width:500px;"">
  <p>How would you describe your current emotional state?</p>
  </div>","0","html-slider-response","47","1825011","0.0-10.0-3.0","174","1","2025-07-09 09:12:24","7701e855f2ef39aa3fd6c71abdc6918a","105.1.83.172","Mozilla/5.0 (Windows NT 10.0; Win64; x64) AppleWebKit/537.36 (KHTML, like Gecko) Chrome/138.0.0.0 Safari/537.36","WebKit","Chrome","138.0.0.0","Windows","10.0","https://app.prolific.com/","en-US,en;q=0.9","67b89f64c09d83ec36fdd403","686d226cabeef709c732f8e1","686e313dfa6eb02757c40773","67b89f64c09d83ec36fdd403","2025-07-09T09:42:54.101Z","","","","","","StressQ","","","","","","","","","","","","","","","","","","","","","","","","","","","","","","","","","","","","","","50"
"6255","","<div style=""width:500px;"">
  <p>What best describes how you currently feel?</p>
  </div>","100","html-slider-response","48","1831270","0.0-10.0-4.0","174","1","2025-07-09 09:12:24","7701e855f2ef39aa3fd6c71abdc6918a","105.1.83.172","Mozilla/5.0 (Windows NT 10.0; Win64; x64) AppleWebKit/537.36 (KHTML, like Gecko) Chrome/138.0.0.0 Safari/537.36","WebKit","Chrome","138.0.0.0","Windows","10.0","https://app.prolific.com/","en-US,en;q=0.9","67b89f64c09d83ec36fdd403","686d226cabeef709c732f8e1","686e313dfa6eb02757c40773","67b89f64c09d83ec36fdd403","2025-07-09T09:43:00.361Z","","","","","","MotivationQ","","","","","","","","","","","","","","","","","","","","","","","","","","","","","","","","","","","","","","50"
"","","","","ctl-task-cpt","49","1876144","0.0-10.0-0.1","174","1","2025-07-09 09:12:24","7701e855f2ef39aa3fd6c71abdc6918a","105.1.83.172","Mozilla/5.0 (Windows NT 10.0; Win64; x64) AppleWebKit/537.36 (KHTML, like Gecko) Chrome/138.0.0.0 Safari/537.36","WebKit","Chrome","138.0.0.0","Windows","10.0","https://app.prolific.com/","en-US,en;q=0.9","67b89f64c09d83ec36fdd403","686d226cabeef709c732f8e1","686e313dfa6eb02757c40773","67b89f64c09d83ec36fdd403","2025-07-09T09:43:45.234Z","","","","","","","","","","","","","","","","win-only","1","g1:NE,g2:SW","0.9","2","0","1835561.3","1690.4","6691.8","41844.4","1","4","4","6","2","4","2","9","7","0.06818181818181818","2222.9","3000","640","[""down"",""left""]","{""num_key_presses"":10,""num_perfect"":8,""num_errors"":2,""num_randdir"":0,""num_randdir_good_moves"":0,""num_whilered"":0,""num_whileblue"":2,""num_blue"":4,""num_good_moves"":8}","[297.22232142857143,300.12857142857143,1.2,297.22232142857143,300.12857142857143,101.7,297.22232142857143,300.12857142857143,217.9,297.22232142857143,300.12857142857143,322.4,297.22232142857143,300.12857142857143,424.4,297.22232142857143,304.12857142857143,533.7,297.22232142857143,309.12857142857143,635.1,297.22232142857143,312.12857142857143,748.2,297.22232142857143,317.12857142857143,852.9,297.22232142857143,318.12857142857143,955.1,297.22232142857143,320.12857142857143,1055.9,297.22232142857143,321.12857142857143,1156.1,297.22232142857143,323.12857142857143,1265.1,297.22232142857143,322.12857142857143,1367.6,300.22232142857143,316.12857142857143,1470.7,255.22232142857143,356.12857142857143,1582.9,190.22232142857143,428.12857142857143,1685.1,185.22232142857143,432.12857142857143,1790.4,93.22232142857143,487.12857142857143,1890.7,47.222321428571426,508.12857142857143,2004.8,30.222321428571426,522.1285714285714,2106.1,25.222321428571426,525.1285714285714,2217.7,25.222321428571426,525.1285714285714,2320.3,25.222321428571426,525.1285714285714,2421.6,25.222321428571426,525.1285714285714,2533,25.222321428571426,525.1285714285714,2638.3,25.222321428571426,525.1285714285714,2745.1,25.222321428571426,525.1285714285714,2847.8,25.222321428571426,525.1285714285714,2951.7,25.222321428571426,525.1285714285714,3053,25.222321428571426,525.1285714285714,3162.8,25.222321428571426,525.1285714285714,3266.9,25.222321428571426,525.1285714285714,3371.2,25.222321428571426,525.1285714285714,3471.8,25.222321428571426,525.1285714285714,3579.3,25.222321428571426,525.1285714285714,3683.5,25.222321428571426,525.1285714285714,3787.4,25.222321428571426,525.1285714285714,3895.5,25.222321428571426,525.1285714285714,3995.7,25.222321428571426,525.1285714285714,4098.1,25.222321428571426,525.1285714285714,4208.8,25.222321428571426,525.1285714285714,4311.3,25.222321428571426,525.1285714285714,4413.7,25.222321428571426,525.1285714285714,4513.8,25.222321428571426,525.1285714285714,4615.9,25.222321428571426,525.1285714285714,4715.9,25.222321428571426,525.1285714285714,4818.1,25.222321428571426,525.1285714285714,4927.3]","[1502.5,1502.5,1000,0,502.5,""smooth"",""left"",""left"",""good_move"",4770.3,3262.7,2474.5,1507.7,788.2,""while_blue"",""left"",""right"",""bad_move"",7278.6,2502.1,1995.2,4776.5,506.9,""smooth"",""left"",""left"",""good_move"",13843.8,6559,2597.8,10761.2,484.8,""smooth"",""left"",""left"",""good_move"",16821.8,2975.2,2573.1,13846.6,402.1,""smooth"",""left"",""left"",""good_move"",19010.6,2187,1907.8,16823.7,279.1,""while_blue"",""down"",""right"",""bad_move"",25755.7,6743.6,3167.6,22121.6,466.5,""smooth"",""left"",""left"",""good_move"",28468.6,2712.1,2343.4,25756.5,368.7,""smooth"",""down"",""down"",""good_move"",31629.9,3157.1,2711,28472.8,446.1,""smooth"",""down"",""down"",""good_move"",35016.4,3383.8,2950.1,31632.6,433.7,""smooth"",""down"",""down"",""good_move""]","",""
"5527","","<div style=""width:500px;"">
  <p>What determined the result of this run?</p>
  </div>","100","html-slider-response","50","1881674","0.0-10.0-1.1","174","1","2025-07-09 09:12:24","7701e855f2ef39aa3fd6c71abdc6918a","105.1.83.172","Mozilla/5.0 (Windows NT 10.0; Win64; x64) AppleWebKit/537.36 (KHTML, like Gecko) Chrome/138.0.0.0 Safari/537.36","WebKit","Chrome","138.0.0.0","Windows","10.0","https://app.prolific.com/","en-US,en;q=0.9","67b89f64c09d83ec36fdd403","686d226cabeef709c732f8e1","686e313dfa6eb02757c40773","67b89f64c09d83ec36fdd403","2025-07-09T09:43:50.764Z","","","","","","AttribQ","","","","","","","","","","","","","","","","","","","","","","","","","","","","","","","","","","","","","","50"
"6244","","<div style=""width:500px;"">
  <p>How much control did you have over the ball?</p>
  </div>","89","html-slider-response","51","1887923","0.0-10.0-2.1","174","1","2025-07-09 09:12:24","7701e855f2ef39aa3fd6c71abdc6918a","105.1.83.172","Mozilla/5.0 (Windows NT 10.0; Win64; x64) AppleWebKit/537.36 (KHTML, like Gecko) Chrome/138.0.0.0 Safari/537.36","WebKit","Chrome","138.0.0.0","Windows","10.0","https://app.prolific.com/","en-US,en;q=0.9","67b89f64c09d83ec36fdd403","686d226cabeef709c732f8e1","686e313dfa6eb02757c40773","67b89f64c09d83ec36fdd403","2025-07-09T09:43:57.013Z","","","","","","ControlQ","","","","","","","","","","","","","","","","","","","","","","","","","","","","","","","","","","","","","","50"
"6811","","<div style=""width:500px;"">
  <p>How would you describe your current emotional state?</p>
  </div>","2","html-slider-response","52","1894736","0.0-10.0-3.1","174","1","2025-07-09 09:12:24","7701e855f2ef39aa3fd6c71abdc6918a","105.1.83.172","Mozilla/5.0 (Windows NT 10.0; Win64; x64) AppleWebKit/537.36 (KHTML, like Gecko) Chrome/138.0.0.0 Safari/537.36","WebKit","Chrome","138.0.0.0","Windows","10.0","https://app.prolific.com/","en-US,en;q=0.9","67b89f64c09d83ec36fdd403","686d226cabeef709c732f8e1","686e313dfa6eb02757c40773","67b89f64c09d83ec36fdd403","2025-07-09T09:44:03.827Z","","","","","","StressQ","","","","","","","","","","","","","","","","","","","","","","","","","","","","","","","","","","","","","","50"
"6936","","<div style=""width:500px;"">
  <p>What best describes how you currently feel?</p>
  </div>","100","html-slider-response","53","1901676","0.0-10.0-4.1","174","1","2025-07-09 09:12:24","7701e855f2ef39aa3fd6c71abdc6918a","105.1.83.172","Mozilla/5.0 (Windows NT 10.0; Win64; x64) AppleWebKit/537.36 (KHTML, like Gecko) Chrome/138.0.0.0 Safari/537.36","WebKit","Chrome","138.0.0.0","Windows","10.0","https://app.prolific.com/","en-US,en;q=0.9","67b89f64c09d83ec36fdd403","686d226cabeef709c732f8e1","686e313dfa6eb02757c40773","67b89f64c09d83ec36fdd403","2025-07-09T09:44:10.767Z","","","","","","MotivationQ","","","","","","","","","","","","","","","","","","","","","","","","","","","","","","","","","","","","","","50"
"","","","","ctl-task-cpt","54","1930470","0.0-10.0-0.2","174","1","2025-07-09 09:12:24","7701e855f2ef39aa3fd6c71abdc6918a","105.1.83.172","Mozilla/5.0 (Windows NT 10.0; Win64; x64) AppleWebKit/537.36 (KHTML, like Gecko) Chrome/138.0.0.0 Safari/537.36","WebKit","Chrome","138.0.0.0","Windows","10.0","https://app.prolific.com/","en-US,en;q=0.9","67b89f64c09d83ec36fdd403","686d226cabeef709c732f8e1","686e313dfa6eb02757c40773","67b89f64c09d83ec36fdd403","2025-07-09T09:44:39.560Z","","","","","","","","","","","","","","","","win-only","0","g1:NW,g2:SE","0.8","3","0","1905968.6","1737.8","6751.5","25773.3","1","4","8","6","2","8","7","16","9","0.12121212121212122","1177","3000","1455","[""down"",""right""]","{""num_key_presses"":7,""num_perfect"":5,""num_errors"":1,""num_randdir"":1,""num_randdir_good_moves"":1,""num_whilered"":0,""num_whileblue"":0,""num_blue"":1,""num_good_moves"":6}","[293.22232142857143,299.12857142857143,0.8,293.22232142857143,299.12857142857143,103.1,293.22232142857143,299.12857142857143,211.9,293.22232142857143,299.12857142857143,320.1,293.22232142857143,299.12857142857143,432.3,293.22232142857143,299.12857142857143,533.5,293.22232142857143,299.12857142857143,635.3,376.22232142857143,373.12857142857143,736.8,423.22232142857143,469.12857142857143,838.8,498.22232142857143,557.1285714285714,949.3,520.2223214285714,556.1285714285714,1051.5,548.2223214285714,555.1285714285714,1161.2,548.2223214285714,554.1285714285714,1268.7,548.2223214285714,554.1285714285714,1368.9,548.2223214285714,554.1285714285714,1479.8,548.2223214285714,554.1285714285714,1582.1,548.2223214285714,554.1285714285714,1683.5,548.2223214285714,554.1285714285714,1788.7,548.2223214285714,554.1285714285714,1899.6,548.2223214285714,554.1285714285714,2001.9,548.2223214285714,554.1285714285714,2106.1,548.2223214285714,554.1285714285714,2207.2,548.2223214285714,554.1285714285714,2309.2,548.2223214285714,554.1285714285714,2417.4,548.2223214285714,554.1285714285714,2525.1,548.2223214285714,554.1285714285714,2628.8,548.2223214285714,554.1285714285714,2729,548.2223214285714,554.1285714285714,2829.5,548.2223214285714,554.1285714285714,2931,548.2223214285714,554.1285714285714,3036.4,548.2223214285714,554.1285714285714,3139.6,548.2223214285714,554.1285714285714,3242,548.2223214285714,554.1285714285714,3344.4,549.2223214285714,554.1285714285714,3447.5,549.2223214285714,554.1285714285714,3552.4,549.2223214285714,554.1285714285714,3664.7,549.2223214285714,554.1285714285714,3769.5,549.2223214285714,554.1285714285714,3873,549.2223214285714,554.1285714285714,3975.8,549.2223214285714,554.1285714285714,4078.5,549.2223214285714,554.1285714285714,4179,549.2223214285714,554.1285714285714,4279.9,549.2223214285714,554.1285714285714,4380,549.2223214285714,554.1285714285714,4480.1,549.2223214285714,554.1285714285714,4583.9,549.2223214285714,554.1285714285714,4688.6,549.2223214285714,554.1285714285714,4788.6,549.2223214285714,554.1285714285714,4893.5,549.2223214285714,554.1285714285714,4997.1]","[1309.5,1309.5,1000,0,309.5,""oops"",""right"",""right"",""good_move"",4587.2,3276,2931.2,1311.2,344.8,""smooth"",""right"",""right"",""good_move"",6868.3,2274.7,1912.9,4593.6,361.8,""smooth"",""right"",""right"",""good_move"",7014.5,144.4,2984.9,6870.2,-2840.5,""error"",""-"",""-"",""no_move"",11462.6,4446.5,2987.3,8032.9,442.4,""smooth"",""down"",""down"",""good_move"",14045.7,2581.7,2117.8,11464,463.9,""smooth"",""down"",""down"",""good_move"",18904.6,4854.5,2276.9,16221.6,406.1,""smooth"",""down"",""down"",""good_move""]","",""
"5122","","<div style=""width:500px;"">
  <p>What determined the result of this run?</p>
  </div>","100","html-slider-response","55","1935595","0.0-10.0-1.2","174","1","2025-07-09 09:12:24","7701e855f2ef39aa3fd6c71abdc6918a","105.1.83.172","Mozilla/5.0 (Windows NT 10.0; Win64; x64) AppleWebKit/537.36 (KHTML, like Gecko) Chrome/138.0.0.0 Safari/537.36","WebKit","Chrome","138.0.0.0","Windows","10.0","https://app.prolific.com/","en-US,en;q=0.9","67b89f64c09d83ec36fdd403","686d226cabeef709c732f8e1","686e313dfa6eb02757c40773","67b89f64c09d83ec36fdd403","2025-07-09T09:44:44.686Z","","","","","","AttribQ","","","","","","","","","","","","","","","","","","","","","","","","","","","","","","","","","","","","","","50"
"3602","","<div style=""width:500px;"">
  <p>How much control did you have over the ball?</p>
  </div>","100","html-slider-response","56","1939206","0.0-10.0-2.2","174","1","2025-07-09 09:12:24","7701e855f2ef39aa3fd6c71abdc6918a","105.1.83.172","Mozilla/5.0 (Windows NT 10.0; Win64; x64) AppleWebKit/537.36 (KHTML, like Gecko) Chrome/138.0.0.0 Safari/537.36","WebKit","Chrome","138.0.0.0","Windows","10.0","https://app.prolific.com/","en-US,en;q=0.9","67b89f64c09d83ec36fdd403","686d226cabeef709c732f8e1","686e313dfa6eb02757c40773","67b89f64c09d83ec36fdd403","2025-07-09T09:44:48.296Z","","","","","","ControlQ","","","","","","","","","","","","","","","","","","","","","","","","","","","","","","","","","","","","","","50"
"3748","","<div style=""width:500px;"">
  <p>How would you describe your current emotional state?</p>
  </div>","0","html-slider-response","57","1942957","0.0-10.0-3.2","174","1","2025-07-09 09:12:24","7701e855f2ef39aa3fd6c71abdc6918a","105.1.83.172","Mozilla/5.0 (Windows NT 10.0; Win64; x64) AppleWebKit/537.36 (KHTML, like Gecko) Chrome/138.0.0.0 Safari/537.36","WebKit","Chrome","138.0.0.0","Windows","10.0","https://app.prolific.com/","en-US,en;q=0.9","67b89f64c09d83ec36fdd403","686d226cabeef709c732f8e1","686e313dfa6eb02757c40773","67b89f64c09d83ec36fdd403","2025-07-09T09:44:52.048Z","","","","","","StressQ","","","","","","","","","","","","","","","","","","","","","","","","","","","","","","","","","","","","","","50"
"4132","","<div style=""width:500px;"">
  <p>What best describes how you currently feel?</p>
  </div>","99","html-slider-response","58","1947092","0.0-10.0-4.2","174","1","2025-07-09 09:12:24","7701e855f2ef39aa3fd6c71abdc6918a","105.1.83.172","Mozilla/5.0 (Windows NT 10.0; Win64; x64) AppleWebKit/537.36 (KHTML, like Gecko) Chrome/138.0.0.0 Safari/537.36","WebKit","Chrome","138.0.0.0","Windows","10.0","https://app.prolific.com/","en-US,en;q=0.9","67b89f64c09d83ec36fdd403","686d226cabeef709c732f8e1","686e313dfa6eb02757c40773","67b89f64c09d83ec36fdd403","2025-07-09T09:44:56.183Z","","","","","","MotivationQ","","","","","","","","","","","","","","","","","","","","","","","","","","","","","","","","","","","","","","50"
"","","","","ctl-task-cpt","59","2010703","0.0-10.0-0.3","174","1","2025-07-09 09:12:24","7701e855f2ef39aa3fd6c71abdc6918a","105.1.83.172","Mozilla/5.0 (Windows NT 10.0; Win64; x64) AppleWebKit/537.36 (KHTML, like Gecko) Chrome/138.0.0.0 Safari/537.36","WebKit","Chrome","138.0.0.0","Windows","10.0","https://app.prolific.com/","en-US,en;q=0.9","67b89f64c09d83ec36fdd403","686d226cabeef709c732f8e1","686e313dfa6eb02757c40773","67b89f64c09d83ec36fdd403","2025-07-09T09:45:59.793Z","","","","","","","","","","","","","","","","win-only","0","g1:NW,g2:SE","0.7","4","0","1951378.6","1219.4","6232.5","60592.1","1","4","4","6","2","-4","-6","10","16","0.07575757575757576","1713.9","3000","-1860","[""down"",""right""]","{""num_key_presses"":12,""num_perfect"":7,""num_errors"":2,""num_randdir"":3,""num_randdir_good_moves"":0,""num_whilered"":0,""num_whileblue"":1,""num_blue"":6,""num_good_moves"":8}","[293.22232142857143,290.12857142857143,0.1,293.22232142857143,290.12857142857143,111.1,293.22232142857143,290.12857142857143,213.5,293.22232142857143,290.12857142857143,318.1,293.22232142857143,290.12857142857143,420.6,294.22232142857143,292.12857142857143,532.1,294.22232142857143,294.12857142857143,635,296.22232142857143,331.12857142857143,742.5,319.22232142857143,388.12857142857143,855.4,349.22232142857143,422.12857142857143,958.9,550.2223214285714,645.1285714285714,1059.4,599.2223214285714,643.1285714285714,1172.2,611.2223214285714,632.1285714285714,1279,609.2223214285714,600.1285714285714,1379,587.2223214285714,583.1285714285714,1480.8,571.2223214285714,574.1285714285714,1583.3,569.2223214285714,573.1285714285714,1689.6,569.2223214285714,573.1285714285714,1796.1,569.2223214285714,573.1285714285714,1904.5,569.2223214285714,573.1285714285714,2009.6,569.2223214285714,573.1285714285714,2115.9,570.2223214285714,573.1285714285714,2225.8,570.2223214285714,573.1285714285714,2327.9,570.2223214285714,573.1285714285714,2428.2,570.2223214285714,573.1285714285714,2542.1,570.2223214285714,573.1285714285714,2647.6,570.2223214285714,573.1285714285714,2752.7,570.2223214285714,573.1285714285714,2857.5,570.2223214285714,573.1285714285714,2962.3,570.2223214285714,573.1285714285714,3071.5,566.2223214285714,573.1285714285714,3175,565.2223214285714,573.1285714285714,3276,564.2223214285714,573.1285714285714,3377.6,564.2223214285714,572.1285714285714,3481.3,564.2223214285714,572.1285714285714,3581.7,564.2223214285714,572.1285714285714,3682.3,564.2223214285714,572.1285714285714,3782.8,564.2223214285714,572.1285714285714,3890.2,564.2223214285714,572.1285714285714,3991.4,564.2223214285714,572.1285714285714,4093.8,564.2223214285714,572.1285714285714,4196.8,564.2223214285714,572.1285714285714,4297.6,564.2223214285714,572.1285714285714,4398.7,564.2223214285714,572.1285714285714,4505.3,564.2223214285714,572.1285714285714,4606.8,564.2223214285714,572.1285714285714,4709.4,564.2223214285714,572.1285714285714,4813,564.2223214285714,572.1285714285714,4924.1]","[11912.8,11912.8,2259.9,9215.8,437.1,""smooth"",""right"",""right"",""good_move"",19169.6,7252.8,2976.3,15796.9,396.4,""oops"",""right"",""left"",""bad_move"",23247.9,4075,2579.4,19172.9,1495.6,""smooth"",""right"",""right"",""good_move"",23490.8,117.1,3248.5,23373.7,-3131.4,""error"",""-"",""-"",""no_move"",27703.3,4210.7,2589.3,24495,619,""smooth"",""right"",""right"",""good_move"",31129.1,3419.9,3036.2,27709.3,383.6,""smooth"",""right"",""right"",""good_move"",38863.4,7725.9,3267.7,35167.2,428.5,""smooth"",""down"",""down"",""good_move"",41707.3,2837.7,2364.1,38869.6,473.6,""smooth"",""down"",""down"",""good_move"",44290,2580.8,2219,41709.3,361.7,""oops"",""down"",""left"",""bad_move"",47315.3,3022.3,2680.2,44293,342.1,""while_blue"",""right"",""right"",""good_move"",49644,2327.1,1994.8,47317,332.3,""oops"",""down"",""up"",""bad_move"",52313.6,2666.1,2314.8,49647.5,351.3,""smooth"",""down"",""down"",""good_move""]","",""
"6222","","<div style=""width:500px;"">
  <p>What determined the result of this run?</p>
  </div>","30","html-slider-response","60","2016929","0.0-10.0-1.3","174","1","2025-07-09 09:12:24","7701e855f2ef39aa3fd6c71abdc6918a","105.1.83.172","Mozilla/5.0 (Windows NT 10.0; Win64; x64) AppleWebKit/537.36 (KHTML, like Gecko) Chrome/138.0.0.0 Safari/537.36","WebKit","Chrome","138.0.0.0","Windows","10.0","https://app.prolific.com/","en-US,en;q=0.9","67b89f64c09d83ec36fdd403","686d226cabeef709c732f8e1","686e313dfa6eb02757c40773","67b89f64c09d83ec36fdd403","2025-07-09T09:46:06.019Z","","","","","","AttribQ","","","","","","","","","","","","","","","","","","","","","","","","","","","","","","","","","","","","","","50"
"9848","","<div style=""width:500px;"">
  <p>How much control did you have over the ball?</p>
  </div>","31","html-slider-response","61","2026780","0.0-10.0-2.3","174","1","2025-07-09 09:12:24","7701e855f2ef39aa3fd6c71abdc6918a","105.1.83.172","Mozilla/5.0 (Windows NT 10.0; Win64; x64) AppleWebKit/537.36 (KHTML, like Gecko) Chrome/138.0.0.0 Safari/537.36","WebKit","Chrome","138.0.0.0","Windows","10.0","https://app.prolific.com/","en-US,en;q=0.9","67b89f64c09d83ec36fdd403","686d226cabeef709c732f8e1","686e313dfa6eb02757c40773","67b89f64c09d83ec36fdd403","2025-07-09T09:46:15.870Z","","","","","","ControlQ","","","","","","","","","","","","","","","","","","","","","","","","","","","","","","","","","","","","","","50"
"6885","","<div style=""width:500px;"">
  <p>How would you describe your current emotional state?</p>
  </div>","0","html-slider-response","62","2033668","0.0-10.0-3.3","174","1","2025-07-09 09:12:24","7701e855f2ef39aa3fd6c71abdc6918a","105.1.83.172","Mozilla/5.0 (Windows NT 10.0; Win64; x64) AppleWebKit/537.36 (KHTML, like Gecko) Chrome/138.0.0.0 Safari/537.36","WebKit","Chrome","138.0.0.0","Windows","10.0","https://app.prolific.com/","en-US,en;q=0.9","67b89f64c09d83ec36fdd403","686d226cabeef709c732f8e1","686e313dfa6eb02757c40773","67b89f64c09d83ec36fdd403","2025-07-09T09:46:22.758Z","","","","","","StressQ","","","","","","","","","","","","","","","","","","","","","","","","","","","","","","","","","","","","","","50"
"5869","","<div style=""width:500px;"">
  <p>What best describes how you currently feel?</p>
  </div>","100","html-slider-response","63","2039540","0.0-10.0-4.3","174","1","2025-07-09 09:12:24","7701e855f2ef39aa3fd6c71abdc6918a","105.1.83.172","Mozilla/5.0 (Windows NT 10.0; Win64; x64) AppleWebKit/537.36 (KHTML, like Gecko) Chrome/138.0.0.0 Safari/537.36","WebKit","Chrome","138.0.0.0","Windows","10.0","https://app.prolific.com/","en-US,en;q=0.9","67b89f64c09d83ec36fdd403","686d226cabeef709c732f8e1","686e313dfa6eb02757c40773","67b89f64c09d83ec36fdd403","2025-07-09T09:46:28.631Z","","","","","","MotivationQ","","","","","","","","","","","","","","","","","","","","","","","","","","","","","","","","","","","","","","50"
"","","","","ctl-task-cpt","64","2093445","0.0-10.0-0.4","174","1","2025-07-09 09:12:24","7701e855f2ef39aa3fd6c71abdc6918a","105.1.83.172","Mozilla/5.0 (Windows NT 10.0; Win64; x64) AppleWebKit/537.36 (KHTML, like Gecko) Chrome/138.0.0.0 Safari/537.36","WebKit","Chrome","138.0.0.0","Windows","10.0","https://app.prolific.com/","en-US,en;q=0.9","67b89f64c09d83ec36fdd403","686d226cabeef709c732f8e1","686e313dfa6eb02757c40773","67b89f64c09d83ec36fdd403","2025-07-09T09:47:22.535Z","","","","","","","","","","","","","","","","win-only","1","g1:NE,g2:SW","0.6","5","0","2043829","1175.9","6191.3","50860.1","1","4","8","6","2","8","8","18","10","0.13636363636363635","1006.4","3000","1995","[""down"",""left""]","{""num_key_presses"":10,""num_perfect"":6,""num_errors"":0,""num_randdir"":4,""num_randdir_good_moves"":2,""num_whilered"":0,""num_whileblue"":0,""num_blue"":2,""num_good_moves"":8}","[291.22232142857143,295.12857142857143,6.8,291.22232142857143,295.12857142857143,100.7,291.22232142857143,295.12857142857143,202,291.22232142857143,295.12857142857143,309.3,291.22232142857143,298.12857142857143,421.1,317.22232142857143,334.12857142857143,531.4,221.22232142857143,395.12857142857143,634.8,96.22232142857143,521.1285714285714,741.4,80.22232142857143,538.1285714285714,852.9,60.222321428571426,541.1285714285714,956.2,57.222321428571426,540.1285714285714,1066.8,57.222321428571426,540.1285714285714,1169.6,57.222321428571426,540.1285714285714,1271.2,57.222321428571426,540.1285714285714,1379,57.222321428571426,540.1285714285714,1482.8,57.222321428571426,540.1285714285714,1587.3,57.222321428571426,540.1285714285714,1688.6,57.222321428571426,540.1285714285714,1796.1,57.222321428571426,540.1285714285714,1900.2,57.222321428571426,540.1285714285714,2010.8,57.222321428571426,540.1285714285714,2115.9,57.222321428571426,540.1285714285714,2216.9,57.222321428571426,540.1285714285714,2319.3,57.222321428571426,540.1285714285714,2422.4,57.222321428571426,540.1285714285714,2525,57.222321428571426,540.1285714285714,2630.6,57.222321428571426,540.1285714285714,2731,57.222321428571426,540.1285714285714,2832.2,57.222321428571426,540.1285714285714,2935.9,57.222321428571426,540.1285714285714,3041.9,57.222321428571426,540.1285714285714,3148.2,74.22232142857143,525.1285714285714,3251.7,189.22232142857143,441.12857142857143,3362.9,183.22232142857143,444.12857142857143,3467.2,115.22232142857143,490.12857142857143,3567.6,74.22232142857143,529.1285714285714,3672.3,60.222321428571426,538.1285714285714,3779.1,26.222321428571426,547.1285714285714,3884.8,25.222321428571426,547.1285714285714,3991.9,24.222321428571426,547.1285714285714,4096.5,24.222321428571426,547.1285714285714,4202.9,26.222321428571426,547.1285714285714,4304.6,27.222321428571426,546.1285714285714,4412.7,27.222321428571426,546.1285714285714,4522.1,27.222321428571426,546.1285714285714,4629.2,27.222321428571426,546.1285714285714,4730.4,27.222321428571426,546.1285714285714,4837,27.222321428571426,546.1285714285714,4942.6]","[1339.7,1339.7,1000,0,339.7,""oops"",""left"",""right"",""bad_move"",4765,3419.8,2972.3,1345.2,447.5,""oops"",""left"",""down"",""good_move"",11829.8,7061.8,2429,9000.4,400.5,""smooth"",""left"",""left"",""good_move"",15158.1,3324.8,2065.3,11833.3,1259.5,""smooth"",""left"",""left"",""good_move"",18847.8,3686.7,2964,15161.1,722.8,""smooth"",""left"",""left"",""good_move"",24358.2,5505.7,2054.9,18852.6,3450.7,""oops"",""left"",""up"",""bad_move"",33195.5,8831.6,2339.7,30274.3,581.5,""smooth"",""left"",""left"",""good_move"",38127,4923.8,2950.9,33203.2,1972.9,""smooth"",""down"",""down"",""good_move"",40990.6,2858.8,2177.6,38131.8,681.2,""oops"",""down"",""down"",""good_move"",44137.2,3141.8,2690.1,40995.4,451.7,""smooth"",""down"",""down"",""good_move""]","",""
"5507","","<div style=""width:500px;"">
  <p>What determined the result of this run?</p>
  </div>","100","html-slider-response","65","2098957","0.0-10.0-1.4","174","1","2025-07-09 09:12:24","7701e855f2ef39aa3fd6c71abdc6918a","105.1.83.172","Mozilla/5.0 (Windows NT 10.0; Win64; x64) AppleWebKit/537.36 (KHTML, like Gecko) Chrome/138.0.0.0 Safari/537.36","WebKit","Chrome","138.0.0.0","Windows","10.0","https://app.prolific.com/","en-US,en;q=0.9","67b89f64c09d83ec36fdd403","686d226cabeef709c732f8e1","686e313dfa6eb02757c40773","67b89f64c09d83ec36fdd403","2025-07-09T09:47:28.047Z","","","","","","AttribQ","","","","","","","","","","","","","","","","","","","","","","","","","","","","","","","","","","","","","","50"
"3307","","<div style=""width:500px;"">
  <p>How much control did you have over the ball?</p>
  </div>","100","html-slider-response","66","2102272","0.0-10.0-2.4","174","1","2025-07-09 09:12:24","7701e855f2ef39aa3fd6c71abdc6918a","105.1.83.172","Mozilla/5.0 (Windows NT 10.0; Win64; x64) AppleWebKit/537.36 (KHTML, like Gecko) Chrome/138.0.0.0 Safari/537.36","WebKit","Chrome","138.0.0.0","Windows","10.0","https://app.prolific.com/","en-US,en;q=0.9","67b89f64c09d83ec36fdd403","686d226cabeef709c732f8e1","686e313dfa6eb02757c40773","67b89f64c09d83ec36fdd403","2025-07-09T09:47:31.362Z","","","","","","ControlQ","","","","","","","","","","","","","","","","","","","","","","","","","","","","","","","","","","","","","","50"
"4667","","<div style=""width:500px;"">
  <p>How would you describe your current emotional state?</p>
  </div>","0","html-slider-response","67","2106948","0.0-10.0-3.4","174","1","2025-07-09 09:12:24","7701e855f2ef39aa3fd6c71abdc6918a","105.1.83.172","Mozilla/5.0 (Windows NT 10.0; Win64; x64) AppleWebKit/537.36 (KHTML, like Gecko) Chrome/138.0.0.0 Safari/537.36","WebKit","Chrome","138.0.0.0","Windows","10.0","https://app.prolific.com/","en-US,en;q=0.9","67b89f64c09d83ec36fdd403","686d226cabeef709c732f8e1","686e313dfa6eb02757c40773","67b89f64c09d83ec36fdd403","2025-07-09T09:47:36.041Z","","","","","","StressQ","","","","","","","","","","","","","","","","","","","","","","","","","","","","","","","","","","","","","","50"
"4450","","<div style=""width:500px;"">
  <p>What best describes how you currently feel?</p>
  </div>","100","html-slider-response","68","2111409","0.0-10.0-4.4","174","1","2025-07-09 09:12:24","7701e855f2ef39aa3fd6c71abdc6918a","105.1.83.172","Mozilla/5.0 (Windows NT 10.0; Win64; x64) AppleWebKit/537.36 (KHTML, like Gecko) Chrome/138.0.0.0 Safari/537.36","WebKit","Chrome","138.0.0.0","Windows","10.0","https://app.prolific.com/","en-US,en;q=0.9","67b89f64c09d83ec36fdd403","686d226cabeef709c732f8e1","686e313dfa6eb02757c40773","67b89f64c09d83ec36fdd403","2025-07-09T09:47:40.500Z","","","","","","MotivationQ","","","","","","","","","","","","","","","","","","","","","","","","","","","","","","","","","","","","","","50"
"","","","","ctl-task-cpt","69","2190226","0.0-10.0-0.5","174","1","2025-07-09 09:12:24","7701e855f2ef39aa3fd6c71abdc6918a","105.1.83.172","Mozilla/5.0 (Windows NT 10.0; Win64; x64) AppleWebKit/537.36 (KHTML, like Gecko) Chrome/138.0.0.0 Safari/537.36","WebKit","Chrome","138.0.0.0","Windows","10.0","https://app.prolific.com/","en-US,en;q=0.9","67b89f64c09d83ec36fdd403","686d226cabeef709c732f8e1","686e313dfa6eb02757c40773","67b89f64c09d83ec36fdd403","2025-07-09T09:48:59.316Z","","","","","","","","","","","","","","","","win-only","3","g1:SW,g2:NE","0.5","6","0","2115705","1862.8","6876.7","75788.3","1","4","4","6","2","4","4","22","18","0.16666666666666666","1940.3","3000","1385","[""up"",""right""]","{""num_key_presses"":16,""num_perfect"":8,""num_errors"":0,""num_randdir"":8,""num_randdir_good_moves"":3,""num_whilered"":0,""num_whileblue"":0,""num_blue"":0,""num_good_moves"":11}","[295.22232142857143,291.12857142857143,0.6,295.22232142857143,291.12857142857143,103.7,295.22232142857143,291.12857142857143,206.9,295.22232142857143,291.12857142857143,346.9,295.22232142857143,291.12857142857143,488,290.22232142857143,306.12857142857143,593.4,286.22232142857143,321.12857142857143,695.5,280.22232142857143,332.12857142857143,842.3,722.2223214285714,-62.871428571428574,994.1,722.2223214285714,-62.871428571428574,1104.9,722.2223214285714,-62.871428571428574,1249.7,775.2223214285714,-76.87142857142857,1372.8,674.2223214285714,-26.871428571428574,1476.3,657.2223214285714,-11.871428571428574,1584.5,637.2223214285714,18.128571428571426,1692.3,595.2223214285714,47.128571428571426,1797.6,588.2223214285714,42.128571428571426,1898.8,587.2223214285714,40.128571428571426,1999.6,587.2223214285714,40.128571428571426,2147.4,587.2223214285714,40.128571428571426,2291.1,588.2223214285714,40.128571428571426,2432.8,588.2223214285714,43.128571428571426,2570.9,587.2223214285714,45.128571428571426,2707.3,585.2223214285714,45.128571428571426,2853.5,585.2223214285714,45.128571428571426,2987.4,585.2223214285714,45.128571428571426,3093.1,585.2223214285714,45.128571428571426,3242.7,585.2223214285714,45.128571428571426,3380.3,585.2223214285714,45.128571428571426,3518.6,580.2223214285714,48.128571428571426,3620.6,565.2223214285714,54.128571428571426,3769.3,565.2223214285714,54.128571428571426,3907.9,564.2223214285714,54.128571428571426,4051.3,563.2223214285714,54.128571428571426,4154.9,563.2223214285714,54.128571428571426,4300.7,563.2223214285714,54.128571428571426,4409.5,563.2223214285714,54.128571428571426,4539.2,564.2223214285714,54.128571428571426,4639.2,566.2223214285714,52.128571428571426,4784.3,566.2223214285714,52.128571428571426,4919.9]","[1568.5,1568.5,1000,0,568.5,""oops"",""right"",""left"",""bad_move"",10420.4,8848.9,1950.1,1571.5,6898.8,""smooth"",""right"",""right"",""good_move"",14285.3,3862.6,2126.2,10422.8,1736.4,""oops"",""right"",""left"",""bad_move"",23242.9,8953.1,2262.8,14289.8,6690.3,""smooth"",""right"",""right"",""good_move"",26379.8,3134.3,2436.3,23245.5,698,""smooth"",""right"",""right"",""good_move"",29394.7,3010.1,2378.7,26384.7,631.3,""oops"",""right"",""up"",""good_move"",37058.9,7659.7,2551.9,29399.2,5107.8,""smooth"",""right"",""right"",""good_move"",40289.6,3228.5,2782.1,37061.2,446.3,""smooth"",""right"",""right"",""good_move"",43248.6,2955.4,2521.8,40293.3,433.5,""oops"",""up"",""up"",""good_move"",46891.1,3640.7,2690.1,43250.4,950.6,""oops"",""up"",""down"",""bad_move"",49611.3,2714.5,2372.6,46896.8,341.9,""oops"",""up"",""left"",""bad_move"",54770.4,5156.6,3422.8,49614.3,1733.8,""smooth"",""up"",""up"",""good_move"",59955.1,5180.8,2632.4,54774.3,2548.4,""smooth"",""up"",""up"",""good_move"",62463.3,2503.5,2062.2,59959.8,441.3,""oops"",""right"",""left"",""bad_move"",65550.1,3077.3,2769.7,62472.8,307.6,""smooth"",""right"",""right"",""good_move"",68659.9,3107,2750,65552.9,357,""oops"",""right"",""right"",""good_move""]","",""
"3401","","<div style=""width:500px;"">
  <p>What determined the result of this run?</p>
  </div>","100","html-slider-response","70","2193632","0.0-10.0-1.5","174","1","2025-07-09 09:12:24","7701e855f2ef39aa3fd6c71abdc6918a","105.1.83.172","Mozilla/5.0 (Windows NT 10.0; Win64; x64) AppleWebKit/537.36 (KHTML, like Gecko) Chrome/138.0.0.0 Safari/537.36","WebKit","Chrome","138.0.0.0","Windows","10.0","https://app.prolific.com/","en-US,en;q=0.9","67b89f64c09d83ec36fdd403","686d226cabeef709c732f8e1","686e313dfa6eb02757c40773","67b89f64c09d83ec36fdd403","2025-07-09T09:49:02.723Z","","","","","","AttribQ","","","","","","","","","","","","","","","","","","","","","","","","","","","","","","","","","","","","","","50"
"6955","","<div style=""width:500px;"">
  <p>How much control did you have over the ball?</p>
  </div>","83","html-slider-response","71","2200591","0.0-10.0-2.5","174","1","2025-07-09 09:12:24","7701e855f2ef39aa3fd6c71abdc6918a","105.1.83.172","Mozilla/5.0 (Windows NT 10.0; Win64; x64) AppleWebKit/537.36 (KHTML, like Gecko) Chrome/138.0.0.0 Safari/537.36","WebKit","Chrome","138.0.0.0","Windows","10.0","https://app.prolific.com/","en-US,en;q=0.9","67b89f64c09d83ec36fdd403","686d226cabeef709c732f8e1","686e313dfa6eb02757c40773","67b89f64c09d83ec36fdd403","2025-07-09T09:49:09.682Z","","","","","","ControlQ","","","","","","","","","","","","","","","","","","","","","","","","","","","","","","","","","","","","","","50"
"3376","","<div style=""width:500px;"">
  <p>How would you describe your current emotional state?</p>
  </div>","0","html-slider-response","72","2203973","0.0-10.0-3.5","174","1","2025-07-09 09:12:24","7701e855f2ef39aa3fd6c71abdc6918a","105.1.83.172","Mozilla/5.0 (Windows NT 10.0; Win64; x64) AppleWebKit/537.36 (KHTML, like Gecko) Chrome/138.0.0.0 Safari/537.36","WebKit","Chrome","138.0.0.0","Windows","10.0","https://app.prolific.com/","en-US,en;q=0.9","67b89f64c09d83ec36fdd403","686d226cabeef709c732f8e1","686e313dfa6eb02757c40773","67b89f64c09d83ec36fdd403","2025-07-09T09:49:13.063Z","","","","","","StressQ","","","","","","","","","","","","","","","","","","","","","","","","","","","","","","","","","","","","","","50"
"4799","","<div style=""width:500px;"">
  <p>What best describes how you currently feel?</p>
  </div>","100","html-slider-response","73","2208781","0.0-10.0-4.5","174","1","2025-07-09 09:12:24","7701e855f2ef39aa3fd6c71abdc6918a","105.1.83.172","Mozilla/5.0 (Windows NT 10.0; Win64; x64) AppleWebKit/537.36 (KHTML, like Gecko) Chrome/138.0.0.0 Safari/537.36","WebKit","Chrome","138.0.0.0","Windows","10.0","https://app.prolific.com/","en-US,en;q=0.9","67b89f64c09d83ec36fdd403","686d226cabeef709c732f8e1","686e313dfa6eb02757c40773","67b89f64c09d83ec36fdd403","2025-07-09T09:49:17.871Z","","","","","","MotivationQ","","","","","","","","","","","","","","","","","","","","","","","","","","","","","","","","","","","","","","50"
"","","","","ctl-task-cpt","74","2320806","0.0-10.0-0.6","174","1","2025-07-09 09:12:24","7701e855f2ef39aa3fd6c71abdc6918a","105.1.83.172","Mozilla/5.0 (Windows NT 10.0; Win64; x64) AppleWebKit/537.36 (KHTML, like Gecko) Chrome/138.0.0.0 Safari/537.36","WebKit","Chrome","138.0.0.0","Windows","10.0","https://app.prolific.com/","en-US,en;q=0.9","67b89f64c09d83ec36fdd403","686d226cabeef709c732f8e1","686e313dfa6eb02757c40773","67b89f64c09d83ec36fdd403","2025-07-09T09:51:09.896Z","","","","","","","","","","","","","","","","win-only","1","g1:NE,g2:SW","0.4","7","0","2213067","1278.5","6282.4","108992.8","1","4","8","6","2","-8","-10","12","22","0.09090909090909091","2124.1","3000","-1455","[""down"",""left""]","{""num_key_presses"":24,""num_perfect"":8,""num_errors"":2,""num_randdir"":14,""num_randdir_good_moves"":5,""num_whilered"":0,""num_whileblue"":1,""num_blue"":5,""num_good_moves"":13}","[296.22232142857143,303.12857142857143,1,296.22232142857143,303.12857142857143,107.7,296.22232142857143,303.12857142857143,210.2,296.22232142857143,303.12857142857143,319.2,296.22232142857143,304.12857142857143,424.4,308.22232142857143,320.12857142857143,530.3,310.22232142857143,324.12857142857143,636.2,311.22232142857143,325.12857142857143,740,335.22232142857143,281.12857142857143,845.4,336.22232142857143,281.12857142857143,955.7,309.22232142857143,288.12857142857143,1058.9,55.222321428571426,529.1285714285714,1169.2,41.222321428571426,557.1285714285714,1270.6,30.222321428571426,566.1285714285714,1372.4,-9.777678571428574,570.1285714285714,1486.8,-9.777678571428574,570.1285714285714,1593.5,-9.777678571428574,570.1285714285714,1713,-9.777678571428574,570.1285714285714,1818.5,-9.777678571428574,570.1285714285714,1931.8,20.222321428571426,560.1285714285714,2051.3,38.222321428571426,553.1285714285714,2159.3,38.222321428571426,553.1285714285714,2270.5,38.222321428571426,553.1285714285714,2375.2,38.222321428571426,553.1285714285714,2489.8,38.222321428571426,553.1285714285714,2601.5,38.222321428571426,553.1285714285714,2709.3,38.222321428571426,553.1285714285714,2818.7,38.222321428571426,553.1285714285714,2932.8,39.222321428571426,551.1285714285714,3034.9,40.222321428571426,551.1285714285714,3143.2,40.222321428571426,551.1285714285714,3246.2,40.222321428571426,551.1285714285714,3363.5,40.222321428571426,551.1285714285714,3474.8,40.222321428571426,551.1285714285714,3590.1,40.222321428571426,551.1285714285714,3696.2,40.222321428571426,551.1285714285714,3803.8,40.222321428571426,551.1285714285714,3915.2,40.222321428571426,551.1285714285714,4016.4,40.222321428571426,551.1285714285714,4121.6,40.222321428571426,551.1285714285714,4225.1,40.222321428571426,551.1285714285714,4331.4,40.222321428571426,551.1285714285714,4433.1,40.222321428571426,551.1285714285714,4536,40.222321428571426,551.1285714285714,4638.9,40.222321428571426,551.1285714285714,4747.9,40.222321428571426,551.1285714285714,4850.2,40.222321428571426,551.1285714285714,4952.7]","[1520.5,1520.5,1000,0,520.5,""smooth"",""left"",""left"",""good_move"",4745.8,3217.9,2124,1527.9,1093.9,""smooth"",""left"",""left"",""good_move"",8479,3730.6,2440.3,4748.4,1290.3,""oops"",""left"",""up"",""bad_move"",12594.7,4110.5,3103.4,8484.2,1007.1,""oops"",""left"",""up"",""bad_move"",18124.9,5526.3,2585,12598.6,2941.3,""smooth"",""left"",""left"",""good_move"",23927.6,5801,2433.2,18126.7,3367.7,""smooth"",""down"",""down"",""good_move"",26972.4,3035.9,2227.9,23936.5,808,""oops"",""down"",""down"",""good_move"",37693.4,10716.4,2894.3,34293.9,505.2,""oops"",""down"",""down"",""good_move"",40752.1,3031.1,2431.1,37721,600,""oops"",""down"",""down"",""good_move"",46183.4,5428.4,1677.5,44016.7,489.2,""oops"",""down"",""right"",""bad_move"",52842,6656.3,2730,49496.8,615.2,""oops"",""left"",""right"",""bad_move"",55779.8,2932.2,2042.2,52847.6,890,""oops"",""left"",""right"",""bad_move"",58459.1,2675.6,1961,55783.5,714.6,""oops"",""left"",""up"",""bad_move"",67763,9295.9,8901.3,58467.1,394.6,""while_blue"",""down"",""right"",""bad_move"",70643.5,2879.3,1976.1,67764.2,903.2,""oops"",""down"",""down"",""good_move"",73847.6,3203.1,2080,70644.5,1123.1,""oops"",""down"",""up"",""bad_move"",80052.1,6197,2873.6,73855.2,3323.3,""smooth"",""down"",""down"",""good_move"",81129.2,1075.7,2252.4,80053.5,-1176.7,""error"",""-"",""-"",""no_move"",85274.7,4143,2651.4,82134.4,488.9,""smooth"",""down"",""down"",""good_move"",88481.9,3205.4,2745.3,85276.6,460.1,""smooth"",""left"",""left"",""good_move"",91266.8,2776.6,2281.2,88490.3,495.4,""oops"",""left"",""up"",""bad_move"",94115.1,2842,2418.8,91273.1,423.2,""smooth"",""left"",""left"",""good_move"",96690.5,2567.6,2090.9,94122.9,476.7,""oops"",""left"",""down"",""good_move"",99647.2,2952.4,2527.2,96694.9,425.2,""oops"",""left"",""up"",""bad_move""]","",""
"6479","","<div style=""width:500px;"">
  <p>What determined the result of this run?</p>
  </div>","7","html-slider-response","75","2327289","0.0-10.0-1.6","174","1","2025-07-09 09:12:24","7701e855f2ef39aa3fd6c71abdc6918a","105.1.83.172","Mozilla/5.0 (Windows NT 10.0; Win64; x64) AppleWebKit/537.36 (KHTML, like Gecko) Chrome/138.0.0.0 Safari/537.36","WebKit","Chrome","138.0.0.0","Windows","10.0","https://app.prolific.com/","en-US,en;q=0.9","67b89f64c09d83ec36fdd403","686d226cabeef709c732f8e1","686e313dfa6eb02757c40773","67b89f64c09d83ec36fdd403","2025-07-09T09:51:16.380Z","","","","","","AttribQ","","","","","","","","","","","","","","","","","","","","","","","","","","","","","","","","","","","","","","50"
"3968","","<div style=""width:500px;"">
  <p>How much control did you have over the ball?</p>
  </div>","5","html-slider-response","76","2331263","0.0-10.0-2.6","174","1","2025-07-09 09:12:24","7701e855f2ef39aa3fd6c71abdc6918a","105.1.83.172","Mozilla/5.0 (Windows NT 10.0; Win64; x64) AppleWebKit/537.36 (KHTML, like Gecko) Chrome/138.0.0.0 Safari/537.36","WebKit","Chrome","138.0.0.0","Windows","10.0","https://app.prolific.com/","en-US,en;q=0.9","67b89f64c09d83ec36fdd403","686d226cabeef709c732f8e1","686e313dfa6eb02757c40773","67b89f64c09d83ec36fdd403","2025-07-09T09:51:20.353Z","","","","","","ControlQ","","","","","","","","","","","","","","","","","","","","","","","","","","","","","","","","","","","","","","50"
"4385","","<div style=""width:500px;"">
  <p>How would you describe your current emotional state?</p>
  </div>","68","html-slider-response","77","2335657","0.0-10.0-3.6","174","1","2025-07-09 09:12:24","7701e855f2ef39aa3fd6c71abdc6918a","105.1.83.172","Mozilla/5.0 (Windows NT 10.0; Win64; x64) AppleWebKit/537.36 (KHTML, like Gecko) Chrome/138.0.0.0 Safari/537.36","WebKit","Chrome","138.0.0.0","Windows","10.0","https://app.prolific.com/","en-US,en;q=0.9","67b89f64c09d83ec36fdd403","686d226cabeef709c732f8e1","686e313dfa6eb02757c40773","67b89f64c09d83ec36fdd403","2025-07-09T09:51:24.747Z","","","","","","StressQ","","","","","","","","","","","","","","","","","","","","","","","","","","","","","","","","","","","","","","50"
"4237","","<div style=""width:500px;"">
  <p>What best describes how you currently feel?</p>
  </div>","80","html-slider-response","78","2339902","0.0-10.0-4.6","174","1","2025-07-09 09:12:24","7701e855f2ef39aa3fd6c71abdc6918a","105.1.83.172","Mozilla/5.0 (Windows NT 10.0; Win64; x64) AppleWebKit/537.36 (KHTML, like Gecko) Chrome/138.0.0.0 Safari/537.36","WebKit","Chrome","138.0.0.0","Windows","10.0","https://app.prolific.com/","en-US,en;q=0.9","67b89f64c09d83ec36fdd403","686d226cabeef709c732f8e1","686e313dfa6eb02757c40773","67b89f64c09d83ec36fdd403","2025-07-09T09:51:28.993Z","","","","","","MotivationQ","","","","","","","","","","","","","","","","","","","","","","","","","","","","","","","","","","","","","","50"
"","","","","ctl-task-cpt","79","2452993","0.0-10.0-0.7","174","1","2025-07-09 09:12:24","7701e855f2ef39aa3fd6c71abdc6918a","105.1.83.172","Mozilla/5.0 (Windows NT 10.0; Win64; x64) AppleWebKit/537.36 (KHTML, like Gecko) Chrome/138.0.0.0 Safari/537.36","WebKit","Chrome","138.0.0.0","Windows","10.0","https://app.prolific.com/","en-US,en;q=0.9","67b89f64c09d83ec36fdd403","686d226cabeef709c732f8e1","686e313dfa6eb02757c40773","67b89f64c09d83ec36fdd403","2025-07-09T09:53:22.083Z","","","","","","","","","","","","","","","","win-only","1","g1:NE,g2:SW","0.3","8","0","2344193","1698","6725.9","110054","1","4","4","6","2","4","2","14","12","0.10606060606060606","1334.8","3000","860","[""down"",""left""]","{""num_key_presses"":23,""num_perfect"":6,""num_errors"":2,""num_randdir"":15,""num_randdir_good_moves"":7,""num_whilered"":0,""num_whileblue"":1,""num_blue"":6,""num_good_moves"":14}","[295.22232142857143,299.12857142857143,5.9,295.22232142857143,299.12857142857143,109.9,295.22232142857143,299.12857142857143,229,295.22232142857143,299.12857142857143,331.2,295.22232142857143,299.12857142857143,443.6,295.22232142857143,299.12857142857143,546.6,295.22232142857143,299.12857142857143,647.8,295.22232142857143,299.12857142857143,756.4,293.22232142857143,302.12857142857143,873.7,177.22232142857143,439.12857142857143,1001.8,81.22232142857143,524.1285714285714,1132.9,73.22232142857143,528.1285714285714,1249.5,72.22232142857143,527.1285714285714,1369.7,72.22232142857143,527.1285714285714,1479.5,72.22232142857143,527.1285714285714,1598.8,72.22232142857143,527.1285714285714,1704.3,72.22232142857143,527.1285714285714,1808.5,72.22232142857143,527.1285714285714,1910.3,72.22232142857143,527.1285714285714,2023.2,72.22232142857143,527.1285714285714,2131.5,72.22232142857143,527.1285714285714,2240.9,72.22232142857143,527.1285714285714,2349.4,72.22232142857143,527.1285714285714,2459.8,72.22232142857143,527.1285714285714,2562.7,72.22232142857143,527.1285714285714,2672.6,72.22232142857143,527.1285714285714,2777.8,72.22232142857143,527.1285714285714,2887.6,72.22232142857143,527.1285714285714,3000,72.22232142857143,527.1285714285714,3130,72.22232142857143,527.1285714285714,3239.9,72.22232142857143,525.1285714285714,3356.8,72.22232142857143,517.1285714285714,3475,72.22232142857143,515.1285714285714,3588.6,76.22232142857143,512.1285714285714,3696.5,77.22232142857143,511.12857142857143,3811.9,77.22232142857143,511.12857142857143,3926.7,78.22232142857143,511.12857142857143,4033,78.22232142857143,511.12857142857143,4159.9,78.22232142857143,511.12857142857143,4275.3,78.22232142857143,511.12857142857143,4386.6,78.22232142857143,511.12857142857143,4509.5,78.22232142857143,511.12857142857143,4623.2,78.22232142857143,511.12857142857143,4730.7,78.22232142857143,511.12857142857143,4843.5,78.22232142857143,511.12857142857143,4953.3]","[587.5,587.5,1000,0,-412.5,""error"",""-"",""-"",""no_move"",8107.6,7514.4,3049.7,4552.9,505,""smooth"",""left"",""left"",""good_move"",15267.2,7154.4,2485.3,8112.8,4669.1,""oops"",""left"",""right"",""bad_move"",19127,3854.3,3092.2,15272.7,762.1,""oops"",""left"",""right"",""bad_move"",22878.7,3746.5,2879.5,19132.2,867,""oops"",""down"",""down"",""good_move"",30185.8,7301.9,2884.8,26627,674,""oops"",""down"",""right"",""bad_move"",33468.4,3279.7,2613.6,30188.8,666,""smooth"",""down"",""down"",""good_move"",40352.3,6877.4,2894.5,36994.3,463.5,""smooth"",""down"",""down"",""good_move"",43551.1,3195.8,2803.2,40355.4,392.5,""oops"",""left"",""up"",""bad_move"",46934.5,3379.3,2972.2,43555.2,407.1,""oops"",""left"",""down"",""good_move"",49992.2,3054.1,2510.5,46938.3,543.5,""oops"",""left"",""left"",""good_move"",61304.4,11304.6,2759.4,57875.8,669.2,""oops"",""left"",""left"",""good_move"",67801.7,6495,2271.4,61306.7,4223.6,""smooth"",""left"",""left"",""good_move"",71013.6,3207.3,2683.7,67806.4,523.5,""smooth"",""left"",""left"",""good_move"",74010.7,2994.4,2609.4,71016.4,384.9,""oops"",""left"",""up"",""bad_move"",77547.1,3532,2742,74015.1,790,""oops"",""left"",""down"",""good_move"",80688,3135.5,2682.5,77552.5,453,""oops"",""left"",""up"",""bad_move"",85241.3,4546.3,4157.3,80695,389,""while_blue"",""left"",""down"",""good_move"",88018.8,2775.2,2210.5,85243.6,564.7,""oops"",""left"",""right"",""bad_move"",91117.3,3093,2153.5,88024.4,939.4,""oops"",""left"",""left"",""good_move"",95708.3,4583.9,2258.6,91124.4,2325.3,""oops"",""left"",""right"",""bad_move"",99158.2,3444.7,2893.2,95713.5,551.5,""smooth"",""left"",""left"",""good_move"",103146.5,3984.9,2224.9,99161.6,1760,""oops"",""left"",""left"",""good_move""]","",""
"4061","","<div style=""width:500px;"">
  <p>What determined the result of this run?</p>
  </div>","0","html-slider-response","80","2457058","0.0-10.0-1.7","174","1","2025-07-09 09:12:24","7701e855f2ef39aa3fd6c71abdc6918a","105.1.83.172","Mozilla/5.0 (Windows NT 10.0; Win64; x64) AppleWebKit/537.36 (KHTML, like Gecko) Chrome/138.0.0.0 Safari/537.36","WebKit","Chrome","138.0.0.0","Windows","10.0","https://app.prolific.com/","en-US,en;q=0.9","67b89f64c09d83ec36fdd403","686d226cabeef709c732f8e1","686e313dfa6eb02757c40773","67b89f64c09d83ec36fdd403","2025-07-09T09:53:26.149Z","","","","","","AttribQ","","","","","","","","","","","","","","","","","","","","","","","","","","","","","","","","","","","","","","50"
"5147","","<div style=""width:500px;"">
  <p>How much control did you have over the ball?</p>
  </div>","16","html-slider-response","81","2462212","0.0-10.0-2.7","174","1","2025-07-09 09:12:24","7701e855f2ef39aa3fd6c71abdc6918a","105.1.83.172","Mozilla/5.0 (Windows NT 10.0; Win64; x64) AppleWebKit/537.36 (KHTML, like Gecko) Chrome/138.0.0.0 Safari/537.36","WebKit","Chrome","138.0.0.0","Windows","10.0","https://app.prolific.com/","en-US,en;q=0.9","67b89f64c09d83ec36fdd403","686d226cabeef709c732f8e1","686e313dfa6eb02757c40773","67b89f64c09d83ec36fdd403","2025-07-09T09:53:31.303Z","","","","","","ControlQ","","","","","","","","","","","","","","","","","","","","","","","","","","","","","","","","","","","","","","50"
"3819","","<div style=""width:500px;"">
  <p>How would you describe your current emotional state?</p>
  </div>","61","html-slider-response","82","2466041","0.0-10.0-3.7","174","1","2025-07-09 09:12:24","7701e855f2ef39aa3fd6c71abdc6918a","105.1.83.172","Mozilla/5.0 (Windows NT 10.0; Win64; x64) AppleWebKit/537.36 (KHTML, like Gecko) Chrome/138.0.0.0 Safari/537.36","WebKit","Chrome","138.0.0.0","Windows","10.0","https://app.prolific.com/","en-US,en;q=0.9","67b89f64c09d83ec36fdd403","686d226cabeef709c732f8e1","686e313dfa6eb02757c40773","67b89f64c09d83ec36fdd403","2025-07-09T09:53:35.132Z","","","","","","StressQ","","","","","","","","","","","","","","","","","","","","","","","","","","","","","","","","","","","","","","50"
"6108","","<div style=""width:500px;"">
  <p>What best describes how you currently feel?</p>
  </div>","98","html-slider-response","83","2472153","0.0-10.0-4.7","174","1","2025-07-09 09:12:24","7701e855f2ef39aa3fd6c71abdc6918a","105.1.83.172","Mozilla/5.0 (Windows NT 10.0; Win64; x64) AppleWebKit/537.36 (KHTML, like Gecko) Chrome/138.0.0.0 Safari/537.36","WebKit","Chrome","138.0.0.0","Windows","10.0","https://app.prolific.com/","en-US,en;q=0.9","67b89f64c09d83ec36fdd403","686d226cabeef709c732f8e1","686e313dfa6eb02757c40773","67b89f64c09d83ec36fdd403","2025-07-09T09:53:41.243Z","","","","","","MotivationQ","","","","","","","","","","","","","","","","","","","","","","","","","","","","","","","","","","","","","","50"
