"rt","response_timestamp","stimulus","response","trial_type","trial_index","time_elapsed","internal_node_id","run_id","condition","recorded_at","source_code_version","ip","user_agent","device","browser","browser_version","platform","platform_version","referer","accept_language","PROLIFIC_PID","STUDY_ID","SESSION_ID","prolific_id","realtime","view_history","question_order","consent","success","question_id","eventType","responses","item_order","radio_event_ids","radio_event_times","key_event_times","mouse_event_times","straightlining","zigzagging","honeypot","which_type","canvas_config","goals_layout","control_level","trial_number","tutorial_trial_number","trial_start_time","phase1_start_time","phase2_start_time","phase3_start_time","goal_1_value","goal_1_distance","goal_2_value","goal_2_distance","goal_selected","outcome","outcome_total","participant_final_score","participant_initial_score","participant_final_score_prop","goal_choice_rt","allocated_time","allocated_time_remaining","goal_direction","counts","mouse_movements","key_presses","correct","slider_start","sub_question"
"72572","1752060912723","<p style='font-size:40px;line-height:1.25'><strong>Welcome to the experiment!</strong></p><p style='font-size:1.1em;line-height:1.25'>Thank you for your interest in our experiment! Before you begin, it is important that we obtain your informed consent to participate in the study.</p><p style='font-size:1.1em;line-height:1.25'>On the next screen will be an <strong>information sheet</strong> for you to read. To participate in the study we need you to read this information sheet and the following consent form carefully. If you agree with all the statements, please click the <strong>I agree</strong> button.</p><p style='font-size:1.1em;line-height:1.25'>Press <strong>Next</strong> to read the information sheet.</p>","0","custom-html-button-response","0","72577","0.0-0.0","284","1","2025-07-09 11:33:56","7701e855f2ef39aa3fd6c71abdc6918a","197.185.215.47","Mozilla/5.0 (Windows NT 10.0; Win64; x64) AppleWebKit/537.36 (KHTML, like Gecko) Chrome/138.0.0.0 Safari/537.36","WebKit","Chrome","138.0.0.0","Windows","10.0","https://app.prolific.com/","en-US,en;q=0.9","67d846e847a41d29a7f6fcb3","686d226cabeef709c732f8e1","686e52e371facb5c58915aa2","67d846e847a41d29a7f6fcb3","2025-07-09T11:35:12.726Z","","","","","","","","","","","","","","","","","","","","","","","","","","","","","","","","","","","","","","","","","","","","",""
"68863","","","","instructions","1","141444","0.0-1.0","284","1","2025-07-09 11:33:56","7701e855f2ef39aa3fd6c71abdc6918a","197.185.215.47","Mozilla/5.0 (Windows NT 10.0; Win64; x64) AppleWebKit/537.36 (KHTML, like Gecko) Chrome/138.0.0.0 Safari/537.36","WebKit","Chrome","138.0.0.0","Windows","10.0","https://app.prolific.com/","en-US,en;q=0.9","67d846e847a41d29a7f6fcb3","686d226cabeef709c732f8e1","686e52e371facb5c58915aa2","67d846e847a41d29a7f6fcb3","","[{""page_index"":0,""viewing_time"":63311},{""page_index"":1,""viewing_time"":5550}]","","","","","","","","","","","","","","","","","","","","","","","","","","","","","","","","","","","","","","","","","","","",""
"35545","","","{""Q0"":"""",""Q1"":"""",""Q2"":"""",""Q3"":"""",""Q4"":"""",""Q5"":"""",""Q6"":""I agree""}","survey-multi-choice","2","177001","0.0-2.0","284","1","2025-07-09 11:33:56","7701e855f2ef39aa3fd6c71abdc6918a","197.185.215.47","Mozilla/5.0 (Windows NT 10.0; Win64; x64) AppleWebKit/537.36 (KHTML, like Gecko) Chrome/138.0.0.0 Safari/537.36","WebKit","Chrome","138.0.0.0","Windows","10.0","https://app.prolific.com/","en-US,en;q=0.9","67d846e847a41d29a7f6fcb3","686d226cabeef709c732f8e1","686e52e371facb5c58915aa2","67d846e847a41d29a7f6fcb3","","","[0,1,2,3,4,5,6]","true","","","","","","","","","","","","","","","","","","","","","","","","","","","","","","","","","","","","","","","","","",""
"18325","","","","fullscreen","3","196335","0.0-4.0","284","1","2025-07-09 11:33:56","7701e855f2ef39aa3fd6c71abdc6918a","197.185.215.47","Mozilla/5.0 (Windows NT 10.0; Win64; x64) AppleWebKit/537.36 (KHTML, like Gecko) Chrome/138.0.0.0 Safari/537.36","WebKit","Chrome","138.0.0.0","Windows","10.0","https://app.prolific.com/","en-US,en;q=0.9","67d846e847a41d29a7f6fcb3","686d226cabeef709c732f8e1","686e52e371facb5c58915aa2","67d846e847a41d29a7f6fcb3","","","","","true","","","","","","","","","","","","","","","","","","","","","","","","","","","","","","","","","","","","","","","","",""
"8601","1752061045087"," <p style='font-size:1.1em;line-height:1.25'>Thank you for completing the consent form and closing all other tabs.</p><p style='font-size:1.1em;line-height:1.25'>We will now invite you to fill in some demographic information and questionnaires, before starting the game.<br>This will take about 5 minutes.<br></p><p style='font-size:1.1em;line-height:1.25'>Press the <strong>Next</strong> button to continue.</p>","0","custom-html-button-response","4","204941","0.0-5.0","284","1","2025-07-09 11:33:56","7701e855f2ef39aa3fd6c71abdc6918a","197.185.215.47","Mozilla/5.0 (Windows NT 10.0; Win64; x64) AppleWebKit/537.36 (KHTML, like Gecko) Chrome/138.0.0.0 Safari/537.36","WebKit","Chrome","138.0.0.0","Windows","10.0","https://app.prolific.com/","en-US,en;q=0.9","67d846e847a41d29a7f6fcb3","686d226cabeef709c732f8e1","686e52e371facb5c58915aa2","67d846e847a41d29a7f6fcb3","2025-07-09T11:37:25.089Z","","","","","","","","","","","","","","","","","","","","","","","","","","","","","","","","","","","","","","","","","","","","",""
"6722","","","{""age"":""23""}","survey-text","5","211681","0.0-6.0-0.0","284","1","2025-07-09 11:33:56","7701e855f2ef39aa3fd6c71abdc6918a","197.185.215.47","Mozilla/5.0 (Windows NT 10.0; Win64; x64) AppleWebKit/537.36 (KHTML, like Gecko) Chrome/138.0.0.0 Safari/537.36","WebKit","Chrome","138.0.0.0","Windows","10.0","https://app.prolific.com/","en-US,en;q=0.9","67d846e847a41d29a7f6fcb3","686d226cabeef709c732f8e1","686e52e371facb5c58915aa2","67d846e847a41d29a7f6fcb3","","","","","","0","demographics","","","","","","","","","","","","","","","","","","","","","","","","","","","","","","","","","","","","","","",""
"4339","","","{""gender_identity"":""female/woman""}","survey-multi-choice","6","216025","0.0-6.0-1.0","284","1","2025-07-09 11:33:56","7701e855f2ef39aa3fd6c71abdc6918a","197.185.215.47","Mozilla/5.0 (Windows NT 10.0; Win64; x64) AppleWebKit/537.36 (KHTML, like Gecko) Chrome/138.0.0.0 Safari/537.36","WebKit","Chrome","138.0.0.0","Windows","10.0","https://app.prolific.com/","en-US,en;q=0.9","67d846e847a41d29a7f6fcb3","686d226cabeef709c732f8e1","686e52e371facb5c58915aa2","67d846e847a41d29a7f6fcb3","","","[0]","","","1","demographics","","","","","","","","","","","","","","","","","","","","","","","","","","","","","","","","","","","","","","",""
"4168","","","{""assigned_sex"":""female""}","survey-multi-choice","7","220197","0.0-6.0-2.0","284","1","2025-07-09 11:33:56","7701e855f2ef39aa3fd6c71abdc6918a","197.185.215.47","Mozilla/5.0 (Windows NT 10.0; Win64; x64) AppleWebKit/537.36 (KHTML, like Gecko) Chrome/138.0.0.0 Safari/537.36","WebKit","Chrome","138.0.0.0","Windows","10.0","https://app.prolific.com/","en-US,en;q=0.9","67d846e847a41d29a7f6fcb3","686d226cabeef709c732f8e1","686e52e371facb5c58915aa2","67d846e847a41d29a7f6fcb3","","","[0]","","","2","demographics","","","","","","","","","","","","","","","","","","","","","","","","","","","","","","","","","","","","","","",""
"5191","","","{""menstrual_cycle"":""Yes""}","survey-multi-choice","8","225394","0.0-6.0-3.0","284","1","2025-07-09 11:33:56","7701e855f2ef39aa3fd6c71abdc6918a","197.185.215.47","Mozilla/5.0 (Windows NT 10.0; Win64; x64) AppleWebKit/537.36 (KHTML, like Gecko) Chrome/138.0.0.0 Safari/537.36","WebKit","Chrome","138.0.0.0","Windows","10.0","https://app.prolific.com/","en-US,en;q=0.9","67d846e847a41d29a7f6fcb3","686d226cabeef709c732f8e1","686e52e371facb5c58915aa2","67d846e847a41d29a7f6fcb3","","","[0]","","","4","demographics","","","","","","","","","","","","","","","","","","","","","","","","","","","","","","","","","","","","","","",""
"19933","","","{""education"":""Bachelor's Degree (e.g., BA)""}","survey-multi-choice","9","245333","0.0-6.0-4.0","284","1","2025-07-09 11:33:56","7701e855f2ef39aa3fd6c71abdc6918a","197.185.215.47","Mozilla/5.0 (Windows NT 10.0; Win64; x64) AppleWebKit/537.36 (KHTML, like Gecko) Chrome/138.0.0.0 Safari/537.36","WebKit","Chrome","138.0.0.0","Windows","10.0","https://app.prolific.com/","en-US,en;q=0.9","67d846e847a41d29a7f6fcb3","686d226cabeef709c732f8e1","686e52e371facb5c58915aa2","67d846e847a41d29a7f6fcb3","","","[0]","","","5","demographics","","","","","","","","","","","","","","","","","","","","","","","","","","","","","","","","","","","","","","",""
"9826","","","{""education"":""Master's Degree (e.g., MSc)""}","survey-multi-choice","10","255165","0.0-6.0-5.0","284","1","2025-07-09 11:33:56","7701e855f2ef39aa3fd6c71abdc6918a","197.185.215.47","Mozilla/5.0 (Windows NT 10.0; Win64; x64) AppleWebKit/537.36 (KHTML, like Gecko) Chrome/138.0.0.0 Safari/537.36","WebKit","Chrome","138.0.0.0","Windows","10.0","https://app.prolific.com/","en-US,en;q=0.9","67d846e847a41d29a7f6fcb3","686d226cabeef709c732f8e1","686e52e371facb5c58915aa2","67d846e847a41d29a7f6fcb3","2025-07-09T11:38:15.313Z","","[0]","","","6","demographics","","","","","","","","","","","","","","","","","","","","","","","","","","","","","","","","","","","","","","",""
"73156","","","{""mental_health_condition"":""Anxiety"",""mental_health_treatment"":""No"",""psychiatric_medication"":""NA""}","survey-text","11","328358","0.0-7.0-0.0","284","1","2025-07-09 11:33:56","7701e855f2ef39aa3fd6c71abdc6918a","197.185.215.47","Mozilla/5.0 (Windows NT 10.0; Win64; x64) AppleWebKit/537.36 (KHTML, like Gecko) Chrome/138.0.0.0 Safari/537.36","WebKit","Chrome","138.0.0.0","Windows","10.0","https://app.prolific.com/","en-US,en;q=0.9","67d846e847a41d29a7f6fcb3","686d226cabeef709c732f8e1","686e52e371facb5c58915aa2","67d846e847a41d29a7f6fcb3","2025-07-09T11:39:28.507Z","","","","","1","mental_health","","","","","","","","","","","","","","","","","","","","","","","","","","","","","","","","","","","","","","",""
"20176","","","{""depression_history"":[""Yes"",""No""]}","survey-multi-select","12","348540","0.0-7.0-1.0","284","1","2025-07-09 11:33:56","7701e855f2ef39aa3fd6c71abdc6918a","197.185.215.47","Mozilla/5.0 (Windows NT 10.0; Win64; x64) AppleWebKit/537.36 (KHTML, like Gecko) Chrome/138.0.0.0 Safari/537.36","WebKit","Chrome","138.0.0.0","Windows","10.0","https://app.prolific.com/","en-US,en;q=0.9","67d846e847a41d29a7f6fcb3","686d226cabeef709c732f8e1","686e52e371facb5c58915aa2","67d846e847a41d29a7f6fcb3","","","[0]","","","","mental_health","","","","","","","","","","","","","","","","","","","","","","","","","","","","","","","","","","","","","","",""
"14597","","","{""depression_episodes"":""Prefer not to say / I don't know"",""depression_recent"":""Prefer not to say / I don't know""}","survey-multi-choice","13","363141","0.0-7.0-2.0-0.0","284","1","2025-07-09 11:33:56","7701e855f2ef39aa3fd6c71abdc6918a","197.185.215.47","Mozilla/5.0 (Windows NT 10.0; Win64; x64) AppleWebKit/537.36 (KHTML, like Gecko) Chrome/138.0.0.0 Safari/537.36","WebKit","Chrome","138.0.0.0","Windows","10.0","https://app.prolific.com/","en-US,en;q=0.9","67d846e847a41d29a7f6fcb3","686d226cabeef709c732f8e1","686e52e371facb5c58915aa2","67d846e847a41d29a7f6fcb3","2025-07-09T11:40:03.289Z","","[0,1]","","","3","mental_health","","","","","","","","","","","","","","","","","","","","","","","","","","","","","","","","","","","","","","",""
"147511.5","","","","survey-template","14","510664","0.0-7.0-3.0","284","1","2025-07-09 11:33:56","7701e855f2ef39aa3fd6c71abdc6918a","197.185.215.47","Mozilla/5.0 (Windows NT 10.0; Win64; x64) AppleWebKit/537.36 (KHTML, like Gecko) Chrome/138.0.0.0 Safari/537.36","WebKit","Chrome","138.0.0.0","Windows","10.0","https://app.prolific.com/","en-US,en;q=0.9","67d846e847a41d29a7f6fcb3","686d226cabeef709c732f8e1","686e52e371facb5c58915aa2","67d846e847a41d29a7f6fcb3","2025-07-09T11:42:30.813Z","","","","","","ius","{""Q01"":""2"",""Q02"":""3"",""Q03"":""1"",""Q04"":""2"",""Q05"":""3"",""Q06"":""1"",""Q07"":""3"",""Q08"":""0"",""Q09"":""1"",""Q10"":""2"",""Q11"":""1"",""Q12"":""3"",""Q13"":""2""}","[0,1,2,3,4,5,6,7,8,9,10,11,12]","[""Q01"",""Q02"",""Q03"",""Q04"",""Q05"",""Q06"",""Q07"",""Q08"",""Q09"",""Q10"",""Q11"",""Q09"",""Q12"",""Q13""]","[28056.60000000149,41122.10000000149,52940.60000000149,61480.800000000745,69975.80000000075,75463.70000000298,98835.70000000298,102346.30000000075,111252.60000000149,116407.20000000298,121205.40000000224,126194.90000000224,133607.6000000015,145572.70000000298]","[]","[28056.60000000149,41122.10000000149,52940.60000000149,61480.800000000745,69975.80000000075,75463.70000000298,98835.70000000298,102346.30000000075,111252.60000000149,116407.20000000298,121205.40000000224,124687.40000000224,126194.90000000224,133607.6000000015,143920.1000000015,145572.70000000298,147503.30000000075]","0.3076923076923077","0.5833333333333334","0","","","","","","","","","","","","","","","","","","","","","","","","","","","","","",""
"4679","1752061355496","<p style='font-size:1.1em;line-height:1.25'>In the following, we will ask you a few questions relating to your experiences over the past month.<br></p><p style='font-size:1.1em;line-height:1.25'>Press the <strong>Next</strong> button to continue.</p>","0","custom-html-button-response","15","515348","0.0-7.0-4.0","284","1","2025-07-09 11:33:56","7701e855f2ef39aa3fd6c71abdc6918a","197.185.215.47","Mozilla/5.0 (Windows NT 10.0; Win64; x64) AppleWebKit/537.36 (KHTML, like Gecko) Chrome/138.0.0.0 Safari/537.36","WebKit","Chrome","138.0.0.0","Windows","10.0","https://app.prolific.com/","en-US,en;q=0.9","67d846e847a41d29a7f6fcb3","686d226cabeef709c732f8e1","686e52e371facb5c58915aa2","67d846e847a41d29a7f6fcb3","2025-07-09T11:42:35.497Z","","","","","","","","","","","","","","","","","","","","","","","","","","","","","","","","","","","","","","","","","","","","",""
"69549.60000000149","","","","survey-template","16","584904","0.0-7.0-5.0","284","1","2025-07-09 11:33:56","7701e855f2ef39aa3fd6c71abdc6918a","197.185.215.47","Mozilla/5.0 (Windows NT 10.0; Win64; x64) AppleWebKit/537.36 (KHTML, like Gecko) Chrome/138.0.0.0 Safari/537.36","WebKit","Chrome","138.0.0.0","Windows","10.0","https://app.prolific.com/","en-US,en;q=0.9","67d846e847a41d29a7f6fcb3","686d226cabeef709c732f8e1","686e52e371facb5c58915aa2","67d846e847a41d29a7f6fcb3","2025-07-09T11:43:45.053Z","","","","","","pss","{""Q01"":""2"",""Q02"":""1"",""Q03"":""2"",""Q04"":""1"",""Q05"":""1"",""Q06"":""1"",""Q07"":""1"",""Q08"":""1"",""Q09"":""2"",""Q10"":""1""}","[0,1,2,3,4,5,6,7,8,9]","[""Q01"",""Q02"",""Q03"",""Q04"",""Q05"",""Q06"",""Q07"",""Q08"",""Q09"",""Q10""]","[10285.60000000149,16405.199999999255,19782.5,24674.5,28514.400000002235,33449.300000000745,39818.5,52895.699999999255,59031.900000002235,68173.69999999925]","[]","[0,10285.60000000149,16405.199999999255,19782.5,24674.5,28514.400000002235,33449.300000000745,39818.5,43179.5,44238.900000002235,52895.699999999255,59031.900000002235,68173.69999999925,69544.10000000149]","0.4","0.5555555555555556","0","","","","","","","","","","","","","","","","","","","","","","","","","","","","","",""
"67544","1752061492599","<p style='font-size:1.1em;line-height:1.25'>Thank you for your answers! Now we will ask you a few more questions relating to your feelings in the last 24 hours.<br></p><p style='font-size:1.1em;line-height:1.25'>Press the <strong>Next</strong> button to continue.</p>","0","custom-html-button-response","17","652452","0.0-7.0-6.0","284","1","2025-07-09 11:33:56","7701e855f2ef39aa3fd6c71abdc6918a","197.185.215.47","Mozilla/5.0 (Windows NT 10.0; Win64; x64) AppleWebKit/537.36 (KHTML, like Gecko) Chrome/138.0.0.0 Safari/537.36","WebKit","Chrome","138.0.0.0","Windows","10.0","https://app.prolific.com/","en-US,en;q=0.9","67d846e847a41d29a7f6fcb3","686d226cabeef709c732f8e1","686e52e371facb5c58915aa2","67d846e847a41d29a7f6fcb3","2025-07-09T11:44:52.601Z","","","","","","","","","","","","","","","","","","","","","","","","","","","","","","","","","","","","","","","","","","","","",""
"130567.5","","","","survey-template","18","783041","0.0-7.0-7.0","284","1","2025-07-09 11:33:56","7701e855f2ef39aa3fd6c71abdc6918a","197.185.215.47","Mozilla/5.0 (Windows NT 10.0; Win64; x64) AppleWebKit/537.36 (KHTML, like Gecko) Chrome/138.0.0.0 Safari/537.36","WebKit","Chrome","138.0.0.0","Windows","10.0","https://app.prolific.com/","en-US,en;q=0.9","67d846e847a41d29a7f6fcb3","686d226cabeef709c732f8e1","686e52e371facb5c58915aa2","67d846e847a41d29a7f6fcb3","2025-07-09T11:47:03.189Z","","","","","","drsp","{""Q01"":""1"",""Q02"":""0"",""Q03"":""0"",""Q04"":""2"",""Q05"":""2"",""Q06"":""1"",""Q07"":""1"",""Q08"":""0"",""Q09"":""0"",""Q10"":""0"",""Q11"":""0"",""Q12"":""3"",""Q13"":""3"",""Q14"":""1"",""Q15"":""0"",""Q16"":""1"",""Q17"":""0"",""Q18"":""2"",""Q19"":""1"",""Q20"":""1"",""Q21"":""0""}","[0,1,2,3,4,5,6,7,8,9,10,11,12,13,14,15,16,17,18,19,20]","[""Q01"",""Q02"",""Q03"",""Q04"",""Q05"",""Q06"",""Q07"",""Q08"",""Q09"",""Q10"",""Q11"",""Q12"",""Q13"",""Q14"",""Q15"",""Q16"",""Q17"",""Q18"",""Q19"",""Q20"",""Q21""]","[48443.800000000745,50329.800000000745,52075.300000000745,56927,58899.800000000745,62012.60000000149,65133.300000000745,69741.30000000075,76979.39999999851,79497.69999999925,81458.5,85403.10000000149,87917.30000000075,91828.89999999851,98682.89999999851,106549.80000000075,108278.89999999851,114394.60000000149,120422.10000000149,123724.60000000149,127960.30000000075]","[]","[0.19999999925494194,48443.800000000745,50329.800000000745,52075.300000000745,54920.199999999255,56927,58899.800000000745,62012.60000000149,65133.300000000745,68207,69741.30000000075,76979.39999999851,79497.69999999925,81458.5,85403.10000000149,87917.30000000075,91828.89999999851,97111,98216,98682.89999999851,106549.80000000075,108278.89999999851,114394.60000000149,120422.10000000149,123724.60000000149,127960.30000000075,130551]","0.42857142857142855","0.4","0","","","","","","","","","","","","","","","","","","","","","","","","","","","","","",""
"17197.099999997765","","","","survey-template","19","800244","0.0-7.0-8.0","284","1","2025-07-09 11:33:56","7701e855f2ef39aa3fd6c71abdc6918a","197.185.215.47","Mozilla/5.0 (Windows NT 10.0; Win64; x64) AppleWebKit/537.36 (KHTML, like Gecko) Chrome/138.0.0.0 Safari/537.36","WebKit","Chrome","138.0.0.0","Windows","10.0","https://app.prolific.com/","en-US,en;q=0.9","67d846e847a41d29a7f6fcb3","686d226cabeef709c732f8e1","686e52e371facb5c58915aa2","67d846e847a41d29a7f6fcb3","2025-07-09T11:47:20.392Z","","","","","","stress","{""Q01"":""1"",""Q02"":""2"",""Q03"":""1""}","[0,1,2]","[""Q01"",""Q02"",""Q03""]","[6173.89999999851,10241.199999999255,15294.199999999255]","[]","[6173.89999999851,10241.199999999255,15294.199999999255,17195.79999999702]","0.6666666666666666","0","0","","","","","","","","","","","","","","","","","","","","","","","","","","","","","",""
"244845","","","","instructions","20","1045091","0.0-8.0-0.0","284","1","2025-07-09 11:33:56","7701e855f2ef39aa3fd6c71abdc6918a","197.185.215.47","Mozilla/5.0 (Windows NT 10.0; Win64; x64) AppleWebKit/537.36 (KHTML, like Gecko) Chrome/138.0.0.0 Safari/537.36","WebKit","Chrome","138.0.0.0","Windows","10.0","https://app.prolific.com/","en-US,en;q=0.9","67d846e847a41d29a7f6fcb3","686d226cabeef709c732f8e1","686e52e371facb5c58915aa2","67d846e847a41d29a7f6fcb3","","[{""page_index"":0,""viewing_time"":76475},{""page_index"":1,""viewing_time"":93002},{""page_index"":2,""viewing_time"":42732},{""page_index"":3,""viewing_time"":32634}]","","","","","","","","","","","","","","","","","","","","","","","","","","","","","","","","","","","","","","","","","","","",""
"","","","","ctl-task-cpt","21","1080290","0.0-8.0-1.0","284","1","2025-07-09 11:33:56","7701e855f2ef39aa3fd6c71abdc6918a","197.185.215.47","Mozilla/5.0 (Windows NT 10.0; Win64; x64) AppleWebKit/537.36 (KHTML, like Gecko) Chrome/138.0.0.0 Safari/537.36","WebKit","Chrome","138.0.0.0","Windows","10.0","https://app.prolific.com/","en-US,en;q=0.9","67d846e847a41d29a7f6fcb3","686d226cabeef709c732f8e1","686e52e371facb5c58915aa2","67d846e847a41d29a7f6fcb3","","","","","","","","","","","","","","","","","win-only","0","g1:NW,g2:SE","1","0","1","1051369.3","5712.1","9713.8","32182","2","4","4","6","1","-2","-6","0","0","0","4001.7","4000","-2655","[""left"",""up""]","{""num_key_presses"":11,""num_perfect"":3,""num_errors"":4,""num_randdir"":0,""num_randdir_good_moves"":0,""num_whilered"":4,""num_whileblue"":0,""num_blue"":1,""num_good_moves"":3}","[295.22232142857143,297.12857142857143,1.2,295.22232142857143,297.12857142857143,105.4,295.22232142857143,297.12857142857143,207.7,295.22232142857143,297.12857142857143,309.9,295.22232142857143,297.12857142857143,411.2,295.22232142857143,297.12857142857143,511.3,295.22232142857143,297.12857142857143,614.2,295.22232142857143,297.12857142857143,714.8,295.22232142857143,297.12857142857143,820.1,295.22232142857143,297.12857142857143,927.6,295.22232142857143,297.12857142857143,1027.6,295.22232142857143,297.12857142857143,1129.8,295.22232142857143,297.12857142857143,1234.1,295.22232142857143,297.12857142857143,1334.1,295.22232142857143,297.12857142857143,1434.1,295.22232142857143,297.12857142857143,1534.1,295.22232142857143,297.12857142857143,1635.2,295.22232142857143,297.12857142857143,1735.2,295.22232142857143,297.12857142857143,1835.3,295.22232142857143,297.12857142857143,1939,295.22232142857143,297.12857142857143,2044.9,295.22232142857143,297.12857142857143,2160.9,295.22232142857143,297.12857142857143,2264.8,295.22232142857143,297.12857142857143,2368.7,295.22232142857143,297.12857142857143,2469.1,295.22232142857143,297.12857142857143,2570,295.22232142857143,297.12857142857143,2682.4,282.22232142857143,285.12857142857143,2790.1,243.22232142857143,272.12857142857143,2898.5,236.22232142857143,268.12857142857143,3001.5,234.22232142857143,264.12857142857143,3112.9,235.22232142857143,263.12857142857143,3214.7,237.22232142857143,260.12857142857143,3316,237.22232142857143,260.12857142857143,3419.3,237.22232142857143,260.12857142857143,3519.4,287.22232142857143,315.12857142857143,3627.7,293.22232142857143,323.12857142857143,3729.8,328.22232142857143,360.12857142857143,3830.3,341.22232142857143,373.12857142857143,3930.7]","[2912.8,2912.7,1000,0.1,1912.7,""smooth"",""up"",""up"",""good_move"",3316.5,402.1,2639.2,2914.5,-2237.2,""error"",""-"",""-"",""no_move"",3482.9,165.4,2639.2,2914.5,-2070.8,""while_red"",""-"",""-"",""no_move"",3675.7,358.3,2639.2,2914.5,-1877.9,""while_red"",""-"",""-"",""no_move"",3918.6,601.1,2639.2,2914.5,-1635.1,""while_red"",""-"",""-"",""no_move"",9093.3,5775.8,2869.6,4330,1893.7,""smooth"",""up"",""up"",""good_move"",9393.1,298.2,2524.6,9094.9,-2226.4,""error"",""-"",""-"",""no_move"",14843.9,5449.9,2174.9,14480.1,-1811.1,""error"",""-"",""-"",""no_move"",18381.3,3536.2,1745,15847.4,789,""smooth"",""left"",""left"",""good_move"",18810.2,427.5,2447.2,18382.7,-2019.7,""error"",""-"",""-"",""no_move"",19060.5,248.6,2447.2,18382.7,-1769.4,""while_red"",""-"",""-"",""no_move""]","","",""
"14432","","","","instructions","22","1094723","0.0-8.0-2.0","284","1","2025-07-09 11:33:56","7701e855f2ef39aa3fd6c71abdc6918a","197.185.215.47","Mozilla/5.0 (Windows NT 10.0; Win64; x64) AppleWebKit/537.36 (KHTML, like Gecko) Chrome/138.0.0.0 Safari/537.36","WebKit","Chrome","138.0.0.0","Windows","10.0","https://app.prolific.com/","en-US,en;q=0.9","67d846e847a41d29a7f6fcb3","686d226cabeef709c732f8e1","686e52e371facb5c58915aa2","67d846e847a41d29a7f6fcb3","","[{""page_index"":0,""viewing_time"":14431}]","","","","","","","","","","","","","","","","","","","","","","","","","","","","","","","","","","","","","","","","","","","",""
"","","","","ctl-task-cpt","23","1130110","0.0-8.0-3.0","284","1","2025-07-09 11:33:56","7701e855f2ef39aa3fd6c71abdc6918a","197.185.215.47","Mozilla/5.0 (Windows NT 10.0; Win64; x64) AppleWebKit/537.36 (KHTML, like Gecko) Chrome/138.0.0.0 Safari/537.36","WebKit","Chrome","138.0.0.0","Windows","10.0","https://app.prolific.com/","en-US,en;q=0.9","67d846e847a41d29a7f6fcb3","686d226cabeef709c732f8e1","686e52e371facb5c58915aa2","67d846e847a41d29a7f6fcb3","","","","","","","","","","","","","","","","","win-only","0","g1:NW,g2:SE","0.35","0","3","1100994.2","5201","9203.8","32379.3","2","4","8","6","2","-8","-12","0","0","0","4002.7","4000","-2550","[""down"",""right""]","{""num_key_presses"":8,""num_perfect"":2,""num_errors"":4,""num_randdir"":2,""num_randdir_good_moves"":1,""num_whilered"":0,""num_whileblue"":0,""num_blue"":0,""num_good_moves"":3}","[301.22232142857143,301.12857142857143,15.2,301.22232142857143,301.12857142857143,101.5,301.22232142857143,301.12857142857143,212.7,301.22232142857143,301.12857142857143,320.4,301.22232142857143,301.12857142857143,421.5,301.22232142857143,301.12857142857143,525.4,301.22232142857143,301.12857142857143,626.7,301.22232142857143,301.12857142857143,731.4,301.22232142857143,301.12857142857143,835.4,301.22232142857143,301.12857142857143,935.5,301.22232142857143,301.12857142857143,1037.1,301.22232142857143,301.12857142857143,1147.1,301.22232142857143,301.12857142857143,1248,301.22232142857143,301.12857142857143,1351.5,301.22232142857143,301.12857142857143,1455.5,301.22232142857143,301.12857142857143,1557.2,301.22232142857143,301.12857142857143,1661,301.22232142857143,301.12857142857143,1768.1,301.22232142857143,301.12857142857143,1870.5,301.22232142857143,301.12857142857143,1992.1,301.22232142857143,301.12857142857143,2096.9,301.22232142857143,301.12857142857143,2200,301.22232142857143,301.12857142857143,2301.5,301.22232142857143,301.12857142857143,2402,301.22232142857143,301.12857142857143,2507.1,301.22232142857143,301.12857142857143,2607.1,301.22232142857143,301.12857142857143,2715.4,306.22232142857143,290.12857142857143,2816.8,308.22232142857143,271.12857142857143,2917.5,278.22232142857143,244.12857142857143,3020.2,259.22232142857143,229.12857142857143,3121.3,244.22232142857143,224.12857142857143,3226.1,236.22232142857143,223.12857142857143,3327.1,233.22232142857143,223.12857142857143,3434.3,232.22232142857143,226.12857142857143,3535.7,232.22232142857143,227.12857142857143,3641.4,232.22232142857143,227.12857142857143,3745.5,232.22232142857143,227.12857142857143,3851.1,232.22232142857143,227.12857142857143,3958.5]","[2326.7,2326.7,1000,0,1326.7,""oops"",""down"",""down"",""good_move"",2827.3,497,2355.4,2330.3,-1858.4,""error"",""-"",""-"",""no_move"",7416.8,4588.4,2812.3,3831.4,773.1,""smooth"",""down"",""down"",""good_move"",8530.9,1112.6,2793.3,7418.3,-1680.7,""error"",""-"",""-"",""no_move"",10063.9,1531.3,1944.9,9542.3,-1423.3,""error"",""-"",""-"",""no_move"",14713.1,4647.9,2853.6,11067.4,792.1,""smooth"",""down"",""down"",""good_move"",15478,764.1,2693,14713.9,-1928.9,""error"",""-"",""-"",""no_move"",18823.5,3342.5,1666.2,16482,675.3,""oops"",""up"",""up"",""bad_move""]","","",""
"41248","","","","instructions","24","1171359","0.0-8.0-4.0","284","1","2025-07-09 11:33:56","7701e855f2ef39aa3fd6c71abdc6918a","197.185.215.47","Mozilla/5.0 (Windows NT 10.0; Win64; x64) AppleWebKit/537.36 (KHTML, like Gecko) Chrome/138.0.0.0 Safari/537.36","WebKit","Chrome","138.0.0.0","Windows","10.0","https://app.prolific.com/","en-US,en;q=0.9","67d846e847a41d29a7f6fcb3","686d226cabeef709c732f8e1","686e52e371facb5c58915aa2","67d846e847a41d29a7f6fcb3","","[{""page_index"":0,""viewing_time"":9041},{""page_index"":1,""viewing_time"":32206}]","","","","","","","","","","","","","","","","","","","","","","","","","","","","","","","","","","","","","","","","","","","",""
"25208","","","{""green_ball"":[""Ball sometimes shakes and moves in a random direction""]}","survey-multi-select","25","1196616","0.0-8.0-5.0-0.0","284","1","2025-07-09 11:33:56","7701e855f2ef39aa3fd6c71abdc6918a","197.185.215.47","Mozilla/5.0 (Windows NT 10.0; Win64; x64) AppleWebKit/537.36 (KHTML, like Gecko) Chrome/138.0.0.0 Safari/537.36","WebKit","Chrome","138.0.0.0","Windows","10.0","https://app.prolific.com/","en-US,en;q=0.9","67d846e847a41d29a7f6fcb3","686d226cabeef709c732f8e1","686e52e371facb5c58915aa2","67d846e847a41d29a7f6fcb3","","","[0]","","","","quiz","","","","","","","","","","","","","","","","","","","","","","","","","","","","","","","","","","","","","true","",""
"5668","","<p align='center'><b>CORRECT!</b> Indeed, the green ball may sometimes shake and move in a random direction.</p>","0","html-button-response","26","1202343","0.0-8.0-5.0-1.0","284","1","2025-07-09 11:33:56","7701e855f2ef39aa3fd6c71abdc6918a","197.185.215.47","Mozilla/5.0 (Windows NT 10.0; Win64; x64) AppleWebKit/537.36 (KHTML, like Gecko) Chrome/138.0.0.0 Safari/537.36","WebKit","Chrome","138.0.0.0","Windows","10.0","https://app.prolific.com/","en-US,en;q=0.9","67d846e847a41d29a7f6fcb3","686d226cabeef709c732f8e1","686e52e371facb5c58915aa2","67d846e847a41d29a7f6fcb3","","","","","","","","","","","","","","","","","","","","","","","","","","","","","","","","","","","","","","","","","","","","","",""
"15768","","","{""yellow_ball"":[""Ball doesn‘t move and I get -1 penalty point""]}","survey-multi-select","27","1218118","0.0-8.0-6.0-0.0","284","1","2025-07-09 11:33:56","7701e855f2ef39aa3fd6c71abdc6918a","197.185.215.47","Mozilla/5.0 (Windows NT 10.0; Win64; x64) AppleWebKit/537.36 (KHTML, like Gecko) Chrome/138.0.0.0 Safari/537.36","WebKit","Chrome","138.0.0.0","Windows","10.0","https://app.prolific.com/","en-US,en;q=0.9","67d846e847a41d29a7f6fcb3","686d226cabeef709c732f8e1","686e52e371facb5c58915aa2","67d846e847a41d29a7f6fcb3","","","[0]","","","","quiz","","","","","","","","","","","","","","","","","","","","","","","","","","","","","","","","","","","","","true","",""
"4138","","<p align='center'><b>CORRECT!</b> Indeed, the yellow ball never moves and you receive a penalty.</p>","0","html-button-response","28","1222260","0.0-8.0-6.0-1.0","284","1","2025-07-09 11:33:56","7701e855f2ef39aa3fd6c71abdc6918a","197.185.215.47","Mozilla/5.0 (Windows NT 10.0; Win64; x64) AppleWebKit/537.36 (KHTML, like Gecko) Chrome/138.0.0.0 Safari/537.36","WebKit","Chrome","138.0.0.0","Windows","10.0","https://app.prolific.com/","en-US,en;q=0.9","67d846e847a41d29a7f6fcb3","686d226cabeef709c732f8e1","686e52e371facb5c58915aa2","67d846e847a41d29a7f6fcb3","","","","","","","","","","","","","","","","","","","","","","","","","","","","","","","","","","","","","","","","","","","","","",""
"6370","","","{""blue_ball"":[""Ball doesn‘t move and I get -1 penalty point""]}","survey-multi-select","29","1228638","0.0-8.0-7.0-0.0","284","1","2025-07-09 11:33:56","7701e855f2ef39aa3fd6c71abdc6918a","197.185.215.47","Mozilla/5.0 (Windows NT 10.0; Win64; x64) AppleWebKit/537.36 (KHTML, like Gecko) Chrome/138.0.0.0 Safari/537.36","WebKit","Chrome","138.0.0.0","Windows","10.0","https://app.prolific.com/","en-US,en;q=0.9","67d846e847a41d29a7f6fcb3","686d226cabeef709c732f8e1","686e52e371facb5c58915aa2","67d846e847a41d29a7f6fcb3","","","[0]","","","","quiz","","","","","","","","","","","","","","","","","","","","","","","","","","","","","","","","","","","","","false","",""
"3596","","<p align='center'><b>INCORRECT.</b> The blue ball always shakes and moves randomly.</p>","0","html-button-response","30","1232237","0.0-8.0-7.0-1.0","284","1","2025-07-09 11:33:56","7701e855f2ef39aa3fd6c71abdc6918a","197.185.215.47","Mozilla/5.0 (Windows NT 10.0; Win64; x64) AppleWebKit/537.36 (KHTML, like Gecko) Chrome/138.0.0.0 Safari/537.36","WebKit","Chrome","138.0.0.0","Windows","10.0","https://app.prolific.com/","en-US,en;q=0.9","67d846e847a41d29a7f6fcb3","686d226cabeef709c732f8e1","686e52e371facb5c58915aa2","67d846e847a41d29a7f6fcb3","","","","","","","","","","","","","","","","","","","","","","","","","","","","","","","","","","","","","","","","","","","","","",""
"16269","","","{""blue_ball"":[""Ball always shakes and moves in a random direction""]}","survey-multi-select","31","1248513","0.0-8.0-7.1-0.1","284","1","2025-07-09 11:33:56","7701e855f2ef39aa3fd6c71abdc6918a","197.185.215.47","Mozilla/5.0 (Windows NT 10.0; Win64; x64) AppleWebKit/537.36 (KHTML, like Gecko) Chrome/138.0.0.0 Safari/537.36","WebKit","Chrome","138.0.0.0","Windows","10.0","https://app.prolific.com/","en-US,en;q=0.9","67d846e847a41d29a7f6fcb3","686d226cabeef709c732f8e1","686e52e371facb5c58915aa2","67d846e847a41d29a7f6fcb3","","","[0]","","","","quiz","","","","","","","","","","","","","","","","","","","","","","","","","","","","","","","","","","","","","true","",""
"3375","","<p align='center'><b>CORRECT!</b> Indeed, the blue ball always shakes and moves in a random direction. Also there is a penalty of -1 point.</p>","0","html-button-response","32","1251891","0.0-8.0-7.1-1.1","284","1","2025-07-09 11:33:56","7701e855f2ef39aa3fd6c71abdc6918a","197.185.215.47","Mozilla/5.0 (Windows NT 10.0; Win64; x64) AppleWebKit/537.36 (KHTML, like Gecko) Chrome/138.0.0.0 Safari/537.36","WebKit","Chrome","138.0.0.0","Windows","10.0","https://app.prolific.com/","en-US,en;q=0.9","67d846e847a41d29a7f6fcb3","686d226cabeef709c732f8e1","686e52e371facb5c58915aa2","67d846e847a41d29a7f6fcb3","","","","","","","","","","","","","","","","","","","","","","","","","","","","","","","","","","","","","","","","","","","","","",""
"14064","","","{""bonus"":[""When I reach 50% of points""]}","survey-multi-select","33","1265959","0.0-8.0-8.0-0.0","284","1","2025-07-09 11:33:56","7701e855f2ef39aa3fd6c71abdc6918a","197.185.215.47","Mozilla/5.0 (Windows NT 10.0; Win64; x64) AppleWebKit/537.36 (KHTML, like Gecko) Chrome/138.0.0.0 Safari/537.36","WebKit","Chrome","138.0.0.0","Windows","10.0","https://app.prolific.com/","en-US,en;q=0.9","67d846e847a41d29a7f6fcb3","686d226cabeef709c732f8e1","686e52e371facb5c58915aa2","67d846e847a41d29a7f6fcb3","","","[0]","","","","quiz","","","","","","","","","","","","","","","","","","","","","","","","","","","","","","","","","","","","","true","",""
"4472","","<p align='center'><b>CORRECT!</b> Indeed, you receive 2 pounds extra when you reach 50% of points.</p>","0","html-button-response","34","1270437","0.0-8.0-8.0-1.0","284","1","2025-07-09 11:33:56","7701e855f2ef39aa3fd6c71abdc6918a","197.185.215.47","Mozilla/5.0 (Windows NT 10.0; Win64; x64) AppleWebKit/537.36 (KHTML, like Gecko) Chrome/138.0.0.0 Safari/537.36","WebKit","Chrome","138.0.0.0","Windows","10.0","https://app.prolific.com/","en-US,en;q=0.9","67d846e847a41d29a7f6fcb3","686d226cabeef709c732f8e1","686e52e371facb5c58915aa2","67d846e847a41d29a7f6fcb3","","","","","","","","","","","","","","","","","","","","","","","","","","","","","","","","","","","","","","","","","","","","","",""
"4392","","","","instructions","35","1274830","0.0-8.0-9.0","284","1","2025-07-09 11:33:56","7701e855f2ef39aa3fd6c71abdc6918a","197.185.215.47","Mozilla/5.0 (Windows NT 10.0; Win64; x64) AppleWebKit/537.36 (KHTML, like Gecko) Chrome/138.0.0.0 Safari/537.36","WebKit","Chrome","138.0.0.0","Windows","10.0","https://app.prolific.com/","en-US,en;q=0.9","67d846e847a41d29a7f6fcb3","686d226cabeef709c732f8e1","686e52e371facb5c58915aa2","67d846e847a41d29a7f6fcb3","","[{""page_index"":0,""viewing_time"":4391}]","","","","","","","","","","","","","","","","","","","","","","","","","","","","","","","","","","","","","","","","","","","",""
"16682","","<p>Before you start with this game please answer the following three questions yourself. </p>
  <p>Through this game, we measure several aspects of your cognitive performance, such as reaction times, multi-tasking capabilities </p>
  <p>and the ability to assess the situation you are in.</p>
  <p></p>
  <p><b>How good do you usually are in such tasks?</b></p>","87","html-slider-response","36","1291548","0.0-9.0-0.0","284","1","2025-07-09 11:33:56","7701e855f2ef39aa3fd6c71abdc6918a","197.185.215.47","Mozilla/5.0 (Windows NT 10.0; Win64; x64) AppleWebKit/537.36 (KHTML, like Gecko) Chrome/138.0.0.0 Safari/537.36","WebKit","Chrome","138.0.0.0","Windows","10.0","https://app.prolific.com/","en-US,en;q=0.9","67d846e847a41d29a7f6fcb3","686d226cabeef709c732f8e1","686e52e371facb5c58915aa2","67d846e847a41d29a7f6fcb3","2025-07-09T11:55:31.697Z","","","","","","PreSkillQ","","","","","","","","","","","","","","","","","","","","","","","","","","","","","","","","","","","","","","50",""
"9021","","<div style=""width:500px;"">
  <p>How well do you think you will perform in this task compared to other participants?</p>
  </div>","64","html-slider-response","37","1300572","0.0-9.0-1.0","284","1","2025-07-09 11:33:56","7701e855f2ef39aa3fd6c71abdc6918a","197.185.215.47","Mozilla/5.0 (Windows NT 10.0; Win64; x64) AppleWebKit/537.36 (KHTML, like Gecko) Chrome/138.0.0.0 Safari/537.36","WebKit","Chrome","138.0.0.0","Windows","10.0","https://app.prolific.com/","en-US,en;q=0.9","67d846e847a41d29a7f6fcb3","686d226cabeef709c732f8e1","686e52e371facb5c58915aa2","67d846e847a41d29a7f6fcb3","2025-07-09T11:55:40.721Z","","","","","","PrePerfQ","","","","","","","","","","","","","","","","","","","","","","","","","","","","","","","","","","","","","","50",""
"6841","","<div style=""width:500px;"">
  <p>What best describes how you currently feel?</p>
  </div>","52","html-slider-response","38","1307416","0.0-9.0-2.0","284","1","2025-07-09 11:33:56","7701e855f2ef39aa3fd6c71abdc6918a","197.185.215.47","Mozilla/5.0 (Windows NT 10.0; Win64; x64) AppleWebKit/537.36 (KHTML, like Gecko) Chrome/138.0.0.0 Safari/537.36","WebKit","Chrome","138.0.0.0","Windows","10.0","https://app.prolific.com/","en-US,en;q=0.9","67d846e847a41d29a7f6fcb3","686d226cabeef709c732f8e1","686e52e371facb5c58915aa2","67d846e847a41d29a7f6fcb3","2025-07-09T11:55:47.564Z","","","","","","PreMotivationQ","","","","","","","","","","","","","","","","","","","","","","","","","","","","","","","","","","","","","","50",""
"","","","","ctl-task-cpt","39","1355200","0.0-10.0-0.0","284","1","2025-07-09 11:33:56","7701e855f2ef39aa3fd6c71abdc6918a","197.185.215.47","Mozilla/5.0 (Windows NT 10.0; Win64; x64) AppleWebKit/537.36 (KHTML, like Gecko) Chrome/138.0.0.0 Safari/537.36","WebKit","Chrome","138.0.0.0","Windows","10.0","https://app.prolific.com/","en-US,en;q=0.9","67d846e847a41d29a7f6fcb3","686d226cabeef709c732f8e1","686e52e371facb5c58915aa2","67d846e847a41d29a7f6fcb3","2025-07-09T11:56:35.348Z","","","","","","","","","","","","","","","","win-only","0","g1:NW,g2:SE","1","1","0","1313689.2","3052.1","8057.1","44768.2","1","4","4","6","2","-4","-6","0","0","0","5005","3000","-2215","[""down"",""right""]","{""num_key_presses"":9,""num_perfect"":7,""num_errors"":2,""num_randdir"":0,""num_randdir_good_moves"":0,""num_whilered"":0,""num_whileblue"":0,""num_blue"":3,""num_good_moves"":6}","[303.22232142857143,291.12857142857143,4.1,303.22232142857143,291.12857142857143,112.5,303.22232142857143,291.12857142857143,223,303.22232142857143,291.12857142857143,325.6,303.22232142857143,291.12857142857143,429.7,303.22232142857143,291.12857142857143,529.7,303.22232142857143,291.12857142857143,630.3,303.22232142857143,291.12857142857143,742.8,303.22232142857143,291.12857142857143,845.2,303.22232142857143,291.12857142857143,945.6,303.22232142857143,291.12857142857143,1045.9,303.22232142857143,291.12857142857143,1150.1,303.22232142857143,291.12857142857143,1251.6,303.22232142857143,291.12857142857143,1351.7,303.22232142857143,291.12857142857143,1463.6,303.22232142857143,291.12857142857143,1569.3,303.22232142857143,291.12857142857143,1670.4,303.22232142857143,291.12857142857143,1773.6,303.22232142857143,291.12857142857143,1874.8,303.22232142857143,291.12857142857143,1981.6,303.22232142857143,291.12857142857143,2081.9,303.22232142857143,291.12857142857143,2186.4,303.22232142857143,291.12857142857143,2292.1,303.22232142857143,291.12857142857143,2394.4,303.22232142857143,291.12857142857143,2495.9,303.22232142857143,291.12857142857143,2599.2,303.22232142857143,291.12857142857143,2709.9,303.22232142857143,291.12857142857143,2811.2,303.22232142857143,291.12857142857143,2913.5,303.22232142857143,291.12857142857143,3025.2,303.22232142857143,291.12857142857143,3126.9,303.22232142857143,291.12857142857143,3230.2,303.22232142857143,291.12857142857143,3335.4,303.22232142857143,291.12857142857143,3444.2,303.22232142857143,291.12857142857143,3551.2,303.22232142857143,291.12857142857143,3662.5,303.22232142857143,291.12857142857143,3765.4,303.22232142857143,291.12857142857143,3865.5,303.22232142857143,291.12857142857143,3978,303.22232142857143,291.12857142857143,4084.9,443.22232142857143,352.12857142857143,4197.8,490.22232142857143,417.12857142857143,4300.1,491.22232142857143,422.12857142857143,4403.2,499.22232142857143,435.12857142857143,4505.9,508.22232142857143,475.12857142857143,4618.4,520.2223214285714,493.12857142857143,4719.5,526.2223214285714,505.12857142857143,4822.8,529.2223214285714,510.12857142857143,4936.4]","[5191.4,5191.4,2418.8,2010.9,761.7,""smooth"",""down"",""down"",""good_move"",5698.9,504.8,3174.2,5194.1,-2669.4,""error"",""-"",""-"",""no_move"",10005.8,4305.7,2700.5,6701,604.3,""smooth"",""down"",""down"",""good_move"",16791.8,6784.7,2727.5,13459.7,604.6,""smooth"",""down"",""down"",""good_move"",19672.4,2879.3,2290.4,16793.1,588.9,""smooth"",""up"",""up"",""bad_move"",21293.6,1619.3,2056.9,19674.3,-437.6,""error"",""-"",""-"",""no_move"",28789.7,7493.5,2906.6,25342.3,540.8,""smooth"",""right"",""right"",""good_move"",31898.9,3108.2,2542.9,28790.7,565.3,""smooth"",""right"",""right"",""good_move"",34788.4,2888,2396.8,31900.4,491.2,""smooth"",""right"",""right"",""good_move""]","","",""
"7358","","<div style=""width:500px;"">
  <p>What determined the result of this run?</p>
  </div>","71","html-slider-response","40","1362561","0.0-10.0-1.0","284","1","2025-07-09 11:33:56","7701e855f2ef39aa3fd6c71abdc6918a","197.185.215.47","Mozilla/5.0 (Windows NT 10.0; Win64; x64) AppleWebKit/537.36 (KHTML, like Gecko) Chrome/138.0.0.0 Safari/537.36","WebKit","Chrome","138.0.0.0","Windows","10.0","https://app.prolific.com/","en-US,en;q=0.9","67d846e847a41d29a7f6fcb3","686d226cabeef709c732f8e1","686e52e371facb5c58915aa2","67d846e847a41d29a7f6fcb3","2025-07-09T11:56:42.709Z","","","","","","AttribQ","","","","","","","","","","","","","","","","","","","","","","","","","","","","","","","","","","","","","","50",""
"5537","","<div style=""width:500px;"">
  <p>How much control did you have over the ball?</p>
  </div>","55","html-slider-response","41","1368101","0.0-10.0-2.0","284","1","2025-07-09 11:33:56","7701e855f2ef39aa3fd6c71abdc6918a","197.185.215.47","Mozilla/5.0 (Windows NT 10.0; Win64; x64) AppleWebKit/537.36 (KHTML, like Gecko) Chrome/138.0.0.0 Safari/537.36","WebKit","Chrome","138.0.0.0","Windows","10.0","https://app.prolific.com/","en-US,en;q=0.9","67d846e847a41d29a7f6fcb3","686d226cabeef709c732f8e1","686e52e371facb5c58915aa2","67d846e847a41d29a7f6fcb3","2025-07-09T11:56:48.249Z","","","","","","ControlQ","","","","","","","","","","","","","","","","","","","","","","","","","","","","","","","","","","","","","","50",""
"6032","","<div style=""width:500px;"">
  <p>How would you describe your current emotional state?</p>
  </div>","65","html-slider-response","42","1374136","0.0-10.0-3.0","284","1","2025-07-09 11:33:56","7701e855f2ef39aa3fd6c71abdc6918a","197.185.215.47","Mozilla/5.0 (Windows NT 10.0; Win64; x64) AppleWebKit/537.36 (KHTML, like Gecko) Chrome/138.0.0.0 Safari/537.36","WebKit","Chrome","138.0.0.0","Windows","10.0","https://app.prolific.com/","en-US,en;q=0.9","67d846e847a41d29a7f6fcb3","686d226cabeef709c732f8e1","686e52e371facb5c58915aa2","67d846e847a41d29a7f6fcb3","2025-07-09T11:56:54.284Z","","","","","","StressQ","","","","","","","","","","","","","","","","","","","","","","","","","","","","","","","","","","","","","","50",""
"5627","","<div style=""width:500px;"">
  <p>What best describes how you currently feel?</p>
  </div>","70","html-slider-response","43","1379767","0.0-10.0-4.0","284","1","2025-07-09 11:33:56","7701e855f2ef39aa3fd6c71abdc6918a","197.185.215.47","Mozilla/5.0 (Windows NT 10.0; Win64; x64) AppleWebKit/537.36 (KHTML, like Gecko) Chrome/138.0.0.0 Safari/537.36","WebKit","Chrome","138.0.0.0","Windows","10.0","https://app.prolific.com/","en-US,en;q=0.9","67d846e847a41d29a7f6fcb3","686d226cabeef709c732f8e1","686e52e371facb5c58915aa2","67d846e847a41d29a7f6fcb3","2025-07-09T11:56:59.916Z","","","","","","MotivationQ","","","","","","","","","","","","","","","","","","","","","","","","","","","","","","","","","","","","","","50",""
"","","","","ctl-task-cpt","44","1409102","0.0-10.0-0.1","284","1","2025-07-09 11:33:56","7701e855f2ef39aa3fd6c71abdc6918a","197.185.215.47","Mozilla/5.0 (Windows NT 10.0; Win64; x64) AppleWebKit/537.36 (KHTML, like Gecko) Chrome/138.0.0.0 Safari/537.36","WebKit","Chrome","138.0.0.0","Windows","10.0","https://app.prolific.com/","en-US,en;q=0.9","67d846e847a41d29a7f6fcb3","686d226cabeef709c732f8e1","686e52e371facb5c58915aa2","67d846e847a41d29a7f6fcb3","2025-07-09T11:57:29.251Z","","","","","","","","","","","","","","","","win-only","0","g1:NW,g2:SE","0.9","2","0","1386041.7","2829.3","7834.1","26306.9","1","4","8","6","1","-1","-1","0","0","0","2621.1","3000","-2050","[""left"",""up""]","{""num_key_presses"":5,""num_perfect"":4,""num_errors"":0,""num_randdir"":1,""num_randdir_good_moves"":0,""num_whilered"":0,""num_whileblue"":0,""num_blue"":0,""num_good_moves"":4}","[298.22232142857143,294.12857142857143,3.6,298.22232142857143,294.12857142857143,104.7,298.22232142857143,294.12857142857143,209.9,298.22232142857143,294.12857142857143,313.7,298.22232142857143,294.12857142857143,416.2,298.22232142857143,294.12857142857143,520.1,298.22232142857143,294.12857142857143,623.6,298.22232142857143,294.12857142857143,727.2,298.22232142857143,294.12857142857143,834.7,298.22232142857143,294.12857142857143,935.8,311.22232142857143,297.12857142857143,1037.9,338.22232142857143,314.12857142857143,1139,332.22232142857143,322.12857142857143,1244.7,205.22232142857143,250.12857142857143,1349.6,186.22232142857143,237.12857142857143,1457.7,186.22232142857143,237.12857142857143,1564.4,186.22232142857143,237.12857142857143,1666.4,108.22232142857143,151.12857142857143,1767,80.22232142857143,118.12857142857143,1874,69.22232142857143,101.12857142857143,1979.5,68.22232142857143,92.12857142857143,2086,65.22232142857143,77.12857142857143,2196.8,62.222321428571426,67.12857142857143,2307.5,60.222321428571426,60.128571428571426,2416.9,60.222321428571426,60.128571428571426,2520.8,60.222321428571426,60.128571428571426,2670.5,60.222321428571426,60.128571428571426,2770.8,60.222321428571426,60.128571428571426,2891.4,60.222321428571426,60.128571428571426,2995.4,60.222321428571426,60.128571428571426,3108.6,60.222321428571426,60.128571428571426,3212.9,60.222321428571426,60.128571428571426,3315.3,60.222321428571426,60.128571428571426,3419.2,60.222321428571426,60.128571428571426,3530.4,60.222321428571426,60.128571428571426,3631.6,183.22232142857143,160.12857142857143,3733.1,239.22232142857143,219.12857142857143,3839.4,251.22232142857143,244.12857142857143,3944.3,254.22232142857143,250.12857142857143,4046.4,254.22232142857143,251.12857142857143,4150.2,254.22232142857143,252.12857142857143,4253.5,254.22232142857143,252.12857142857143,4356.5,254.22232142857143,252.12857142857143,4456.8,254.22232142857143,252.12857142857143,4561.7,254.22232142857143,252.12857142857143,4664.2,254.22232142857143,252.12857142857143,4764.8,254.22232142857143,252.12857142857143,4871.9,254.22232142857143,252.12857142857143,4972.4]","[2139.8,2139.8,1000,0,1139.8,""oops"",""up"",""down"",""bad_move"",5181.3,3039.6,2352,2141.8,687.5,""smooth"",""up"",""up"",""good_move"",8717.3,3534.5,2931.2,5182.8,603.3,""smooth"",""up"",""up"",""good_move"",11637.2,2917.7,2383.1,8719.5,534.6,""smooth"",""left"",""left"",""good_move"",15259.9,3621.2,3096.6,11638.8,524.5,""smooth"",""left"",""left"",""good_move""]","","",""
"6456","","<div style=""width:500px;"">
  <p>What determined the result of this run?</p>
  </div>","86","html-slider-response","45","1415562","0.0-10.0-1.1","284","1","2025-07-09 11:33:56","7701e855f2ef39aa3fd6c71abdc6918a","197.185.215.47","Mozilla/5.0 (Windows NT 10.0; Win64; x64) AppleWebKit/537.36 (KHTML, like Gecko) Chrome/138.0.0.0 Safari/537.36","WebKit","Chrome","138.0.0.0","Windows","10.0","https://app.prolific.com/","en-US,en;q=0.9","67d846e847a41d29a7f6fcb3","686d226cabeef709c732f8e1","686e52e371facb5c58915aa2","67d846e847a41d29a7f6fcb3","2025-07-09T11:57:35.710Z","","","","","","AttribQ","","","","","","","","","","","","","","","","","","","","","","","","","","","","","","","","","","","","","","50",""
"5580","","<div style=""width:500px;"">
  <p>How much control did you have over the ball?</p>
  </div>","94","html-slider-response","46","1421146","0.0-10.0-2.1","284","1","2025-07-09 11:33:56","7701e855f2ef39aa3fd6c71abdc6918a","197.185.215.47","Mozilla/5.0 (Windows NT 10.0; Win64; x64) AppleWebKit/537.36 (KHTML, like Gecko) Chrome/138.0.0.0 Safari/537.36","WebKit","Chrome","138.0.0.0","Windows","10.0","https://app.prolific.com/","en-US,en;q=0.9","67d846e847a41d29a7f6fcb3","686d226cabeef709c732f8e1","686e52e371facb5c58915aa2","67d846e847a41d29a7f6fcb3","2025-07-09T11:57:41.294Z","","","","","","ControlQ","","","","","","","","","","","","","","","","","","","","","","","","","","","","","","","","","","","","","","50",""
"5550","","<div style=""width:500px;"">
  <p>How would you describe your current emotional state?</p>
  </div>","53","html-slider-response","47","1426699","0.0-10.0-3.1","284","1","2025-07-09 11:33:56","7701e855f2ef39aa3fd6c71abdc6918a","197.185.215.47","Mozilla/5.0 (Windows NT 10.0; Win64; x64) AppleWebKit/537.36 (KHTML, like Gecko) Chrome/138.0.0.0 Safari/537.36","WebKit","Chrome","138.0.0.0","Windows","10.0","https://app.prolific.com/","en-US,en;q=0.9","67d846e847a41d29a7f6fcb3","686d226cabeef709c732f8e1","686e52e371facb5c58915aa2","67d846e847a41d29a7f6fcb3","2025-07-09T11:57:46.847Z","","","","","","StressQ","","","","","","","","","","","","","","","","","","","","","","","","","","","","","","","","","","","","","","50",""
"4809","","<div style=""width:500px;"">
  <p>What best describes how you currently feel?</p>
  </div>","50","html-slider-response","48","1431511","0.0-10.0-4.1","284","1","2025-07-09 11:33:56","7701e855f2ef39aa3fd6c71abdc6918a","197.185.215.47","Mozilla/5.0 (Windows NT 10.0; Win64; x64) AppleWebKit/537.36 (KHTML, like Gecko) Chrome/138.0.0.0 Safari/537.36","WebKit","Chrome","138.0.0.0","Windows","10.0","https://app.prolific.com/","en-US,en;q=0.9","67d846e847a41d29a7f6fcb3","686d226cabeef709c732f8e1","686e52e371facb5c58915aa2","67d846e847a41d29a7f6fcb3","2025-07-09T11:57:51.659Z","","","","","","MotivationQ","","","","","","","","","","","","","","","","","","","","","","","","","","","","","","","","","","","","","","50",""
"","","","","ctl-task-cpt","49","1459811","0.0-10.0-0.2","284","1","2025-07-09 11:33:56","7701e855f2ef39aa3fd6c71abdc6918a","197.185.215.47","Mozilla/5.0 (Windows NT 10.0; Win64; x64) AppleWebKit/537.36 (KHTML, like Gecko) Chrome/138.0.0.0 Safari/537.36","WebKit","Chrome","138.0.0.0","Windows","10.0","https://app.prolific.com/","en-US,en;q=0.9","67d846e847a41d29a7f6fcb3","686d226cabeef709c732f8e1","686e52e371facb5c58915aa2","67d846e847a41d29a7f6fcb3","2025-07-09T11:58:19.959Z","","","","","","","","","","","","","","","","win-only","0","g1:NW,g2:SE","0.8","3","0","1437783.2","1902","6909.5","25282.5","1","4","4","6","1","1","1","1","0","0.007575757575757576","2957.9","3000","1730","[""left"",""up""]","{""num_key_presses"":6,""num_perfect"":4,""num_errors"":0,""num_randdir"":2,""num_randdir_good_moves"":1,""num_whilered"":0,""num_whileblue"":0,""num_blue"":0,""num_good_moves"":5}","[297.22232142857143,293.12857142857143,3.4,297.22232142857143,293.12857142857143,104.9,297.22232142857143,293.12857142857143,212.3,297.22232142857143,293.12857142857143,316.8,297.22232142857143,293.12857142857143,426,297.22232142857143,293.12857142857143,531.9,297.22232142857143,293.12857142857143,639.9,297.22232142857143,293.12857142857143,753,297.22232142857143,293.12857142857143,863.4,297.22232142857143,293.12857142857143,964.8,297.22232142857143,293.12857142857143,1064.8,297.22232142857143,293.12857142857143,1171.7,297.22232142857143,293.12857142857143,1272.2,297.22232142857143,293.12857142857143,1374,297.22232142857143,293.12857142857143,1479.5,297.22232142857143,293.12857142857143,1587.2,280.22232142857143,292.12857142857143,1690.9,250.22232142857143,281.12857142857143,1804.7,167.22232142857143,101.12857142857143,1905.3,167.22232142857143,101.12857142857143,2005.9,167.22232142857143,101.12857142857143,2110,167.22232142857143,101.12857142857143,2212.2,102.22232142857143,101.12857142857143,2317.2,85.22232142857143,99.12857142857143,2420.5,77.22232142857143,97.12857142857143,2531.9,65.22232142857143,85.12857142857143,2638.5,62.222321428571426,79.12857142857143,2742.9,62.222321428571426,79.12857142857143,2843.5,62.222321428571426,79.12857142857143,2947.7,62.222321428571426,79.12857142857143,3057.9,62.222321428571426,79.12857142857143,3171.2,62.222321428571426,79.12857142857143,3271.2,62.222321428571426,79.12857142857143,3377.3,62.222321428571426,79.12857142857143,3482.8,62.222321428571426,79.12857142857143,3590.6,62.222321428571426,79.12857142857143,3709,62.222321428571426,79.12857142857143,3811.4,62.222321428571426,79.12857142857143,3911.5,62.222321428571426,79.12857142857143,4012.4,62.222321428571426,79.12857142857143,4119.6,62.222321428571426,79.12857142857143,4223.8,62.222321428571426,79.12857142857143,4325.2,62.222321428571426,79.12857142857143,4427,62.222321428571426,79.12857142857143,4531.9,62.222321428571426,79.12857142857143,4637.2,62.222321428571426,79.12857142857143,4740.6,62.222321428571426,79.12857142857143,4840.7,62.222321428571426,79.12857142857143,4941.1]","[1436.8,1436.8,1000,0,436.8,""oops"",""up"",""up"",""good_move"",4081.2,2638.7,2139.8,1442.6,498.8,""smooth"",""up"",""up"",""good_move"",7723.7,3641.2,3115.9,4082.5,525.3,""smooth"",""left"",""left"",""good_move"",10802.4,3077.3,2608.1,7725.1,469.2,""oops"",""left"",""right"",""bad_move"",14404.5,3600.6,3125,10803.9,475.6,""smooth"",""left"",""left"",""good_move"",18119.2,3713.5,3150.7,14405.7,562.8,""smooth"",""left"",""left"",""good_move""]","","",""
"6194","","<div style=""width:500px;"">
  <p>What determined the result of this run?</p>
  </div>","98","html-slider-response","50","1466008","0.0-10.0-1.2","284","1","2025-07-09 11:33:56","7701e855f2ef39aa3fd6c71abdc6918a","197.185.215.47","Mozilla/5.0 (Windows NT 10.0; Win64; x64) AppleWebKit/537.36 (KHTML, like Gecko) Chrome/138.0.0.0 Safari/537.36","WebKit","Chrome","138.0.0.0","Windows","10.0","https://app.prolific.com/","en-US,en;q=0.9","67d846e847a41d29a7f6fcb3","686d226cabeef709c732f8e1","686e52e371facb5c58915aa2","67d846e847a41d29a7f6fcb3","2025-07-09T11:58:26.156Z","","","","","","AttribQ","","","","","","","","","","","","","","","","","","","","","","","","","","","","","","","","","","","","","","50",""
"5365","","<div style=""width:500px;"">
  <p>How much control did you have over the ball?</p>
  </div>","99","html-slider-response","51","1471377","0.0-10.0-2.2","284","1","2025-07-09 11:33:56","7701e855f2ef39aa3fd6c71abdc6918a","197.185.215.47","Mozilla/5.0 (Windows NT 10.0; Win64; x64) AppleWebKit/537.36 (KHTML, like Gecko) Chrome/138.0.0.0 Safari/537.36","WebKit","Chrome","138.0.0.0","Windows","10.0","https://app.prolific.com/","en-US,en;q=0.9","67d846e847a41d29a7f6fcb3","686d226cabeef709c732f8e1","686e52e371facb5c58915aa2","67d846e847a41d29a7f6fcb3","2025-07-09T11:58:31.525Z","","","","","","ControlQ","","","","","","","","","","","","","","","","","","","","","","","","","","","","","","","","","","","","","","50",""
"7849","","<div style=""width:500px;"">
  <p>How would you describe your current emotional state?</p>
  </div>","45","html-slider-response","52","1479229","0.0-10.0-3.2","284","1","2025-07-09 11:33:56","7701e855f2ef39aa3fd6c71abdc6918a","197.185.215.47","Mozilla/5.0 (Windows NT 10.0; Win64; x64) AppleWebKit/537.36 (KHTML, like Gecko) Chrome/138.0.0.0 Safari/537.36","WebKit","Chrome","138.0.0.0","Windows","10.0","https://app.prolific.com/","en-US,en;q=0.9","67d846e847a41d29a7f6fcb3","686d226cabeef709c732f8e1","686e52e371facb5c58915aa2","67d846e847a41d29a7f6fcb3","2025-07-09T11:58:39.377Z","","","","","","StressQ","","","","","","","","","","","","","","","","","","","","","","","","","","","","","","","","","","","","","","50",""
"5386","","<div style=""width:500px;"">
  <p>What best describes how you currently feel?</p>
  </div>","77","html-slider-response","53","1484619","0.0-10.0-4.2","284","1","2025-07-09 11:33:56","7701e855f2ef39aa3fd6c71abdc6918a","197.185.215.47","Mozilla/5.0 (Windows NT 10.0; Win64; x64) AppleWebKit/537.36 (KHTML, like Gecko) Chrome/138.0.0.0 Safari/537.36","WebKit","Chrome","138.0.0.0","Windows","10.0","https://app.prolific.com/","en-US,en;q=0.9","67d846e847a41d29a7f6fcb3","686d226cabeef709c732f8e1","686e52e371facb5c58915aa2","67d846e847a41d29a7f6fcb3","2025-07-09T11:58:44.767Z","","","","","","MotivationQ","","","","","","","","","","","","","","","","","","","","","","","","","","","","","","","","","","","","","","50",""
"","","","","ctl-task-cpt","54","1514656","0.0-10.0-0.3","284","1","2025-07-09 11:33:56","7701e855f2ef39aa3fd6c71abdc6918a","197.185.215.47","Mozilla/5.0 (Windows NT 10.0; Win64; x64) AppleWebKit/537.36 (KHTML, like Gecko) Chrome/138.0.0.0 Safari/537.36","WebKit","Chrome","138.0.0.0","Windows","10.0","https://app.prolific.com/","en-US,en;q=0.9","67d846e847a41d29a7f6fcb3","686d226cabeef709c732f8e1","686e52e371facb5c58915aa2","67d846e847a41d29a7f6fcb3","2025-07-09T11:59:14.804Z","","","","","","","","","","","","","","","","win-only","3","g1:SW,g2:NE","0.7","4","0","1490893","3365.7","8373.1","26943.2","1","4","8","6","1","1","1","2","1","0.015151515151515152","3383.1","3000","2515","[""down"",""left""]","{""num_key_presses"":4,""num_perfect"":4,""num_errors"":0,""num_randdir"":0,""num_randdir_good_moves"":0,""num_whilered"":0,""num_whileblue"":0,""num_blue"":1,""num_good_moves"":4}","[301.22232142857143,302.12857142857143,6.5,301.22232142857143,302.12857142857143,119.6,301.22232142857143,302.12857142857143,230.4,301.22232142857143,302.12857142857143,336.8,301.22232142857143,302.12857142857143,453,301.22232142857143,302.12857142857143,563.5,301.22232142857143,302.12857142857143,669.1,301.22232142857143,302.12857142857143,774.5,301.22232142857143,302.12857142857143,893.7,301.22232142857143,302.12857142857143,1002.8,301.22232142857143,302.12857142857143,1112.4,301.22232142857143,302.12857142857143,1217,301.22232142857143,302.12857142857143,1331,301.22232142857143,302.12857142857143,1435.9,301.22232142857143,302.12857142857143,1544.9,301.22232142857143,302.12857142857143,1650.4,301.22232142857143,302.12857142857143,1759.2,301.22232142857143,302.12857142857143,1866.5,301.22232142857143,302.12857142857143,1973.1,301.22232142857143,302.12857142857143,2085.2,301.22232142857143,302.12857142857143,2192.9,301.22232142857143,302.12857142857143,2302.6,301.22232142857143,302.12857142857143,2406.5,167.22232142857143,359.12857142857143,2530.8,84.22232142857143,396.12857142857143,2630.9,40.222321428571426,469.12857142857143,2732.4,21.222321428571426,517.1285714285714,2842.6,26.222321428571426,539.1285714285714,2951.7,41.222321428571426,561.1285714285714,3053.7,48.222321428571426,568.1285714285714,3159.8,48.222321428571426,568.1285714285714,3272.2,48.222321428571426,568.1285714285714,3397.7,48.222321428571426,568.1285714285714,3514.5,48.222321428571426,568.1285714285714,3631.5,48.222321428571426,568.1285714285714,3743,48.222321428571426,568.1285714285714,3853.6,48.222321428571426,568.1285714285714,3963.9,48.222321428571426,568.1285714285714,4070.2,48.222321428571426,568.1285714285714,4187.5,48.222321428571426,568.1285714285714,4296.3,48.222321428571426,568.1285714285714,4407.4,48.222321428571426,568.1285714285714,4518.7,48.222321428571426,568.1285714285714,4627.5,48.222321428571426,568.1285714285714,4740.8,48.222321428571426,568.1285714285714,4853.7,48.222321428571426,568.1285714285714,4959.4]","[1694,1694,1000,0,694,""smooth"",""down"",""down"",""good_move"",8977,7281.7,2602.5,5740.6,633.9,""smooth"",""down"",""down"",""good_move"",12208.5,3221.7,2651.8,8986.8,569.9,""smooth"",""left"",""left"",""good_move"",17963.9,5749.2,2376.1,12214.8,3373.1,""smooth"",""left"",""left"",""good_move""]","","",""
"6992","","<div style=""width:500px;"">
  <p>What determined the result of this run?</p>
  </div>","98","html-slider-response","55","1521654","0.0-10.0-1.3","284","1","2025-07-09 11:33:56","7701e855f2ef39aa3fd6c71abdc6918a","197.185.215.47","Mozilla/5.0 (Windows NT 10.0; Win64; x64) AppleWebKit/537.36 (KHTML, like Gecko) Chrome/138.0.0.0 Safari/537.36","WebKit","Chrome","138.0.0.0","Windows","10.0","https://app.prolific.com/","en-US,en;q=0.9","67d846e847a41d29a7f6fcb3","686d226cabeef709c732f8e1","686e52e371facb5c58915aa2","67d846e847a41d29a7f6fcb3","2025-07-09T11:59:21.802Z","","","","","","AttribQ","","","","","","","","","","","","","","","","","","","","","","","","","","","","","","","","","","","","","","50",""
"5042","","<div style=""width:500px;"">
  <p>How much control did you have over the ball?</p>
  </div>","96","html-slider-response","56","1526701","0.0-10.0-2.3","284","1","2025-07-09 11:33:56","7701e855f2ef39aa3fd6c71abdc6918a","197.185.215.47","Mozilla/5.0 (Windows NT 10.0; Win64; x64) AppleWebKit/537.36 (KHTML, like Gecko) Chrome/138.0.0.0 Safari/537.36","WebKit","Chrome","138.0.0.0","Windows","10.0","https://app.prolific.com/","en-US,en;q=0.9","67d846e847a41d29a7f6fcb3","686d226cabeef709c732f8e1","686e52e371facb5c58915aa2","67d846e847a41d29a7f6fcb3","2025-07-09T11:59:26.850Z","","","","","","ControlQ","","","","","","","","","","","","","","","","","","","","","","","","","","","","","","","","","","","","","","50",""
"5899","","<div style=""width:500px;"">
  <p>How would you describe your current emotional state?</p>
  </div>","34","html-slider-response","57","1532606","0.0-10.0-3.3","284","1","2025-07-09 11:33:56","7701e855f2ef39aa3fd6c71abdc6918a","197.185.215.47","Mozilla/5.0 (Windows NT 10.0; Win64; x64) AppleWebKit/537.36 (KHTML, like Gecko) Chrome/138.0.0.0 Safari/537.36","WebKit","Chrome","138.0.0.0","Windows","10.0","https://app.prolific.com/","en-US,en;q=0.9","67d846e847a41d29a7f6fcb3","686d226cabeef709c732f8e1","686e52e371facb5c58915aa2","67d846e847a41d29a7f6fcb3","2025-07-09T11:59:32.754Z","","","","","","StressQ","","","","","","","","","","","","","","","","","","","","","","","","","","","","","","","","","","","","","","50",""
"4294","","<div style=""width:500px;"">
  <p>What best describes how you currently feel?</p>
  </div>","34","html-slider-response","58","1536908","0.0-10.0-4.3","284","1","2025-07-09 11:33:56","7701e855f2ef39aa3fd6c71abdc6918a","197.185.215.47","Mozilla/5.0 (Windows NT 10.0; Win64; x64) AppleWebKit/537.36 (KHTML, like Gecko) Chrome/138.0.0.0 Safari/537.36","WebKit","Chrome","138.0.0.0","Windows","10.0","https://app.prolific.com/","en-US,en;q=0.9","67d846e847a41d29a7f6fcb3","686d226cabeef709c732f8e1","686e52e371facb5c58915aa2","67d846e847a41d29a7f6fcb3","2025-07-09T11:59:37.056Z","","","","","","MotivationQ","","","","","","","","","","","","","","","","","","","","","","","","","","","","","","","","","","","","","","50",""
"","","","","ctl-task-cpt","59","1566294","0.0-10.0-0.4","284","1","2025-07-09 11:33:56","7701e855f2ef39aa3fd6c71abdc6918a","197.185.215.47","Mozilla/5.0 (Windows NT 10.0; Win64; x64) AppleWebKit/537.36 (KHTML, like Gecko) Chrome/138.0.0.0 Safari/537.36","WebKit","Chrome","138.0.0.0","Windows","10.0","https://app.prolific.com/","en-US,en;q=0.9","67d846e847a41d29a7f6fcb3","686d226cabeef709c732f8e1","686e52e371facb5c58915aa2","67d846e847a41d29a7f6fcb3","2025-07-09T12:00:06.442Z","","","","","","","","","","","","","","","","win-only","1","g1:NE,g2:SW","0.6","5","0","1543183.4","2272.8","7283.7","26338.5","1","4","8","6","2","8","8","10","2","0.07575757575757576","3035.1","3000","2320","[""down"",""left""]","{""num_key_presses"":6,""num_perfect"":5,""num_errors"":0,""num_randdir"":1,""num_randdir_good_moves"":1,""num_whilered"":0,""num_whileblue"":0,""num_blue"":0,""num_good_moves"":6}","[301.22232142857143,298.12857142857143,1.9,301.22232142857143,298.12857142857143,103.6,301.22232142857143,298.12857142857143,206.9,301.22232142857143,298.12857142857143,307.2,301.22232142857143,298.12857142857143,413.9,301.22232142857143,298.12857142857143,518.2,301.22232142857143,298.12857142857143,629.6,301.22232142857143,298.12857142857143,739.3,301.22232142857143,298.12857142857143,854.6,301.22232142857143,298.12857142857143,957.4,301.22232142857143,298.12857142857143,1057.5,239.22232142857143,318.12857142857143,1160.7,211.22232142857143,358.12857142857143,1271.7,211.22232142857143,358.12857142857143,1372.3,211.22232142857143,358.12857142857143,1474.5,211.22232142857143,358.12857142857143,1580.8,211.22232142857143,358.12857142857143,1685.5,211.22232142857143,358.12857142857143,1789.7,211.22232142857143,358.12857142857143,1897.1,161.22232142857143,390.12857142857143,2016.9,128.22232142857143,427.12857142857143,2133.9,116.22232142857143,442.12857142857143,2247.6,92.22232142857143,471.12857142857143,2353.3,85.22232142857143,488.12857142857143,2465.9,83.22232142857143,497.12857142857143,2576.2,80.22232142857143,504.12857142857143,2690.5,80.22232142857143,505.12857142857143,2801.5,80.22232142857143,505.12857142857143,2906.1,80.22232142857143,505.12857142857143,3023.9,80.22232142857143,505.12857142857143,3125.2,80.22232142857143,505.12857142857143,3237,80.22232142857143,505.12857142857143,3345.8,80.22232142857143,505.12857142857143,3451.3,80.22232142857143,505.12857142857143,3562.7,80.22232142857143,505.12857142857143,3676.8,80.22232142857143,505.12857142857143,3782,80.22232142857143,505.12857142857143,3882.3,80.22232142857143,505.12857142857143,3994.4,80.22232142857143,505.12857142857143,4106.7,80.22232142857143,505.12857142857143,4219.6,80.22232142857143,505.12857142857143,4323.7,80.22232142857143,505.12857142857143,4433.5,80.22232142857143,505.12857142857143,4535.2,80.22232142857143,505.12857142857143,4644.3,80.22232142857143,505.12857142857143,4770.9,80.22232142857143,505.12857142857143,4888.8]","[1101.5,1101.5,1000,0,101.5,""smooth"",""down"",""down"",""good_move"",4220,3116.7,2551.1,1103.3,565.6,""oops"",""down"",""left"",""good_move"",7738.6,3516.9,2428.5,4221.7,1088.4,""smooth"",""down"",""down"",""good_move"",10835.1,3095.1,2547.9,7740,547.2,""smooth"",""down"",""down"",""good_move"",14260.5,3423.8,2915.9,10836.8,507.8,""smooth"",""left"",""left"",""good_move"",18612.6,4350.7,2361.7,14261.9,1989,""smooth"",""left"",""left"",""good_move""]","","",""
"6190","","<div style=""width:500px;"">
  <p>What determined the result of this run?</p>
  </div>","98","html-slider-response","60","1572491","0.0-10.0-1.4","284","1","2025-07-09 11:33:56","7701e855f2ef39aa3fd6c71abdc6918a","197.185.215.47","Mozilla/5.0 (Windows NT 10.0; Win64; x64) AppleWebKit/537.36 (KHTML, like Gecko) Chrome/138.0.0.0 Safari/537.36","WebKit","Chrome","138.0.0.0","Windows","10.0","https://app.prolific.com/","en-US,en;q=0.9","67d846e847a41d29a7f6fcb3","686d226cabeef709c732f8e1","686e52e371facb5c58915aa2","67d846e847a41d29a7f6fcb3","2025-07-09T12:00:12.640Z","","","","","","AttribQ","","","","","","","","","","","","","","","","","","","","","","","","","","","","","","","","","","","","","","50",""
"6552","","<div style=""width:500px;"">
  <p>How much control did you have over the ball?</p>
  </div>","96","html-slider-response","61","1579052","0.0-10.0-2.4","284","1","2025-07-09 11:33:56","7701e855f2ef39aa3fd6c71abdc6918a","197.185.215.47","Mozilla/5.0 (Windows NT 10.0; Win64; x64) AppleWebKit/537.36 (KHTML, like Gecko) Chrome/138.0.0.0 Safari/537.36","WebKit","Chrome","138.0.0.0","Windows","10.0","https://app.prolific.com/","en-US,en;q=0.9","67d846e847a41d29a7f6fcb3","686d226cabeef709c732f8e1","686e52e371facb5c58915aa2","67d846e847a41d29a7f6fcb3","2025-07-09T12:00:19.200Z","","","","","","ControlQ","","","","","","","","","","","","","","","","","","","","","","","","","","","","","","","","","","","","","","50",""
"5134","","<div style=""width:500px;"">
  <p>How would you describe your current emotional state?</p>
  </div>","20","html-slider-response","62","1584191","0.0-10.0-3.4","284","1","2025-07-09 11:33:56","7701e855f2ef39aa3fd6c71abdc6918a","197.185.215.47","Mozilla/5.0 (Windows NT 10.0; Win64; x64) AppleWebKit/537.36 (KHTML, like Gecko) Chrome/138.0.0.0 Safari/537.36","WebKit","Chrome","138.0.0.0","Windows","10.0","https://app.prolific.com/","en-US,en;q=0.9","67d846e847a41d29a7f6fcb3","686d226cabeef709c732f8e1","686e52e371facb5c58915aa2","67d846e847a41d29a7f6fcb3","2025-07-09T12:00:24.339Z","","","","","","StressQ","","","","","","","","","","","","","","","","","","","","","","","","","","","","","","","","","","","","","","50",""
"8389","","<div style=""width:500px;"">
  <p>What best describes how you currently feel?</p>
  </div>","82","html-slider-response","63","1592586","0.0-10.0-4.4","284","1","2025-07-09 11:33:56","7701e855f2ef39aa3fd6c71abdc6918a","197.185.215.47","Mozilla/5.0 (Windows NT 10.0; Win64; x64) AppleWebKit/537.36 (KHTML, like Gecko) Chrome/138.0.0.0 Safari/537.36","WebKit","Chrome","138.0.0.0","Windows","10.0","https://app.prolific.com/","en-US,en;q=0.9","67d846e847a41d29a7f6fcb3","686d226cabeef709c732f8e1","686e52e371facb5c58915aa2","67d846e847a41d29a7f6fcb3","2025-07-09T12:00:32.734Z","","","","","","MotivationQ","","","","","","","","","","","","","","","","","","","","","","","","","","","","","","","","","","","","","","50",""
"","","","","ctl-task-cpt","64","1689056","0.0-10.0-0.5","284","1","2025-07-09 11:33:56","7701e855f2ef39aa3fd6c71abdc6918a","197.185.215.47","Mozilla/5.0 (Windows NT 10.0; Win64; x64) AppleWebKit/537.36 (KHTML, like Gecko) Chrome/138.0.0.0 Safari/537.36","WebKit","Chrome","138.0.0.0","Windows","10.0","https://app.prolific.com/","en-US,en;q=0.9","67d846e847a41d29a7f6fcb3","686d226cabeef709c732f8e1","686e52e371facb5c58915aa2","67d846e847a41d29a7f6fcb3","2025-07-09T12:02:09.205Z","","","","","","","","","","","","","","","","win-only","2","g1:SE,g2:NW","0.5","6","0","1598861.1","2788.2","7815.3","93409.8","1","4","4","6","2","4","4","14","10","0.10606060606060606","2929.4","3000","1960","[""left"",""up""]","{""num_key_presses"":12,""num_perfect"":6,""num_errors"":0,""num_randdir"":6,""num_randdir_good_moves"":3,""num_whilered"":0,""num_whileblue"":0,""num_blue"":1,""num_good_moves"":9}","[295.22232142857143,295.12857142857143,1.3,295.22232142857143,295.12857142857143,121.8,295.22232142857143,295.12857142857143,246.4,295.22232142857143,295.12857142857143,370.7,295.22232142857143,295.12857142857143,502.9,295.22232142857143,295.12857142857143,627.9,295.22232142857143,295.12857142857143,747.6,295.22232142857143,295.12857142857143,870.4,295.22232142857143,295.12857142857143,988.2,295.22232142857143,295.12857142857143,1110.1,295.22232142857143,295.12857142857143,1230,295.22232142857143,295.12857142857143,1351.2,300.22232142857143,297.12857142857143,1484.7,335.22232142857143,318.12857142857143,1588.5,370.22232142857143,326.12857142857143,1738.4,288.22232142857143,131.12857142857143,1878.4,245.22232142857143,100.12857142857143,2025,225.22232142857143,92.12857142857143,2140.4,149.22232142857143,85.12857142857143,2292.4,89.22232142857143,52.128571428571426,2431.1,89.22232142857143,52.128571428571426,2556.8,89.22232142857143,52.128571428571426,2685.2,89.22232142857143,52.128571428571426,2808.2,89.22232142857143,52.128571428571426,2943.1,89.22232142857143,52.128571428571426,3066.4,89.22232142857143,52.128571428571426,3201.2,89.22232142857143,52.128571428571426,3321.7,89.22232142857143,52.128571428571426,3447.8,89.22232142857143,52.128571428571426,3568.5,89.22232142857143,52.128571428571426,3692.5,89.22232142857143,52.128571428571426,3816.1,89.22232142857143,52.128571428571426,3943.6,89.22232142857143,52.128571428571426,4068,89.22232142857143,52.128571428571426,4200.5,89.22232142857143,52.128571428571426,4322.5,89.22232142857143,52.128571428571426,4448.9,89.22232142857143,52.128571428571426,4571.9,89.22232142857143,52.128571428571426,4691.6,89.22232142857143,52.128571428571426,4814.2,89.22232142857143,52.128571428571426,4936.9]","[1977.1,1977.2,1000,0,977.2,""smooth"",""up"",""up"",""good_move"",9834.3,7855.7,3188.7,1978.6,4667,""smooth"",""up"",""up"",""good_move"",17744.1,7908.2,2816.7,9835.9,5091.5,""oops"",""left"",""up"",""good_move"",25811.3,8066.3,2597.7,17745,5468.6,""smooth"",""left"",""left"",""good_move"",34034.6,8222.1,2210.1,25812.5,6012,""oops"",""left"",""down"",""bad_move"",40561.5,6525.7,2525.8,37408.6,627.1,""smooth"",""left"",""left"",""good_move"",49554.9,8992.6,2281.4,40562.5,6711.1,""oops"",""left"",""down"",""bad_move"",53091.2,3535.2,2562.5,49556,972.7,""smooth"",""left"",""left"",""good_move"",61798.1,8705.7,2133.1,53092.4,6572.6,""oops"",""up"",""up"",""good_move"",70425.5,8624.3,2727.3,61801.2,5897,""oops"",""up"",""down"",""bad_move"",74255.7,3828.7,2973.6,70427,855.1,""smooth"",""up"",""up"",""good_move"",84900.2,10643.2,2495.9,74257,8147.3,""oops"",""up"",""up"",""good_move""]","","",""
"6584","","<div style=""width:500px;"">
  <p>What determined the result of this run?</p>
  </div>","93","html-slider-response","65","1695648","0.0-10.0-1.5","284","1","2025-07-09 11:33:56","7701e855f2ef39aa3fd6c71abdc6918a","197.185.215.47","Mozilla/5.0 (Windows NT 10.0; Win64; x64) AppleWebKit/537.36 (KHTML, like Gecko) Chrome/138.0.0.0 Safari/537.36","WebKit","Chrome","138.0.0.0","Windows","10.0","https://app.prolific.com/","en-US,en;q=0.9","67d846e847a41d29a7f6fcb3","686d226cabeef709c732f8e1","686e52e371facb5c58915aa2","67d846e847a41d29a7f6fcb3","2025-07-09T12:02:15.797Z","","","","","","AttribQ","","","","","","","","","","","","","","","","","","","","","","","","","","","","","","","","","","","","","","50",""
"4265","","<div style=""width:500px;"">
  <p>How much control did you have over the ball?</p>
  </div>","85","html-slider-response","66","1699924","0.0-10.0-2.5","284","1","2025-07-09 11:33:56","7701e855f2ef39aa3fd6c71abdc6918a","197.185.215.47","Mozilla/5.0 (Windows NT 10.0; Win64; x64) AppleWebKit/537.36 (KHTML, like Gecko) Chrome/138.0.0.0 Safari/537.36","WebKit","Chrome","138.0.0.0","Windows","10.0","https://app.prolific.com/","en-US,en;q=0.9","67d846e847a41d29a7f6fcb3","686d226cabeef709c732f8e1","686e52e371facb5c58915aa2","67d846e847a41d29a7f6fcb3","2025-07-09T12:02:20.073Z","","","","","","ControlQ","","","","","","","","","","","","","","","","","","","","","","","","","","","","","","","","","","","","","","50",""
"5387","","<div style=""width:500px;"">
  <p>How would you describe your current emotional state?</p>
  </div>","14","html-slider-response","67","1705321","0.0-10.0-3.5","284","1","2025-07-09 11:33:56","7701e855f2ef39aa3fd6c71abdc6918a","197.185.215.47","Mozilla/5.0 (Windows NT 10.0; Win64; x64) AppleWebKit/537.36 (KHTML, like Gecko) Chrome/138.0.0.0 Safari/537.36","WebKit","Chrome","138.0.0.0","Windows","10.0","https://app.prolific.com/","en-US,en;q=0.9","67d846e847a41d29a7f6fcb3","686d226cabeef709c732f8e1","686e52e371facb5c58915aa2","67d846e847a41d29a7f6fcb3","2025-07-09T12:02:25.470Z","","","","","","StressQ","","","","","","","","","","","","","","","","","","","","","","","","","","","","","","","","","","","","","","50",""
"6598","","<div style=""width:500px;"">
  <p>What best describes how you currently feel?</p>
  </div>","81","html-slider-response","68","1711931","0.0-10.0-4.5","284","1","2025-07-09 11:33:56","7701e855f2ef39aa3fd6c71abdc6918a","197.185.215.47","Mozilla/5.0 (Windows NT 10.0; Win64; x64) AppleWebKit/537.36 (KHTML, like Gecko) Chrome/138.0.0.0 Safari/537.36","WebKit","Chrome","138.0.0.0","Windows","10.0","https://app.prolific.com/","en-US,en;q=0.9","67d846e847a41d29a7f6fcb3","686d226cabeef709c732f8e1","686e52e371facb5c58915aa2","67d846e847a41d29a7f6fcb3","2025-07-09T12:02:32.080Z","","","","","","MotivationQ","","","","","","","","","","","","","","","","","","","","","","","","","","","","","","","","","","","","","","50",""
"","","","","ctl-task-cpt","69","1777588","0.0-10.0-0.6","284","1","2025-07-09 11:33:56","7701e855f2ef39aa3fd6c71abdc6918a","197.185.215.47","Mozilla/5.0 (Windows NT 10.0; Win64; x64) AppleWebKit/537.36 (KHTML, like Gecko) Chrome/138.0.0.0 Safari/537.36","WebKit","Chrome","138.0.0.0","Windows","10.0","https://app.prolific.com/","en-US,en;q=0.9","67d846e847a41d29a7f6fcb3","686d226cabeef709c732f8e1","686e52e371facb5c58915aa2","67d846e847a41d29a7f6fcb3","2025-07-09T12:03:37.736Z","","","","","","","","","","","","","","","","win-only","1","g1:NE,g2:SW","0.4","7","0","1718212.1","2152.6","7156.2","62618.4","1","4","4","6","2","4","4","18","14","0.13636363636363635","4158.9","3000","1750","[""down"",""left""]","{""num_key_presses"":8,""num_perfect"":4,""num_errors"":0,""num_randdir"":4,""num_randdir_good_moves"":3,""num_whilered"":0,""num_whileblue"":0,""num_blue"":3,""num_good_moves"":7}","[294.22232142857143,291.12857142857143,0.7,294.22232142857143,291.12857142857143,141.1,294.22232142857143,291.12857142857143,300.6,294.22232142857143,291.12857142857143,457.6,294.22232142857143,291.12857142857143,568.7,294.22232142857143,291.12857142857143,727.2,294.22232142857143,291.12857142857143,889.9,294.22232142857143,291.12857142857143,1044.5,294.22232142857143,291.12857142857143,1201.9,294.22232142857143,291.12857142857143,1370.8,294.22232142857143,291.12857142857143,1528.4,294.22232142857143,291.12857142857143,1684.6,294.22232142857143,291.12857142857143,1845.6,294.22232142857143,291.12857142857143,2003.6,294.22232142857143,291.12857142857143,2159.3,294.22232142857143,291.12857142857143,2323.7,294.22232142857143,291.12857142857143,2482.9,294.22232142857143,291.12857142857143,2647.8,294.22232142857143,291.12857142857143,2811.6,294.22232142857143,291.12857142857143,2971.8,183.22232142857143,385.12857142857143,3145.3,183.22232142857143,385.12857142857143,3310.7,183.22232142857143,385.12857142857143,3474.2,78.22232142857143,485.12857142857143,3669.7,65.22232142857143,504.12857142857143,3848.8,65.22232142857143,505.12857142857143,4010.1,65.22232142857143,505.12857142857143,4183.8,65.22232142857143,505.12857142857143,4344.6,65.22232142857143,505.12857142857143,4505.5,65.22232142857143,505.12857142857143,4663.6,65.22232142857143,505.12857142857143,4822.1]","[2227.2,2227.2,1000,0,1227.2,""smooth"",""down"",""down"",""good_move"",13669.4,11441.3,2651.4,10290.1,727.9,""oops"",""down"",""left"",""good_move"",29966.1,16295.8,2497.2,13670.3,13798.6,""oops"",""down"",""down"",""good_move"",37560.6,7593.8,2396.5,34116.2,1047.9,""smooth"",""down"",""down"",""good_move"",42874.1,5312.3,2081.1,37561.8,3231.2,""oops"",""left"",""up"",""bad_move"",47771.6,4896,2515.1,42875.7,2380.8,""oops"",""down"",""down"",""good_move"",51053.8,3278.3,2616.8,47775.5,661.5,""smooth"",""left"",""left"",""good_move"",55056,4000.8,3057.1,51055.3,943.7,""smooth"",""left"",""left"",""good_move""]","","",""
"4404","","<div style=""width:500px;"">
  <p>What determined the result of this run?</p>
  </div>","86","html-slider-response","70","1781995","0.0-10.0-1.6","284","1","2025-07-09 11:33:56","7701e855f2ef39aa3fd6c71abdc6918a","197.185.215.47","Mozilla/5.0 (Windows NT 10.0; Win64; x64) AppleWebKit/537.36 (KHTML, like Gecko) Chrome/138.0.0.0 Safari/537.36","WebKit","Chrome","138.0.0.0","Windows","10.0","https://app.prolific.com/","en-US,en;q=0.9","67d846e847a41d29a7f6fcb3","686d226cabeef709c732f8e1","686e52e371facb5c58915aa2","67d846e847a41d29a7f6fcb3","2025-07-09T12:03:42.143Z","","","","","","AttribQ","","","","","","","","","","","","","","","","","","","","","","","","","","","","","","","","","","","","","","50",""
"4671","","<div style=""width:500px;"">
  <p>How much control did you have over the ball?</p>
  </div>","75","html-slider-response","71","1786671","0.0-10.0-2.6","284","1","2025-07-09 11:33:56","7701e855f2ef39aa3fd6c71abdc6918a","197.185.215.47","Mozilla/5.0 (Windows NT 10.0; Win64; x64) AppleWebKit/537.36 (KHTML, like Gecko) Chrome/138.0.0.0 Safari/537.36","WebKit","Chrome","138.0.0.0","Windows","10.0","https://app.prolific.com/","en-US,en;q=0.9","67d846e847a41d29a7f6fcb3","686d226cabeef709c732f8e1","686e52e371facb5c58915aa2","67d846e847a41d29a7f6fcb3","2025-07-09T12:03:46.819Z","","","","","","ControlQ","","","","","","","","","","","","","","","","","","","","","","","","","","","","","","","","","","","","","","50",""
"4037","","<div style=""width:500px;"">
  <p>How would you describe your current emotional state?</p>
  </div>","33","html-slider-response","72","1790712","0.0-10.0-3.6","284","1","2025-07-09 11:33:56","7701e855f2ef39aa3fd6c71abdc6918a","197.185.215.47","Mozilla/5.0 (Windows NT 10.0; Win64; x64) AppleWebKit/537.36 (KHTML, like Gecko) Chrome/138.0.0.0 Safari/537.36","WebKit","Chrome","138.0.0.0","Windows","10.0","https://app.prolific.com/","en-US,en;q=0.9","67d846e847a41d29a7f6fcb3","686d226cabeef709c732f8e1","686e52e371facb5c58915aa2","67d846e847a41d29a7f6fcb3","2025-07-09T12:03:50.861Z","","","","","","StressQ","","","","","","","","","","","","","","","","","","","","","","","","","","","","","","","","","","","","","","50",""
"5044","","<div style=""width:500px;"">
  <p>What best describes how you currently feel?</p>
  </div>","86","html-slider-response","73","1795760","0.0-10.0-4.6","284","1","2025-07-09 11:33:56","7701e855f2ef39aa3fd6c71abdc6918a","197.185.215.47","Mozilla/5.0 (Windows NT 10.0; Win64; x64) AppleWebKit/537.36 (KHTML, like Gecko) Chrome/138.0.0.0 Safari/537.36","WebKit","Chrome","138.0.0.0","Windows","10.0","https://app.prolific.com/","en-US,en;q=0.9","67d846e847a41d29a7f6fcb3","686d226cabeef709c732f8e1","686e52e371facb5c58915aa2","67d846e847a41d29a7f6fcb3","2025-07-09T12:03:55.908Z","","","","","","MotivationQ","","","","","","","","","","","","","","","","","","","","","","","","","","","","","","","","","","","","","","50",""
"","","","","ctl-task-cpt","74","1935984","0.0-10.0-0.7","284","1","2025-07-09 11:33:56","7701e855f2ef39aa3fd6c71abdc6918a","197.185.215.47","Mozilla/5.0 (Windows NT 10.0; Win64; x64) AppleWebKit/537.36 (KHTML, like Gecko) Chrome/138.0.0.0 Safari/537.36","WebKit","Chrome","138.0.0.0","Windows","10.0","https://app.prolific.com/","en-US,en;q=0.9","67d846e847a41d29a7f6fcb3","686d226cabeef709c732f8e1","686e52e371facb5c58915aa2","67d846e847a41d29a7f6fcb3","2025-07-09T12:06:16.132Z","","","","","","","","","","","","","","","","win-only","0","g1:NW,g2:SE","0.3","8","0","1802032.5","4929","9935.5","137191","1","4","8","6","2","-8","-10","8","18","0.06060606060606061","2357.1","3000","-925","[""down"",""right""]","{""num_key_presses"":23,""num_perfect"":6,""num_errors"":2,""num_randdir"":15,""num_randdir_good_moves"":5,""num_whilered"":0,""num_whileblue"":0,""num_blue"":8,""num_good_moves"":11}","[301.22232142857143,292.12857142857143,1.1,301.22232142857143,292.12857142857143,102.2,301.22232142857143,292.12857142857143,225.8,301.22232142857143,292.12857142857143,344.5,301.22232142857143,292.12857142857143,464,301.22232142857143,292.12857142857143,582.3,301.22232142857143,292.12857142857143,694.6,301.22232142857143,292.12857142857143,806.9,301.22232142857143,292.12857142857143,930.9,290.22232142857143,289.12857142857143,1064.4,272.22232142857143,283.12857142857143,1185.2,267.22232142857143,282.12857142857143,1289.4,404.22232142857143,376.12857142857143,1403.8,431.22232142857143,398.12857142857143,1527.7,431.22232142857143,398.12857142857143,1642.5,431.22232142857143,398.12857142857143,1761.5,519.2223214285714,507.12857142857143,1879.6,538.2223214285714,534.1285714285714,1998.3,543.2223214285714,545.1285714285714,2116.3,543.2223214285714,546.1285714285714,2236.1,543.2223214285714,546.1285714285714,2372.2,543.2223214285714,546.1285714285714,2473.6,543.2223214285714,546.1285714285714,2579,543.2223214285714,546.1285714285714,2699.7,543.2223214285714,546.1285714285714,2819.5,543.2223214285714,546.1285714285714,2935,543.2223214285714,546.1285714285714,3050.2,543.2223214285714,546.1285714285714,3161.3,543.2223214285714,546.1285714285714,3281,543.2223214285714,546.1285714285714,3384.3,543.2223214285714,546.1285714285714,3503.2,543.2223214285714,546.1285714285714,3625.9,543.2223214285714,546.1285714285714,3750.5,543.2223214285714,546.1285714285714,3871.5,543.2223214285714,546.1285714285714,3988.2,543.2223214285714,546.1285714285714,4108,543.2223214285714,546.1285714285714,4214.7,543.2223214285714,546.1285714285714,4332.4,543.2223214285714,546.1285714285714,4432.5,543.2223214285714,546.1285714285714,4553.3,543.2223214285714,546.1285714285714,4703.6,543.2223214285714,546.1285714285714,4829.2,543.2223214285714,546.1285714285714,4950.8]","[2441.7,2441.7,1000,0,1441.7,""smooth"",""down"",""down"",""good_move"",12151.8,9706.5,2440.5,9251,460.3,""oops"",""down"",""left"",""bad_move"",24027.3,11873.9,2527.9,23223.7,-1724.3,""error"",""-"",""-"",""no_move"",27703.6,3665.5,2042.6,25059,602,""smooth"",""down"",""down"",""good_move"",34609.2,6904.7,2439.3,30955.2,1214.7,""oops"",""down"",""down"",""good_move"",41641.1,7031.2,2104.8,38620,916.3,""oops"",""right"",""left"",""bad_move"",50857.4,9215.2,1936.6,41642.2,7278.6,""oops"",""right"",""right"",""good_move"",55820.8,4962.2,2489.8,50858.6,2472.4,""smooth"",""right"",""right"",""good_move"",59546.1,3724,2938.8,55822.1,785.2,""oops"",""right"",""left"",""bad_move"",64810.5,5263.3,2635.5,59547.4,2627.7,""oops"",""right"",""left"",""bad_move"",69807.9,4996.3,3054.9,64811.6,1941.4,""oops"",""right"",""right"",""good_move"",73469.8,3660.5,2136.1,69809.4,1524.3,""oops"",""right"",""left"",""bad_move"",74812.3,1339.9,2727.6,73472.6,-1387.8,""error"",""-"",""-"",""no_move"",79245,4431.8,2472.3,75843.5,929.2,""oops"",""right"",""up"",""bad_move"",83291.3,4035.6,3348.2,79255.9,687.2,""smooth"",""right"",""right"",""good_move"",87749.1,4445.5,3140.5,83303.6,1305,""oops"",""right"",""left"",""bad_move"",99490.2,11739.4,3009.5,95988.8,492,""oops"",""right"",""down"",""good_move"",102943.2,3451.9,2702.8,99491.3,749.1,""smooth"",""right"",""right"",""good_move"",105840.6,2889.4,2328.4,102951.2,561,""oops"",""right"",""right"",""good_move"",109021.7,3179.7,2200.8,105842,978.9,""smooth"",""right"",""right"",""good_move"",112249.3,3226.4,2692.4,109022.9,534,""oops"",""right"",""up"",""bad_move"",118613.4,6362.4,2996.7,112251,3365.7,""oops"",""right"",""up"",""bad_move"",123151.8,4537.1,2091.8,118614.7,2445.3,""oops"",""right"",""left"",""bad_move""]","","",""
"17588","","<div style=""width:500px;"">
  <p>What determined the result of this run?</p>
  </div>","21","html-slider-response","75","1953574","0.0-10.0-1.7","284","1","2025-07-09 11:33:56","7701e855f2ef39aa3fd6c71abdc6918a","197.185.215.47","Mozilla/5.0 (Windows NT 10.0; Win64; x64) AppleWebKit/537.36 (KHTML, like Gecko) Chrome/138.0.0.0 Safari/537.36","WebKit","Chrome","138.0.0.0","Windows","10.0","https://app.prolific.com/","en-US,en;q=0.9","67d846e847a41d29a7f6fcb3","686d226cabeef709c732f8e1","686e52e371facb5c58915aa2","67d846e847a41d29a7f6fcb3","2025-07-09T12:06:33.722Z","","","","","","AttribQ","","","","","","","","","","","","","","","","","","","","","","","","","","","","","","","","","","","","","","50",""
"3801","","<div style=""width:500px;"">
  <p>How much control did you have over the ball?</p>
  </div>","21","html-slider-response","76","1957381","0.0-10.0-2.7","284","1","2025-07-09 11:33:56","7701e855f2ef39aa3fd6c71abdc6918a","197.185.215.47","Mozilla/5.0 (Windows NT 10.0; Win64; x64) AppleWebKit/537.36 (KHTML, like Gecko) Chrome/138.0.0.0 Safari/537.36","WebKit","Chrome","138.0.0.0","Windows","10.0","https://app.prolific.com/","en-US,en;q=0.9","67d846e847a41d29a7f6fcb3","686d226cabeef709c732f8e1","686e52e371facb5c58915aa2","67d846e847a41d29a7f6fcb3","2025-07-09T12:06:37.529Z","","","","","","ControlQ","","","","","","","","","","","","","","","","","","","","","","","","","","","","","","","","","","","","","","50",""
"4652","","<div style=""width:500px;"">
  <p>How would you describe your current emotional state?</p>
  </div>","78","html-slider-response","77","1962037","0.0-10.0-3.7","284","1","2025-07-09 11:33:56","7701e855f2ef39aa3fd6c71abdc6918a","197.185.215.47","Mozilla/5.0 (Windows NT 10.0; Win64; x64) AppleWebKit/537.36 (KHTML, like Gecko) Chrome/138.0.0.0 Safari/537.36","WebKit","Chrome","138.0.0.0","Windows","10.0","https://app.prolific.com/","en-US,en;q=0.9","67d846e847a41d29a7f6fcb3","686d226cabeef709c732f8e1","686e52e371facb5c58915aa2","67d846e847a41d29a7f6fcb3","2025-07-09T12:06:42.185Z","","","","","","StressQ","","","","","","","","","","","","","","","","","","","","","","","","","","","","","","","","","","","","","","50",""
"5138","","<div style=""width:500px;"">
  <p>What best describes how you currently feel?</p>
  </div>","50","html-slider-response","78","1967179","0.0-10.0-4.7","284","1","2025-07-09 11:33:56","7701e855f2ef39aa3fd6c71abdc6918a","197.185.215.47","Mozilla/5.0 (Windows NT 10.0; Win64; x64) AppleWebKit/537.36 (KHTML, like Gecko) Chrome/138.0.0.0 Safari/537.36","WebKit","Chrome","138.0.0.0","Windows","10.0","https://app.prolific.com/","en-US,en;q=0.9","67d846e847a41d29a7f6fcb3","686d226cabeef709c732f8e1","686e52e371facb5c58915aa2","67d846e847a41d29a7f6fcb3","2025-07-09T12:06:47.327Z","","","","","","MotivationQ","","","","","","","","","","","","","","","","","","","","","","","","","","","","","","","","","","","","","","50",""
"","","","","ctl-task-cpt","79","2025661","0.0-10.0-0.8","284","1","2025-07-09 11:33:56","7701e855f2ef39aa3fd6c71abdc6918a","197.185.215.47","Mozilla/5.0 (Windows NT 10.0; Win64; x64) AppleWebKit/537.36 (KHTML, like Gecko) Chrome/138.0.0.0 Safari/537.36","WebKit","Chrome","138.0.0.0","Windows","10.0","https://app.prolific.com/","en-US,en;q=0.9","67d846e847a41d29a7f6fcb3","686d226cabeef709c732f8e1","686e52e371facb5c58915aa2","67d846e847a41d29a7f6fcb3","2025-07-09T12:07:45.809Z","","","","","","","","","","","","","","","","win-only","3","g1:SW,g2:NE","0.2","9","0","1973453","1876.5","6877.8","55433.7","1","4","4","6","1","1","1","9","8","0.06818181818181818","2638.2","3000","1305","[""down"",""left""]","{""num_key_presses"":8,""num_perfect"":2,""num_errors"":0,""num_randdir"":6,""num_randdir_good_moves"":4,""num_whilered"":0,""num_whileblue"":0,""num_blue"":3,""num_good_moves"":6}","[293.22232142857143,295.12857142857143,0.8,293.22232142857143,295.12857142857143,117.6,293.22232142857143,295.12857142857143,238.6,293.22232142857143,295.12857142857143,354.2,293.22232142857143,295.12857142857143,478.6,293.22232142857143,295.12857142857143,590.7,293.22232142857143,295.12857142857143,709.4,293.22232142857143,295.12857142857143,841.6,293.22232142857143,295.12857142857143,969.7,254.22232142857143,250.12857142857143,1118.9,258.22232142857143,174.12857142857143,1235.8,263.22232142857143,169.12857142857143,1336.5,264.22232142857143,168.12857142857143,1458.6,119.22232142857143,501.12857142857143,1639.9,119.22232142857143,501.12857142857143,1758.8,119.22232142857143,501.12857142857143,1877.8,119.22232142857143,501.12857142857143,1997.7,86.22232142857143,525.1285714285714,2103.2,57.222321428571426,536.1285714285714,2247.7,47.222321428571426,540.1285714285714,2378.3,45.222321428571426,540.1285714285714,2506.6,45.222321428571426,540.1285714285714,2634,45.222321428571426,540.1285714285714,2770.9,45.222321428571426,540.1285714285714,2877.1,45.222321428571426,540.1285714285714,3011.2,45.222321428571426,540.1285714285714,3147.6,45.222321428571426,540.1285714285714,3272.1,45.222321428571426,540.1285714285714,3394.4,45.222321428571426,540.1285714285714,3518.9,45.222321428571426,540.1285714285714,3638.1,45.222321428571426,540.1285714285714,3765.5,45.222321428571426,540.1285714285714,3889.6,45.222321428571426,540.1285714285714,4010.6,45.222321428571426,540.1285714285714,4146.1,45.222321428571426,540.1285714285714,4271.7,45.222321428571426,540.1285714285714,4392,45.222321428571426,540.1285714285714,4508.6,45.222321428571426,540.1285714285714,4628.8,45.222321428571426,540.1285714285714,4755,45.222321428571426,540.1285714285714,4875]","[5661.1,5661.1,2473.2,2066.3,1121.6,""oops"",""down"",""up"",""bad_move"",14728.5,9066.1,1743.6,5662.4,7322.5,""smooth"",""down"",""down"",""good_move"",19541.7,4810.1,2300.8,14731.6,2509.3,""oops"",""down"",""down"",""good_move"",26681.4,7136.5,2559.6,23518.5,603.3,""oops"",""down"",""up"",""bad_move"",31746.9,5064.6,2804,26682.3,2260.6,""oops"",""down"",""down"",""good_move"",37648.6,5900.3,2872.9,34033.9,741.8,""oops"",""down"",""left"",""good_move"",44489.9,6840.2,2522.2,37649.7,4318,""smooth"",""down"",""down"",""good_move"",47908.5,3417.6,2482.8,44490.9,934.8,""oops"",""left"",""left"",""good_move""]","","",""
"6681","","<div style=""width:500px;"">
  <p>What determined the result of this run?</p>
  </div>","50","html-slider-response","80","2032347","0.0-10.0-1.8","284","1","2025-07-09 11:33:56","7701e855f2ef39aa3fd6c71abdc6918a","197.185.215.47","Mozilla/5.0 (Windows NT 10.0; Win64; x64) AppleWebKit/537.36 (KHTML, like Gecko) Chrome/138.0.0.0 Safari/537.36","WebKit","Chrome","138.0.0.0","Windows","10.0","https://app.prolific.com/","en-US,en;q=0.9","67d846e847a41d29a7f6fcb3","686d226cabeef709c732f8e1","686e52e371facb5c58915aa2","67d846e847a41d29a7f6fcb3","2025-07-09T12:07:52.495Z","","","","","","AttribQ","","","","","","","","","","","","","","","","","","","","","","","","","","","","","","","","","","","","","","50",""
"6247","","<div style=""width:500px;"">
  <p>How much control did you have over the ball?</p>
  </div>","45","html-slider-response","81","2038598","0.0-10.0-2.8","284","1","2025-07-09 11:33:56","7701e855f2ef39aa3fd6c71abdc6918a","197.185.215.47","Mozilla/5.0 (Windows NT 10.0; Win64; x64) AppleWebKit/537.36 (KHTML, like Gecko) Chrome/138.0.0.0 Safari/537.36","WebKit","Chrome","138.0.0.0","Windows","10.0","https://app.prolific.com/","en-US,en;q=0.9","67d846e847a41d29a7f6fcb3","686d226cabeef709c732f8e1","686e52e371facb5c58915aa2","67d846e847a41d29a7f6fcb3","2025-07-09T12:07:58.747Z","","","","","","ControlQ","","","","","","","","","","","","","","","","","","","","","","","","","","","","","","","","","","","","","","50",""
"5208","","<div style=""width:500px;"">
  <p>How would you describe your current emotional state?</p>
  </div>","56","html-slider-response","82","2043811","0.0-10.0-3.8","284","1","2025-07-09 11:33:56","7701e855f2ef39aa3fd6c71abdc6918a","197.185.215.47","Mozilla/5.0 (Windows NT 10.0; Win64; x64) AppleWebKit/537.36 (KHTML, like Gecko) Chrome/138.0.0.0 Safari/537.36","WebKit","Chrome","138.0.0.0","Windows","10.0","https://app.prolific.com/","en-US,en;q=0.9","67d846e847a41d29a7f6fcb3","686d226cabeef709c732f8e1","686e52e371facb5c58915aa2","67d846e847a41d29a7f6fcb3","2025-07-09T12:08:03.959Z","","","","","","StressQ","","","","","","","","","","","","","","","","","","","","","","","","","","","","","","","","","","","","","","50",""
"8559","","<div style=""width:500px;"">
  <p>What best describes how you currently feel?</p>
  </div>","55","html-slider-response","83","2052375","0.0-10.0-4.8","284","1","2025-07-09 11:33:56","7701e855f2ef39aa3fd6c71abdc6918a","197.185.215.47","Mozilla/5.0 (Windows NT 10.0; Win64; x64) AppleWebKit/537.36 (KHTML, like Gecko) Chrome/138.0.0.0 Safari/537.36","WebKit","Chrome","138.0.0.0","Windows","10.0","https://app.prolific.com/","en-US,en;q=0.9","67d846e847a41d29a7f6fcb3","686d226cabeef709c732f8e1","686e52e371facb5c58915aa2","67d846e847a41d29a7f6fcb3","2025-07-09T12:08:12.523Z","","","","","","MotivationQ","","","","","","","","","","","","","","","","","","","","","","","","","","","","","","","","","","","","","","50",""
"","","","","ctl-task-cpt","84","2175484","0.0-10.0-0.9","284","1","2025-07-09 11:33:56","7701e855f2ef39aa3fd6c71abdc6918a","197.185.215.47","Mozilla/5.0 (Windows NT 10.0; Win64; x64) AppleWebKit/537.36 (KHTML, like Gecko) Chrome/138.0.0.0 Safari/537.36","WebKit","Chrome","138.0.0.0","Windows","10.0","https://app.prolific.com/","en-US,en;q=0.9","67d846e847a41d29a7f6fcb3","686d226cabeef709c732f8e1","686e52e371facb5c58915aa2","67d846e847a41d29a7f6fcb3","2025-07-09T12:10:15.632Z","","","","","","","","","","","","","","","","win-only","2","g1:SE,g2:NW","0.4","10","0","2058650.5","2022.4","7029.3","120055.5","1","4","8","6","2","8","6","15","9","0.11363636363636363","2947.3","3000","1420","[""left"",""up""]","{""num_key_presses"":16,""num_perfect"":5,""num_errors"":2,""num_randdir"":9,""num_randdir_good_moves"":5,""num_whilered"":0,""num_whileblue"":2,""num_blue"":8,""num_good_moves"":11}","[288.22232142857143,292.12857142857143,1.3,288.22232142857143,292.12857142857143,105.9,288.22232142857143,292.12857142857143,229.6,288.22232142857143,292.12857142857143,356,288.22232142857143,292.12857142857143,482.2,288.22232142857143,292.12857142857143,609.5,288.22232142857143,292.12857142857143,729.5,288.22232142857143,292.12857142857143,848.7,288.22232142857143,292.12857142857143,969.4,288.22232142857143,292.12857142857143,1093,288.22232142857143,292.12857142857143,1212.4,288.22232142857143,292.12857142857143,1345.2,366.22232142857143,366.12857142857143,1502.3,390.22232142857143,394.12857142857143,1648.1,184.22232142857143,221.12857142857143,1824.3,85.22232142857143,138.12857142857143,1963.1,85.22232142857143,138.12857142857143,2106,85.22232142857143,138.12857142857143,2224,75.22232142857143,123.12857142857143,2324.4,55.222321428571426,82.12857142857143,2432.8,51.222321428571426,69.12857142857143,2539.3,48.222321428571426,56.128571428571426,2666.6,48.222321428571426,54.128571428571426,2777.8,48.222321428571426,54.128571428571426,2882.4,48.222321428571426,54.128571428571426,3007.9,48.222321428571426,54.128571428571426,3109.5,48.222321428571426,54.128571428571426,3220,48.222321428571426,54.128571428571426,3325.4,48.222321428571426,54.128571428571426,3428.1,48.222321428571426,54.128571428571426,3542.2,48.222321428571426,54.128571428571426,3647.9,48.222321428571426,54.128571428571426,3749.3,48.222321428571426,54.128571428571426,3865.7,225.22232142857143,240.12857142857143,3966.6,265.22232142857143,303.12857142857143,4076.1,267.22232142857143,320.12857142857143,4177.7,268.22232142857143,326.12857142857143,4293.2,268.22232142857143,326.12857142857143,4395.4,268.22232142857143,326.12857142857143,4509.4,268.22232142857143,326.12857142857143,4616.6,268.22232142857143,326.12857142857143,4727,268.22232142857143,326.12857142857143,4843.2,268.22232142857143,326.12857142857143,4949.8]","[5665.3,5665.4,2846.6,2054.1,764.7,""oops"",""up"",""down"",""bad_move"",15697.2,10030.2,2647.6,12427.6,622,""smooth"",""up"",""up"",""good_move"",24964.3,9264.1,3037.1,21332.4,594.8,""oops"",""up"",""up"",""good_move"",31648.7,6683.3,2370.7,24965.4,4312.6,""oops"",""up"",""up"",""good_move"",37014.8,5365,4498,31649.8,867,""while_blue"",""up"",""up"",""good_move"",42262.7,5246.4,4501.3,37016.3,745.1,""while_blue"",""left"",""right"",""bad_move"",46852.5,4588.3,2997.3,42264.2,1591,""oops"",""left"",""right"",""bad_move"",53184.1,6330.1,2608.6,50109.7,465.8,""smooth"",""left"",""left"",""good_move"",60419,7233.7,3160.2,53185.3,4073.5,""oops"",""left"",""right"",""bad_move"",63546.5,3126.6,2216,60419.9,910.6,""oops"",""left"",""left"",""good_move"",71725.4,8177.2,2824.9,63548.3,5352.3,""smooth"",""left"",""left"",""good_move"",79832.7,8106.2,3050.8,71726.5,5055.4,""smooth"",""left"",""left"",""good_move"",90545.7,10712.1,2588,79833.6,8124.1,""oops"",""left"",""down"",""bad_move"",94296.3,3746.1,2995.4,90550.2,750.7,""smooth"",""left"",""left"",""good_move"",103880.2,9575.3,2726.6,100157.8,995.8,""oops"",""left"",""left"",""good_move"",112290.3,8409.2,2355.8,103881.1,6053.4,""oops"",""up"",""up"",""good_move""]","","",""
"4168","","<div style=""width:500px;"">
  <p>What determined the result of this run?</p>
