"rt","response_timestamp","stimulus","response","trial_type","trial_index","time_elapsed","internal_node_id","run_id","condition","recorded_at","source_code_version","ip","user_agent","device","browser","browser_version","platform","platform_version","referer","accept_language","PROLIFIC_PID","STUDY_ID","SESSION_ID","prolific_id","realtime","view_history","question_order","consent","success","question_id","eventType","responses","item_order","radio_event_ids","radio_event_times","key_event_times","mouse_event_times","straightlining","zigzagging","honeypot","which_type","canvas_config","goals_layout","control_level","trial_number","tutorial_trial_number","trial_start_time","phase1_start_time","phase2_start_time","phase3_start_time","goal_1_value","goal_1_distance","goal_2_value","goal_2_distance","goal_selected","outcome","outcome_total","participant_final_score","participant_initial_score","participant_final_score_prop","goal_choice_rt","allocated_time","allocated_time_remaining","goal_direction","counts","mouse_movements","key_presses","correct","slider_start","sub_question"
"2438","1752054015582","<p style='font-size:40px;line-height:1.25'><strong>Welcome to the experiment!</strong></p><p style='font-size:1.1em;line-height:1.25'>Thank you for your interest in our experiment! Before you begin, it is important that we obtain your informed consent to participate in the study.</p><p style='font-size:1.1em;line-height:1.25'>On the next screen will be an <strong>information sheet</strong> for you to read. To participate in the study we need you to read this information sheet and the following consent form carefully. If you agree with all the statements, please click the <strong>I agree</strong> button.</p><p style='font-size:1.1em;line-height:1.25'>Press <strong>Next</strong> to read the information sheet.</p>","0","custom-html-button-response","0","2446","0.0-0.0","234","1","2025-07-09 09:40:12","7701e855f2ef39aa3fd6c71abdc6918a","102.66.182.109","Mozilla/5.0 (Android 13; Mobile; rv:140.0) Gecko/140.0 Firefox/140.0","","Firefox","140.0","AndroidOS","13","https://app.prolific.com/","en-ZA,en-US;q=0.5","66bb2110c5672f09961feed2","686d226cabeef709c732f8e1","686e313fb7644afb602703a4","66bb2110c5672f09961feed2","2025-07-09T09:40:15.584Z","","","","","","","","","","","","","","","","","","","","","","","","","","","","","","","","","","","","","","","","","","","","",""
"2472","","","","instructions","1","4922","0.0-1.0","234","1","2025-07-09 09:40:12","7701e855f2ef39aa3fd6c71abdc6918a","102.66.182.109","Mozilla/5.0 (Android 13; Mobile; rv:140.0) Gecko/140.0 Firefox/140.0","","Firefox","140.0","AndroidOS","13","https://app.prolific.com/","en-ZA,en-US;q=0.5","66bb2110c5672f09961feed2","686d226cabeef709c732f8e1","686e313fb7644afb602703a4","66bb2110c5672f09961feed2","","[{""page_index"":0,""viewing_time"":1675},{""page_index"":1,""viewing_time"":796}]","","","","","","","","","","","","","","","","","","","","","","","","","","","","","","","","","","","","","","","","","","","",""
"4180","","","{""Q0"":"""",""Q1"":"""",""Q2"":"""",""Q3"":"""",""Q4"":"""",""Q5"":"""",""Q6"":""I agree""}","survey-multi-choice","2","9110","0.0-2.0","234","1","2025-07-09 09:40:12","7701e855f2ef39aa3fd6c71abdc6918a","102.66.182.109","Mozilla/5.0 (Android 13; Mobile; rv:140.0) Gecko/140.0 Firefox/140.0","","Firefox","140.0","AndroidOS","13","https://app.prolific.com/","en-ZA,en-US;q=0.5","66bb2110c5672f09961feed2","686d226cabeef709c732f8e1","686e313fb7644afb602703a4","66bb2110c5672f09961feed2","","","[0,1,2,3,4,5,6]","true","","","","","","","","","","","","","","","","","","","","","","","","","","","","","","","","","","","","","","","","","",""
"2526","","","","fullscreen","3","12737","0.0-4.0","234","1","2025-07-09 09:40:12","7701e855f2ef39aa3fd6c71abdc6918a","102.66.182.109","Mozilla/5.0 (Android 13; Mobile; rv:140.0) Gecko/140.0 Firefox/140.0","","Firefox","140.0","AndroidOS","13","https://app.prolific.com/","en-ZA,en-US;q=0.5","66bb2110c5672f09961feed2","686d226cabeef709c732f8e1","686e313fb7644afb602703a4","66bb2110c5672f09961feed2","","","","","true","","","","","","","","","","","","","","","","","","","","","","","","","","","","","","","","","","","","","","","","",""
"1561","1752054027439"," <p style='font-size:1.1em;line-height:1.25'>Thank you for completing the consent form and closing all other tabs.</p><p style='font-size:1.1em;line-height:1.25'>We will now invite you to fill in some demographic information and questionnaires, before starting the game.<br>This will take about 5 minutes.<br></p><p style='font-size:1.1em;line-height:1.25'>Press the <strong>Next</strong> button to continue.</p>","0","custom-html-button-response","4","14303","0.0-5.0","234","1","2025-07-09 09:40:12","7701e855f2ef39aa3fd6c71abdc6918a","102.66.182.109","Mozilla/5.0 (Android 13; Mobile; rv:140.0) Gecko/140.0 Firefox/140.0","","Firefox","140.0","AndroidOS","13","https://app.prolific.com/","en-ZA,en-US;q=0.5","66bb2110c5672f09961feed2","686d226cabeef709c732f8e1","686e313fb7644afb602703a4","66bb2110c5672f09961feed2","2025-07-09T09:40:27.441Z","","","","","","","","","","","","","","","","","","","","","","","","","","","","","","","","","","","","","","","","","","","","",""
"5066","","","{""age"":""21""}","survey-text","5","19463","0.0-6.0-0.0","234","1","2025-07-09 09:40:12","7701e855f2ef39aa3fd6c71abdc6918a","102.66.182.109","Mozilla/5.0 (Android 13; Mobile; rv:140.0) Gecko/140.0 Firefox/140.0","","Firefox","140.0","AndroidOS","13","https://app.prolific.com/","en-ZA,en-US;q=0.5","66bb2110c5672f09961feed2","686d226cabeef709c732f8e1","686e313fb7644afb602703a4","66bb2110c5672f09961feed2","","","","","","0","demographics","","","","","","","","","","","","","","","","","","","","","","","","","","","","","","","","","","","","","","",""
"2416","","","{""gender_identity"":""female/woman""}","survey-multi-choice","6","21885","0.0-6.0-1.0","234","1","2025-07-09 09:40:12","7701e855f2ef39aa3fd6c71abdc6918a","102.66.182.109","Mozilla/5.0 (Android 13; Mobile; rv:140.0) Gecko/140.0 Firefox/140.0","","Firefox","140.0","AndroidOS","13","https://app.prolific.com/","en-ZA,en-US;q=0.5","66bb2110c5672f09961feed2","686d226cabeef709c732f8e1","686e313fb7644afb602703a4","66bb2110c5672f09961feed2","","","[0]","","","1","demographics","","","","","","","","","","","","","","","","","","","","","","","","","","","","","","","","","","","","","","",""
"1582","","","{""assigned_sex"":""female""}","survey-multi-choice","7","23472","0.0-6.0-2.0","234","1","2025-07-09 09:40:12","7701e855f2ef39aa3fd6c71abdc6918a","102.66.182.109","Mozilla/5.0 (Android 13; Mobile; rv:140.0) Gecko/140.0 Firefox/140.0","","Firefox","140.0","AndroidOS","13","https://app.prolific.com/","en-ZA,en-US;q=0.5","66bb2110c5672f09961feed2","686d226cabeef709c732f8e1","686e313fb7644afb602703a4","66bb2110c5672f09961feed2","","","[0]","","","2","demographics","","","","","","","","","","","","","","","","","","","","","","","","","","","","","","","","","","","","","","",""
"5804","","","{""menstrual_cycle"":""Yes""}","survey-multi-choice","8","29281","0.0-6.0-3.0","234","1","2025-07-09 09:40:12","7701e855f2ef39aa3fd6c71abdc6918a","102.66.182.109","Mozilla/5.0 (Android 13; Mobile; rv:140.0) Gecko/140.0 Firefox/140.0","","Firefox","140.0","AndroidOS","13","https://app.prolific.com/","en-ZA,en-US;q=0.5","66bb2110c5672f09961feed2","686d226cabeef709c732f8e1","686e313fb7644afb602703a4","66bb2110c5672f09961feed2","","","[0]","","","4","demographics","","","","","","","","","","","","","","","","","","","","","","","","","","","","","","","","","","","","","","",""
"6717","","","{""education"":""Higher National Certificate""}","survey-multi-choice","9","36004","0.0-6.0-4.0","234","1","2025-07-09 09:40:12","7701e855f2ef39aa3fd6c71abdc6918a","102.66.182.109","Mozilla/5.0 (Android 13; Mobile; rv:140.0) Gecko/140.0 Firefox/140.0","","Firefox","140.0","AndroidOS","13","https://app.prolific.com/","en-ZA,en-US;q=0.5","66bb2110c5672f09961feed2","686d226cabeef709c732f8e1","686e313fb7644afb602703a4","66bb2110c5672f09961feed2","","","[0]","","","5","demographics","","","","","","","","","","","","","","","","","","","","","","","","","","","","","","","","","","","","","","",""
"3814","","","{""education"":""Higher National Certificate""}","survey-multi-choice","10","39824","0.0-6.0-5.0","234","1","2025-07-09 09:40:12","7701e855f2ef39aa3fd6c71abdc6918a","102.66.182.109","Mozilla/5.0 (Android 13; Mobile; rv:140.0) Gecko/140.0 Firefox/140.0","","Firefox","140.0","AndroidOS","13","https://app.prolific.com/","en-ZA,en-US;q=0.5","66bb2110c5672f09961feed2","686d226cabeef709c732f8e1","686e313fb7644afb602703a4","66bb2110c5672f09961feed2","2025-07-09T09:40:52.962Z","","[0]","","","6","demographics","","","","","","","","","","","","","","","","","","","","","","","","","","","","","","","","","","","","","","",""
"10729","","","{""mental_health_condition"":""no"",""mental_health_treatment"":""no"",""psychiatric_medication"":""no""}","survey-text","11","50608","0.0-7.0-0.0","234","1","2025-07-09 09:40:12","7701e855f2ef39aa3fd6c71abdc6918a","102.66.182.109","Mozilla/5.0 (Android 13; Mobile; rv:140.0) Gecko/140.0 Firefox/140.0","","Firefox","140.0","AndroidOS","13","https://app.prolific.com/","en-ZA,en-US;q=0.5","66bb2110c5672f09961feed2","686d226cabeef709c732f8e1","686e313fb7644afb602703a4","66bb2110c5672f09961feed2","2025-07-09T09:41:03.745Z","","","","","1","mental_health","","","","","","","","","","","","","","","","","","","","","","","","","","","","","","","","","","","","","","",""
"7610","","","{""depression_history"":[""Yes""]}","survey-multi-select","12","58225","0.0-7.0-1.0","234","1","2025-07-09 09:40:12","7701e855f2ef39aa3fd6c71abdc6918a","102.66.182.109","Mozilla/5.0 (Android 13; Mobile; rv:140.0) Gecko/140.0 Firefox/140.0","","Firefox","140.0","AndroidOS","13","https://app.prolific.com/","en-ZA,en-US;q=0.5","66bb2110c5672f09961feed2","686d226cabeef709c732f8e1","686e313fb7644afb602703a4","66bb2110c5672f09961feed2","","","[0]","","","","mental_health","","","","","","","","","","","","","","","","","","","","","","","","","","","","","","","","","","","","","","",""
"8570","","","{""depression_episodes"":""more than 5"",""depression_recent"":""Currently experiencing an episode""}","survey-multi-choice","13","66806","0.0-7.0-2.0-0.0","234","1","2025-07-09 09:40:12","7701e855f2ef39aa3fd6c71abdc6918a","102.66.182.109","Mozilla/5.0 (Android 13; Mobile; rv:140.0) Gecko/140.0 Firefox/140.0","","Firefox","140.0","AndroidOS","13","https://app.prolific.com/","en-ZA,en-US;q=0.5","66bb2110c5672f09961feed2","686d226cabeef709c732f8e1","686e313fb7644afb602703a4","66bb2110c5672f09961feed2","2025-07-09T09:41:19.944Z","","[0,1]","","","3","mental_health","","","","","","","","","","","","","","","","","","","","","","","","","","","","","","","","","","","","","","",""
"76659","","","","survey-template","14","143487","0.0-7.0-3.0","234","1","2025-07-09 09:40:12","7701e855f2ef39aa3fd6c71abdc6918a","102.66.182.109","Mozilla/5.0 (Android 13; Mobile; rv:140.0) Gecko/140.0 Firefox/140.0","","Firefox","140.0","AndroidOS","13","https://app.prolific.com/","en-ZA,en-US;q=0.5","66bb2110c5672f09961feed2","686d226cabeef709c732f8e1","686e313fb7644afb602703a4","66bb2110c5672f09961feed2","2025-07-09T09:42:36.625Z","","","","","","ius","{""Q01"":""4"",""Q02"":""3"",""Q03"":""1"",""Q04"":""2"",""Q05"":""2"",""Q06"":""2"",""Q07"":""2"",""Q08"":""0"",""Q09"":""3"",""Q10"":""1"",""Q11"":""3"",""Q12"":""4"",""Q13"":""3""}","[0,1,2,3,4,5,6,7,8,9,10,11,12]","[""Q01"",""Q02"",""Q03"",""Q04"",""Q05"",""Q06"",""Q07"",""Q08"",""Q09"",""Q10"",""Q12"",""Q12"",""Q13"",""Q11""]","[7210,9414,15899,21067,25056,29018,33482,35472,40287,48370,55033,56401,59949,74329]","[]","[7210,9414,15899,21067,25056,29018,33482,35472,40287,48370,52302,55033,56401,59949,60873,74329,76656]","0.3076923076923077","0.3333333333333333","0","","","","","","","","","","","","","","","","","","","","","","","","","","","","","",""
"1263","1752054157900","<p style='font-size:1.1em;line-height:1.25'>In the following, we will ask you a few questions relating to your experiences over the past month.<br></p><p style='font-size:1.1em;line-height:1.25'>Press the <strong>Next</strong> button to continue.</p>","0","custom-html-button-response","15","144764","0.0-7.0-4.0","234","1","2025-07-09 09:40:12","7701e855f2ef39aa3fd6c71abdc6918a","102.66.182.109","Mozilla/5.0 (Android 13; Mobile; rv:140.0) Gecko/140.0 Firefox/140.0","","Firefox","140.0","AndroidOS","13","https://app.prolific.com/","en-ZA,en-US;q=0.5","66bb2110c5672f09961feed2","686d226cabeef709c732f8e1","686e313fb7644afb602703a4","66bb2110c5672f09961feed2","2025-07-09T09:42:37.901Z","","","","","","","","","","","","","","","","","","","","","","","","","","","","","","","","","","","","","","","","","","","","",""
"56442","","","","survey-template","16","201215","0.0-7.0-5.0","234","1","2025-07-09 09:40:12","7701e855f2ef39aa3fd6c71abdc6918a","102.66.182.109","Mozilla/5.0 (Android 13; Mobile; rv:140.0) Gecko/140.0 Firefox/140.0","","Firefox","140.0","AndroidOS","13","https://app.prolific.com/","en-ZA,en-US;q=0.5","66bb2110c5672f09961feed2","686d226cabeef709c732f8e1","686e313fb7644afb602703a4","66bb2110c5672f09961feed2","2025-07-09T09:43:34.352Z","","","","","","pss","{""Q01"":""4"",""Q02"":""2"",""Q03"":""2"",""Q04"":""4"",""Q05"":""1"",""Q06"":""2"",""Q07"":""3"",""Q08"":""1"",""Q09"":""3"",""Q10"":""3""}","[0,1,2,3,4,5,6,7,8,9]","[""Q01"",""Q02"",""Q03"",""Q04"",""Q05"",""Q06"",""Q07"",""Q08"",""Q09"",""Q10""]","[8080,12538,22057,28047,33555,37972,43737,48398,52050,55810]","[]","[0,8080,12538,22057,28047,33555,37972,43737,48398,52050,55810,56439]","0.4","0.2222222222222222","0","","","","","","","","","","","","","","","","","","","","","","","","","","","","","",""
"2233","1752054216591","<p style='font-size:1.1em;line-height:1.25'>Thank you for your answers! Now we will ask you a few more questions relating to your feelings in the last 24 hours.<br></p><p style='font-size:1.1em;line-height:1.25'>Press the <strong>Next</strong> button to continue.</p>","0","custom-html-button-response","17","203454","0.0-7.0-6.0","234","1","2025-07-09 09:40:12","7701e855f2ef39aa3fd6c71abdc6918a","102.66.182.109","Mozilla/5.0 (Android 13; Mobile; rv:140.0) Gecko/140.0 Firefox/140.0","","Firefox","140.0","AndroidOS","13","https://app.prolific.com/","en-ZA,en-US;q=0.5","66bb2110c5672f09961feed2","686d226cabeef709c732f8e1","686e313fb7644afb602703a4","66bb2110c5672f09961feed2","2025-07-09T09:43:36.592Z","","","","","","","","","","","","","","","","","","","","","","","","","","","","","","","","","","","","","","","","","","","","",""
"66495","","","","survey-template","18","269964","0.0-7.0-7.0","234","1","2025-07-09 09:40:12","7701e855f2ef39aa3fd6c71abdc6918a","102.66.182.109","Mozilla/5.0 (Android 13; Mobile; rv:140.0) Gecko/140.0 Firefox/140.0","","Firefox","140.0","AndroidOS","13","https://app.prolific.com/","en-ZA,en-US;q=0.5","66bb2110c5672f09961feed2","686d226cabeef709c732f8e1","686e313fb7644afb602703a4","66bb2110c5672f09961feed2","2025-07-09T09:44:43.101Z","","","","","","drsp","{""Q01"":""1"",""Q02"":""3"",""Q03"":""3"",""Q04"":""2"",""Q05"":""4"",""Q06"":""3"",""Q07"":""3"",""Q08"":""1"",""Q09"":""3"",""Q10"":""3"",""Q11"":""1"",""Q12"":""4"",""Q13"":""4"",""Q14"":""3"",""Q15"":""3"",""Q16"":""2"",""Q17"":""3"",""Q18"":""3"",""Q19"":""3"",""Q20"":""2"",""Q21"":""3""}","[0,1,2,3,4,5,6,7,8,9,10,11,12,13,14,15,16,17,18,19,20]","[""Q01"",""Q01"",""Q02"",""Q03"",""Q03"",""Q04"",""Q05"",""Q06"",""Q07"",""Q08"",""Q08"",""Q09"",""Q10"",""Q11"",""Q12"",""Q13"",""Q15"",""Q16"",""Q17"",""Q18"",""Q19"",""Q20"",""Q21"",""Q14""]","[4657,8784,10579,12330,13609,15840,17557,20042,21490,22697,25800,29957,32256,35990,39367,43030,46119,48098,50726,53073,54846,57245,58754,64673]","[]","[0,4657,8784,10579,12330,13609,15840,17557,20042,21490,22697,25800,29957,32256,35990,39367,43030,46119,48098,50726,53073,54846,57245,58754,59872,64673,66494]","0.5714285714285714","0.35","0","","","","","","","","","","","","","","","","","","","","","","","","","","","","","",""
"14251","","","","survey-template","19","284222","0.0-7.0-8.0","234","1","2025-07-09 09:40:12","7701e855f2ef39aa3fd6c71abdc6918a","102.66.182.109","Mozilla/5.0 (Android 13; Mobile; rv:140.0) Gecko/140.0 Firefox/140.0","","Firefox","140.0","AndroidOS","13","https://app.prolific.com/","en-ZA,en-US;q=0.5","66bb2110c5672f09961feed2","686d226cabeef709c732f8e1","686e313fb7644afb602703a4","66bb2110c5672f09961feed2","2025-07-09T09:44:57.360Z","","","","","","stress","{""Q01"":""4"",""Q02"":""2"",""Q03"":""3""}","[0,1,2]","[""Q01"",""Q02"",""Q03""]","[4384,7805,11075]","[]","[4384,7805,11075,14250]","0.6666666666666666","0.5","0","","","","","","","","","","","","","","","","","","","","","","","","","","","","","",""
"4601","","","","instructions","20","288829","0.0-8.0-0.0","234","1","2025-07-09 09:40:12","7701e855f2ef39aa3fd6c71abdc6918a","102.66.182.109","Mozilla/5.0 (Android 13; Mobile; rv:140.0) Gecko/140.0 Firefox/140.0","","Firefox","140.0","AndroidOS","13","https://app.prolific.com/","en-ZA,en-US;q=0.5","66bb2110c5672f09961feed2","686d226cabeef709c732f8e1","686e313fb7644afb602703a4","66bb2110c5672f09961feed2","","[{""page_index"":0,""viewing_time"":1531},{""page_index"":1,""viewing_time"":932},{""page_index"":2,""viewing_time"":1131},{""page_index"":3,""viewing_time"":1007}]","","","","","","","","","","","","","","","","","","","","","","","","","","","","","","","","","","","","","","","","","","","",""
"","","","","ctl-task-cpt","21","338509","0.0-8.0-1.0","234","1","2025-07-09 09:40:12","7701e855f2ef39aa3fd6c71abdc6918a","102.66.182.109","Mozilla/5.0 (Android 13; Mobile; rv:140.0) Gecko/140.0 Firefox/140.0","","Firefox","140.0","AndroidOS","13","https://app.prolific.com/","en-ZA,en-US;q=0.5","66bb2110c5672f09961feed2","686d226cabeef709c732f8e1","686e313fb7644afb602703a4","66bb2110c5672f09961feed2","","","","","","","","","","","","","","","","","win-only","1","g1:NE,g2:SW","1","0","1","291722","24613","28614","46655","2","4","4","6","1","2","1","1","0","0.007575757575757576","4001","4000","1545","[""up"",""right""]","{""num_key_presses"":5,""num_perfect"":4,""num_errors"":1,""num_randdir"":0,""num_randdir_good_moves"":0,""num_whilered"":0,""num_whileblue"":0,""num_blue"":2,""num_good_moves"":4}","[464.7439583421075,465.8760165397048,16,464.7439583421075,465.8760165397048,102,464.7439583421075,465.8760165397048,206,464.7439583421075,465.8760165397048,308,464.7439583421075,465.8760165397048,411,464.7439583421075,465.8760165397048,513,464.7439583421075,465.8760165397048,616,464.7439583421075,465.8760165397048,717,464.7439583421075,465.8760165397048,817,464.7439583421075,465.8760165397048,922,464.7439583421075,465.8760165397048,1023,464.7439583421075,465.8760165397048,1125,464.7439583421075,465.8760165397048,1229,464.7439583421075,465.8760165397048,1332,464.7439583421075,465.8760165397048,1433,464.7439583421075,465.8760165397048,1534,464.7439583421075,465.8760165397048,1635,464.7439583421075,465.8760165397048,1736,464.7439583421075,465.8760165397048,1836,464.7439583421075,465.8760165397048,1941,464.7439583421075,465.8760165397048,2041,464.7439583421075,465.8760165397048,2145,464.7439583421075,465.8760165397048,2249,464.7439583421075,465.8760165397048,2350,464.7439583421075,465.8760165397048,2450,464.7439583421075,465.8760165397048,2555,464.7439583421075,465.8760165397048,2655,464.7439583421075,465.8760165397048,2755,464.7439583421075,465.8760165397048,2855,464.7439583421075,465.8760165397048,2958,464.7439583421075,465.8760165397048,3062,464.7439583421075,465.8760165397048,3162,464.7439583421075,465.8760165397048,3263,464.7439583421075,465.8760165397048,3364,464.7439583421075,465.8760165397048,3465,464.7439583421075,465.8760165397048,3568,464.7439583421075,465.8760165397048,3673,464.7439583421075,465.8760165397048,3775,464.7439583421075,465.8760165397048,3876,464.7439583421075,465.8760165397048,3979]","[2158,2158,2273.1,2005,-2120.1,""error"",""-"",""-"",""no_move"",6037,3879,2280.2,3161,595.8,""smooth"",""up"",""up"",""good_move"",9050,3013,2246.1,6037,766.9,""smooth"",""right"",""right"",""good_move"",15026,5975,2553.1,11984,488.9,""smooth"",""up"",""up"",""good_move"",17940,2914,2121.8,15026,792.2,""smooth"",""right"",""right"",""good_move""]","","",""
"3119","","","","instructions","22","341632","0.0-8.0-2.0","234","1","2025-07-09 09:40:12","7701e855f2ef39aa3fd6c71abdc6918a","102.66.182.109","Mozilla/5.0 (Android 13; Mobile; rv:140.0) Gecko/140.0 Firefox/140.0","","Firefox","140.0","AndroidOS","13","https://app.prolific.com/","en-ZA,en-US;q=0.5","66bb2110c5672f09961feed2","686d226cabeef709c732f8e1","686e313fb7644afb602703a4","66bb2110c5672f09961feed2","","[{""page_index"":0,""viewing_time"":3118}]","","","","","","","","","","","","","","","","","","","","","","","","","","","","","","","","","","","","","","","","","","","",""
"","","","","ctl-task-cpt","23","379053","0.0-8.0-3.0","234","1","2025-07-09 09:40:12","7701e855f2ef39aa3fd6c71abdc6918a","102.66.182.109","Mozilla/5.0 (Android 13; Mobile; rv:140.0) Gecko/140.0 Firefox/140.0","","Firefox","140.0","AndroidOS","13","https://app.prolific.com/","en-ZA,en-US;q=0.5","66bb2110c5672f09961feed2","686d226cabeef709c732f8e1","686e313fb7644afb602703a4","66bb2110c5672f09961feed2","","","","","","","","","","","","","","","","","win-only","1","g1:NE,g2:SW","0.35","0","3","344505","2790","6793","34415","2","4","8","6","1","-2","-3","0","0","0","4003","4000","-2805","[""up"",""right""]","{""num_key_presses"":8,""num_perfect"":3,""num_errors"":1,""num_randdir"":4,""num_randdir_good_moves"":2,""num_whilered"":0,""num_whileblue"":0,""num_blue"":1,""num_good_moves"":5}","[460.21565645531507,460.2156391812142,1,460.21565645531507,460.2156391812142,102,460.21565645531507,460.2156391812142,207,460.21565645531507,460.2156391812142,311,460.21565645531507,460.2156391812142,411,460.21565645531507,460.2156391812142,515,460.21565645531507,460.2156391812142,615,460.21565645531507,460.2156391812142,717,460.21565645531507,460.2156391812142,817,460.21565645531507,460.2156391812142,921,460.21565645531507,460.2156391812142,1023,460.21565645531507,460.2156391812142,1127,460.21565645531507,460.2156391812142,1227,460.21565645531507,460.2156391812142,1331,460.21565645531507,460.2156391812142,1436,460.21565645531507,460.2156391812142,1539,460.21565645531507,460.2156391812142,1639,460.21565645531507,460.2156391812142,1740,460.21565645531507,460.2156391812142,1840,460.21565645531507,460.2156391812142,1942,460.21565645531507,460.2156391812142,2043,460.21565645531507,460.2156391812142,2146,460.21565645531507,460.2156391812142,2249,460.21565645531507,460.2156391812142,2350,460.21565645531507,460.2156391812142,2455,460.21565645531507,460.2156391812142,2556,460.21565645531507,460.2156391812142,2659,460.21565645531507,460.2156391812142,2763,460.21565645531507,460.2156391812142,2867,460.21565645531507,460.2156391812142,2968,460.21565645531507,460.2156391812142,3069,460.21565645531507,460.2156391812142,3173,460.21565645531507,460.2156391812142,3274,460.21565645531507,460.2156391812142,3379,460.21565645531507,460.2156391812142,3482,460.21565645531507,460.2156391812142,3586,460.21565645531507,460.2156391812142,3688,460.21565645531507,460.2156391812142,3789,460.21565645531507,460.2156391812142,3892,460.21565645531507,460.2156391812142,3993]","[1849,1849,1000,0,849,""oops"",""up"",""left"",""bad_move"",5328,3479,2869.6,1849,609.4,""oops"",""up"",""up"",""good_move"",8499,3171,2657.5,5328,513.5,""oops"",""right"",""right"",""good_move"",11698,3199,2672.4,8499,526.6,""smooth"",""right"",""right"",""good_move"",17757,6059,2697,14548,512,""oops"",""right"",""left"",""bad_move"",18534,777,2802.2,17757,-2025.2,""error"",""-"",""-"",""no_move"",22623,4089,2545.6,19537,540.4,""smooth"",""right"",""right"",""good_move"",25375,2752,2080.8,22623,671.2,""smooth"",""up"",""up"",""good_move""]","","",""
"11465","","","","instructions","24","390521","0.0-8.0-4.0","234","1","2025-07-09 09:40:12","7701e855f2ef39aa3fd6c71abdc6918a","102.66.182.109","Mozilla/5.0 (Android 13; Mobile; rv:140.0) Gecko/140.0 Firefox/140.0","","Firefox","140.0","AndroidOS","13","https://app.prolific.com/","en-ZA,en-US;q=0.5","66bb2110c5672f09961feed2","686d226cabeef709c732f8e1","686e313fb7644afb602703a4","66bb2110c5672f09961feed2","","[{""page_index"":0,""viewing_time"":2644},{""page_index"":1,""viewing_time"":8821}]","","","","","","","","","","","","","","","","","","","","","","","","","","","","","","","","","","","","","","","","","","","",""
"6116","","","{""green_ball"":[""Ball sometimes shakes and moves in a random direction""]}","survey-multi-select","25","396646","0.0-8.0-5.0-0.0","234","1","2025-07-09 09:40:12","7701e855f2ef39aa3fd6c71abdc6918a","102.66.182.109","Mozilla/5.0 (Android 13; Mobile; rv:140.0) Gecko/140.0 Firefox/140.0","","Firefox","140.0","AndroidOS","13","https://app.prolific.com/","en-ZA,en-US;q=0.5","66bb2110c5672f09961feed2","686d226cabeef709c732f8e1","686e313fb7644afb602703a4","66bb2110c5672f09961feed2","","","[0]","","","","quiz","","","","","","","","","","","","","","","","","","","","","","","","","","","","","","","","","","","","","true","",""
"1545","","<p align='center'><b>CORRECT!</b> Indeed, the green ball may sometimes shake and move in a random direction.</p>","0","html-button-response","26","398194","0.0-8.0-5.0-1.0","234","1","2025-07-09 09:40:12","7701e855f2ef39aa3fd6c71abdc6918a","102.66.182.109","Mozilla/5.0 (Android 13; Mobile; rv:140.0) Gecko/140.0 Firefox/140.0","","Firefox","140.0","AndroidOS","13","https://app.prolific.com/","en-ZA,en-US;q=0.5","66bb2110c5672f09961feed2","686d226cabeef709c732f8e1","686e313fb7644afb602703a4","66bb2110c5672f09961feed2","","","","","","","","","","","","","","","","","","","","","","","","","","","","","","","","","","","","","","","","","","","","","",""
"7098","","","{""yellow_ball"":[""Ball doesn‘t move and I get -1 penalty point""]}","survey-multi-select","27","405296","0.0-8.0-6.0-0.0","234","1","2025-07-09 09:40:12","7701e855f2ef39aa3fd6c71abdc6918a","102.66.182.109","Mozilla/5.0 (Android 13; Mobile; rv:140.0) Gecko/140.0 Firefox/140.0","","Firefox","140.0","AndroidOS","13","https://app.prolific.com/","en-ZA,en-US;q=0.5","66bb2110c5672f09961feed2","686d226cabeef709c732f8e1","686e313fb7644afb602703a4","66bb2110c5672f09961feed2","","","[0]","","","","quiz","","","","","","","","","","","","","","","","","","","","","","","","","","","","","","","","","","","","","true","",""
"2000","","<p align='center'><b>CORRECT!</b> Indeed, the yellow ball never moves and you receive a penalty.</p>","0","html-button-response","28","407301","0.0-8.0-6.0-1.0","234","1","2025-07-09 09:40:12","7701e855f2ef39aa3fd6c71abdc6918a","102.66.182.109","Mozilla/5.0 (Android 13; Mobile; rv:140.0) Gecko/140.0 Firefox/140.0","","Firefox","140.0","AndroidOS","13","https://app.prolific.com/","en-ZA,en-US;q=0.5","66bb2110c5672f09961feed2","686d226cabeef709c732f8e1","686e313fb7644afb602703a4","66bb2110c5672f09961feed2","","","","","","","","","","","","","","","","","","","","","","","","","","","","","","","","","","","","","","","","","","","","","",""
"7291","","","{""blue_ball"":[""Ball always shakes and moves in a random direction""]}","survey-multi-select","29","414598","0.0-8.0-7.0-0.0","234","1","2025-07-09 09:40:12","7701e855f2ef39aa3fd6c71abdc6918a","102.66.182.109","Mozilla/5.0 (Android 13; Mobile; rv:140.0) Gecko/140.0 Firefox/140.0","","Firefox","140.0","AndroidOS","13","https://app.prolific.com/","en-ZA,en-US;q=0.5","66bb2110c5672f09961feed2","686d226cabeef709c732f8e1","686e313fb7644afb602703a4","66bb2110c5672f09961feed2","","","[0]","","","","quiz","","","","","","","","","","","","","","","","","","","","","","","","","","","","","","","","","","","","","true","",""
"1566","","<p align='center'><b>CORRECT!</b> Indeed, the blue ball always shakes and moves in a random direction. Also there is a penalty of -1 point.</p>","0","html-button-response","30","416170","0.0-8.0-7.0-1.0","234","1","2025-07-09 09:40:12","7701e855f2ef39aa3fd6c71abdc6918a","102.66.182.109","Mozilla/5.0 (Android 13; Mobile; rv:140.0) Gecko/140.0 Firefox/140.0","","Firefox","140.0","AndroidOS","13","https://app.prolific.com/","en-ZA,en-US;q=0.5","66bb2110c5672f09961feed2","686d226cabeef709c732f8e1","686e313fb7644afb602703a4","66bb2110c5672f09961feed2","","","","","","","","","","","","","","","","","","","","","","","","","","","","","","","","","","","","","","","","","","","","","",""
"5881","","","{""bonus"":[""When I reach 80% of points""]}","survey-multi-select","31","422056","0.0-8.0-8.0-0.0","234","1","2025-07-09 09:40:12","7701e855f2ef39aa3fd6c71abdc6918a","102.66.182.109","Mozilla/5.0 (Android 13; Mobile; rv:140.0) Gecko/140.0 Firefox/140.0","","Firefox","140.0","AndroidOS","13","https://app.prolific.com/","en-ZA,en-US;q=0.5","66bb2110c5672f09961feed2","686d226cabeef709c732f8e1","686e313fb7644afb602703a4","66bb2110c5672f09961feed2","","","[0]","","","","quiz","","","","","","","","","","","","","","","","","","","","","","","","","","","","","","","","","","","","","false","",""
"1921","","<p align='center'><b>INCORRECT.</b> You receive 2 pounds extra when you reach 50% of points </p>","0","html-button-response","32","423981","0.0-8.0-8.0-1.0","234","1","2025-07-09 09:40:12","7701e855f2ef39aa3fd6c71abdc6918a","102.66.182.109","Mozilla/5.0 (Android 13; Mobile; rv:140.0) Gecko/140.0 Firefox/140.0","","Firefox","140.0","AndroidOS","13","https://app.prolific.com/","en-ZA,en-US;q=0.5","66bb2110c5672f09961feed2","686d226cabeef709c732f8e1","686e313fb7644afb602703a4","66bb2110c5672f09961feed2","","","","","","","","","","","","","","","","","","","","","","","","","","","","","","","","","","","","","","","","","","","","","",""
"8652","","","{""bonus"":[""When I reach 80% of points"",""When I reach 50% of points""]}","survey-multi-select","33","432636","0.0-8.0-8.1-0.1","234","1","2025-07-09 09:40:12","7701e855f2ef39aa3fd6c71abdc6918a","102.66.182.109","Mozilla/5.0 (Android 13; Mobile; rv:140.0) Gecko/140.0 Firefox/140.0","","Firefox","140.0","AndroidOS","13","https://app.prolific.com/","en-ZA,en-US;q=0.5","66bb2110c5672f09961feed2","686d226cabeef709c732f8e1","686e313fb7644afb602703a4","66bb2110c5672f09961feed2","","","[0]","","","","quiz","","","","","","","","","","","","","","","","","","","","","","","","","","","","","","","","","","","","","false","",""
"3044","","<p align='center'><b>INCORRECT.</b> You receive 2 pounds extra when you reach 50% of points </p>","0","html-button-response","34","435685","0.0-8.0-8.1-1.1","234","1","2025-07-09 09:40:12","7701e855f2ef39aa3fd6c71abdc6918a","102.66.182.109","Mozilla/5.0 (Android 13; Mobile; rv:140.0) Gecko/140.0 Firefox/140.0","","Firefox","140.0","AndroidOS","13","https://app.prolific.com/","en-ZA,en-US;q=0.5","66bb2110c5672f09961feed2","686d226cabeef709c732f8e1","686e313fb7644afb602703a4","66bb2110c5672f09961feed2","","","","","","","","","","","","","","","","","","","","","","","","","","","","","","","","","","","","","","","","","","","","","",""
"3479","","","{""bonus"":[""When I reach 50% of points""]}","survey-multi-select","35","439169","0.0-8.0-8.2-0.2","234","1","2025-07-09 09:40:12","7701e855f2ef39aa3fd6c71abdc6918a","102.66.182.109","Mozilla/5.0 (Android 13; Mobile; rv:140.0) Gecko/140.0 Firefox/140.0","","Firefox","140.0","AndroidOS","13","https://app.prolific.com/","en-ZA,en-US;q=0.5","66bb2110c5672f09961feed2","686d226cabeef709c732f8e1","686e313fb7644afb602703a4","66bb2110c5672f09961feed2","","","[0]","","","","quiz","","","","","","","","","","","","","","","","","","","","","","","","","","","","","","","","","","","","","true","",""
"1592","","<p align='center'><b>CORRECT!</b> Indeed, you receive 2 pounds extra when you reach 50% of points.</p>","0","html-button-response","36","440767","0.0-8.0-8.2-1.2","234","1","2025-07-09 09:40:12","7701e855f2ef39aa3fd6c71abdc6918a","102.66.182.109","Mozilla/5.0 (Android 13; Mobile; rv:140.0) Gecko/140.0 Firefox/140.0","","Firefox","140.0","AndroidOS","13","https://app.prolific.com/","en-ZA,en-US;q=0.5","66bb2110c5672f09961feed2","686d226cabeef709c732f8e1","686e313fb7644afb602703a4","66bb2110c5672f09961feed2","","","","","","","","","","","","","","","","","","","","","","","","","","","","","","","","","","","","","","","","","","","","","",""
"3887","","","","instructions","37","444656","0.0-8.0-9.0","234","1","2025-07-09 09:40:12","7701e855f2ef39aa3fd6c71abdc6918a","102.66.182.109","Mozilla/5.0 (Android 13; Mobile; rv:140.0) Gecko/140.0 Firefox/140.0","","Firefox","140.0","AndroidOS","13","https://app.prolific.com/","en-ZA,en-US;q=0.5","66bb2110c5672f09961feed2","686d226cabeef709c732f8e1","686e313fb7644afb602703a4","66bb2110c5672f09961feed2","","[{""page_index"":0,""viewing_time"":3887}]","","","","","","","","","","","","","","","","","","","","","","","","","","","","","","","","","","","","","","","","","","","",""
"27335","","<p>Before you start with this game please answer the following three questions yourself. </p>
  <p>Through this game, we measure several aspects of your cognitive performance, such as reaction times, multi-tasking capabilities </p>
  <p>and the ability to assess the situation you are in.</p>
  <p></p>
  <p><b>How good do you usually are in such tasks?</b></p>","76","html-slider-response","38","471996","0.0-9.0-0.0","234","1","2025-07-09 09:40:12","7701e855f2ef39aa3fd6c71abdc6918a","102.66.182.109","Mozilla/5.0 (Android 13; Mobile; rv:140.0) Gecko/140.0 Firefox/140.0","","Firefox","140.0","AndroidOS","13","https://app.prolific.com/","en-ZA,en-US;q=0.5","66bb2110c5672f09961feed2","686d226cabeef709c732f8e1","686e313fb7644afb602703a4","66bb2110c5672f09961feed2","2025-07-09T09:48:05.133Z","","","","","","PreSkillQ","","","","","","","","","","","","","","","","","","","","","","","","","","","","","","","","","","","","","","50",""
"22726","","<div style=""width:500px;"">
  <p>How well do you think you will perform in this task compared to other participants?</p>
  </div>","80","html-slider-response","39","494726","0.0-9.0-1.0","234","1","2025-07-09 09:40:12","7701e855f2ef39aa3fd6c71abdc6918a","102.66.182.109","Mozilla/5.0 (Android 13; Mobile; rv:140.0) Gecko/140.0 Firefox/140.0","","Firefox","140.0","AndroidOS","13","https://app.prolific.com/","en-ZA,en-US;q=0.5","66bb2110c5672f09961feed2","686d226cabeef709c732f8e1","686e313fb7644afb602703a4","66bb2110c5672f09961feed2","2025-07-09T09:48:27.863Z","","","","","","PrePerfQ","","","","","","","","","","","","","","","","","","","","","","","","","","","","","","","","","","","","","","50",""
"5015","","<div style=""width:500px;"">
  <p>What best describes how you currently feel?</p>
  </div>","100","html-slider-response","40","499746","0.0-9.0-2.0","234","1","2025-07-09 09:40:12","7701e855f2ef39aa3fd6c71abdc6918a","102.66.182.109","Mozilla/5.0 (Android 13; Mobile; rv:140.0) Gecko/140.0 Firefox/140.0","","Firefox","140.0","AndroidOS","13","https://app.prolific.com/","en-ZA,en-US;q=0.5","66bb2110c5672f09961feed2","686d226cabeef709c732f8e1","686e313fb7644afb602703a4","66bb2110c5672f09961feed2","2025-07-09T09:48:32.884Z","","","","","","PreMotivationQ","","","","","","","","","","","","","","","","","","","","","","","","","","","","","","","","","","","","","","50",""
"","","","","ctl-task-cpt","41","526040","0.0-10.0-0.0","234","1","2025-07-09 09:40:12","7701e855f2ef39aa3fd6c71abdc6918a","102.66.182.109","Mozilla/5.0 (Android 13; Mobile; rv:140.0) Gecko/140.0 Firefox/140.0","","Firefox","140.0","AndroidOS","13","https://app.prolific.com/","en-ZA,en-US;q=0.5","66bb2110c5672f09961feed2","686d226cabeef709c732f8e1","686e313fb7644afb602703a4","66bb2110c5672f09961feed2","2025-07-09T09:48:59.177Z","","","","","","","","","","","","","","","","win-only","1","g1:NE,g2:SW","1","1","0","502619","6115","11116","23287","1","4","4","6","2","-4","-4","0","0","0","5001","3000","-2835","[""down"",""left""]","{""num_key_presses"":3,""num_perfect"":3,""num_errors"":0,""num_randdir"":0,""num_randdir_good_moves"":0,""num_whilered"":0,""num_whileblue"":0,""num_blue"":0,""num_good_moves"":3}","[467.0081092855037,459.08356370951606,0,467.0081092855037,459.08356370951606,102,467.0081092855037,459.08356370951606,206,467.0081092855037,459.08356370951606,306,467.0081092855037,459.08356370951606,410,467.0081092855037,459.08356370951606,514,467.0081092855037,459.08356370951606,618,467.0081092855037,459.08356370951606,719,467.0081092855037,459.08356370951606,819,467.0081092855037,459.08356370951606,920,467.0081092855037,459.08356370951606,1022,467.0081092855037,459.08356370951606,1126,467.0081092855037,459.08356370951606,1230,467.0081092855037,459.08356370951606,1333,467.0081092855037,459.08356370951606,1437,467.0081092855037,459.08356370951606,1541,467.0081092855037,459.08356370951606,1645,467.0081092855037,459.08356370951606,1747,467.0081092855037,459.08356370951606,1850,467.0081092855037,459.08356370951606,1956,467.0081092855037,459.08356370951606,2056,467.0081092855037,459.08356370951606,2158,467.0081092855037,459.08356370951606,2261,467.0081092855037,459.08356370951606,2362,467.0081092855037,459.08356370951606,2462,467.0081092855037,459.08356370951606,2566,467.0081092855037,459.08356370951606,2667,467.0081092855037,459.08356370951606,2769,467.0081092855037,459.08356370951606,2874,467.0081092855037,459.08356370951606,2978,467.0081092855037,459.08356370951606,3080,467.0081092855037,459.08356370951606,3184,467.0081092855037,459.08356370951606,3286,467.0081092855037,459.08356370951606,3386,467.0081092855037,459.08356370951606,3487,467.0081092855037,459.08356370951606,3590,467.0081092855037,459.08356370951606,3693,467.0081092855037,459.08356370951606,3796,467.0081092855037,459.08356370951606,3900,467.0081092855037,459.08356370951606,4005,467.0081092855037,459.08356370951606,4105,467.0081092855037,459.08356370951606,4209,467.0081092855037,459.08356370951606,4313,467.0081092855037,459.08356370951606,4414,467.0081092855037,459.08356370951606,4516,467.0081092855037,459.08356370951606,4618,467.0081092855037,459.08356370951606,4723,467.0081092855037,459.08356370951606,4827,467.0081092855037,459.08356370951606,4927]","[2220,2220,1000,0,1220,""smooth"",""down"",""down"",""good_move"",6368,4148,3102,2220,1046,""smooth"",""down"",""down"",""good_move"",9419,3051,2365.2,6368,685.8,""smooth"",""left"",""left"",""good_move""]","","",""
"7486","","<div style=""width:500px;"">
  <p>What determined the result of this run?</p>
  </div>","75","html-slider-response","42","533527","0.0-10.0-1.0","234","1","2025-07-09 09:40:12","7701e855f2ef39aa3fd6c71abdc6918a","102.66.182.109","Mozilla/5.0 (Android 13; Mobile; rv:140.0) Gecko/140.0 Firefox/140.0","","Firefox","140.0","AndroidOS","13","https://app.prolific.com/","en-ZA,en-US;q=0.5","66bb2110c5672f09961feed2","686d226cabeef709c732f8e1","686e313fb7644afb602703a4","66bb2110c5672f09961feed2","2025-07-09T09:49:06.665Z","","","","","","AttribQ","","","","","","","","","","","","","","","","","","","","","","","","","","","","","","","","","","","","","","50",""
"4345","","<div style=""width:500px;"">
  <p>How much control did you have over the ball?</p>
  </div>","34","html-slider-response","43","537877","0.0-10.0-2.0","234","1","2025-07-09 09:40:12","7701e855f2ef39aa3fd6c71abdc6918a","102.66.182.109","Mozilla/5.0 (Android 13; Mobile; rv:140.0) Gecko/140.0 Firefox/140.0","","Firefox","140.0","AndroidOS","13","https://app.prolific.com/","en-ZA,en-US;q=0.5","66bb2110c5672f09961feed2","686d226cabeef709c732f8e1","686e313fb7644afb602703a4","66bb2110c5672f09961feed2","2025-07-09T09:49:11.014Z","","","","","","ControlQ","","","","","","","","","","","","","","","","","","","","","","","","","","","","","","","","","","","","","","50",""
"5743","","<div style=""width:500px;"">
  <p>How would you describe your current emotional state?</p>
  </div>","60","html-slider-response","44","543625","0.0-10.0-3.0","234","1","2025-07-09 09:40:12","7701e855f2ef39aa3fd6c71abdc6918a","102.66.182.109","Mozilla/5.0 (Android 13; Mobile; rv:140.0) Gecko/140.0 Firefox/140.0","","Firefox","140.0","AndroidOS","13","https://app.prolific.com/","en-ZA,en-US;q=0.5","66bb2110c5672f09961feed2","686d226cabeef709c732f8e1","686e313fb7644afb602703a4","66bb2110c5672f09961feed2","2025-07-09T09:49:16.762Z","","","","","","StressQ","","","","","","","","","","","","","","","","","","","","","","","","","","","","","","","","","","","","","","50",""
"5705","","<div style=""width:500px;"">
  <p>What best describes how you currently feel?</p>
  </div>","72","html-slider-response","45","549334","0.0-10.0-4.0","234","1","2025-07-09 09:40:12","7701e855f2ef39aa3fd6c71abdc6918a","102.66.182.109","Mozilla/5.0 (Android 13; Mobile; rv:140.0) Gecko/140.0 Firefox/140.0","","Firefox","140.0","AndroidOS","13","https://app.prolific.com/","en-ZA,en-US;q=0.5","66bb2110c5672f09961feed2","686d226cabeef709c732f8e1","686e313fb7644afb602703a4","66bb2110c5672f09961feed2","2025-07-09T09:49:22.471Z","","","","","","MotivationQ","","","","","","","","","","","","","","","","","","","","","","","","","","","","","","","","","","","","","","50",""
"","","","","ctl-task-cpt","46","572934","0.0-10.0-0.1","234","1","2025-07-09 09:40:12","7701e855f2ef39aa3fd6c71abdc6918a","102.66.182.109","Mozilla/5.0 (Android 13; Mobile; rv:140.0) Gecko/140.0 Firefox/140.0","","Firefox","140.0","AndroidOS","13","https://app.prolific.com/","en-ZA,en-US;q=0.5","66bb2110c5672f09961feed2","686d226cabeef709c732f8e1","686e313fb7644afb602703a4","66bb2110c5672f09961feed2","2025-07-09T09:49:46.071Z","","","","","","","","","","","","","","","","win-only","1","g1:NE,g2:SW","0.9","2","0","552207","1688","6689","20594","1","4","8","6","1","1","1","1","0","0.007575757575757576","5001","3000","765","[""up"",""right""]","{""num_key_presses"":4,""num_perfect"":3,""num_errors"":0,""num_randdir"":1,""num_randdir_good_moves"":1,""num_whilered"":0,""num_whileblue"":0,""num_blue"":1,""num_good_moves"":4}","[470.40433570059804,462.4797901246104,0,470.40433570059804,462.4797901246104,103,470.40433570059804,462.4797901246104,205,470.40433570059804,462.4797901246104,305,470.40433570059804,462.4797901246104,409,470.40433570059804,462.4797901246104,513,470.40433570059804,462.4797901246104,613,470.40433570059804,462.4797901246104,717,470.40433570059804,462.4797901246104,820,470.40433570059804,462.4797901246104,923,470.40433570059804,462.4797901246104,1028,470.40433570059804,462.4797901246104,1128,470.40433570059804,462.4797901246104,1232,470.40433570059804,462.4797901246104,1332,470.40433570059804,462.4797901246104,1437,470.40433570059804,462.4797901246104,1539,470.40433570059804,462.4797901246104,1643,470.40433570059804,462.4797901246104,1743,470.40433570059804,462.4797901246104,1843,470.40433570059804,462.4797901246104,1946,470.40433570059804,462.4797901246104,2046,470.40433570059804,462.4797901246104,2147,470.40433570059804,462.4797901246104,2249,470.40433570059804,462.4797901246104,2353,470.40433570059804,462.4797901246104,2455,470.40433570059804,462.4797901246104,2559,470.40433570059804,462.4797901246104,2662,470.40433570059804,462.4797901246104,2762,470.40433570059804,462.4797901246104,2865,470.40433570059804,462.4797901246104,2968,470.40433570059804,462.4797901246104,3071,470.40433570059804,462.4797901246104,3172,470.40433570059804,462.4797901246104,3272,470.40433570059804,462.4797901246104,3375,470.40433570059804,462.4797901246104,3479,470.40433570059804,462.4797901246104,3583,470.40433570059804,462.4797901246104,3685,470.40433570059804,462.4797901246104,3788,470.40433570059804,462.4797901246104,3890,470.40433570059804,462.4797901246104,3993,470.40433570059804,462.4797901246104,4096,470.40433570059804,462.4797901246104,4199,470.40433570059804,462.4797901246104,4303,470.40433570059804,462.4797901246104,4404,470.40433570059804,462.4797901246104,4506,470.40433570059804,462.4797901246104,4608,470.40433570059804,462.4797901246104,4712,470.40433570059804,462.4797901246104,4813,470.40433570059804,462.4797901246104,4915]","[1748,1748,1000,0,748,""smooth"",""up"",""up"",""good_move"",7349,5601,1878.8,4961,509.2,""smooth"",""up"",""up"",""good_move"",10335,2986,2376.6,7349,609.4,""smooth"",""right"",""right"",""good_move"",13812,3476,2946.2,10336,529.8,""oops"",""right"",""right"",""good_move""]","","",""
"4469","","<div style=""width:500px;"">
  <p>What determined the result of this run?</p>
  </div>","63","html-slider-response","47","577407","0.0-10.0-1.1","234","1","2025-07-09 09:40:12","7701e855f2ef39aa3fd6c71abdc6918a","102.66.182.109","Mozilla/5.0 (Android 13; Mobile; rv:140.0) Gecko/140.0 Firefox/140.0","","Firefox","140.0","AndroidOS","13","https://app.prolific.com/","en-ZA,en-US;q=0.5","66bb2110c5672f09961feed2","686d226cabeef709c732f8e1","686e313fb7644afb602703a4","66bb2110c5672f09961feed2","2025-07-09T09:49:50.544Z","","","","","","AttribQ","","","","","","","","","","","","","","","","","","","","","","","","","","","","","","","","","","","","","","50",""
"1826","","<div style=""width:500px;"">
  <p>How much control did you have over the ball?</p>
  </div>","66","html-slider-response","48","579237","0.0-10.0-2.1","234","1","2025-07-09 09:40:12","7701e855f2ef39aa3fd6c71abdc6918a","102.66.182.109","Mozilla/5.0 (Android 13; Mobile; rv:140.0) Gecko/140.0 Firefox/140.0","","Firefox","140.0","AndroidOS","13","https://app.prolific.com/","en-ZA,en-US;q=0.5","66bb2110c5672f09961feed2","686d226cabeef709c732f8e1","686e313fb7644afb602703a4","66bb2110c5672f09961feed2","2025-07-09T09:49:52.374Z","","","","","","ControlQ","","","","","","","","","","","","","","","","","","","","","","","","","","","","","","","","","","","","","","50",""
"1437","","<div style=""width:500px;"">
  <p>How would you describe your current emotional state?</p>
  </div>","68","html-slider-response","49","580678","0.0-10.0-3.1","234","1","2025-07-09 09:40:12","7701e855f2ef39aa3fd6c71abdc6918a","102.66.182.109","Mozilla/5.0 (Android 13; Mobile; rv:140.0) Gecko/140.0 Firefox/140.0","","Firefox","140.0","AndroidOS","13","https://app.prolific.com/","en-ZA,en-US;q=0.5","66bb2110c5672f09961feed2","686d226cabeef709c732f8e1","686e313fb7644afb602703a4","66bb2110c5672f09961feed2","2025-07-09T09:49:53.815Z","","","","","","StressQ","","","","","","","","","","","","","","","","","","","","","","","","","","","","","","","","","","","","","","50",""
"1151","","<div style=""width:500px;"">
  <p>What best describes how you currently feel?</p>
  </div>","73","html-slider-response","50","581832","0.0-10.0-4.1","234","1","2025-07-09 09:40:12","7701e855f2ef39aa3fd6c71abdc6918a","102.66.182.109","Mozilla/5.0 (Android 13; Mobile; rv:140.0) Gecko/140.0 Firefox/140.0","","Firefox","140.0","AndroidOS","13","https://app.prolific.com/","en-ZA,en-US;q=0.5","66bb2110c5672f09961feed2","686d226cabeef709c732f8e1","686e313fb7644afb602703a4","66bb2110c5672f09961feed2","2025-07-09T09:49:54.969Z","","","","","","MotivationQ","","","","","","","","","","","","","","","","","","","","","","","","","","","","","","","","","","","","","","50",""
"","","","","ctl-task-cpt","51","617356","0.0-10.0-0.2","234","1","2025-07-09 09:40:12","7701e855f2ef39aa3fd6c71abdc6918a","102.66.182.109","Mozilla/5.0 (Android 13; Mobile; rv:140.0) Gecko/140.0 Firefox/140.0","","Firefox","140.0","AndroidOS","13","https://app.prolific.com/","en-ZA,en-US;q=0.5","66bb2110c5672f09961feed2","686d226cabeef709c732f8e1","686e313fb7644afb602703a4","66bb2110c5672f09961feed2","2025-07-09T09:50:30.493Z","","","","","","","","","","","","","","","","win-only","2","g1:SE,g2:NW","0.8","3","0","584702","948","5950","32520","1","4","8","6","2","8","8","9","1","0.06818181818181818","5002","3000","350","[""left"",""up""]","{""num_key_presses"":6,""num_perfect"":6,""num_errors"":0,""num_randdir"":0,""num_randdir_good_moves"":0,""num_whilered"":0,""num_whileblue"":0,""num_blue"":3,""num_good_moves"":6}","[471.5364111722962,467.00809201140294,2,471.5364111722962,467.00809201140294,102,471.5364111722962,467.00809201140294,205,471.5364111722962,467.00809201140294,311,471.5364111722962,467.00809201140294,416,471.5364111722962,467.00809201140294,517,471.5364111722962,467.00809201140294,620,471.5364111722962,467.00809201140294,724,471.5364111722962,467.00809201140294,826,471.5364111722962,467.00809201140294,929,471.5364111722962,467.00809201140294,1033,471.5364111722962,467.00809201140294,1133,471.5364111722962,467.00809201140294,1236,471.5364111722962,467.00809201140294,1340,471.5364111722962,467.00809201140294,1444,471.5364111722962,467.00809201140294,1547,471.5364111722962,467.00809201140294,1651,471.5364111722962,467.00809201140294,1755,471.5364111722962,467.00809201140294,1859,471.5364111722962,467.00809201140294,1962,471.5364111722962,467.00809201140294,2062,471.5364111722962,467.00809201140294,2165,471.5364111722962,467.00809201140294,2266,471.5364111722962,467.00809201140294,2370,471.5364111722962,467.00809201140294,2470,471.5364111722962,467.00809201140294,2574,471.5364111722962,467.00809201140294,2675,471.5364111722962,467.00809201140294,2779,471.5364111722962,467.00809201140294,2881,471.5364111722962,467.00809201140294,2982,471.5364111722962,467.00809201140294,3083,471.5364111722962,467.00809201140294,3185,471.5364111722962,467.00809201140294,3288,471.5364111722962,467.00809201140294,3389,471.5364111722962,467.00809201140294,3493,471.5364111722962,467.00809201140294,3593,471.5364111722962,467.00809201140294,3696,471.5364111722962,467.00809201140294,3798,471.5364111722962,467.00809201140294,3899,471.5364111722962,467.00809201140294,4000,471.5364111722962,467.00809201140294,4101,471.5364111722962,467.00809201140294,4205,471.5364111722962,467.00809201140294,4309,471.5364111722962,467.00809201140294,4410,471.5364111722962,467.00809201140294,4511,471.5364111722962,467.00809201140294,4614,471.5364111722962,467.00809201140294,4714,471.5364111722962,467.00809201140294,4817,471.5364111722962,467.00809201140294,4919]","[1549,1549,1000,0,549,""smooth"",""up"",""up"",""good_move"",4488,2939,2440.2,1549,498.8,""smooth"",""up"",""up"",""good_move"",11117,6628,3002.2,7727,387.8,""smooth"",""left"",""left"",""good_move"",14074,2956,2487.5,11118,468.5,""smooth"",""left"",""left"",""good_move"",20876,6802,2649.1,17755,471.9,""smooth"",""up"",""up"",""good_move"",26474,5598,2340,23688,447,""smooth"",""left"",""left"",""good_move""]","","",""
"3837","","<div style=""width:500px;"">
  <p>What determined the result of this run?</p>
  </div>","66","html-slider-response","52","621196","0.0-10.0-1.2","234","1","2025-07-09 09:40:12","7701e855f2ef39aa3fd6c71abdc6918a","102.66.182.109","Mozilla/5.0 (Android 13; Mobile; rv:140.0) Gecko/140.0 Firefox/140.0","","Firefox","140.0","AndroidOS","13","https://app.prolific.com/","en-ZA,en-US;q=0.5","66bb2110c5672f09961feed2","686d226cabeef709c732f8e1","686e313fb7644afb602703a4","66bb2110c5672f09961feed2","2025-07-09T09:50:34.333Z","","","","","","AttribQ","","","","","","","","","","","","","","","","","","","","","","","","","","","","","","","","","","","","","","50",""
"978","","<div style=""width:500px;"">
  <p>How much control did you have over the ball?</p>
  </div>","69","html-slider-response","53","622178","0.0-10.0-2.2","234","1","2025-07-09 09:40:12","7701e855f2ef39aa3fd6c71abdc6918a","102.66.182.109","Mozilla/5.0 (Android 13; Mobile; rv:140.0) Gecko/140.0 Firefox/140.0","","Firefox","140.0","AndroidOS","13","https://app.prolific.com/","en-ZA,en-US;q=0.5","66bb2110c5672f09961feed2","686d226cabeef709c732f8e1","686e313fb7644afb602703a4","66bb2110c5672f09961feed2","2025-07-09T09:50:35.315Z","","","","","","ControlQ","","","","","","","","","","","","","","","","","","","","","","","","","","","","","","","","","","","","","","50",""
"2200","","<div style=""width:500px;"">
  <p>How would you describe your current emotional state?</p>
  </div>","65","html-slider-response","54","624384","0.0-10.0-3.2","234","1","2025-07-09 09:40:12","7701e855f2ef39aa3fd6c71abdc6918a","102.66.182.109","Mozilla/5.0 (Android 13; Mobile; rv:140.0) Gecko/140.0 Firefox/140.0","","Firefox","140.0","AndroidOS","13","https://app.prolific.com/","en-ZA,en-US;q=0.5","66bb2110c5672f09961feed2","686d226cabeef709c732f8e1","686e313fb7644afb602703a4","66bb2110c5672f09961feed2","2025-07-09T09:50:37.521Z","","","","","","StressQ","","","","","","","","","","","","","","","","","","","","","","","","","","","","","","","","","","","","","","50",""
"1329","","<div style=""width:500px;"">
  <p>What best describes how you currently feel?</p>
  </div>","72","html-slider-response","55","625716","0.0-10.0-4.2","234","1","2025-07-09 09:40:12","7701e855f2ef39aa3fd6c71abdc6918a","102.66.182.109","Mozilla/5.0 (Android 13; Mobile; rv:140.0) Gecko/140.0 Firefox/140.0","","Firefox","140.0","AndroidOS","13","https://app.prolific.com/","en-ZA,en-US;q=0.5","66bb2110c5672f09961feed2","686d226cabeef709c732f8e1","686e313fb7644afb602703a4","66bb2110c5672f09961feed2","2025-07-09T09:50:38.853Z","","","","","","MotivationQ","","","","","","","","","","","","","","","","","","","","","","","","","","","","","","","","","","","","","","50",""
"","","","","ctl-task-cpt","56","668905","0.0-10.0-0.3","234","1","2025-07-09 09:40:12","7701e855f2ef39aa3fd6c71abdc6918a","102.66.182.109","Mozilla/5.0 (Android 13; Mobile; rv:140.0) Gecko/140.0 Firefox/140.0","","Firefox","140.0","AndroidOS","13","https://app.prolific.com/","en-ZA,en-US;q=0.5","66bb2110c5672f09961feed2","686d226cabeef709c732f8e1","686e313fb7644afb602703a4","66bb2110c5672f09961feed2","2025-07-09T09:51:22.042Z","","","","","","","","","","","","","","","","win-only","3","g1:SW,g2:NE","0.7","4","0","628587","1484","6485","40184","1","4","4","6","2","-4","-5","4","9","0.030303030303030304","5001","3000","-2830","[""up"",""right""]","{""num_key_presses"":6,""num_perfect"":3,""num_errors"":1,""num_randdir"":2,""num_randdir_good_moves"":2,""num_whilered"":0,""num_whileblue"":0,""num_blue"":3,""num_good_moves"":5}","[461.3477319270131,460.2156391812142,0,461.3477319270131,460.2156391812142,100,461.3477319270131,460.2156391812142,203,461.3477319270131,460.2156391812142,305,461.3477319270131,460.2156391812142,409,461.3477319270131,460.2156391812142,513,461.3477319270131,460.2156391812142,614,461.3477319270131,460.2156391812142,718,461.3477319270131,460.2156391812142,821,461.3477319270131,460.2156391812142,924,461.3477319270131,460.2156391812142,1024,461.3477319270131,460.2156391812142,1126,461.3477319270131,460.2156391812142,1230,461.3477319270131,460.2156391812142,1333,461.3477319270131,460.2156391812142,1436,461.3477319270131,460.2156391812142,1539,461.3477319270131,460.2156391812142,1643,461.3477319270131,460.2156391812142,1747,461.3477319270131,460.2156391812142,1848,461.3477319270131,460.2156391812142,1950,461.3477319270131,460.2156391812142,2054,461.3477319270131,460.2156391812142,2157,461.3477319270131,460.2156391812142,2259,461.3477319270131,460.2156391812142,2361,461.3477319270131,460.2156391812142,2463,461.3477319270131,460.2156391812142,2565,461.3477319270131,460.2156391812142,2665,461.3477319270131,460.2156391812142,2769,461.3477319270131,460.2156391812142,2869,461.3477319270131,460.2156391812142,2971,461.3477319270131,460.2156391812142,3072,461.3477319270131,460.2156391812142,3175,461.3477319270131,460.2156391812142,3280,461.3477319270131,460.2156391812142,3381,461.3477319270131,460.2156391812142,3483,461.3477319270131,460.2156391812142,3585,461.3477319270131,460.2156391812142,3686,461.3477319270131,460.2156391812142,3788,461.3477319270131,460.2156391812142,3892,461.3477319270131,460.2156391812142,3993,461.3477319270131,460.2156391812142,4094,461.3477319270131,460.2156391812142,4195,461.3477319270131,460.2156391812142,4297,461.3477319270131,460.2156391812142,4398,461.3477319270131,460.2156391812142,4500,461.3477319270131,460.2156391812142,4601,461.3477319270131,460.2156391812142,4705,461.3477319270131,460.2156391812142,4807,461.3477319270131,460.2156391812142,4910]","[918,918,1000,0,-82,""error"",""-"",""-"",""no_move"",5042,4124,2533,1921,588,""oops"",""up"",""up"",""good_move"",17167,12125,3411.5,13244,511.5,""smooth"",""up"",""up"",""good_move"",20567,3400,2675,17167,725,""oops"",""right"",""up"",""good_move"",23930,3363,2906.9,20567,456.1,""smooth"",""right"",""right"",""good_move"",31315,7385,2885.7,27951,478.3,""smooth"",""right"",""right"",""good_move""]","","",""
"2373","","<div style=""width:500px;"">
  <p>What determined the result of this run?</p>
  </div>","71","html-slider-response","57","671281","0.0-10.0-1.3","234","1","2025-07-09 09:40:12","7701e855f2ef39aa3fd6c71abdc6918a","102.66.182.109","Mozilla/5.0 (Android 13; Mobile; rv:140.0) Gecko/140.0 Firefox/140.0","","Firefox","140.0","AndroidOS","13","https://app.prolific.com/","en-ZA,en-US;q=0.5","66bb2110c5672f09961feed2","686d226cabeef709c732f8e1","686e313fb7644afb602703a4","66bb2110c5672f09961feed2","2025-07-09T09:51:24.418Z","","","","","","AttribQ","","","","","","","","","","","","","","","","","","","","","","","","","","","","","","","","","","","","","","50",""
"973","","<div style=""width:500px;"">
  <p>How much control did you have over the ball?</p>
  </div>","72","html-slider-response","58","672256","0.0-10.0-2.3","234","1","2025-07-09 09:40:12","7701e855f2ef39aa3fd6c71abdc6918a","102.66.182.109","Mozilla/5.0 (Android 13; Mobile; rv:140.0) Gecko/140.0 Firefox/140.0","","Firefox","140.0","AndroidOS","13","https://app.prolific.com/","en-ZA,en-US;q=0.5","66bb2110c5672f09961feed2","686d226cabeef709c732f8e1","686e313fb7644afb602703a4","66bb2110c5672f09961feed2","2025-07-09T09:51:25.393Z","","","","","","ControlQ","","","","","","","","","","","","","","","","","","","","","","","","","","","","","","","","","","","","","","50",""
"1050","","<div style=""width:500px;"">
  <p>How would you describe your current emotional state?</p>
  </div>","74","html-slider-response","59","673309","0.0-10.0-3.3","234","1","2025-07-09 09:40:12","7701e855f2ef39aa3fd6c71abdc6918a","102.66.182.109","Mozilla/5.0 (Android 13; Mobile; rv:140.0) Gecko/140.0 Firefox/140.0","","Firefox","140.0","AndroidOS","13","https://app.prolific.com/","en-ZA,en-US;q=0.5","66bb2110c5672f09961feed2","686d226cabeef709c732f8e1","686e313fb7644afb602703a4","66bb2110c5672f09961feed2","2025-07-09T09:51:26.446Z","","","","","","StressQ","","","","","","","","","","","","","","","","","","","","","","","","","","","","","","","","","","","","","","50",""
"1035","","<div style=""width:500px;"">
  <p>What best describes how you currently feel?</p>
  </div>","78","html-slider-response","60","674348","0.0-10.0-4.3","234","1","2025-07-09 09:40:12","7701e855f2ef39aa3fd6c71abdc6918a","102.66.182.109","Mozilla/5.0 (Android 13; Mobile; rv:140.0) Gecko/140.0 Firefox/140.0","","Firefox","140.0","AndroidOS","13","https://app.prolific.com/","en-ZA,en-US;q=0.5","66bb2110c5672f09961feed2","686d226cabeef709c732f8e1","686e313fb7644afb602703a4","66bb2110c5672f09961feed2","2025-07-09T09:51:27.485Z","","","","","","MotivationQ","","","","","","","","","","","","","","","","","","","","","","","","","","","","","","","","","","","","","","50",""
"","","","","ctl-task-cpt","61","705588","0.0-10.0-0.4","234","1","2025-07-09 09:40:12","7701e855f2ef39aa3fd6c71abdc6918a","102.66.182.109","Mozilla/5.0 (Android 13; Mobile; rv:140.0) Gecko/140.0 Firefox/140.0","","Firefox","140.0","AndroidOS","13","https://app.prolific.com/","en-ZA,en-US;q=0.5","66bb2110c5672f09961feed2","686d226cabeef709c732f8e1","686e313fb7644afb602703a4","66bb2110c5672f09961feed2","2025-07-09T09:51:58.725Z","","","","","","","","","","","","","","","","win-only","1","g1:NE,g2:SW","0.6","5","0","677220","839","5845","28235","1","4","8","6","2","-8","-9","0","4","0","5006","3000","-2800","[""down"",""left""]","{""num_key_presses"":5,""num_perfect"":2,""num_errors"":1,""num_randdir"":2,""num_randdir_good_moves"":1,""num_whilered"":0,""num_whileblue"":0,""num_blue"":1,""num_good_moves"":3}","[471.5364111722962,462.4797901246104,0,471.5364111722962,462.4797901246104,100,471.5364111722962,462.4797901246104,202,471.5364111722962,462.4797901246104,305,471.5364111722962,462.4797901246104,409,471.5364111722962,462.4797901246104,512,471.5364111722962,462.4797901246104,612,471.5364111722962,462.4797901246104,712,471.5364111722962,462.4797901246104,816,471.5364111722962,462.4797901246104,920,471.5364111722962,462.4797901246104,1024,471.5364111722962,462.4797901246104,1125,471.5364111722962,462.4797901246104,1226,471.5364111722962,462.4797901246104,1329,471.5364111722962,462.4797901246104,1433,471.5364111722962,462.4797901246104,1533,471.5364111722962,462.4797901246104,1635,471.5364111722962,462.4797901246104,1736,471.5364111722962,462.4797901246104,1840,471.5364111722962,462.4797901246104,1940,471.5364111722962,462.4797901246104,2042,471.5364111722962,462.4797901246104,2146,471.5364111722962,462.4797901246104,2249,471.5364111722962,462.4797901246104,2354,471.5364111722962,462.4797901246104,2454,471.5364111722962,462.4797901246104,2557,471.5364111722962,462.4797901246104,2657,471.5364111722962,462.4797901246104,2760,471.5364111722962,462.4797901246104,2863,471.5364111722962,462.4797901246104,2967,471.5364111722962,462.4797901246104,3067,471.5364111722962,462.4797901246104,3168,471.5364111722962,462.4797901246104,3274,471.5364111722962,462.4797901246104,3376,471.5364111722962,462.4797901246104,3479,471.5364111722962,462.4797901246104,3583,471.5364111722962,462.4797901246104,3687,471.5364111722962,462.4797901246104,3790,471.5364111722962,462.4797901246104,3893,471.5364111722962,462.4797901246104,3996,471.5364111722962,462.4797901246104,4098,471.5364111722962,462.4797901246104,4198,471.5364111722962,462.4797901246104,4301,471.5364111722962,462.4797901246104,4404,471.5364111722962,462.4797901246104,4508,471.5364111722962,462.4797901246104,4609,471.5364111722962,462.4797901246104,4709,471.5364111722962,462.4797901246104,4810,471.5364111722962,462.4797901246104,4911]","[813,813,1000,0,-187,""error"",""-"",""-"",""no_move"",8250,7436,2559.2,4881,809.8,""smooth"",""down"",""down"",""good_move"",11423,3173,2250.6,8250,922.4,""oops"",""left"",""right"",""bad_move"",15008,3585,2953.4,11423,631.6,""oops"",""down"",""left"",""good_move"",18972,3963,3264.6,15009,698.4,""smooth"",""down"",""down"",""good_move""]","","",""
"2478","","<div style=""width:500px;"">
  <p>What determined the result of this run?</p>
  </div>","65","html-slider-response","62","708068","0.0-10.0-1.4","234","1","2025-07-09 09:40:12","7701e855f2ef39aa3fd6c71abdc6918a","102.66.182.109","Mozilla/5.0 (Android 13; Mobile; rv:140.0) Gecko/140.0 Firefox/140.0","","Firefox","140.0","AndroidOS","13","https://app.prolific.com/","en-ZA,en-US;q=0.5","66bb2110c5672f09961feed2","686d226cabeef709c732f8e1","686e313fb7644afb602703a4","66bb2110c5672f09961feed2","2025-07-09T09:52:01.205Z","","","","","","AttribQ","","","","","","","","","","","","","","","","","","","","","","","","","","","","","","","","","","","","","","50",""
"869","","<div style=""width:500px;"">
  <p>How much control did you have over the ball?</p>
  </div>","74","html-slider-response","63","708939","0.0-10.0-2.4","234","1","2025-07-09 09:40:12","7701e855f2ef39aa3fd6c71abdc6918a","102.66.182.109","Mozilla/5.0 (Android 13; Mobile; rv:140.0) Gecko/140.0 Firefox/140.0","","Firefox","140.0","AndroidOS","13","https://app.prolific.com/","en-ZA,en-US;q=0.5","66bb2110c5672f09961feed2","686d226cabeef709c732f8e1","686e313fb7644afb602703a4","66bb2110c5672f09961feed2","2025-07-09T09:52:02.076Z","","","","","","ControlQ","","","","","","","","","","","","","","","","","","","","","","","","","","","","","","","","","","","","","","50",""
"765","","<div style=""width:500px;"">
  <p>How would you describe your current emotional state?</p>
  </div>","81","html-slider-response","64","709707","0.0-10.0-3.4","234","1","2025-07-09 09:40:12","7701e855f2ef39aa3fd6c71abdc6918a","102.66.182.109","Mozilla/5.0 (Android 13; Mobile; rv:140.0) Gecko/140.0 Firefox/140.0","","Firefox","140.0","AndroidOS","13","https://app.prolific.com/","en-ZA,en-US;q=0.5","66bb2110c5672f09961feed2","686d226cabeef709c732f8e1","686e313fb7644afb602703a4","66bb2110c5672f09961feed2","2025-07-09T09:52:02.844Z","","","","","","StressQ","","","","","","","","","","","","","","","","","","","","","","","","","","","","","","","","","","","","","","50",""
"1511","","<div style=""width:500px;"">
  <p>What best describes how you currently feel?</p>
  </div>","75","html-slider-response","65","711221","0.0-10.0-4.4","234","1","2025-07-09 09:40:12","7701e855f2ef39aa3fd6c71abdc6918a","102.66.182.109","Mozilla/5.0 (Android 13; Mobile; rv:140.0) Gecko/140.0 Firefox/140.0","","Firefox","140.0","AndroidOS","13","https://app.prolific.com/","en-ZA,en-US;q=0.5","66bb2110c5672f09961feed2","686d226cabeef709c732f8e1","686e313fb7644afb602703a4","66bb2110c5672f09961feed2","2025-07-09T09:52:04.358Z","","","","","","MotivationQ","","","","","","","","","","","","","","","","","","","","","","","","","","","","","","","","","","","","","","50",""
"","","","","ctl-task-cpt","66","720164","0.0-10.0-0.5","234","1","2025-07-09 09:40:12","7701e855f2ef39aa3fd6c71abdc6918a","102.66.182.109","Mozilla/5.0 (Android 13; Mobile; rv:140.0) Gecko/140.0 Firefox/140.0","","Firefox","140.0","AndroidOS","13","https://app.prolific.com/","en-ZA,en-US;q=0.5","66bb2110c5672f09961feed2","686d226cabeef709c732f8e1","686e313fb7644afb602703a4","66bb2110c5672f09961feed2","2025-07-09T09:52:13.301Z","","","","","","","","","","","","","","","","win-only","0","g1:NW,g2:SE","0.5","6","0","714093","933","-9999","5938","1","4","4","6","-9999","-4","-4","0","0","0","-9999","3000","3000","[]","{""num_key_presses"":0,""num_perfect"":0,""num_errors"":0,""num_randdir"":0,""num_randdir_good_moves"":0,""num_whilered"":0,""num_whileblue"":0,""num_blue"":0,""num_good_moves"":0}","[477.19678853078676,463.6118655963086,1,477.19678853078676,463.6118655963086,103,477.19678853078676,463.6118655963086,206,477.19678853078676,463.6118655963086,311,477.19678853078676,463.6118655963086,414,477.19678853078676,463.6118655963086,514,477.19678853078676,463.6118655963086,617,477.19678853078676,463.6118655963086,717,477.19678853078676,463.6118655963086,818,477.19678853078676,463.6118655963086,922,477.19678853078676,463.6118655963086,1024,477.19678853078676,463.6118655963086,1128,477.19678853078676,463.6118655963086,1230,477.19678853078676,463.6118655963086,1331,477.19678853078676,463.6118655963086,1437,477.19678853078676,463.6118655963086,1540,477.19678853078676,463.6118655963086,1643,477.19678853078676,463.6118655963086,1748,477.19678853078676,463.6118655963086,1851,477.19678853078676,463.6118655963086,1954,477.19678853078676,463.6118655963086,2058,477.19678853078676,463.6118655963086,2160,477.19678853078676,463.6118655963086,2262,477.19678853078676,463.6118655963086,2366,477.19678853078676,463.6118655963086,2469,477.19678853078676,463.6118655963086,2572,477.19678853078676,463.6118655963086,2674,477.19678853078676,463.6118655963086,2774,477.19678853078676,463.6118655963086,2876,477.19678853078676,463.6118655963086,2977,477.19678853078676,463.6118655963086,3082,477.19678853078676,463.6118655963086,3183,477.19678853078676,463.6118655963086,3287,477.19678853078676,463.6118655963086,3389,477.19678853078676,463.6118655963086,3493,477.19678853078676,463.6118655963086,3596,477.19678853078676,463.6118655963086,3698,477.19678853078676,463.6118655963086,3799,477.19678853078676,463.6118655963086,3904,477.19678853078676,463.6118655963086,4005,477.19678853078676,463.6118655963086,4105,477.19678853078676,463.6118655963086,4205,477.19678853078676,463.6118655963086,4309,477.19678853078676,463.6118655963086,4413,477.19678853078676,463.6118655963086,4516,477.19678853078676,463.6118655963086,4621,477.19678853078676,463.6118655963086,4722,477.19678853078676,463.6118655963086,4824,477.19678853078676,463.6118655963086,4925]","[]","","",""
"1871","","<div style=""width:500px;"">
  <p>What determined the result of this run?</p>
  </div>","70","html-slider-response","67","722036","0.0-10.0-1.5","234","1","2025-07-09 09:40:12","7701e855f2ef39aa3fd6c71abdc6918a","102.66.182.109","Mozilla/5.0 (Android 13; Mobile; rv:140.0) Gecko/140.0 Firefox/140.0","","Firefox","140.0","AndroidOS","13","https://app.prolific.com/","en-ZA,en-US;q=0.5","66bb2110c5672f09961feed2","686d226cabeef709c732f8e1","686e313fb7644afb602703a4","66bb2110c5672f09961feed2","2025-07-09T09:52:15.173Z","","","","","","AttribQ","","","","","","","","","","","","","","","","","","","","","","","","","","","","","","","","","","","","","","50",""
"1587","","<div style=""width:500px;"">
  <p>How much control did you have over the ball?</p>
  </div>","76","html-slider-response","68","723627","0.0-10.0-2.5","234","1","2025-07-09 09:40:12","7701e855f2ef39aa3fd6c71abdc6918a","102.66.182.109","Mozilla/5.0 (Android 13; Mobile; rv:140.0) Gecko/140.0 Firefox/140.0","","Firefox","140.0","AndroidOS","13","https://app.prolific.com/","en-ZA,en-US;q=0.5","66bb2110c5672f09961feed2","686d226cabeef709c732f8e1","686e313fb7644afb602703a4","66bb2110c5672f09961feed2","2025-07-09T09:52:16.764Z","","","","","","ControlQ","","","","","","","","","","","","","","","","","","","","","","","","","","","","","","","","","","","","","","50",""
"763","","<div style=""width:500px;"">
  <p>How would you describe your current emotional state?</p>
  </div>","74","html-slider-response","69","724392","0.0-10.0-3.5","234","1","2025-07-09 09:40:12","7701e855f2ef39aa3fd6c71abdc6918a","102.66.182.109","Mozilla/5.0 (Android 13; Mobile; rv:140.0) Gecko/140.0 Firefox/140.0","","Firefox","140.0","AndroidOS","13","https://app.prolific.com/","en-ZA,en-US;q=0.5","66bb2110c5672f09961feed2","686d226cabeef709c732f8e1","686e313fb7644afb602703a4","66bb2110c5672f09961feed2","2025-07-09T09:52:17.529Z","","","","","","StressQ","","","","","","","","","","","","","","","","","","","","","","","","","","","","","","","","","","","","","","50",""
"862","","<div style=""width:500px;"">
  <p>What best describes how you currently feel?</p>
  </div>","78","html-slider-response","70","725255","0.0-10.0-4.5","234","1","2025-07-09 09:40:12","7701e855f2ef39aa3fd6c71abdc6918a","102.66.182.109","Mozilla/5.0 (Android 13; Mobile; rv:140.0) Gecko/140.0 Firefox/140.0","","Firefox","140.0","AndroidOS","13","https://app.prolific.com/","en-ZA,en-US;q=0.5","66bb2110c5672f09961feed2","686d226cabeef709c732f8e1","686e313fb7644afb602703a4","66bb2110c5672f09961feed2","2025-07-09T09:52:18.392Z","","","","","","MotivationQ","","","","","","","","","","","","","","","","","","","","","","","","","","","","","","","","","","","","","","50",""
"","","","","ctl-task-cpt","71","752483","0.0-10.0-0.6","234","1","2025-07-09 09:40:12","7701e855f2ef39aa3fd6c71abdc6918a","102.66.182.109","Mozilla/5.0 (Android 13; Mobile; rv:140.0) Gecko/140.0 Firefox/140.0","","Firefox","140.0","AndroidOS","13","https://app.prolific.com/","en-ZA,en-US;q=0.5","66bb2110c5672f09961feed2","686d226cabeef709c732f8e1","686e313fb7644afb602703a4","66bb2110c5672f09961feed2","2025-07-09T09:52:45.620Z","","","","","","","","","","","","","","","","win-only","1","g1:NE,g2:SW","0.4","7","0","728127","779","5782","24221","1","4","8","6","1","1","0","0","0","0","5003","3000","360","[""up"",""right""]","{""num_key_presses"":4,""num_perfect"":2,""num_errors"":1,""num_randdir"":1,""num_randdir_good_moves"":1,""num_whilered"":0,""num_whileblue"":1,""num_blue"":3,""num_good_moves"":4}","[476.0647130590886,469.27224295479914,1,476.0647130590886,469.27224295479914,101,476.0647130590886,469.27224295479914,203,476.0647130590886,469.27224295479914,305,476.0647130590886,469.27224295479914,410,476.0647130590886,469.27224295479914,511,476.0647130590886,469.27224295479914,613,476.0647130590886,469.27224295479914,717,476.0647130590886,469.27224295479914,830,476.0647130590886,469.27224295479914,932,476.0647130590886,469.27224295479914,1033,476.0647130590886,469.27224295479914,1156,476.0647130590886,469.27224295479914,1261,476.0647130590886,469.27224295479914,1365,476.0647130590886,469.27224295479914,1470,476.0647130590886,469.27224295479914,1574,476.0647130590886,469.27224295479914,1679,476.0647130590886,469.27224295479914,1779,476.0647130590886,469.27224295479914,1882,476.0647130590886,469.27224295479914,1983,476.0647130590886,469.27224295479914,2088,476.0647130590886,469.27224295479914,2192,476.0647130590886,469.27224295479914,2296,476.0647130590886,469.27224295479914,2400,476.0647130590886,469.27224295479914,2502,476.0647130590886,469.27224295479914,2605,476.0647130590886,469.27224295479914,2707,476.0647130590886,469.27224295479914,2809,476.0647130590886,469.27224295479914,2909,476.0647130590886,469.27224295479914,3016,476.0647130590886,469.27224295479914,3119,476.0647130590886,469.27224295479914,3220,476.0647130590886,469.27224295479914,3323,476.0647130590886,469.27224295479914,3423,476.0647130590886,469.27224295479914,3529,476.0647130590886,469.27224295479914,3632,476.0647130590886,469.27224295479914,3733,476.0647130590886,469.27224295479914,3833,476.0647130590886,469.27224295479914,3933,476.0647130590886,469.27224295479914,4035,476.0647130590886,469.27224295479914,4136,476.0647130590886,469.27224295479914,4239,476.0647130590886,469.27224295479914,4342,476.0647130590886,469.27224295479914,4445,476.0647130590886,469.27224295479914,4549,476.0647130590886,469.27224295479914,4651,476.0647130590886,469.27224295479914,4751,476.0647130590886,469.27224295479914,4855,476.0647130590886,469.27224295479914,4956]","[2661,2661,1000,0,1661,""smooth"",""up"",""up"",""good_move"",5982,3321,2505.7,2662,814.3,""oops"",""up"",""right"",""good_move"",14751,8769,1760.4,12387,603.6,""smooth"",""right"",""right"",""good_move"",18325,3574,3179,14751,395,""while_blue"",""up"",""up"",""good_move""]","","",""
"2818","","<div style=""width:500px;"">
  <p>What determined the result of this run?</p>
  </div>","68","html-slider-response","72","755306","0.0-10.0-1.6","234","1","2025-07-09 09:40:12","7701e855f2ef39aa3fd6c71abdc6918a","102.66.182.109","Mozilla/5.0 (Android 13; Mobile; rv:140.0) Gecko/140.0 Firefox/140.0","","Firefox","140.0","AndroidOS","13","https://app.prolific.com/","en-ZA,en-US;q=0.5","66bb2110c5672f09961feed2","686d226cabeef709c732f8e1","686e313fb7644afb602703a4","66bb2110c5672f09961feed2","2025-07-09T09:52:48.443Z","","","","","","AttribQ","","","","","","","","","","","","","","","","","","","","","","","","","","","","","","","","","","","","","","50",""
"692","","<div style=""width:500px;"">
  <p>How much control did you have over the ball?</p>
  </div>","71","html-slider-response","73","756000","0.0-10.0-2.6","234","1","2025-07-09 09:40:12","7701e855f2ef39aa3fd6c71abdc6918a","102.66.182.109","Mozilla/5.0 (Android 13; Mobile; rv:140.0) Gecko/140.0 Firefox/140.0","","Firefox","140.0","AndroidOS","13","https://app.prolific.com/","en-ZA,en-US;q=0.5","66bb2110c5672f09961feed2","686d226cabeef709c732f8e1","686e313fb7644afb602703a4","66bb2110c5672f09961feed2","2025-07-09T09:52:49.137Z","","","","","","ControlQ","","","","","","","","","","","","","","","","","","","","","","","","","","","","","","","","","","","","","","50",""
"746","","<div style=""width:500px;"">
  <p>How would you describe your current emotional state?</p>
  </div>","77","html-slider-response","74","756749","0.0-10.0-3.6","234","1","2025-07-09 09:40:12","7701e855f2ef39aa3fd6c71abdc6918a","102.66.182.109","Mozilla/5.0 (Android 13; Mobile; rv:140.0) Gecko/140.0 Firefox/140.0","","Firefox","140.0","AndroidOS","13","https://app.prolific.com/","en-ZA,en-US;q=0.5","66bb2110c5672f09961feed2","686d226cabeef709c732f8e1","686e313fb7644afb602703a4","66bb2110c5672f09961feed2","2025-07-09T09:52:49.886Z","","","","","","StressQ","","","","","","","","","","","","","","","","","","","","","","","","","","","","","","","","","","","","","","50",""
"812","","<div style=""width:500px;"">
  <p>What best describes how you currently feel?</p>
  </div>","71","html-slider-response","75","757565","0.0-10.0-4.6","234","1","2025-07-09 09:40:12","7701e855f2ef39aa3fd6c71abdc6918a","102.66.182.109","Mozilla/5.0 (Android 13; Mobile; rv:140.0) Gecko/140.0 Firefox/140.0","","Firefox","140.0","AndroidOS","13","https://app.prolific.com/","en-ZA,en-US;q=0.5","66bb2110c5672f09961feed2","686d226cabeef709c732f8e1","686e313fb7644afb602703a4","66bb2110c5672f09961feed2","2025-07-09T09:52:50.702Z","","","","","","MotivationQ","","","","","","","","","","","","","","","","","","","","","","","","","","","","","","","","","","","","","","50",""
"","","","","ctl-task-cpt","76","781880","0.0-10.0-0.7","234","1","2025-07-09 09:40:12","7701e855f2ef39aa3fd6c71abdc6918a","102.66.182.109","Mozilla/5.0 (Android 13; Mobile; rv:140.0) Gecko/140.0 Firefox/140.0","","Firefox","140.0","AndroidOS","13","https://app.prolific.com/","en-ZA,en-US;q=0.5","66bb2110c5672f09961feed2","686d226cabeef709c732f8e1","686e313fb7644afb602703a4","66bb2110c5672f09961feed2","2025-07-09T09:53:15.018Z","","","","","","","","","","","","","","","","win-only","1","g1:NE,g2:SW","0.3","8","0","760435","3676","8678","21312","1","4","4","6","1","-1","-1","0","0","0","5002","3000","-2725","[""up"",""right""]","{""num_key_presses"":3,""num_perfect"":1,""num_errors"":0,""num_randdir"":2,""num_randdir_good_moves"":1,""num_whilered"":0,""num_whileblue"":0,""num_blue"":0,""num_good_moves"":2}","[464.7439583421075,457.951488237818,0,464.7439583421075,457.951488237818,100,464.7439583421075,457.951488237818,200,464.7439583421075,457.951488237818,300,464.7439583421075,457.951488237818,402,464.7439583421075,457.951488237818,510,464.7439583421075,457.951488237818,612,464.7439583421075,457.951488237818,712,464.7439583421075,457.951488237818,815,464.7439583421075,457.951488237818,918,464.7439583421075,457.951488237818,1019,464.7439583421075,457.951488237818,1123,464.7439583421075,457.951488237818,1224,464.7439583421075,457.951488237818,1328,464.7439583421075,457.951488237818,1428,464.7439583421075,457.951488237818,1531,464.7439583421075,457.951488237818,1631,464.7439583421075,457.951488237818,1731,464.7439583421075,457.951488237818,1834,464.7439583421075,457.951488237818,1936,464.7439583421075,457.951488237818,2037,464.7439583421075,457.951488237818,2139,464.7439583421075,457.951488237818,2241,464.7439583421075,457.951488237818,2341,464.7439583421075,457.951488237818,2443,464.7439583421075,457.951488237818,2543,464.7439583421075,457.951488237818,2645,464.7439583421075,457.951488237818,2749,464.7439583421075,457.951488237818,2851,464.7439583421075,457.951488237818,2952,464.7439583421075,457.951488237818,3053,464.7439583421075,457.951488237818,3157,464.7439583421075,457.951488237818,3257,464.7439583421075,457.951488237818,3358,464.7439583421075,457.951488237818,3463,464.7439583421075,457.951488237818,3564,464.7439583421075,457.951488237818,3667,464.7439583421075,457.951488237818,3767,464.7439583421075,457.951488237818,3871,464.7439583421075,457.951488237818,3972,464.7439583421075,457.951488237818,4074,464.7439583421075,457.951488237818,4174,464.7439583421075,457.951488237818,4275,464.7439583421075,457.951488237818,4376,464.7439583421075,457.951488237818,4476,464.7439583421075,457.951488237818,4577,464.7439583421075,457.951488237818,4679,464.7439583421075,457.951488237818,4782,464.7439583421075,457.951488237818,4882,464.7439583421075,457.951488237818,4986]","[2072,2072,1000,0,1072,""oops"",""up"",""down"",""bad_move"",6177,4105,2588.7,2072,1516.3,""oops"",""up"",""right"",""good_move"",10126,3948,3266,6178,682,""smooth"",""up"",""up"",""good_move""]","","",""
"3180","","<div style=""width:500px;"">
  <p>What determined the result of this run?</p>
  </div>","70","html-slider-response","77","785061","0.0-10.0-1.7","234","1","2025-07-09 09:40:12","7701e855f2ef39aa3fd6c71abdc6918a","102.66.182.109","Mozilla/5.0 (Android 13; Mobile; rv:140.0) Gecko/140.0 Firefox/140.0","","Firefox","140.0","AndroidOS","13","https://app.prolific.com/","en-ZA,en-US;q=0.5","66bb2110c5672f09961feed2","686d226cabeef709c732f8e1","686e313fb7644afb602703a4","66bb2110c5672f09961feed2","2025-07-09T09:53:18.198Z","","","","","","AttribQ","","","","","","","","","","","","","","","","","","","","","","","","","","","","","","","","","","","","","","50",""
"816","","<div style=""width:500px;"">
  <p>How much control did you have over the ball?</p>
  </div>","76","html-slider-response","78","785879","0.0-10.0-2.7","234","1","2025-07-09 09:40:12","7701e855f2ef39aa3fd6c71abdc6918a","102.66.182.109","Mozilla/5.0 (Android 13; Mobile; rv:140.0) Gecko/140.0 Firefox/140.0","","Firefox","140.0","AndroidOS","13","https://app.prolific.com/","en-ZA,en-US;q=0.5","66bb2110c5672f09961feed2","686d226cabeef709c732f8e1","686e313fb7644afb602703a4","66bb2110c5672f09961feed2","2025-07-09T09:53:19.016Z","","","","","","ControlQ","","","","","","","","","","","","","","","","","","","","","","","","","","","","","","","","","","","","","","50",""
"828","","<div style=""width:500px;"">
  <p>How would you describe your current emotional state?</p>
  </div>","68","html-slider-response","79","786709","0.0-10.0-3.7","234","1","2025-07-09 09:40:12","7701e855f2ef39aa3fd6c71abdc6918a","102.66.182.109","Mozilla/5.0 (Android 13; Mobile; rv:140.0) Gecko/140.0 Firefox/140.0","","Firefox","140.0","AndroidOS","13","https://app.prolific.com/","en-ZA,en-US;q=0.5","66bb2110c5672f09961feed2","686d226cabeef709c732f8e1","686e313fb7644afb602703a4","66bb2110c5672f09961feed2","2025-07-09T09:53:19.846Z","","","","","","StressQ","","","","","","","","","","","","","","","","","","","","","","","","","","","","","","","","","","","","","","50",""
"848","","<div style=""width:500px;"">
  <p>What best describes how you currently feel?</p>
  </div>","71","html-slider-response","80","787560","0.0-10.0-4.7","234","1","2025-07-09 09:40:12","7701e855f2ef39aa3fd6c71abdc6918a","102.66.182.109","Mozilla/5.0 (Android 13; Mobile; rv:140.0) Gecko/140.0 Firefox/140.0","","Firefox","140.0","AndroidOS","13","https://app.prolific.com/","en-ZA,en-US;q=0.5","66bb2110c5672f09961feed2","686d226cabeef709c732f8e1","686e313fb7644afb602703a4","66bb2110c5672f09961feed2","2025-07-09T09:53:20.697Z","","","","","","MotivationQ","","","","","","","","","","","","","","","","","","","","","","","","","","","","","","","","","","","","","","50",""
"","","","","ctl-task-cpt","81","822488","0.0-10.0-0.8","234","1","2025-07-09 09:40:12","7701e855f2ef39aa3fd6c71abdc6918a","102.66.182.109","Mozilla/5.0 (Android 13; Mobile; rv:140.0) Gecko/140.0 Firefox/140.0","","Firefox","140.0","AndroidOS","13","https://app.prolific.com/","en-ZA,en-US;q=0.5","66bb2110c5672f09961feed2","686d226cabeef709c732f8e1","686e313fb7644afb602703a4","66bb2110c5672f09961feed2","2025-07-09T09:53:55.626Z","","","","","","","","","","","","","","","","win-only","3","g1:SW,g2:NE","0.2","9","0","790432","1015","6016","31921","1","4","8","6","1","1","1","1","0","0.007575757575757576","5001","3000","25","[""down"",""left""]","{""num_key_presses"":6,""num_perfect"":2,""num_errors"":0,""num_randdir"":4,""num_randdir_good_moves"":3,""num_whilered"":0,""num_whileblue"":0,""num_blue"":3,""num_good_moves"":5}","[464.7439583421075,464.7439410680066,0,464.7439583421075,464.7439410680066,101,464.7439583421075,464.7439410680066,206,464.7439583421075,464.7439410680066,310,464.7439583421075,464.7439410680066,410,464.7439583421075,464.7439410680066,510,464.7439583421075,464.7439410680066,610,464.7439583421075,464.7439410680066,713,464.7439583421075,464.7439410680066,816,464.7439583421075,464.7439410680066,921,464.7439583421075,464.7439410680066,1021,464.7439583421075,464.7439410680066,1124,464.7439583421075,464.7439410680066,1225,464.7439583421075,464.7439410680066,1326,464.7439583421075,464.7439410680066,1428,464.7439583421075,464.7439410680066,1530,464.7439583421075,464.7439410680066,1634,464.7439583421075,464.7439410680066,1739,464.7439583421075,464.7439410680066,1843,464.7439583421075,464.7439410680066,1944,464.7439583421075,464.7439410680066,2048,464.7439583421075,464.7439410680066,2148,464.7439583421075,464.7439410680066,2249,464.7439583421075,464.7439410680066,2350,464.7439583421075,464.7439410680066,2454,464.7439583421075,464.7439410680066,2555,464.7439583421075,464.7439410680066,2655,464.7439583421075,464.7439410680066,2755,464.7439583421075,464.7439410680066,2857,464.7439583421075,464.7439410680066,2959,464.7439583421075,464.7439410680066,3061,464.7439583421075,464.7439410680066,3164,464.7439583421075,464.7439410680066,3266,464.7439583421075,464.7439410680066,3367,464.7439583421075,464.7439410680066,3470,464.7439583421075,464.7439410680066,3574,464.7439583421075,464.7439410680066,3676,464.7439583421075,464.7439410680066,3779,464.7439583421075,464.7439410680066,3883,464.7439583421075,464.7439410680066,3984,464.7439583421075,464.7439410680066,4087,464.7439583421075,464.7439410680066,4187,464.7439583421075,464.7439410680066,4290,464.7439583421075,464.7439410680066,4393,464.7439583421075,464.7439410680066,4495,464.7439583421075,464.7439410680066,4597,464.7439583421075,464.7439410680066,4697,464.7439583421075,464.7439410680066,4800,464.7439583421075,464.7439410680066,4904]","[1539,1539,1000,0,539,""oops"",""down"",""left"",""good_move"",4941,3402,2871.7,1539,530.3,""smooth"",""down"",""down"",""good_move"",14616,9676,2154.4,11952,510.6,""oops"",""down"",""left"",""good_move"",17050,2433,1742.6,14617,690.4,""oops"",""down"",""up"",""bad_move"",23388,6339,2438.1,20451,499.9,""smooth"",""down"",""down"",""good_move"",25810,2421,1911.5,23389,509.5,""oops"",""down"",""down"",""good_move""]","","",""
"2939","","<div style=""width:500px;"">
  <p>What determined the result of this run?</p>
  </div>","67","html-slider-response","82","825432","0.0-10.0-1.8","234","1","2025-07-09 09:40:12","7701e855f2ef39aa3fd6c71abdc6918a","102.66.182.109","Mozilla/5.0 (Android 13; Mobile; rv:140.0) Gecko/140.0 Firefox/140.0","","Firefox","140.0","AndroidOS","13","https://app.prolific.com/","en-ZA,en-US;q=0.5","66bb2110c5672f09961feed2","686d226cabeef709c732f8e1","686e313fb7644afb602703a4","66bb2110c5672f09961feed2","2025-07-09T09:53:58.569Z","","","","","","AttribQ","","","","","","","","","","","","","","","","","","","","","","","","","","","","","","","","","","","","","","50",""
"731","","<div style=""width:500px;"">
  <p>How much control did you have over the ball?</p>
  </div>","78","html-slider-response","83","826165","0.0-10.0-2.8","234","1","2025-07-09 09:40:12","7701e855f2ef39aa3fd6c71abdc6918a","102.66.182.109","Mozilla/5.0 (Android 13; Mobile; rv:140.0) Gecko/140.0 Firefox/140.0","","Firefox","140.0","AndroidOS","13","https://app.prolific.com/","en-ZA,en-US;q=0.5","66bb2110c5672f09961feed2","686d226cabeef709c732f8e1","686e313fb7644afb602703a4","66bb2110c5672f09961feed2","2025-07-09T09:53:59.302Z","","","","","","ControlQ","","","","","","","","","","","","","","","","","","","","","","","","","","","","","","","","","","","","","","50",""
"720","","<div style=""width:500px;"">
  <p>How would you describe your current emotional state?</p>
  </div>","72","html-slider-response","84","826889","0.0-10.0-3.8","234","1","2025-07-09 09:40:12","7701e855f2ef39aa3fd6c71abdc6918a","102.66.182.109","Mozilla/5.0 (Android 13; Mobile; rv:140.0) Gecko/140.0 Firefox/140.0","","Firefox","140.0","AndroidOS","13","https://app.prolific.com/","en-ZA,en-US;q=0.5","66bb2110c5672f09961feed2","686d226cabeef709c732f8e1","686e313fb7644afb602703a4","66bb2110c5672f09961feed2","2025-07-09T09:54:00.026Z","","","","","","StressQ","","","","","","","","","","","","","","","","","","","","","","","","","","","","","","","","","","","","","","50",""
"736","","<div style=""width:500px;"">
  <p>What best describes how you currently feel?</p>
  </div>","76","html-slider-response","85","827628","0.0-10.0-4.8","234","1","2025-07-09 09:40:12","7701e855f2ef39aa3fd6c71abdc6918a","102.66.182.109","Mozilla/5.0 (Android 13; Mobile; rv:140.0) Gecko/140.0 Firefox/140.0","","Firefox","140.0","AndroidOS","13","https://app.prolific.com/","en-ZA,en-US;q=0.5","66bb2110c5672f09961feed2","686d226cabeef709c732f8e1","686e313fb7644afb602703a4","66bb2110c5672f09961feed2","2025-07-09T09:54:00.765Z","","","","","","MotivationQ","","","","","","","","","","","","","","","","","","","","","","","","","","","","","","","","","","","","","","50",""
"","","","","ctl-task-cpt","86","855173","0.0-10.0-0.9","234","1","2025-07-09 09:40:12","7701e855f2ef39aa3fd6c71abdc6918a","102.66.182.109","Mozilla/5.0 (Android 13; Mobile; rv:140.0) Gecko/140.0 Firefox/140.0","","Firefox","140.0","AndroidOS","13","https://app.prolific.com/","en-ZA,en-US;q=0.5","66bb2110c5672f09961feed2","686d226cabeef709c732f8e1","686e313fb7644afb602703a4","66bb2110c5672f09961feed2","2025-07-09T09:54:28.310Z","","","","","","","","","","","","","","","","win-only","0","g1:NW,g2:SE","0.4","10","0","830500","862","5867","24541","1","4","4","6","1","1","1","2","1","0.015151515151515152","5005","3000","1120","[""left"",""up""]","{""num_key_presses"":4,""num_perfect"":3,""num_errors"":0,""num_randdir"":1,""num_randdir_good_moves"":1,""num_whilered"":0,""num_whileblue"":0,""num_blue"":2,""num_good_moves"":4}","[461.3477319270131,460.2156391812142,1,461.3477319270131,460.2156391812142,104,461.3477319270131,460.2156391812142,206,461.3477319270131,460.2156391812142,307,461.3477319270131,460.2156391812142,407,461.3477319270131,460.2156391812142,511,461.3477319270131,460.2156391812142,615,461.3477319270131,460.2156391812142,717,461.3477319270131,460.2156391812142,820,461.3477319270131,460.2156391812142,922,461.3477319270131,460.2156391812142,1024,461.3477319270131,460.2156391812142,1127,461.3477319270131,460.2156391812142,1228,461.3477319270131,460.2156391812142,1332,461.3477319270131,460.2156391812142,1432,461.3477319270131,460.2156391812142,1536,461.3477319270131,460.2156391812142,1641,461.3477319270131,460.2156391812142,1743,461.3477319270131,460.2156391812142,1843,461.3477319270131,460.2156391812142,1945,461.3477319270131,460.2156391812142,2046,461.3477319270131,460.2156391812142,2147,461.3477319270131,460.2156391812142,2247,461.3477319270131,460.2156391812142,2348,461.3477319270131,460.2156391812142,2453,461.3477319270131,460.2156391812142,2553,461.3477319270131,460.2156391812142,2654,461.3477319270131,460.2156391812142,2756,461.3477319270131,460.2156391812142,2860,461.3477319270131,460.2156391812142,2964,461.3477319270131,460.2156391812142,3064,461.3477319270131,460.2156391812142,3164,461.3477319270131,460.2156391812142,3264,461.3477319270131,460.2156391812142,3367,461.3477319270131,460.2156391812142,3467,461.3477319270131,460.2156391812142,3567,461.3477319270131,460.2156391812142,3670,461.3477319270131,460.2156391812142,3773,461.3477319270131,460.2156391812142,3877,461.3477319270131,460.2156391812142,3978,461.3477319270131,460.2156391812142,4081,461.3477319270131,460.2156391812142,4182,461.3477319270131,460.2156391812142,4287,461.3477319270131,460.2156391812142,4388,461.3477319270131,460.2156391812142,4488,461.3477319270131,460.2156391812142,4590,461.3477319270131,460.2156391812142,4694,461.3477319270131,460.2156391812142,4797,461.3477319270131,460.2156391812142,4898,461.3477319270131,460.2156391812142,4998]","[1495,1495,1000,0,495,""smooth"",""up"",""up"",""good_move"",11903,10408,2291.1,9068,543.9,""oops"",""up"",""left"",""good_move"",14714,2811,2325.3,11903,485.7,""smooth"",""up"",""up"",""good_move"",18577,3863,3306,14714,557,""smooth"",""left"",""left"",""good_move""]","","",""
"2534","","<div style=""width:500px;"">
  <p>What determined the result of this run?</p>
  </div>","61","html-slider-response","87","857708","0.0-10.0-1.9","234","1","2025-07-09 09:40:12","7701e855f2ef39aa3fd6c71abdc6918a","102.66.182.109","Mozilla/5.0 (Android 13; Mobile; rv:140.0) Gecko/140.0 Firefox/140.0","","Firefox","140.0","AndroidOS","13","https://app.prolific.com/","en-ZA,en-US;q=0.5","66bb2110c5672f09961feed2","686d226cabeef709c732f8e1","686e313fb7644afb602703a4","66bb2110c5672f09961feed2","2025-07-09T09:54:30.846Z","","","","","","AttribQ","","","","","","","","","","","","","","","","","","","","","","","","","","","","","","","","","","","","","","50",""
"621","","<div style=""width:500px;"">
  <p>How much control did you have over the ball?</p>
  </div>","66","html-slider-response","88","858331","0.0-10.0-2.9","234","1","2025-07-09 09:40:12","7701e855f2ef39aa3fd6c71abdc6918a","102.66.182.109","Mozilla/5.0 (Android 13; Mobile; rv:140.0) Gecko/140.0 Firefox/140.0","","Firefox","140.0","AndroidOS","13","https://app.prolific.com/","en-ZA,en-US;q=0.5","66bb2110c5672f09961feed2","686d226cabeef709c732f8e1","686e313fb7644afb602703a4","66bb2110c5672f09961feed2","2025-07-09T09:54:31.469Z","","","","","","ControlQ","","","","","","","","","","","","","","","","","","","","","","","","","","","","","","","","","","","","","","50",""
"686","","<div style=""width:500px;"">
  <p>How would you describe your current emotional state?</p>
  </div>","65","html-slider-response","89","859021","0.0-10.0-3.9","234","1","2025-07-09 09:40:12","7701e855f2ef39aa3fd6c71abdc6918a","102.66.182.109","Mozilla/5.0 (Android 13; Mobile; rv:140.0) Gecko/140.0 Firefox/140.0","","Firefox","140.0","AndroidOS","13","https://app.prolific.com/","en-ZA,en-US;q=0.5","66bb2110c5672f09961feed2","686d226cabeef709c732f8e1","686e313fb7644afb602703a4","66bb2110c5672f09961feed2","2025-07-09T09:54:32.158Z","","","","","","StressQ","","","","","","","","","","","","","","","","","","","","","","","","","","","","","","","","","","","","","","50",""
"834","","<div style=""width:500px;"">
  <p>What best describes how you currently feel?</p>
  </div>","65","html-slider-response","90","859857","0.0-10.0-4.9","234","1","2025-07-09 09:40:12","7701e855f2ef39aa3fd6c71abdc6918a","102.66.182.109","Mozilla/5.0 (Android 13; Mobile; rv:140.0) Gecko/140.0 Firefox/140.0","","Firefox","140.0","AndroidOS","13","https://app.prolific.com/","en-ZA,en-US;q=0.5","66bb2110c5672f09961feed2","686d226cabeef709c732f8e1","686e313fb7644afb602703a4","66bb2110c5672f09961feed2","2025-07-09T09:54:32.994Z","","","","","","MotivationQ","","","","","","","","","","","","","","","","","","","","","","","","","","","","","","","","","","","","","","50",""
"","","","","ctl-task-cpt","91","869798","0.0-10.0-0.10","234","1","2025-07-09 09:40:12","7701e855f2ef39aa3fd6c71abdc6918a","102.66.182.109","Mozilla/5.0 (Android 13; Mobile; rv:140.0) Gecko/140.0 Firefox/140.0","","Firefox","140.0","AndroidOS","13","https://app.prolific.com/","en-ZA,en-US;q=0.5","66bb2110c5672f09961feed2","686d226cabeef709c732f8e1","686e313fb7644afb602703a4","66bb2110c5672f09961feed2","2025-07-09T09:54:42.935Z","","","","","","","","","","","","","","","","win-only","3","g1:SW,g2:NE","0.5","11","0","862728","1931","-9999","6936","1","4","4","6","-9999","-4","-4","0","2","0","-9999","3000","3000","[]","{""num_key_presses"":0,""num_perfect"":0,""num_errors"":0,""num_randdir"":0,""num_randdir_good_moves"":0,""num_whilered"":0,""num_whileblue"":0,""num_blue"":0,""num_good_moves"":0}","[470.40433570059804,467.00809201140294,0,470.40433570059804,467.00809201140294,104,470.40433570059804,467.00809201140294,208,470.40433570059804,467.00809201140294,312,470.40433570059804,467.00809201140294,415,470.40433570059804,467.00809201140294,521,470.40433570059804,467.00809201140294,623,470.40433570059804,467.00809201140294,726,470.40433570059804,467.00809201140294,827,470.40433570059804,467.00809201140294,927,470.40433570059804,467.00809201140294,1033,470.40433570059804,467.00809201140294,1135,470.40433570059804,467.00809201140294,1236,470.40433570059804,467.00809201140294,1341,470.40433570059804,467.00809201140294,1443,470.40433570059804,467.00809201140294,1547,470.40433570059804,467.00809201140294,1649,470.40433570059804,467.00809201140294,1780,470.40433570059804,467.00809201140294,1884,470.40433570059804,467.00809201140294,1984,470.40433570059804,467.00809201140294,2086,470.40433570059804,467.00809201140294,2187,470.40433570059804,467.00809201140294,2312,470.40433570059804,467.00809201140294,2414,470.40433570059804,467.00809201140294,2516,470.40433570059804,467.00809201140294,2620,470.40433570059804,467.00809201140294,2723,470.40433570059804,467.00809201140294,2827,470.40433570059804,467.00809201140294,2928,470.40433570059804,467.00809201140294,3031,470.40433570059804,467.00809201140294,3131,470.40433570059804,467.00809201140294,3236,470.40433570059804,467.00809201140294,3340,470.40433570059804,467.00809201140294,3442,470.40433570059804,467.00809201140294,3546,470.40433570059804,467.00809201140294,3650,470.40433570059804,467.00809201140294,3753,470.40433570059804,467.00809201140294,3858,470.40433570059804,467.00809201140294,3959,470.40433570059804,467.00809201140294,4061,470.40433570059804,467.00809201140294,4161,470.40433570059804,467.00809201140294,4262,470.40433570059804,467.00809201140294,4367,470.40433570059804,467.00809201140294,4467,470.40433570059804,467.00809201140294,4568,470.40433570059804,467.00809201140294,4672,470.40433570059804,467.00809201140294,4773,470.40433570059804,467.00809201140294,4873,470.40433570059804,467.00809201140294,4973]","[]","","",""
"1136","","<div style=""width:500px;"">
  <p>What determined the result of this run?</p>
  </div>","63","html-slider-response","92","870957","0.0-10.0-1.10","234","1","2025-07-09 09:40:12","7701e855f2ef39aa3fd6c71abdc6918a","102.66.182.109","Mozilla/5.0 (Android 13; Mobile; rv:140.0) Gecko/140.0 Firefox/140.0","","Firefox","140.0","AndroidOS","13","https://app.prolific.com/","en-ZA,en-US;q=0.5","66bb2110c5672f09961feed2","686d226cabeef709c732f8e1","686e313fb7644afb602703a4","66bb2110c5672f09961feed2","2025-07-09T09:54:44.095Z","","","","","","AttribQ","","","","","","","","","","","","","","","","","","","","","","","","","","","","","","","","","","","","","","50",""
"707","","<div style=""width:500px;"">
  <p>How much control did you have over the ball?</p>
  </div>","63","html-slider-response","93","871666","0.0-10.0-2.10","234","1","2025-07-09 09:40:12","7701e855f2ef39aa3fd6c71abdc6918a","102.66.182.109","Mozilla/5.0 (Android 13; Mobile; rv:140.0) Gecko/140.0 Firefox/140.0","","Firefox","140.0","AndroidOS","13","https://app.prolific.com/","en-ZA,en-US;q=0.5","66bb2110c5672f09961feed2","686d226cabeef709c732f8e1","686e313fb7644afb602703a4","66bb2110c5672f09961feed2","2025-07-09T09:54:44.803Z","","","","","","ControlQ","","","","","","","","","","","","","","","","","","","","","","","","","","","","","","","","","","","","","","50",""
"663","","<div style=""width:500px;"">
  <p>How would you describe your current emotional state?</p>
  </div>","64","html-slider-response","94","872332","0.0-10.0-3.10","234","1","2025-07-09 09:40:12","7701e855f2ef39aa3fd6c71abdc6918a","102.66.182.109","Mozilla/5.0 (Android 13; Mobile; rv:140.0) Gecko/140.0 Firefox/140.0","","Firefox","140.0","AndroidOS","13","https://app.prolific.com/","en-ZA,en-US;q=0.5","66bb2110c5672f09961feed2","686d226cabeef709c732f8e1","686e313fb7644afb602703a4","66bb2110c5672f09961feed2","2025-07-09T09:54:45.469Z","","","","","","StressQ","","","","","","","","","","","","","","","","","","","","","","","","","","","","","","","","","","","","","","50",""
"698","","<div style=""width:500px;"">
  <p>What best describes how you currently feel?</p>
  </div>","65","html-slider-response","95","873031","0.0-10.0-4.10","234","1","2025-07-09 09:40:12","7701e855f2ef39aa3fd6c71abdc6918a","102.66.182.109","Mozilla/5.0 (Android 13; Mobile; rv:140.0) Gecko/140.0 Firefox/140.0","","Firefox","140.0","AndroidOS","13","https://app.prolific.com/","en-ZA,en-US;q=0.5","66bb2110c5672f09961feed2","686d226cabeef709c732f8e1","686e313fb7644afb602703a4","66bb2110c5672f09961feed2","2025-07-09T09:54:46.168Z","","","","","","MotivationQ","","","","","","","","","","","","","","","","","","","","","","","","","","","","","","","","","","","","","","50",""
