"rt","response_timestamp","stimulus","response","trial_type","trial_index","time_elapsed","internal_node_id","run_id","condition","recorded_at","source_code_version","ip","user_agent","device","browser","browser_version","platform","platform_version","referer","accept_language","PROLIFIC_PID","STUDY_ID","SESSION_ID","prolific_id","realtime","view_history","question_order","consent","success","question_id","eventType","responses","item_order","radio_event_ids","radio_event_times","key_event_times","mouse_event_times","straightlining","zigzagging","honeypot","which_type","canvas_config","goals_layout","control_level","trial_number","tutorial_trial_number","trial_start_time","phase1_start_time","phase2_start_time","phase3_start_time","goal_1_value","goal_1_distance","goal_2_value","goal_2_distance","goal_selected","outcome","outcome_total","participant_final_score","participant_initial_score","participant_final_score_prop","goal_choice_rt","allocated_time","allocated_time_remaining","goal_direction","counts","mouse_movements","key_presses","correct","slider_start","sub_question"
"16405","1752052130532","<p style='font-size:40px;line-height:1.25'><strong>Welcome to the experiment!</strong></p><p style='font-size:1.1em;line-height:1.25'>Thank you for your interest in our experiment! Before you begin, it is important that we obtain your informed consent to participate in the study.</p><p style='font-size:1.1em;line-height:1.25'>On the next screen will be an <strong>information sheet</strong> for you to read. To participate in the study we need you to read this information sheet and the following consent form carefully. If you agree with all the statements, please click the <strong>I agree</strong> button.</p><p style='font-size:1.1em;line-height:1.25'>Press <strong>Next</strong> to read the information sheet.</p>","0","custom-html-button-response","0","16407","0.0-0.0","118","1","2025-07-09 09:08:27","7701e855f2ef39aa3fd6c71abdc6918a","102.216.154.102","Mozilla/5.0 (Windows NT 10.0; Win64; x64) AppleWebKit/537.36 (KHTML, like Gecko) Chrome/138.0.0.0 Safari/537.36","WebKit","Chrome","138.0.0.0","Windows","10.0","https://app.prolific.com/","en-US,en;q=0.9","65faedca7e439b344f133fdb","686d226cabeef709c732f8e1","686e313ba555aa5acf0578cd","65faedca7e439b344f133fdb","2025-07-09T09:08:50.534Z","","","","","","","","","","","","","","","","","","","","","","","","","","","","","","","","","","","","","","","","","","","","",""
"31798","","","","instructions","1","48207","0.0-1.0","118","1","2025-07-09 09:08:27","7701e855f2ef39aa3fd6c71abdc6918a","102.216.154.102","Mozilla/5.0 (Windows NT 10.0; Win64; x64) AppleWebKit/537.36 (KHTML, like Gecko) Chrome/138.0.0.0 Safari/537.36","WebKit","Chrome","138.0.0.0","Windows","10.0","https://app.prolific.com/","en-US,en;q=0.9","65faedca7e439b344f133fdb","686d226cabeef709c732f8e1","686e313ba555aa5acf0578cd","65faedca7e439b344f133fdb","","[{""page_index"":0,""viewing_time"":22893},{""page_index"":1,""viewing_time"":8904}]","","","","","","","","","","","","","","","","","","","","","","","","","","","","","","","","","","","","","","","","","","","",""
"16982","","","{""Q0"":"""",""Q1"":"""",""Q2"":"""",""Q3"":"""",""Q4"":"""",""Q5"":"""",""Q6"":""I agree""}","survey-multi-choice","2","65192","0.0-2.0","118","1","2025-07-09 09:08:27","7701e855f2ef39aa3fd6c71abdc6918a","102.216.154.102","Mozilla/5.0 (Windows NT 10.0; Win64; x64) AppleWebKit/537.36 (KHTML, like Gecko) Chrome/138.0.0.0 Safari/537.36","WebKit","Chrome","138.0.0.0","Windows","10.0","https://app.prolific.com/","en-US,en;q=0.9","65faedca7e439b344f133fdb","686d226cabeef709c732f8e1","686e313ba555aa5acf0578cd","65faedca7e439b344f133fdb","","","[0,1,2,3,4,5,6]","true","","","","","","","","","","","","","","","","","","","","","","","","","","","","","","","","","","","","","","","","","",""
"20045","","","","fullscreen","3","86244","0.0-4.0","118","1","2025-07-09 09:08:27","7701e855f2ef39aa3fd6c71abdc6918a","102.216.154.102","Mozilla/5.0 (Windows NT 10.0; Win64; x64) AppleWebKit/537.36 (KHTML, like Gecko) Chrome/138.0.0.0 Safari/537.36","WebKit","Chrome","138.0.0.0","Windows","10.0","https://app.prolific.com/","en-US,en;q=0.9","65faedca7e439b344f133fdb","686d226cabeef709c732f8e1","686e313ba555aa5acf0578cd","65faedca7e439b344f133fdb","","","","","true","","","","","","","","","","","","","","","","","","","","","","","","","","","","","","","","","","","","","","","","",""
"9792","1752052210165"," <p style='font-size:1.1em;line-height:1.25'>Thank you for completing the consent form and closing all other tabs.</p><p style='font-size:1.1em;line-height:1.25'>We will now invite you to fill in some demographic information and questionnaires, before starting the game.<br>This will take about 5 minutes.<br></p><p style='font-size:1.1em;line-height:1.25'>Press the <strong>Next</strong> button to continue.</p>","0","custom-html-button-response","4","96041","0.0-5.0","118","1","2025-07-09 09:08:27","7701e855f2ef39aa3fd6c71abdc6918a","102.216.154.102","Mozilla/5.0 (Windows NT 10.0; Win64; x64) AppleWebKit/537.36 (KHTML, like Gecko) Chrome/138.0.0.0 Safari/537.36","WebKit","Chrome","138.0.0.0","Windows","10.0","https://app.prolific.com/","en-US,en;q=0.9","65faedca7e439b344f133fdb","686d226cabeef709c732f8e1","686e313ba555aa5acf0578cd","65faedca7e439b344f133fdb","2025-07-09T09:10:10.167Z","","","","","","","","","","","","","","","","","","","","","","","","","","","","","","","","","","","","","","","","","","","","",""
"7669","","","{""age"":""32""}","survey-text","5","103719","0.0-6.0-0.0","118","1","2025-07-09 09:08:27","7701e855f2ef39aa3fd6c71abdc6918a","102.216.154.102","Mozilla/5.0 (Windows NT 10.0; Win64; x64) AppleWebKit/537.36 (KHTML, like Gecko) Chrome/138.0.0.0 Safari/537.36","WebKit","Chrome","138.0.0.0","Windows","10.0","https://app.prolific.com/","en-US,en;q=0.9","65faedca7e439b344f133fdb","686d226cabeef709c732f8e1","686e313ba555aa5acf0578cd","65faedca7e439b344f133fdb","","","","","","0","demographics","","","","","","","","","","","","","","","","","","","","","","","","","","","","","","","","","","","","","","",""
"4862","","","{""gender_identity"":""female/woman""}","survey-multi-choice","6","108583","0.0-6.0-1.0","118","1","2025-07-09 09:08:27","7701e855f2ef39aa3fd6c71abdc6918a","102.216.154.102","Mozilla/5.0 (Windows NT 10.0; Win64; x64) AppleWebKit/537.36 (KHTML, like Gecko) Chrome/138.0.0.0 Safari/537.36","WebKit","Chrome","138.0.0.0","Windows","10.0","https://app.prolific.com/","en-US,en;q=0.9","65faedca7e439b344f133fdb","686d226cabeef709c732f8e1","686e313ba555aa5acf0578cd","65faedca7e439b344f133fdb","","","[0]","","","1","demographics","","","","","","","","","","","","","","","","","","","","","","","","","","","","","","","","","","","","","","",""
"4430","","","{""assigned_sex"":""female""}","survey-multi-choice","7","113015","0.0-6.0-2.0","118","1","2025-07-09 09:08:27","7701e855f2ef39aa3fd6c71abdc6918a","102.216.154.102","Mozilla/5.0 (Windows NT 10.0; Win64; x64) AppleWebKit/537.36 (KHTML, like Gecko) Chrome/138.0.0.0 Safari/537.36","WebKit","Chrome","138.0.0.0","Windows","10.0","https://app.prolific.com/","en-US,en;q=0.9","65faedca7e439b344f133fdb","686d226cabeef709c732f8e1","686e313ba555aa5acf0578cd","65faedca7e439b344f133fdb","","","[0]","","","2","demographics","","","","","","","","","","","","","","","","","","","","","","","","","","","","","","","","","","","","","","",""
"5399","","","{""menstrual_cycle"":""Yes""}","survey-multi-choice","8","118414","0.0-6.0-3.0","118","1","2025-07-09 09:08:27","7701e855f2ef39aa3fd6c71abdc6918a","102.216.154.102","Mozilla/5.0 (Windows NT 10.0; Win64; x64) AppleWebKit/537.36 (KHTML, like Gecko) Chrome/138.0.0.0 Safari/537.36","WebKit","Chrome","138.0.0.0","Windows","10.0","https://app.prolific.com/","en-US,en;q=0.9","65faedca7e439b344f133fdb","686d226cabeef709c732f8e1","686e313ba555aa5acf0578cd","65faedca7e439b344f133fdb","","","[0]","","","4","demographics","","","","","","","","","","","","","","","","","","","","","","","","","","","","","","","","","","","","","","",""
"18328","","","{""education"":""GCSE/Standard Grades""}","survey-multi-choice","9","136743","0.0-6.0-4.0","118","1","2025-07-09 09:08:27","7701e855f2ef39aa3fd6c71abdc6918a","102.216.154.102","Mozilla/5.0 (Windows NT 10.0; Win64; x64) AppleWebKit/537.36 (KHTML, like Gecko) Chrome/138.0.0.0 Safari/537.36","WebKit","Chrome","138.0.0.0","Windows","10.0","https://app.prolific.com/","en-US,en;q=0.9","65faedca7e439b344f133fdb","686d226cabeef709c732f8e1","686e313ba555aa5acf0578cd","65faedca7e439b344f133fdb","","","[0]","","","5","demographics","","","","","","","","","","","","","","","","","","","","","","","","","","","","","","","","","","","","","","",""
"5878","","","{""education"":""Others""}","survey-multi-choice","10","142623","0.0-6.0-5.0","118","1","2025-07-09 09:08:27","7701e855f2ef39aa3fd6c71abdc6918a","102.216.154.102","Mozilla/5.0 (Windows NT 10.0; Win64; x64) AppleWebKit/537.36 (KHTML, like Gecko) Chrome/138.0.0.0 Safari/537.36","WebKit","Chrome","138.0.0.0","Windows","10.0","https://app.prolific.com/","en-US,en;q=0.9","65faedca7e439b344f133fdb","686d226cabeef709c732f8e1","686e313ba555aa5acf0578cd","65faedca7e439b344f133fdb","2025-07-09T09:10:56.749Z","","[0]","","","6","demographics","","","","","","","","","","","","","","","","","","","","","","","","","","","","","","","","","","","","","","",""
"18421","","","{""mental_health_condition"":""NO"",""mental_health_treatment"":""NO"",""psychiatric_medication"":""NO""}","survey-text","11","161047","0.0-7.0-0.0","118","1","2025-07-09 09:08:27","7701e855f2ef39aa3fd6c71abdc6918a","102.216.154.102","Mozilla/5.0 (Windows NT 10.0; Win64; x64) AppleWebKit/537.36 (KHTML, like Gecko) Chrome/138.0.0.0 Safari/537.36","WebKit","Chrome","138.0.0.0","Windows","10.0","https://app.prolific.com/","en-US,en;q=0.9","65faedca7e439b344f133fdb","686d226cabeef709c732f8e1","686e313ba555aa5acf0578cd","65faedca7e439b344f133fdb","2025-07-09T09:11:15.173Z","","","","","1","mental_health","","","","","","","","","","","","","","","","","","","","","","","","","","","","","","","","","","","","","","",""
"12165","","","{""depression_history"":[""Yes""]}","survey-multi-select","12","173215","0.0-7.0-1.0","118","1","2025-07-09 09:08:27","7701e855f2ef39aa3fd6c71abdc6918a","102.216.154.102","Mozilla/5.0 (Windows NT 10.0; Win64; x64) AppleWebKit/537.36 (KHTML, like Gecko) Chrome/138.0.0.0 Safari/537.36","WebKit","Chrome","138.0.0.0","Windows","10.0","https://app.prolific.com/","en-US,en;q=0.9","65faedca7e439b344f133fdb","686d226cabeef709c732f8e1","686e313ba555aa5acf0578cd","65faedca7e439b344f133fdb","","","[0]","","","","mental_health","","","","","","","","","","","","","","","","","","","","","","","","","","","","","","","","","","","","","","",""
"20274","","","{""depression_episodes"":""3-5"",""depression_recent"":""Within the past year""}","survey-multi-choice","13","193491","0.0-7.0-2.0-0.0","118","1","2025-07-09 09:08:27","7701e855f2ef39aa3fd6c71abdc6918a","102.216.154.102","Mozilla/5.0 (Windows NT 10.0; Win64; x64) AppleWebKit/537.36 (KHTML, like Gecko) Chrome/138.0.0.0 Safari/537.36","WebKit","Chrome","138.0.0.0","Windows","10.0","https://app.prolific.com/","en-US,en;q=0.9","65faedca7e439b344f133fdb","686d226cabeef709c732f8e1","686e313ba555aa5acf0578cd","65faedca7e439b344f133fdb","2025-07-09T09:11:47.617Z","","[0,1]","","","3","mental_health","","","","","","","","","","","","","","","","","","","","","","","","","","","","","","","","","","","","","","",""
"90502.60000000894","","","","survey-template","14","284003","0.0-7.0-3.0","118","1","2025-07-09 09:08:27","7701e855f2ef39aa3fd6c71abdc6918a","102.216.154.102","Mozilla/5.0 (Windows NT 10.0; Win64; x64) AppleWebKit/537.36 (KHTML, like Gecko) Chrome/138.0.0.0 Safari/537.36","WebKit","Chrome","138.0.0.0","Windows","10.0","https://app.prolific.com/","en-US,en;q=0.9","65faedca7e439b344f133fdb","686d226cabeef709c732f8e1","686e313ba555aa5acf0578cd","65faedca7e439b344f133fdb","2025-07-09T09:13:18.129Z","","","","","","ius","{""Q01"":""0"",""Q02"":""2"",""Q03"":""3"",""Q04"":""3"",""Q05"":""3"",""Q06"":""4"",""Q07"":""2"",""Q08"":""2"",""Q09"":""2"",""Q10"":""1"",""Q11"":""3"",""Q12"":""3"",""Q13"":""2""}","[0,1,2,3,4,5,6,7,8,9,10,11,12]","[""Q01"",""Q02"",""Q03"",""Q04"",""Q06"",""Q08"",""Q09"",""Q10"",""Q11"",""Q12"",""Q13"",""Q05"",""Q07""]","[12451.40000000596,16467.80000001192,21260.30000001192,28468.80000001192,34395.70000000298,45660,53555.70000000298,56971.30000001192,60397.10000000894,64315.30000001192,68643.30000001192,77803.70000000298,86331.40000000596]","[]","[12451.40000000596,16467.80000001192,21260.30000001192,28468.80000001192,34395.70000000298,45660,50988,53555.70000000298,56971.30000001192,60397.10000000894,64315.30000001192,68643.30000001192,69859.80000001192,77189.10000000894,77803.70000000298,86331.40000000596,90499.80000001192]","0.38461538461538464","0.3333333333333333","0","","","","","","","","","","","","","","","","","","","","","","","","","","","","","",""
"7730","1752052405860","<p style='font-size:1.1em;line-height:1.25'>In the following, we will ask you a few questions relating to your experiences over the past month.<br></p><p style='font-size:1.1em;line-height:1.25'>Press the <strong>Next</strong> button to continue.</p>","0","custom-html-button-response","15","291734","0.0-7.0-4.0","118","1","2025-07-09 09:08:27","7701e855f2ef39aa3fd6c71abdc6918a","102.216.154.102","Mozilla/5.0 (Windows NT 10.0; Win64; x64) AppleWebKit/537.36 (KHTML, like Gecko) Chrome/138.0.0.0 Safari/537.36","WebKit","Chrome","138.0.0.0","Windows","10.0","https://app.prolific.com/","en-US,en;q=0.9","65faedca7e439b344f133fdb","686d226cabeef709c732f8e1","686e313ba555aa5acf0578cd","65faedca7e439b344f133fdb","2025-07-09T09:13:25.860Z","","","","","","","","","","","","","","","","","","","","","","","","","","","","","","","","","","","","","","","","","","","","",""
"72719.5","","","","survey-template","16","364456","0.0-7.0-5.0","118","1","2025-07-09 09:08:27","7701e855f2ef39aa3fd6c71abdc6918a","102.216.154.102","Mozilla/5.0 (Windows NT 10.0; Win64; x64) AppleWebKit/537.36 (KHTML, like Gecko) Chrome/138.0.0.0 Safari/537.36","WebKit","Chrome","138.0.0.0","Windows","10.0","https://app.prolific.com/","en-US,en;q=0.9","65faedca7e439b344f133fdb","686d226cabeef709c732f8e1","686e313ba555aa5acf0578cd","65faedca7e439b344f133fdb","2025-07-09T09:14:38.583Z","","","","","","pss","{""Q01"":""4"",""Q02"":""4"",""Q03"":""4"",""Q04"":""0"",""Q05"":""3"",""Q06"":""2"",""Q07"":""1"",""Q08"":""3"",""Q09"":""4"",""Q10"":""3""}","[0,1,2,3,4,5,6,7,8,9]","[""Q01"",""Q02"",""Q03"",""Q04"",""Q05"",""Q06"",""Q07"",""Q08"",""Q09"",""Q10""]","[13222.20000000298,23381.90000000596,28222.29999999702,36382.29999999702,42766,49415.5,53565.90000000596,57741.90000000596,63101.90000000596,71549.79999999702]","[]","[0,13222.20000000298,23381.90000000596,28222.29999999702,36382.29999999702,42766,49415.5,53565.90000000596,57741.90000000596,63101.90000000596,71549.79999999702,72718]","0.5","0.3333333333333333","0","","","","","","","","","","","","","","","","","","","","","","","","","","","","","",""
"5653","1752052484236","<p style='font-size:1.1em;line-height:1.25'>Thank you for your answers! Now we will ask you a few more questions relating to your feelings in the last 24 hours.<br></p><p style='font-size:1.1em;line-height:1.25'>Press the <strong>Next</strong> button to continue.</p>","0","custom-html-button-response","17","370110","0.0-7.0-6.0","118","1","2025-07-09 09:08:27","7701e855f2ef39aa3fd6c71abdc6918a","102.216.154.102","Mozilla/5.0 (Windows NT 10.0; Win64; x64) AppleWebKit/537.36 (KHTML, like Gecko) Chrome/138.0.0.0 Safari/537.36","WebKit","Chrome","138.0.0.0","Windows","10.0","https://app.prolific.com/","en-US,en;q=0.9","65faedca7e439b344f133fdb","686d226cabeef709c732f8e1","686e313ba555aa5acf0578cd","65faedca7e439b344f133fdb","2025-07-09T09:14:44.237Z","","","","","","","","","","","","","","","","","","","","","","","","","","","","","","","","","","","","","","","","","","","","",""
"100311.29999999702","","","","survey-template","18","470427","0.0-7.0-7.0","118","1","2025-07-09 09:08:27","7701e855f2ef39aa3fd6c71abdc6918a","102.216.154.102","Mozilla/5.0 (Windows NT 10.0; Win64; x64) AppleWebKit/537.36 (KHTML, like Gecko) Chrome/138.0.0.0 Safari/537.36","WebKit","Chrome","138.0.0.0","Windows","10.0","https://app.prolific.com/","en-US,en;q=0.9","65faedca7e439b344f133fdb","686d226cabeef709c732f8e1","686e313ba555aa5acf0578cd","65faedca7e439b344f133fdb","2025-07-09T09:16:24.553Z","","","","","","drsp","{""Q01"":""4"",""Q02"":""4"",""Q03"":""4"",""Q04"":""4"",""Q05"":""5"",""Q06"":""3"",""Q07"":""4"",""Q08"":""2"",""Q09"":""2"",""Q10"":""0"",""Q11"":""3"",""Q12"":""5"",""Q13"":""5"",""Q14"":""0"",""Q15"":""4"",""Q16"":""4"",""Q17"":""3"",""Q18"":""4"",""Q19"":""3"",""Q20"":""3"",""Q21"":""3""}","[0,1,2,3,4,5,6,7,8,9,10,11,12,13,14,15,16,17,18,19,20]","[""Q01"",""Q02"",""Q03"",""Q04"",""Q05"",""Q06"",""Q07"",""Q08"",""Q09"",""Q10"",""Q11"",""Q12"",""Q13"",""Q15"",""Q16"",""Q17"",""Q18"",""Q19"",""Q20"",""Q21"",""Q14""]","[4227.70000000298,6307.5999999940395,7955.79999999702,10867.70000000298,13307.29999999702,21747.70000000298,23635.79999999702,35139.59999999404,37979.89999999106,43779.70000000298,47283.79999999702,49603.5,51827.09999999404,60540.79999999702,63475.29999999702,66644.70000000298,72868.89999999106,79027.70000000298,82643.5,85971.20000000298,98411.89999999106]","[]","[0,4227.70000000298,6307.5999999940395,7955.79999999702,10867.70000000298,13307.29999999702,21747.70000000298,23635.79999999702,30099.39999999106,35139.59999999404,37979.89999999106,43779.70000000298,47283.79999999702,49603.5,51827.09999999404,57211.70000000298,60540.79999999702,63475.29999999702,66644.70000000298,72868.89999999106,79027.70000000298,82643.5,85971.20000000298,87771.70000000298,98411.89999999106,100307.59999999404]","0.38095238095238093","0.3","0","","","","","","","","","","","","","","","","","","","","","","","","","","","","","",""
"12602.20000000298","","","","survey-template","19","483031","0.0-7.0-8.0","118","1","2025-07-09 09:08:27","7701e855f2ef39aa3fd6c71abdc6918a","102.216.154.102","Mozilla/5.0 (Windows NT 10.0; Win64; x64) AppleWebKit/537.36 (KHTML, like Gecko) Chrome/138.0.0.0 Safari/537.36","WebKit","Chrome","138.0.0.0","Windows","10.0","https://app.prolific.com/","en-US,en;q=0.9","65faedca7e439b344f133fdb","686d226cabeef709c732f8e1","686e313ba555aa5acf0578cd","65faedca7e439b344f133fdb","2025-07-09T09:16:37.158Z","","","","","","stress","{""Q01"":""4"",""Q02"":""5"",""Q03"":""3""}","[0,1,2]","[""Q01"",""Q02"",""Q03""]","[3585.5,7097.4000000059605,11561.29999999702]","[]","[3585.5,7097.4000000059605,11561.29999999702,12601.40000000596]","0.3333333333333333","0","0","","","","","","","","","","","","","","","","","","","","","","","","","","","","","",""
"108118","","","","instructions","20","591151","0.0-8.0-0.0","118","1","2025-07-09 09:08:27","7701e855f2ef39aa3fd6c71abdc6918a","102.216.154.102","Mozilla/5.0 (Windows NT 10.0; Win64; x64) AppleWebKit/537.36 (KHTML, like Gecko) Chrome/138.0.0.0 Safari/537.36","WebKit","Chrome","138.0.0.0","Windows","10.0","https://app.prolific.com/","en-US,en;q=0.9","65faedca7e439b344f133fdb","686d226cabeef709c732f8e1","686e313ba555aa5acf0578cd","65faedca7e439b344f133fdb","","[{""page_index"":0,""viewing_time"":20334},{""page_index"":1,""viewing_time"":4379},{""page_index"":0,""viewing_time"":23244},{""page_index"":1,""viewing_time"":33128},{""page_index"":2,""viewing_time"":12968},{""page_index"":3,""viewing_time"":14064}]","","","","","","","","","","","","","","","","","","","","","","","","","","","","","","","","","","","","","","","","","","","",""
"","","","","ctl-task-cpt","21","636264","0.0-8.0-1.0","118","1","2025-07-09 09:08:27","7701e855f2ef39aa3fd6c71abdc6918a","102.216.154.102","Mozilla/5.0 (Windows NT 10.0; Win64; x64) AppleWebKit/537.36 (KHTML, like Gecko) Chrome/138.0.0.0 Safari/537.36","WebKit","Chrome","138.0.0.0","Windows","10.0","https://app.prolific.com/","en-US,en;q=0.9","65faedca7e439b344f133fdb","686d226cabeef709c732f8e1","686e313ba555aa5acf0578cd","65faedca7e439b344f133fdb","","","","","","","","","","","","","","","","","win-only","1","g1:NE,g2:SW","1","0","1","597930.1","7517.6","11520.5","42096","2","4","4","6","1","2","-3","0","0","0","4002.8","4000","2055","[""up"",""right""]","{""num_key_presses"":17,""num_perfect"":4,""num_errors"":5,""num_randdir"":0,""num_randdir_good_moves"":0,""num_whilered"":8,""num_whileblue"":0,""num_blue"":3,""num_good_moves"":4}","[298.22232142857143,294.12857142857143,0.3,298.22232142857143,294.12857142857143,100.3,298.22232142857143,294.12857142857143,203.5,298.22232142857143,294.12857142857143,305.9,298.22232142857143,294.12857142857143,409,298.22232142857143,294.12857142857143,512.6,298.22232142857143,294.12857142857143,613.9,295.22232142857143,293.12857142857143,721.2,294.22232142857143,293.12857142857143,824.2,294.22232142857143,293.12857142857143,929.4,294.22232142857143,293.12857142857143,1033.4,294.22232142857143,293.12857142857143,1138.8,294.22232142857143,293.12857142857143,1241.3,294.22232142857143,293.12857142857143,1345.6,294.22232142857143,293.12857142857143,1449.7,294.22232142857143,293.12857142857143,1554.4,294.22232142857143,293.12857142857143,1658.3,294.22232142857143,293.12857142857143,1763.6,294.22232142857143,293.12857142857143,1863.8,294.22232142857143,293.12857142857143,1963.9,294.22232142857143,293.12857142857143,2064.1,294.22232142857143,293.12857142857143,2164.2,294.22232142857143,293.12857142857143,2273.8,294.22232142857143,293.12857142857143,2384.5,294.22232142857143,293.12857142857143,2491.1,294.22232142857143,293.12857142857143,2595.3,294.22232142857143,293.12857142857143,2701.6,294.22232142857143,293.12857142857143,2804.5,294.22232142857143,293.12857142857143,2910.6,294.22232142857143,293.12857142857143,3013.2,294.22232142857143,293.12857142857143,3113.7,294.22232142857143,293.12857142857143,3221.5,294.22232142857143,293.12857142857143,3325.8,294.22232142857143,293.12857142857143,3428.4,294.22232142857143,293.12857142857143,3528.8,294.22232142857143,293.12857142857143,3636.7,294.22232142857143,293.12857142857143,3740.9,294.22232142857143,293.12857142857143,3844.6,294.22232142857143,293.12857142857143,3949.7]","[6225.8,6225.8,2914.3,2008.6,1302.9,""smooth"",""right"",""right"",""good_move"",6488.3,262.2,2461.4,6226.1,-2199.1,""error"",""-"",""-"",""no_move"",6679.2,188.8,2461.4,6226.1,-2008.3,""while_red"",""-"",""-"",""no_move"",6848.1,357.7,2461.4,6226.1,-1839.4,""while_red"",""-"",""-"",""no_move"",6973.6,483.2,2461.4,6226.1,-1713.9,""while_red"",""-"",""-"",""no_move"",7242.3,751.9,2461.4,6226.1,-1445.2,""while_red"",""-"",""-"",""no_move"",7543.7,1053.3,2702.9,7491.2,-2650.4,""error"",""-"",""-"",""no_move"",7779.3,234.9,2702.9,7491.2,-2414.8,""while_red"",""-"",""-"",""no_move"",7945.9,401.5,2702.9,7491.2,-2248.2,""while_red"",""-"",""-"",""no_move"",8199.8,655.4,2702.9,7491.2,-1994.3,""while_red"",""-"",""-"",""no_move"",8803.3,1258.9,3193,8550.4,-2940.1,""error"",""-"",""-"",""no_move"",13502.5,4698.8,3037.1,9806.4,659,""smooth"",""up"",""up"",""good_move"",14933.8,1430.9,2451.1,13502.9,-1020.2,""error"",""-"",""-"",""no_move"",25298.2,10363.9,2345.4,22319.4,633.5,""smooth"",""up"",""up"",""good_move"",26523.4,1225,3437.9,25298.5,-2212.9,""error"",""-"",""-"",""no_move"",26838.9,313.3,3437.9,25298.5,-1897.5,""while_red"",""-"",""-"",""no_move"",30411,3885.4,2302.2,27525.7,583.1,""smooth"",""right"",""right"",""good_move""]","","",""
"5885","","","","instructions","22","642150","0.0-8.0-2.0","118","1","2025-07-09 09:08:27","7701e855f2ef39aa3fd6c71abdc6918a","102.216.154.102","Mozilla/5.0 (Windows NT 10.0; Win64; x64) AppleWebKit/537.36 (KHTML, like Gecko) Chrome/138.0.0.0 Safari/537.36","WebKit","Chrome","138.0.0.0","Windows","10.0","https://app.prolific.com/","en-US,en;q=0.9","65faedca7e439b344f133fdb","686d226cabeef709c732f8e1","686e313ba555aa5acf0578cd","65faedca7e439b344f133fdb","","[{""page_index"":0,""viewing_time"":5884}]","","","","","","","","","","","","","","","","","","","","","","","","","","","","","","","","","","","","","","","","","","","",""
"","","","","ctl-task-cpt","23","698255","0.0-8.0-3.0","118","1","2025-07-09 09:08:27","7701e855f2ef39aa3fd6c71abdc6918a","102.216.154.102","Mozilla/5.0 (Windows NT 10.0; Win64; x64) AppleWebKit/537.36 (KHTML, like Gecko) Chrome/138.0.0.0 Safari/537.36","WebKit","Chrome","138.0.0.0","Windows","10.0","https://app.prolific.com/","en-US,en;q=0.9","65faedca7e439b344f133fdb","686d226cabeef709c732f8e1","686e313ba555aa5acf0578cd","65faedca7e439b344f133fdb","","","","","","","","","","","","","","","","","win-only","1","g1:NE,g2:SW","0.35","0","3","648927.4","4343","8349.2","53087.6","2","4","8","6","2","-8","-11","0","0","0","4006.2","4000","-2055","[""down"",""left""]","{""num_key_presses"":13,""num_perfect"":4,""num_errors"":3,""num_randdir"":6,""num_randdir_good_moves"":3,""num_whilered"":0,""num_whileblue"":0,""num_blue"":1,""num_good_moves"":7}","[289.22232142857143,297.12857142857143,0.5,289.22232142857143,297.12857142857143,106.8,289.22232142857143,297.12857142857143,215.7,289.22232142857143,297.12857142857143,315.7,289.22232142857143,298.12857142857143,417.1,290.22232142857143,300.12857142857143,520.8,292.22232142857143,303.12857142857143,624.8,321.22232142857143,323.12857142857143,726.1,677.2223214285714,509.12857142857143,827.2,693.2223214285714,520.1285714285714,933.8,724.2223214285714,546.1285714285714,1035.9,978.2223214285714,683.1285714285714,1143.4,978.2223214285714,683.1285714285714,1244.4,978.2223214285714,683.1285714285714,1344.8,978.2223214285714,683.1285714285714,1452.7,978.2223214285714,683.1285714285714,1556.6,978.2223214285714,683.1285714285714,1665.5,978.2223214285714,683.1285714285714,1767.6,978.2223214285714,683.1285714285714,1869.8,978.2223214285714,683.1285714285714,1974.1,978.2223214285714,683.1285714285714,2075.8,978.2223214285714,683.1285714285714,2182.3,978.2223214285714,683.1285714285714,2285.5,978.2223214285714,683.1285714285714,2391.7,978.2223214285714,683.1285714285714,2494,978.2223214285714,683.1285714285714,2600.2,978.2223214285714,683.1285714285714,2702.7,978.2223214285714,683.1285714285714,2806.6,978.2223214285714,683.1285714285714,2916.5,978.2223214285714,683.1285714285714,3017.4,978.2223214285714,683.1285714285714,3120.1,978.2223214285714,683.1285714285714,3224.9,978.2223214285714,683.1285714285714,3332.1,978.2223214285714,683.1285714285714,3433.2,978.2223214285714,683.1285714285714,3535.6,978.2223214285714,683.1285714285714,3641.7,978.2223214285714,683.1285714285714,3745.1,978.2223214285714,683.1285714285714,3847.5,978.2223214285714,683.1285714285714,3952.6]","[2579.3,2579.3,1000,0,1579.3,""oops"",""left"",""down"",""good_move"",5945.7,3366,2679,2579.7,687,""oops"",""left"",""up"",""bad_move"",7139.9,1194.1,2135.7,5945.9,-941.6,""error"",""-"",""-"",""no_move"",11525.1,4383.4,2987.2,8150,387.9,""smooth"",""down"",""down"",""good_move"",13218.5,1693.3,2255.4,11525.2,-562.1,""error"",""-"",""-"",""no_move"",17474.4,4255.5,2853.9,14230.6,389.9,""oops"",""down"",""right"",""bad_move"",18708.1,1233.2,3218.8,17474.9,-1985.5,""error"",""-"",""-"",""no_move"",22740.8,4032,2562.7,19710.9,467.2,""oops"",""down"",""down"",""good_move"",25272,2530.6,2022.2,22741.4,508.4,""smooth"",""down"",""down"",""good_move"",28218.8,2945.6,2425.9,25273.2,519.7,""smooth"",""left"",""left"",""good_move"",31331.9,3112.3,2555.6,28219.6,556.7,""oops"",""left"",""right"",""bad_move"",34381.9,3049.1,2626,31332.8,423.1,""oops"",""left"",""left"",""good_move"",37692.3,3309.3,2952.8,34383,356.5,""smooth"",""left"",""left"",""good_move""]","","",""
"40343","","","","instructions","24","738599","0.0-8.0-4.0","118","1","2025-07-09 09:08:27","7701e855f2ef39aa3fd6c71abdc6918a","102.216.154.102","Mozilla/5.0 (Windows NT 10.0; Win64; x64) AppleWebKit/537.36 (KHTML, like Gecko) Chrome/138.0.0.0 Safari/537.36","WebKit","Chrome","138.0.0.0","Windows","10.0","https://app.prolific.com/","en-US,en;q=0.9","65faedca7e439b344f133fdb","686d226cabeef709c732f8e1","686e313ba555aa5acf0578cd","65faedca7e439b344f133fdb","","[{""page_index"":0,""viewing_time"":15183},{""page_index"":1,""viewing_time"":25159}]","","","","","","","","","","","","","","","","","","","","","","","","","","","","","","","","","","","","","","","","","","","",""
"19102","","","{""green_ball"":[""Ball always moves in the direction I press""]}","survey-multi-select","25","757703","0.0-8.0-5.0-0.0","118","1","2025-07-09 09:08:27","7701e855f2ef39aa3fd6c71abdc6918a","102.216.154.102","Mozilla/5.0 (Windows NT 10.0; Win64; x64) AppleWebKit/537.36 (KHTML, like Gecko) Chrome/138.0.0.0 Safari/537.36","WebKit","Chrome","138.0.0.0","Windows","10.0","https://app.prolific.com/","en-US,en;q=0.9","65faedca7e439b344f133fdb","686d226cabeef709c732f8e1","686e313ba555aa5acf0578cd","65faedca7e439b344f133fdb","","","[0]","","","","quiz","","","","","","","","","","","","","","","","","","","","","","","","","","","","","","","","","","","","","false","",""
"58178","","<p align='center'><b>INCORRECT.</b> Usually the green ball moves in the indicated direction, but sometimes it shakes and moves randomly. </p>","0","html-button-response","26","815884","0.0-8.0-5.0-1.0","118","1","2025-07-09 09:08:27","7701e855f2ef39aa3fd6c71abdc6918a","102.216.154.102","Mozilla/5.0 (Windows NT 10.0; Win64; x64) AppleWebKit/537.36 (KHTML, like Gecko) Chrome/138.0.0.0 Safari/537.36","WebKit","Chrome","138.0.0.0","Windows","10.0","https://app.prolific.com/","en-US,en;q=0.9","65faedca7e439b344f133fdb","686d226cabeef709c732f8e1","686e313ba555aa5acf0578cd","65faedca7e439b344f133fdb","","","","","","","","","","","","","","","","","","","","","","","","","","","","","","","","","","","","","","","","","","","","","",""
"18072","","","{""green_ball"":[""Ball sometimes shakes and moves in a random direction""]}","survey-multi-select","27","833959","0.0-8.0-5.1-0.1","118","1","2025-07-09 09:08:27","7701e855f2ef39aa3fd6c71abdc6918a","102.216.154.102","Mozilla/5.0 (Windows NT 10.0; Win64; x64) AppleWebKit/537.36 (KHTML, like Gecko) Chrome/138.0.0.0 Safari/537.36","WebKit","Chrome","138.0.0.0","Windows","10.0","https://app.prolific.com/","en-US,en;q=0.9","65faedca7e439b344f133fdb","686d226cabeef709c732f8e1","686e313ba555aa5acf0578cd","65faedca7e439b344f133fdb","","","[0]","","","","quiz","","","","","","","","","","","","","","","","","","","","","","","","","","","","","","","","","","","","","true","",""
"2089","","<p align='center'><b>CORRECT!</b> Indeed, the green ball may sometimes shake and move in a random direction.</p>","0","html-button-response","28","836050","0.0-8.0-5.1-1.1","118","1","2025-07-09 09:08:27","7701e855f2ef39aa3fd6c71abdc6918a","102.216.154.102","Mozilla/5.0 (Windows NT 10.0; Win64; x64) AppleWebKit/537.36 (KHTML, like Gecko) Chrome/138.0.0.0 Safari/537.36","WebKit","Chrome","138.0.0.0","Windows","10.0","https://app.prolific.com/","en-US,en;q=0.9","65faedca7e439b344f133fdb","686d226cabeef709c732f8e1","686e313ba555aa5acf0578cd","65faedca7e439b344f133fdb","","","","","","","","","","","","","","","","","","","","","","","","","","","","","","","","","","","","","","","","","","","","","",""
"11003","","","{""yellow_ball"":[""Ball doesn‘t move and I get -1 penalty point""]}","survey-multi-select","29","847055","0.0-8.0-6.0-0.0","118","1","2025-07-09 09:08:27","7701e855f2ef39aa3fd6c71abdc6918a","102.216.154.102","Mozilla/5.0 (Windows NT 10.0; Win64; x64) AppleWebKit/537.36 (KHTML, like Gecko) Chrome/138.0.0.0 Safari/537.36","WebKit","Chrome","138.0.0.0","Windows","10.0","https://app.prolific.com/","en-US,en;q=0.9","65faedca7e439b344f133fdb","686d226cabeef709c732f8e1","686e313ba555aa5acf0578cd","65faedca7e439b344f133fdb","","","[0]","","","","quiz","","","","","","","","","","","","","","","","","","","","","","","","","","","","","","","","","","","","","true","",""
"1895","","<p align='center'><b>CORRECT!</b> Indeed, the yellow ball never moves and you receive a penalty.</p>","0","html-button-response","30","848952","0.0-8.0-6.0-1.0","118","1","2025-07-09 09:08:27","7701e855f2ef39aa3fd6c71abdc6918a","102.216.154.102","Mozilla/5.0 (Windows NT 10.0; Win64; x64) AppleWebKit/537.36 (KHTML, like Gecko) Chrome/138.0.0.0 Safari/537.36","WebKit","Chrome","138.0.0.0","Windows","10.0","https://app.prolific.com/","en-US,en;q=0.9","65faedca7e439b344f133fdb","686d226cabeef709c732f8e1","686e313ba555aa5acf0578cd","65faedca7e439b344f133fdb","","","","","","","","","","","","","","","","","","","","","","","","","","","","","","","","","","","","","","","","","","","","","",""
"18480","","","{""blue_ball"":[""Ball doesn‘t move and I get -1 penalty point""]}","survey-multi-select","31","867434","0.0-8.0-7.0-0.0","118","1","2025-07-09 09:08:27","7701e855f2ef39aa3fd6c71abdc6918a","102.216.154.102","Mozilla/5.0 (Windows NT 10.0; Win64; x64) AppleWebKit/537.36 (KHTML, like Gecko) Chrome/138.0.0.0 Safari/537.36","WebKit","Chrome","138.0.0.0","Windows","10.0","https://app.prolific.com/","en-US,en;q=0.9","65faedca7e439b344f133fdb","686d226cabeef709c732f8e1","686e313ba555aa5acf0578cd","65faedca7e439b344f133fdb","","","[0]","","","","quiz","","","","","","","","","","","","","","","","","","","","","","","","","","","","","","","","","","","","","false","",""
"3550","","<p align='center'><b>INCORRECT.</b> The blue ball always shakes and moves randomly.</p>","0","html-button-response","32","870985","0.0-8.0-7.0-1.0","118","1","2025-07-09 09:08:27","7701e855f2ef39aa3fd6c71abdc6918a","102.216.154.102","Mozilla/5.0 (Windows NT 10.0; Win64; x64) AppleWebKit/537.36 (KHTML, like Gecko) Chrome/138.0.0.0 Safari/537.36","WebKit","Chrome","138.0.0.0","Windows","10.0","https://app.prolific.com/","en-US,en;q=0.9","65faedca7e439b344f133fdb","686d226cabeef709c732f8e1","686e313ba555aa5acf0578cd","65faedca7e439b344f133fdb","","","","","","","","","","","","","","","","","","","","","","","","","","","","","","","","","","","","","","","","","","","","","",""
"8517","","","{""blue_ball"":[""Ball always shakes and moves in a random direction""]}","survey-multi-select","33","879504","0.0-8.0-7.1-0.1","118","1","2025-07-09 09:08:27","7701e855f2ef39aa3fd6c71abdc6918a","102.216.154.102","Mozilla/5.0 (Windows NT 10.0; Win64; x64) AppleWebKit/537.36 (KHTML, like Gecko) Chrome/138.0.0.0 Safari/537.36","WebKit","Chrome","138.0.0.0","Windows","10.0","https://app.prolific.com/","en-US,en;q=0.9","65faedca7e439b344f133fdb","686d226cabeef709c732f8e1","686e313ba555aa5acf0578cd","65faedca7e439b344f133fdb","","","[0]","","","","quiz","","","","","","","","","","","","","","","","","","","","","","","","","","","","","","","","","","","","","true","",""
"1894","","<p align='center'><b>CORRECT!</b> Indeed, the blue ball always shakes and moves in a random direction. Also there is a penalty of -1 point.</p>","0","html-button-response","34","881400","0.0-8.0-7.1-1.1","118","1","2025-07-09 09:08:27","7701e855f2ef39aa3fd6c71abdc6918a","102.216.154.102","Mozilla/5.0 (Windows NT 10.0; Win64; x64) AppleWebKit/537.36 (KHTML, like Gecko) Chrome/138.0.0.0 Safari/537.36","WebKit","Chrome","138.0.0.0","Windows","10.0","https://app.prolific.com/","en-US,en;q=0.9","65faedca7e439b344f133fdb","686d226cabeef709c732f8e1","686e313ba555aa5acf0578cd","65faedca7e439b344f133fdb","","","","","","","","","","","","","","","","","","","","","","","","","","","","","","","","","","","","","","","","","","","","","",""
"14375","","","{""bonus"":[""When I reach all possible points""]}","survey-multi-select","35","895776","0.0-8.0-8.0-0.0","118","1","2025-07-09 09:08:27","7701e855f2ef39aa3fd6c71abdc6918a","102.216.154.102","Mozilla/5.0 (Windows NT 10.0; Win64; x64) AppleWebKit/537.36 (KHTML, like Gecko) Chrome/138.0.0.0 Safari/537.36","WebKit","Chrome","138.0.0.0","Windows","10.0","https://app.prolific.com/","en-US,en;q=0.9","65faedca7e439b344f133fdb","686d226cabeef709c732f8e1","686e313ba555aa5acf0578cd","65faedca7e439b344f133fdb","","","[0]","","","","quiz","","","","","","","","","","","","","","","","","","","","","","","","","","","","","","","","","","","","","false","",""
"2080","","<p align='center'><b>INCORRECT.</b> You receive 2 pounds extra when you reach 50% of points </p>","0","html-button-response","36","897858","0.0-8.0-8.0-1.0","118","1","2025-07-09 09:08:27","7701e855f2ef39aa3fd6c71abdc6918a","102.216.154.102","Mozilla/5.0 (Windows NT 10.0; Win64; x64) AppleWebKit/537.36 (KHTML, like Gecko) Chrome/138.0.0.0 Safari/537.36","WebKit","Chrome","138.0.0.0","Windows","10.0","https://app.prolific.com/","en-US,en;q=0.9","65faedca7e439b344f133fdb","686d226cabeef709c732f8e1","686e313ba555aa5acf0578cd","65faedca7e439b344f133fdb","","","","","","","","","","","","","","","","","","","","","","","","","","","","","","","","","","","","","","","","","","","","","",""
"3655","","","{""bonus"":[""When I reach 50% of points""]}","survey-multi-select","37","901515","0.0-8.0-8.1-0.1","118","1","2025-07-09 09:08:27","7701e855f2ef39aa3fd6c71abdc6918a","102.216.154.102","Mozilla/5.0 (Windows NT 10.0; Win64; x64) AppleWebKit/537.36 (KHTML, like Gecko) Chrome/138.0.0.0 Safari/537.36","WebKit","Chrome","138.0.0.0","Windows","10.0","https://app.prolific.com/","en-US,en;q=0.9","65faedca7e439b344f133fdb","686d226cabeef709c732f8e1","686e313ba555aa5acf0578cd","65faedca7e439b344f133fdb","","","[0]","","","","quiz","","","","","","","","","","","","","","","","","","","","","","","","","","","","","","","","","","","","","true","",""
"2118","","<p align='center'><b>CORRECT!</b> Indeed, you receive 2 pounds extra when you reach 50% of points.</p>","0","html-button-response","38","903635","0.0-8.0-8.1-1.1","118","1","2025-07-09 09:08:27","7701e855f2ef39aa3fd6c71abdc6918a","102.216.154.102","Mozilla/5.0 (Windows NT 10.0; Win64; x64) AppleWebKit/537.36 (KHTML, like Gecko) Chrome/138.0.0.0 Safari/537.36","WebKit","Chrome","138.0.0.0","Windows","10.0","https://app.prolific.com/","en-US,en;q=0.9","65faedca7e439b344f133fdb","686d226cabeef709c732f8e1","686e313ba555aa5acf0578cd","65faedca7e439b344f133fdb","","","","","","","","","","","","","","","","","","","","","","","","","","","","","","","","","","","","","","","","","","","","","",""
"5292","","","","instructions","39","908928","0.0-8.0-9.0","118","1","2025-07-09 09:08:27","7701e855f2ef39aa3fd6c71abdc6918a","102.216.154.102","Mozilla/5.0 (Windows NT 10.0; Win64; x64) AppleWebKit/537.36 (KHTML, like Gecko) Chrome/138.0.0.0 Safari/537.36","WebKit","Chrome","138.0.0.0","Windows","10.0","https://app.prolific.com/","en-US,en;q=0.9","65faedca7e439b344f133fdb","686d226cabeef709c732f8e1","686e313ba555aa5acf0578cd","65faedca7e439b344f133fdb","","[{""page_index"":0,""viewing_time"":5292}]","","","","","","","","","","","","","","","","","","","","","","","","","","","","","","","","","","","","","","","","","","","",""
"57591","","<p>Before you start with this game please answer the following three questions yourself. </p>
  <p>Through this game, we measure several aspects of your cognitive performance, such as reaction times, multi-tasking capabilities </p>
  <p>and the ability to assess the situation you are in.</p>
  <p></p>
  <p><b>How good do you usually are in such tasks?</b></p>","52","html-slider-response","40","966521","0.0-9.0-0.0","118","1","2025-07-09 09:08:27","7701e855f2ef39aa3fd6c71abdc6918a","102.216.154.102","Mozilla/5.0 (Windows NT 10.0; Win64; x64) AppleWebKit/537.36 (KHTML, like Gecko) Chrome/138.0.0.0 Safari/537.36","WebKit","Chrome","138.0.0.0","Windows","10.0","https://app.prolific.com/","en-US,en;q=0.9","65faedca7e439b344f133fdb","686d226cabeef709c732f8e1","686e313ba555aa5acf0578cd","65faedca7e439b344f133fdb","2025-07-09T09:24:40.647Z","","","","","","PreSkillQ","","","","","","","","","","","","","","","","","","","","","","","","","","","","","","","","","","","","","","50",""
"8787","","<div style=""width:500px;"">
  <p>How well do you think you will perform in this task compared to other participants?</p>
  </div>","76","html-slider-response","41","975310","0.0-9.0-1.0","118","1","2025-07-09 09:08:27","7701e855f2ef39aa3fd6c71abdc6918a","102.216.154.102","Mozilla/5.0 (Windows NT 10.0; Win64; x64) AppleWebKit/537.36 (KHTML, like Gecko) Chrome/138.0.0.0 Safari/537.36","WebKit","Chrome","138.0.0.0","Windows","10.0","https://app.prolific.com/","en-US,en;q=0.9","65faedca7e439b344f133fdb","686d226cabeef709c732f8e1","686e313ba555aa5acf0578cd","65faedca7e439b344f133fdb","2025-07-09T09:24:49.436Z","","","","","","PrePerfQ","","","","","","","","","","","","","","","","","","","","","","","","","","","","","","","","","","","","","","50",""
"7461","","<div style=""width:500px;"">
  <p>What best describes how you currently feel?</p>
  </div>","80","html-slider-response","42","982773","0.0-9.0-2.0","118","1","2025-07-09 09:08:27","7701e855f2ef39aa3fd6c71abdc6918a","102.216.154.102","Mozilla/5.0 (Windows NT 10.0; Win64; x64) AppleWebKit/537.36 (KHTML, like Gecko) Chrome/138.0.0.0 Safari/537.36","WebKit","Chrome","138.0.0.0","Windows","10.0","https://app.prolific.com/","en-US,en;q=0.9","65faedca7e439b344f133fdb","686d226cabeef709c732f8e1","686e313ba555aa5acf0578cd","65faedca7e439b344f133fdb","2025-07-09T09:24:56.899Z","","","","","","PreMotivationQ","","","","","","","","","","","","","","","","","","","","","","","","","","","","","","","","","","","","","","50",""
"","","","","ctl-task-cpt","43","1014208","0.0-10.0-0.0","118","1","2025-07-09 09:08:27","7701e855f2ef39aa3fd6c71abdc6918a","102.216.154.102","Mozilla/5.0 (Windows NT 10.0; Win64; x64) AppleWebKit/537.36 (KHTML, like Gecko) Chrome/138.0.0.0 Safari/537.36","WebKit","Chrome","138.0.0.0","Windows","10.0","https://app.prolific.com/","en-US,en;q=0.9","65faedca7e439b344f133fdb","686d226cabeef709c732f8e1","686e313ba555aa5acf0578cd","65faedca7e439b344f133fdb","2025-07-09T09:25:28.335Z","","","","","","","","","","","","","","","","win-only","3","g1:SW,g2:NE","1","1","0","989551.5","3426.7","8432.8","28405.5","1","4","8","6","1","1","-1","0","0","0","5006","3000","210","[""down"",""left""]","{""num_key_presses"":6,""num_perfect"":4,""num_errors"":2,""num_randdir"":0,""num_randdir_good_moves"":0,""num_whilered"":0,""num_whileblue"":0,""num_blue"":1,""num_good_moves"":4}","[261.896875,259.303125,0.7,261.896875,259.303125,105,261.896875,259.303125,216.3,261.896875,259.303125,331.1,261.896875,259.303125,440.2,261.896875,259.303125,543,261.896875,259.303125,647.6,261.896875,259.303125,749.5,261.896875,259.303125,861.6,261.896875,259.303125,965.8,261.896875,260.303125,1066.7,241.896875,275.303125,1169.8,239.896875,278.303125,1270.4,231.896875,287.303125,1382.2,231.896875,288.303125,1492.7,231.896875,288.303125,1593.9,231.896875,288.303125,1694.3,231.896875,288.303125,1799.4,231.896875,288.303125,1909.8,231.896875,288.303125,2013.7,231.896875,288.303125,2113.7,231.896875,288.303125,2215.4,231.896875,288.303125,2315.6,231.896875,288.303125,2421.7,231.896875,288.303125,2523.7,231.896875,288.303125,2631.8,231.896875,288.303125,2734.5,231.896875,288.303125,2835.1,231.896875,288.303125,2946,231.896875,288.303125,3048.3,231.896875,288.303125,3156.1,231.896875,288.303125,3258.1,231.896875,288.303125,3371.4,231.896875,288.303125,3473.8,231.896875,288.303125,3575.1,231.896875,288.303125,3683.9,231.896875,288.303125,3784.1,231.896875,288.303125,3893.1,231.896875,288.303125,3993.8,231.896875,288.303125,4096.4,231.896875,288.303125,4197.1,231.896875,288.303125,4306.2,231.896875,288.303125,4414.2,231.896875,288.303125,4524.8,231.896875,288.303125,4630.9,231.896875,288.303125,4735.4,231.896875,288.303125,4839.6,231.896875,288.303125,4940.5]","[4368.5,4368.6,1000,0,3368.6,""smooth"",""left"",""left"",""good_move"",7370,3000.7,2461.9,4369.4,538.7,""smooth"",""left"",""left"",""good_move"",7805.5,435.1,2580.7,7370.5,-2145.7,""error"",""-"",""-"",""no_move"",12184.8,4379.1,2972.6,8807.9,404.4,""smooth"",""down"",""down"",""good_move"",12739.2,552.6,1977,12186.7,-1424.4,""error"",""-"",""-"",""no_move"",19820.3,7080.5,2546.4,16908.1,365.8,""smooth"",""down"",""down"",""good_move""]","","",""
"8110","","<div style=""width:500px;"">
  <p>What determined the result of this run?</p>
  </div>","100","html-slider-response","44","1022321","0.0-10.0-1.0","118","1","2025-07-09 09:08:27","7701e855f2ef39aa3fd6c71abdc6918a","102.216.154.102","Mozilla/5.0 (Windows NT 10.0; Win64; x64) AppleWebKit/537.36 (KHTML, like Gecko) Chrome/138.0.0.0 Safari/537.36","WebKit","Chrome","138.0.0.0","Windows","10.0","https://app.prolific.com/","en-US,en;q=0.9","65faedca7e439b344f133fdb","686d226cabeef709c732f8e1","686e313ba555aa5acf0578cd","65faedca7e439b344f133fdb","2025-07-09T09:25:36.448Z","","","","","","AttribQ","","","","","","","","","","","","","","","","","","","","","","","","","","","","","","","","","","","","","","50",""
"4529","","<div style=""width:500px;"">
  <p>How much control did you have over the ball?</p>
  </div>","40","html-slider-response","45","1026852","0.0-10.0-2.0","118","1","2025-07-09 09:08:27","7701e855f2ef39aa3fd6c71abdc6918a","102.216.154.102","Mozilla/5.0 (Windows NT 10.0; Win64; x64) AppleWebKit/537.36 (KHTML, like Gecko) Chrome/138.0.0.0 Safari/537.36","WebKit","Chrome","138.0.0.0","Windows","10.0","https://app.prolific.com/","en-US,en;q=0.9","65faedca7e439b344f133fdb","686d226cabeef709c732f8e1","686e313ba555aa5acf0578cd","65faedca7e439b344f133fdb","2025-07-09T09:25:40.978Z","","","","","","ControlQ","","","","","","","","","","","","","","","","","","","","","","","","","","","","","","","","","","","","","","50",""
"5854","","<div style=""width:500px;"">
  <p>How would you describe your current emotional state?</p>
  </div>","11","html-slider-response","46","1032707","0.0-10.0-3.0","118","1","2025-07-09 09:08:27","7701e855f2ef39aa3fd6c71abdc6918a","102.216.154.102","Mozilla/5.0 (Windows NT 10.0; Win64; x64) AppleWebKit/537.36 (KHTML, like Gecko) Chrome/138.0.0.0 Safari/537.36","WebKit","Chrome","138.0.0.0","Windows","10.0","https://app.prolific.com/","en-US,en;q=0.9","65faedca7e439b344f133fdb","686d226cabeef709c732f8e1","686e313ba555aa5acf0578cd","65faedca7e439b344f133fdb","2025-07-09T09:25:46.833Z","","","","","","StressQ","","","","","","","","","","","","","","","","","","","","","","","","","","","","","","","","","","","","","","50",""
"5486","","<div style=""width:500px;"">
  <p>What best describes how you currently feel?</p>
  </div>","67","html-slider-response","47","1038195","0.0-10.0-4.0","118","1","2025-07-09 09:08:27","7701e855f2ef39aa3fd6c71abdc6918a","102.216.154.102","Mozilla/5.0 (Windows NT 10.0; Win64; x64) AppleWebKit/537.36 (KHTML, like Gecko) Chrome/138.0.0.0 Safari/537.36","WebKit","Chrome","138.0.0.0","Windows","10.0","https://app.prolific.com/","en-US,en;q=0.9","65faedca7e439b344f133fdb","686d226cabeef709c732f8e1","686e313ba555aa5acf0578cd","65faedca7e439b344f133fdb","2025-07-09T09:25:52.321Z","","","","","","MotivationQ","","","","","","","","","","","","","","","","","","","","","","","","","","","","","","","","","","","","","","50",""
"","","","","ctl-task-cpt","48","1077975","0.0-10.0-0.1","118","1","2025-07-09 09:08:27","7701e855f2ef39aa3fd6c71abdc6918a","102.216.154.102","Mozilla/5.0 (Windows NT 10.0; Win64; x64) AppleWebKit/537.36 (KHTML, like Gecko) Chrome/138.0.0.0 Safari/537.36","WebKit","Chrome","138.0.0.0","Windows","10.0","https://app.prolific.com/","en-US,en;q=0.9","65faedca7e439b344f133fdb","686d226cabeef709c732f8e1","686e313ba555aa5acf0578cd","65faedca7e439b344f133fdb","2025-07-09T09:26:32.102Z","","","","","","","","","","","","","","","","win-only","1","g1:NE,g2:SW","0.9","2","0","1044973.5","2450.7","7453","36757.7","1","4","4","6","1","1","1","1","0","0.007575757575757576","1685.3","3000","1800","[""up"",""right""]","{""num_key_presses"":4,""num_perfect"":4,""num_errors"":0,""num_randdir"":0,""num_randdir_good_moves"":0,""num_whilered"":0,""num_whileblue"":0,""num_blue"":5,""num_good_moves"":4}","[261.896875,262.303125,2.6,261.896875,262.303125,101.3,261.896875,262.303125,201.3,261.896875,262.303125,329.1,261.896875,262.303125,439.4,261.896875,262.303125,543.4,261.896875,262.303125,650.9,261.896875,262.303125,751.5,309.896875,167.303125,860.9,423.896875,14.303125000000001,962.3,424.896875,13.303125000000001,1070.9,426.896875,13.303125000000001,1189.4,473.896875,27.303125,1295.7,478.896875,28.303125,1396.2,478.896875,28.303125,1515.2,478.896875,28.303125,1615.4,478.896875,28.303125,1728.9,478.896875,28.303125,1833.2,478.896875,28.303125,1943.2,478.896875,28.303125,2048.2,478.896875,28.303125,2156.8,400.896875,96.303125,2268.4,322.896875,142.303125,2372.4,303.896875,155.303125,2482.4,302.896875,157.303125,2584.1,298.896875,163.303125,2685.3,298.896875,163.303125,2786.4,298.896875,163.303125,2908.2,298.896875,163.303125,3008.8,298.896875,163.303125,3110.7,298.896875,163.303125,3218.6,298.896875,163.303125,3326.8,298.896875,163.303125,3428.5,298.896875,163.303125,3541.8,298.896875,163.303125,3642.6,298.896875,163.303125,3746.7,298.896875,163.303125,3864.2,298.896875,163.303125,3965.5,298.896875,163.303125,4068.2,298.896875,163.303125,4171.5,298.896875,163.303125,4271.5,298.896875,163.303125,4373.1,298.896875,163.303125,4474.7,298.896875,163.303125,4592.3,298.896875,163.303125,4702.5,298.896875,163.303125,4805.3,298.896875,163.303125,4926.8]","[12373.3,12373.3,3102.9,8802.4,468,""smooth"",""up"",""up"",""good_move"",19238.8,6864.7,2765.4,15968.6,504.8,""smooth"",""up"",""up"",""good_move"",25830.8,6591.5,2665.5,22714.5,450.8,""smooth"",""right"",""right"",""good_move"",29152.3,3320.9,2739.6,25831.5,581.2,""smooth"",""right"",""right"",""good_move""]","","",""
"6403","","<div style=""width:500px;"">
  <p>What determined the result of this run?</p>
  </div>","100","html-slider-response","49","1084381","0.0-10.0-1.1","118","1","2025-07-09 09:08:27","7701e855f2ef39aa3fd6c71abdc6918a","102.216.154.102","Mozilla/5.0 (Windows NT 10.0; Win64; x64) AppleWebKit/537.36 (KHTML, like Gecko) Chrome/138.0.0.0 Safari/537.36","WebKit","Chrome","138.0.0.0","Windows","10.0","https://app.prolific.com/","en-US,en;q=0.9","65faedca7e439b344f133fdb","686d226cabeef709c732f8e1","686e313ba555aa5acf0578cd","65faedca7e439b344f133fdb","2025-07-09T09:26:38.507Z","","","","","","AttribQ","","","","","","","","","","","","","","","","","","","","","","","","","","","","","","","","","","","","","","50",""
"8950","","<div style=""width:500px;"">
  <p>How much control did you have over the ball?</p>
  </div>","100","html-slider-response","50","1093333","0.0-10.0-2.1","118","1","2025-07-09 09:08:27","7701e855f2ef39aa3fd6c71abdc6918a","102.216.154.102","Mozilla/5.0 (Windows NT 10.0; Win64; x64) AppleWebKit/537.36 (KHTML, like Gecko) Chrome/138.0.0.0 Safari/537.36","WebKit","Chrome","138.0.0.0","Windows","10.0","https://app.prolific.com/","en-US,en;q=0.9","65faedca7e439b344f133fdb","686d226cabeef709c732f8e1","686e313ba555aa5acf0578cd","65faedca7e439b344f133fdb","2025-07-09T09:26:47.460Z","","","","","","ControlQ","","","","","","","","","","","","","","","","","","","","","","","","","","","","","","","","","","","","","","50",""
"5407","","<div style=""width:500px;"">
  <p>How would you describe your current emotional state?</p>
  </div>","0","html-slider-response","51","1098743","0.0-10.0-3.1","118","1","2025-07-09 09:08:27","7701e855f2ef39aa3fd6c71abdc6918a","102.216.154.102","Mozilla/5.0 (Windows NT 10.0; Win64; x64) AppleWebKit/537.36 (KHTML, like Gecko) Chrome/138.0.0.0 Safari/537.36","WebKit","Chrome","138.0.0.0","Windows","10.0","https://app.prolific.com/","en-US,en;q=0.9","65faedca7e439b344f133fdb","686d226cabeef709c732f8e1","686e313ba555aa5acf0578cd","65faedca7e439b344f133fdb","2025-07-09T09:26:52.869Z","","","","","","StressQ","","","","","","","","","","","","","","","","","","","","","","","","","","","","","","","","","","","","","","50",""
"4681","","<div style=""width:500px;"">
  <p>What best describes how you currently feel?</p>
  </div>","100","html-slider-response","52","1103426","0.0-10.0-4.1","118","1","2025-07-09 09:08:27","7701e855f2ef39aa3fd6c71abdc6918a","102.216.154.102","Mozilla/5.0 (Windows NT 10.0; Win64; x64) AppleWebKit/537.36 (KHTML, like Gecko) Chrome/138.0.0.0 Safari/537.36","WebKit","Chrome","138.0.0.0","Windows","10.0","https://app.prolific.com/","en-US,en;q=0.9","65faedca7e439b344f133fdb","686d226cabeef709c732f8e1","686e313ba555aa5acf0578cd","65faedca7e439b344f133fdb","2025-07-09T09:26:57.552Z","","","","","","MotivationQ","","","","","","","","","","","","","","","","","","","","","","","","","","","","","","","","","","","","","","50",""
"","","","","ctl-task-cpt","53","1136815","0.0-10.0-0.2","118","1","2025-07-09 09:08:27","7701e855f2ef39aa3fd6c71abdc6918a","102.216.154.102","Mozilla/5.0 (Windows NT 10.0; Win64; x64) AppleWebKit/537.36 (KHTML, like Gecko) Chrome/138.0.0.0 Safari/537.36","WebKit","Chrome","138.0.0.0","Windows","10.0","https://app.prolific.com/","en-US,en;q=0.9","65faedca7e439b344f133fdb","686d226cabeef709c732f8e1","686e313ba555aa5acf0578cd","65faedca7e439b344f133fdb","2025-07-09T09:27:30.941Z","","","","","","","","","","","","","","","","win-only","0","g1:NW,g2:SE","0.8","3","0","1110204.5","2013.2","7014.2","30370.7","1","4","4","6","1","1","1","2","1","0.015151515151515152","2477.1","3000","970","[""left"",""up""]","{""num_key_presses"":6,""num_perfect"":5,""num_errors"":0,""num_randdir"":1,""num_randdir_good_moves"":0,""num_whilered"":0,""num_whileblue"":0,""num_blue"":2,""num_good_moves"":5}","[262.896875,256.303125,0.4,262.896875,256.303125,115.7,262.896875,256.303125,229.4,262.896875,256.303125,331.6,262.896875,256.303125,432,262.896875,256.303125,537.7,262.896875,256.303125,648.3,262.896875,256.303125,750.2,262.896875,256.303125,853.9,265.896875,256.303125,960.9,265.896875,256.303125,1065,263.896875,256.303125,1169.8,185.896875,225.303125,1270.7,181.896875,216.303125,1379.4,181.896875,216.303125,1483.5,42.896875,100.303125,1591.5,-78.103125,-55.696875,1694.1,-78.103125,-72.696875,1807.8,-55.103125,-69.696875,1918.3,7.896875000000001,29.303125,2026.7,16.896875,43.303125,2128.7,16.896875,49.303125,2232.1,16.896875,49.303125,2333.2,16.896875,49.303125,2439.4,16.896875,49.303125,2540.6,16.896875,49.303125,2645.1,16.896875,49.303125,2753.4,16.896875,49.303125,2855.7,16.896875,49.303125,2959.2,16.896875,49.303125,3066.4,16.896875,49.303125,3177,16.896875,49.303125,3277.3,16.896875,49.303125,3388.9,16.896875,49.303125,3501.2,16.896875,49.303125,3605.3,16.896875,49.303125,3709.9,16.896875,49.303125,3812.8,16.896875,49.303125,3916.3,16.896875,49.303125,4019.6,16.896875,49.303125,4120.3,16.896875,49.303125,4227.9,16.896875,49.303125,4334.5,16.896875,49.303125,4436.4,16.896875,49.303125,4538,16.896875,49.303125,4646.1,16.896875,49.303125,4750.2,16.896875,49.303125,4854.8,16.896875,49.303125,4958.9]","[1600.2,1600.3,1000,0,600.3,""smooth"",""up"",""up"",""good_move"",4695.7,3093.7,2582.5,1602,511.2,""smooth"",""up"",""up"",""good_move"",11075.4,6379.3,2452.7,8175.2,447.5,""smooth"",""left"",""left"",""good_move"",17584.4,6506.1,2444.7,14682.6,457.3,""oops"",""left"",""down"",""bad_move"",20783.5,3197.8,2430.3,17585.7,767.5,""smooth"",""up"",""up"",""good_move"",23194.5,2409.2,1885.2,20785.4,523.9,""smooth"",""left"",""left"",""good_move""]","","",""
"6949","","<div style=""width:500px;"">
  <p>What determined the result of this run?</p>
  </div>","100","html-slider-response","54","1143766","0.0-10.0-1.2","118","1","2025-07-09 09:08:27","7701e855f2ef39aa3fd6c71abdc6918a","102.216.154.102","Mozilla/5.0 (Windows NT 10.0; Win64; x64) AppleWebKit/537.36 (KHTML, like Gecko) Chrome/138.0.0.0 Safari/537.36","WebKit","Chrome","138.0.0.0","Windows","10.0","https://app.prolific.com/","en-US,en;q=0.9","65faedca7e439b344f133fdb","686d226cabeef709c732f8e1","686e313ba555aa5acf0578cd","65faedca7e439b344f133fdb","2025-07-09T09:27:37.892Z","","","","","","AttribQ","","","","","","","","","","","","","","","","","","","","","","","","","","","","","","","","","","","","","","50",""
"4209","","<div style=""width:500px;"">
  <p>How much control did you have over the ball?</p>
  </div>","100","html-slider-response","55","1147976","0.0-10.0-2.2","118","1","2025-07-09 09:08:27","7701e855f2ef39aa3fd6c71abdc6918a","102.216.154.102","Mozilla/5.0 (Windows NT 10.0; Win64; x64) AppleWebKit/537.36 (KHTML, like Gecko) Chrome/138.0.0.0 Safari/537.36","WebKit","Chrome","138.0.0.0","Windows","10.0","https://app.prolific.com/","en-US,en;q=0.9","65faedca7e439b344f133fdb","686d226cabeef709c732f8e1","686e313ba555aa5acf0578cd","65faedca7e439b344f133fdb","2025-07-09T09:27:42.103Z","","","","","","ControlQ","","","","","","","","","","","","","","","","","","","","","","","","","","","","","","","","","","","","","","50",""
"5118","","<div style=""width:500px;"">
  <p>How would you describe your current emotional state?</p>
  </div>","0","html-slider-response","56","1153096","0.0-10.0-3.2","118","1","2025-07-09 09:08:27","7701e855f2ef39aa3fd6c71abdc6918a","102.216.154.102","Mozilla/5.0 (Windows NT 10.0; Win64; x64) AppleWebKit/537.36 (KHTML, like Gecko) Chrome/138.0.0.0 Safari/537.36","WebKit","Chrome","138.0.0.0","Windows","10.0","https://app.prolific.com/","en-US,en;q=0.9","65faedca7e439b344f133fdb","686d226cabeef709c732f8e1","686e313ba555aa5acf0578cd","65faedca7e439b344f133fdb","2025-07-09T09:27:47.222Z","","","","","","StressQ","","","","","","","","","","","","","","","","","","","","","","","","","","","","","","","","","","","","","","50",""
"4864","","<div style=""width:500px;"">
  <p>What best describes how you currently feel?</p>
  </div>","100","html-slider-response","57","1157964","0.0-10.0-4.2","118","1","2025-07-09 09:08:27","7701e855f2ef39aa3fd6c71abdc6918a","102.216.154.102","Mozilla/5.0 (Windows NT 10.0; Win64; x64) AppleWebKit/537.36 (KHTML, like Gecko) Chrome/138.0.0.0 Safari/537.36","WebKit","Chrome","138.0.0.0","Windows","10.0","https://app.prolific.com/","en-US,en;q=0.9","65faedca7e439b344f133fdb","686d226cabeef709c732f8e1","686e313ba555aa5acf0578cd","65faedca7e439b344f133fdb","2025-07-09T09:27:52.090Z","","","","","","MotivationQ","","","","","","","","","","","","","","","","","","","","","","","","","","","","","","","","","","","","","","50",""
"","","","","ctl-task-cpt","58","1203240","0.0-10.0-0.3","118","1","2025-07-09 09:08:27","7701e855f2ef39aa3fd6c71abdc6918a","102.216.154.102","Mozilla/5.0 (Windows NT 10.0; Win64; x64) AppleWebKit/537.36 (KHTML, like Gecko) Chrome/138.0.0.0 Safari/537.36","WebKit","Chrome","138.0.0.0","Windows","10.0","https://app.prolific.com/","en-US,en;q=0.9","65faedca7e439b344f133fdb","686d226cabeef709c732f8e1","686e313ba555aa5acf0578cd","65faedca7e439b344f133fdb","2025-07-09T09:28:37.366Z","","","","","","","","","","","","","","","","win-only","3","g1:SW,g2:NE","0.7","4","0","1164745.5","2037","7047.2","42244.7","1","4","8","6","1","1","1","3","2","0.022727272727272728","2234.2","3000","250","[""down"",""left""]","{""num_key_presses"":10,""num_perfect"":7,""num_errors"":0,""num_randdir"":3,""num_randdir_good_moves"":0,""num_whilered"":0,""num_whileblue"":0,""num_blue"":2,""num_good_moves"":7}","[261.896875,259.303125,0.3,261.896875,259.303125,107.4,261.896875,259.303125,207.9,261.896875,259.303125,308.7,261.896875,259.303125,411.2,261.896875,259.303125,513,261.896875,259.303125,618.3,261.896875,259.303125,718.8,261.896875,259.303125,821.4,261.896875,259.303125,925.2,261.896875,259.303125,1030.3,261.896875,259.303125,1134.4,261.896875,259.303125,1242.8,261.896875,259.303125,1350.9,229.896875,275.303125,1456.5,55.896875,340.303125,1559.2,52.896875,379.303125,1662.5,18.896875,499.303125,1768.8,19.896875,493.303125,1872.2,21.896875,493.303125,1980.1,21.896875,493.303125,2080.7,21.896875,493.303125,2183.8,21.896875,493.303125,2284.4,21.896875,493.303125,2388.6,21.896875,493.303125,2496.2,21.896875,493.303125,2600.4,21.896875,493.303125,2706,21.896875,493.303125,2813.1,21.896875,493.303125,2914.4,21.896875,493.303125,3018.7,21.896875,493.303125,3121.4,21.896875,493.303125,3223.3,21.896875,493.303125,3324.2,21.896875,493.303125,3430.7,21.896875,493.303125,3531.2,21.896875,493.303125,3637,21.896875,493.303125,3739.1,21.896875,493.303125,3844.8,21.896875,493.303125,3955.1,21.896875,493.303125,4057.4,21.896875,493.303125,4159.5,21.896875,493.303125,4260.2,21.896875,493.303125,4363.5,21.896875,493.303125,4473.6,21.896875,493.303125,4576,21.896875,493.303125,4679.7,21.896875,493.303125,4781.3,21.896875,493.303125,4897.8]","[1637.9,1637.9,1000,0,637.9,""smooth"",""down"",""down"",""good_move"",4855.8,3217.3,2598.4,1638.7,618.7,""oops"",""down"",""right"",""bad_move"",13941.9,9084,2445.9,11080.5,415.6,""smooth"",""down"",""down"",""good_move"",16650.4,2708.1,2249.4,13942.3,458.7,""smooth"",""left"",""left"",""good_move"",20258.1,3607,3169.3,16651.1,437.7,""oops"",""left"",""right"",""bad_move"",22812.6,2553.5,2092.7,20259.1,460.8,""oops"",""left"",""right"",""bad_move"",26618.5,3804.6,3315.9,22813.9,488.7,""smooth"",""left"",""left"",""good_move"",29355.9,2737,2216.7,26618.9,520.4,""smooth"",""left"",""left"",""good_move"",31926.5,2569.2,2139.1,29357.4,430,""smooth"",""left"",""left"",""good_move"",35048,3120.9,2684.1,31927.1,436.8,""smooth"",""left"",""left"",""good_move""]","","",""
"7770","","<div style=""width:500px;"">
  <p>What determined the result of this run?</p>
  </div>","100","html-slider-response","59","1211012","0.0-10.0-1.3","118","1","2025-07-09 09:08:27","7701e855f2ef39aa3fd6c71abdc6918a","102.216.154.102","Mozilla/5.0 (Windows NT 10.0; Win64; x64) AppleWebKit/537.36 (KHTML, like Gecko) Chrome/138.0.0.0 Safari/537.36","WebKit","Chrome","138.0.0.0","Windows","10.0","https://app.prolific.com/","en-US,en;q=0.9","65faedca7e439b344f133fdb","686d226cabeef709c732f8e1","686e313ba555aa5acf0578cd","65faedca7e439b344f133fdb","2025-07-09T09:28:45.138Z","","","","","","AttribQ","","","","","","","","","","","","","","","","","","","","","","","","","","","","","","","","","","","","","","50",""
"8110","","<div style=""width:500px;"">
  <p>How much control did you have over the ball?</p>
  </div>","68","html-slider-response","60","1219123","0.0-10.0-2.3","118","1","2025-07-09 09:08:27","7701e855f2ef39aa3fd6c71abdc6918a","102.216.154.102","Mozilla/5.0 (Windows NT 10.0; Win64; x64) AppleWebKit/537.36 (KHTML, like Gecko) Chrome/138.0.0.0 Safari/537.36","WebKit","Chrome","138.0.0.0","Windows","10.0","https://app.prolific.com/","en-US,en;q=0.9","65faedca7e439b344f133fdb","686d226cabeef709c732f8e1","686e313ba555aa5acf0578cd","65faedca7e439b344f133fdb","2025-07-09T09:28:53.249Z","","","","","","ControlQ","","","","","","","","","","","","","","","","","","","","","","","","","","","","","","","","","","","","","","50",""
"5678","","<div style=""width:500px;"">
  <p>How would you describe your current emotional state?</p>
  </div>","0","html-slider-response","61","1224804","0.0-10.0-3.3","118","1","2025-07-09 09:08:27","7701e855f2ef39aa3fd6c71abdc6918a","102.216.154.102","Mozilla/5.0 (Windows NT 10.0; Win64; x64) AppleWebKit/537.36 (KHTML, like Gecko) Chrome/138.0.0.0 Safari/537.36","WebKit","Chrome","138.0.0.0","Windows","10.0","https://app.prolific.com/","en-US,en;q=0.9","65faedca7e439b344f133fdb","686d226cabeef709c732f8e1","686e313ba555aa5acf0578cd","65faedca7e439b344f133fdb","2025-07-09T09:28:58.930Z","","","","","","StressQ","","","","","","","","","","","","","","","","","","","","","","","","","","","","","","","","","","","","","","50",""
"4789","","<div style=""width:500px;"">
  <p>What best describes how you currently feel?</p>
  </div>","100","html-slider-response","62","1229594","0.0-10.0-4.3","118","1","2025-07-09 09:08:27","7701e855f2ef39aa3fd6c71abdc6918a","102.216.154.102","Mozilla/5.0 (Windows NT 10.0; Win64; x64) AppleWebKit/537.36 (KHTML, like Gecko) Chrome/138.0.0.0 Safari/537.36","WebKit","Chrome","138.0.0.0","Windows","10.0","https://app.prolific.com/","en-US,en;q=0.9","65faedca7e439b344f133fdb","686d226cabeef709c732f8e1","686e313ba555aa5acf0578cd","65faedca7e439b344f133fdb","2025-07-09T09:29:03.721Z","","","","","","MotivationQ","","","","","","","","","","","","","","","","","","","","","","","","","","","","","","","","","","","","","","50",""
"","","","","ctl-task-cpt","63","1269571","0.0-10.0-0.4","118","1","2025-07-09 09:08:27","7701e855f2ef39aa3fd6c71abdc6918a","102.216.154.102","Mozilla/5.0 (Windows NT 10.0; Win64; x64) AppleWebKit/537.36 (KHTML, like Gecko) Chrome/138.0.0.0 Safari/537.36","WebKit","Chrome","138.0.0.0","Windows","10.0","https://app.prolific.com/","en-US,en;q=0.9","65faedca7e439b344f133fdb","686d226cabeef709c732f8e1","686e313ba555aa5acf0578cd","65faedca7e439b344f133fdb","2025-07-09T09:29:43.697Z","","","","","","","","","","","","","","","","win-only","0","g1:NW,g2:SE","0.6","5","0","1236375.9","1824.8","6827.2","36934.7","1","4","8","6","2","8","8","11","3","0.08333333333333333","2457.3","3000","990","[""down"",""right""]","{""num_key_presses"":8,""num_perfect"":5,""num_errors"":0,""num_randdir"":3,""num_randdir_good_moves"":2,""num_whilered"":0,""num_whileblue"":0,""num_blue"":3,""num_good_moves"":7}","[260.896875,258.303125,1.3,260.896875,258.303125,103.8,260.896875,258.303125,209.1,260.896875,258.303125,312.5,260.896875,258.303125,415.6,260.896875,258.303125,522.7,260.896875,258.303125,625.2,260.896875,258.303125,733.4,260.896875,258.303125,837.7,260.896875,258.303125,937.9,260.896875,258.303125,1045.2,260.896875,258.303125,1154.6,260.896875,258.303125,1256.8,265.896875,260.303125,1363,352.896875,308.303125,1464.6,443.896875,397.303125,1569.2,463.896875,429.303125,1678.6,463.896875,429.303125,1781.2,463.896875,429.303125,1884.9,470.896875,450.303125,1990.2,473.896875,461.303125,2090.2,473.896875,466.303125,2201.4,473.896875,466.303125,2306.7,473.896875,466.303125,2407.9,473.896875,466.303125,2510.6,473.896875,466.303125,2612.2,473.896875,466.303125,2714.8,473.896875,466.303125,2820.6,473.896875,466.303125,2927.4,473.896875,466.303125,3029.5,473.896875,466.303125,3129.8,473.896875,466.303125,3232.8,473.896875,466.303125,3335.9,473.896875,466.303125,3447.7,473.896875,466.303125,3553.9,473.896875,466.303125,3656.1,473.896875,466.303125,3757.9,473.896875,466.303125,3862.6,473.896875,466.303125,3974.9,473.896875,466.303125,4080.1,473.896875,466.303125,4189.2,473.896875,466.303125,4295.8,473.896875,466.303125,4398.2,473.896875,466.303125,4511.6,473.896875,466.303125,4614.9,473.896875,466.303125,4716.6,473.896875,466.303125,4819.1,473.896875,466.303125,4927.7]","[1442.8,1442.8,1000,0,442.8,""oops"",""down"",""right"",""good_move"",4572.1,3128.2,2722,1444,406.2,""oops"",""down"",""left"",""bad_move"",7805.6,3232.5,2797.2,4573.3,435.3,""oops"",""down"",""right"",""good_move"",10096.9,2289.3,1829,7807.6,460.3,""smooth"",""down"",""down"",""good_move"",12358.4,2260.6,1690.4,10097.8,570.2,""smooth"",""down"",""down"",""good_move"",18078,5718.1,1837.9,15757,483.2,""smooth"",""down"",""down"",""good_move"",23698.9,5619.8,1953.4,21293.5,452,""smooth"",""right"",""right"",""good_move"",29943.2,6243.4,2398.8,27047.8,496.6,""smooth"",""right"",""right"",""good_move""]","","",""
"6215","","<div style=""width:500px;"">
  <p>What determined the result of this run?</p>
  </div>","100","html-slider-response","64","1275789","0.0-10.0-1.4","118","1","2025-07-09 09:08:27","7701e855f2ef39aa3fd6c71abdc6918a","102.216.154.102","Mozilla/5.0 (Windows NT 10.0; Win64; x64) AppleWebKit/537.36 (KHTML, like Gecko) Chrome/138.0.0.0 Safari/537.36","WebKit","Chrome","138.0.0.0","Windows","10.0","https://app.prolific.com/","en-US,en;q=0.9","65faedca7e439b344f133fdb","686d226cabeef709c732f8e1","686e313ba555aa5acf0578cd","65faedca7e439b344f133fdb","2025-07-09T09:29:49.915Z","","","","","","AttribQ","","","","","","","","","","","","","","","","","","","","","","","","","","","","","","","","","","","","","","50",""
"10231","","<div style=""width:500px;"">
  <p>How much control did you have over the ball?</p>
  </div>","95","html-slider-response","65","1286022","0.0-10.0-2.4","118","1","2025-07-09 09:08:27","7701e855f2ef39aa3fd6c71abdc6918a","102.216.154.102","Mozilla/5.0 (Windows NT 10.0; Win64; x64) AppleWebKit/537.36 (KHTML, like Gecko) Chrome/138.0.0.0 Safari/537.36","WebKit","Chrome","138.0.0.0","Windows","10.0","https://app.prolific.com/","en-US,en;q=0.9","65faedca7e439b344f133fdb","686d226cabeef709c732f8e1","686e313ba555aa5acf0578cd","65faedca7e439b344f133fdb","2025-07-09T09:30:00.148Z","","","","","","ControlQ","","","","","","","","","","","","","","","","","","","","","","","","","","","","","","","","","","","","","","50",""
"4594","","<div style=""width:500px;"">
  <p>How would you describe your current emotional state?</p>
  </div>","0","html-slider-response","66","1290619","0.0-10.0-3.4","118","1","2025-07-09 09:08:27","7701e855f2ef39aa3fd6c71abdc6918a","102.216.154.102","Mozilla/5.0 (Windows NT 10.0; Win64; x64) AppleWebKit/537.36 (KHTML, like Gecko) Chrome/138.0.0.0 Safari/537.36","WebKit","Chrome","138.0.0.0","Windows","10.0","https://app.prolific.com/","en-US,en;q=0.9","65faedca7e439b344f133fdb","686d226cabeef709c732f8e1","686e313ba555aa5acf0578cd","65faedca7e439b344f133fdb","2025-07-09T09:30:04.745Z","","","","","","StressQ","","","","","","","","","","","","","","","","","","","","","","","","","","","","","","","","","","","","","","50",""
"4224","","<div style=""width:500px;"">
  <p>What best describes how you currently feel?</p>
  </div>","100","html-slider-response","67","1294846","0.0-10.0-4.4","118","1","2025-07-09 09:08:27","7701e855f2ef39aa3fd6c71abdc6918a","102.216.154.102","Mozilla/5.0 (Windows NT 10.0; Win64; x64) AppleWebKit/537.36 (KHTML, like Gecko) Chrome/138.0.0.0 Safari/537.36","WebKit","Chrome","138.0.0.0","Windows","10.0","https://app.prolific.com/","en-US,en;q=0.9","65faedca7e439b344f133fdb","686d226cabeef709c732f8e1","686e313ba555aa5acf0578cd","65faedca7e439b344f133fdb","2025-07-09T09:30:08.972Z","","","","","","MotivationQ","","","","","","","","","","","","","","","","","","","","","","","","","","","","","","","","","","","","","","50",""
"","","","","ctl-task-cpt","68","1371270","0.0-10.0-0.5","118","1","2025-07-09 09:08:27","7701e855f2ef39aa3fd6c71abdc6918a","102.216.154.102","Mozilla/5.0 (Windows NT 10.0; Win64; x64) AppleWebKit/537.36 (KHTML, like Gecko) Chrome/138.0.0.0 Safari/537.36","WebKit","Chrome","138.0.0.0","Windows","10.0","https://app.prolific.com/","en-US,en;q=0.9","65faedca7e439b344f133fdb","686d226cabeef709c732f8e1","686e313ba555aa5acf0578cd","65faedca7e439b344f133fdb","2025-07-09T09:31:25.396Z","","","","","","","","","","","","","","","","win-only","3","g1:SW,g2:NE","0.5","6","0","1301627.6","1920.6","6926.7","73381","1","4","4","6","1","-1","-3","8","11","0.06060606060606061","1889.4","3000","-905","[""down"",""left""]","{""num_key_presses"":14,""num_perfect"":6,""num_errors"":2,""num_randdir"":6,""num_randdir_good_moves"":0,""num_whilered"":0,""num_whileblue"":1,""num_blue"":8,""num_good_moves"":6}","[258.896875,260.303125,0.4,258.896875,260.303125,118.8,258.896875,260.303125,221.4,258.896875,260.303125,332.4,258.896875,260.303125,446.1,258.896875,260.303125,556.7,258.896875,260.303125,666.3,258.896875,260.303125,771.2,258.896875,260.303125,872.7,258.896875,260.303125,979.4,258.896875,260.303125,1088.4,118.896875,335.303125,1196.9,59.896875,418.303125,1302,44.896875,464.303125,1416.2,42.896875,467.303125,1521.9,42.896875,467.303125,1622.2,42.896875,467.303125,1729.2,42.896875,467.303125,1835,42.896875,467.303125,1936.7,42.896875,467.303125,2040.6,42.896875,467.303125,2144,42.896875,467.303125,2244.5,42.896875,467.303125,2347.9,42.896875,467.303125,2450.2,42.896875,467.303125,2555.8,42.896875,467.303125,2658.8,42.896875,467.303125,2765.4,42.896875,467.303125,2870.6,42.896875,467.303125,2980.5,42.896875,467.303125,3086.2,42.896875,467.303125,3194.9,42.896875,467.303125,3297.7,42.896875,467.303125,3400.7,42.896875,467.303125,3501.6,42.896875,467.303125,3603.9,42.896875,467.303125,3716.8,42.896875,467.303125,3817,42.896875,467.303125,3922,42.896875,467.303125,4023,42.896875,467.303125,4136.5,42.896875,467.303125,4247.7,42.896875,467.303125,4361,42.896875,467.303125,4466.1,42.896875,467.303125,4572.3,42.896875,467.303125,4673.2,42.896875,467.303125,4776.2,42.896875,467.303125,4880.4,42.896875,467.303125,4981.4]","[1480.7,1480.7,1000,0,480.7,""smooth"",""down"",""down"",""good_move"",3477.7,1995.3,1487.9,1482.4,507.4,""smooth"",""down"",""down"",""good_move"",6773.3,3294.7,2855.1,3478.6,439.6,""oops"",""left"",""up"",""bad_move"",9591.9,2816.2,2340.8,6775.7,475.4,""oops"",""left"",""up"",""bad_move"",13153,3560.4,3028.1,9592.6,532.3,""smooth"",""left"",""left"",""good_move"",13245,90.1,2676.1,13154.9,-2586,""error"",""-"",""-"",""no_move"",18267.5,5021.9,3504.7,14250.3,512.6,""while_blue"",""down"",""up"",""bad_move"",21182.8,2914,2304.9,18268.9,609,""oops"",""down"",""right"",""bad_move"",24924.2,3740.6,2839.4,21183.7,901.2,""smooth"",""down"",""down"",""good_move"",30817.8,5892.1,2745.4,27620.7,451.7,""oops"",""down"",""right"",""bad_move"",36928.2,6110,1843.8,34579.2,505.3,""smooth"",""down"",""down"",""good_move"",44158,7228.6,2784.5,40944.9,428.6,""oops"",""down"",""up"",""bad_move"",47103.4,2944,2260,44159.4,684,""oops"",""down"",""right"",""bad_move"",53562.1,6457.3,2742.2,50371.6,448.3,""smooth"",""down"",""down"",""good_move""]","","",""
"7475","","<div style=""width:500px;"">
  <p>What determined the result of this run?</p>
  </div>","0","html-slider-response","69","1378750","0.0-10.0-1.5","118","1","2025-07-09 09:08:27","7701e855f2ef39aa3fd6c71abdc6918a","102.216.154.102","Mozilla/5.0 (Windows NT 10.0; Win64; x64) AppleWebKit/537.36 (KHTML, like Gecko) Chrome/138.0.0.0 Safari/537.36","WebKit","Chrome","138.0.0.0","Windows","10.0","https://app.prolific.com/","en-US,en;q=0.9","65faedca7e439b344f133fdb","686d226cabeef709c732f8e1","686e313ba555aa5acf0578cd","65faedca7e439b344f133fdb","2025-07-09T09:31:32.876Z","","","","","","AttribQ","","","","","","","","","","","","","","","","","","","","","","","","","","","","","","","","","","","","","","50",""
"4858","","<div style=""width:500px;"">
  <p>How much control did you have over the ball?</p>
  </div>","18","html-slider-response","70","1383611","0.0-10.0-2.5","118","1","2025-07-09 09:08:27","7701e855f2ef39aa3fd6c71abdc6918a","102.216.154.102","Mozilla/5.0 (Windows NT 10.0; Win64; x64) AppleWebKit/537.36 (KHTML, like Gecko) Chrome/138.0.0.0 Safari/537.36","WebKit","Chrome","138.0.0.0","Windows","10.0","https://app.prolific.com/","en-US,en;q=0.9","65faedca7e439b344f133fdb","686d226cabeef709c732f8e1","686e313ba555aa5acf0578cd","65faedca7e439b344f133fdb","2025-07-09T09:31:37.737Z","","","","","","ControlQ","","","","","","","","","","","","","","","","","","","","","","","","","","","","","","","","","","","","","","50",""
"4767","","<div style=""width:500px;"">
  <p>How would you describe your current emotional state?</p>
  </div>","78","html-slider-response","71","1388382","0.0-10.0-3.5","118","1","2025-07-09 09:08:27","7701e855f2ef39aa3fd6c71abdc6918a","102.216.154.102","Mozilla/5.0 (Windows NT 10.0; Win64; x64) AppleWebKit/537.36 (KHTML, like Gecko) Chrome/138.0.0.0 Safari/537.36","WebKit","Chrome","138.0.0.0","Windows","10.0","https://app.prolific.com/","en-US,en;q=0.9","65faedca7e439b344f133fdb","686d226cabeef709c732f8e1","686e313ba555aa5acf0578cd","65faedca7e439b344f133fdb","2025-07-09T09:31:42.508Z","","","","","","StressQ","","","","","","","","","","","","","","","","","","","","","","","","","","","","","","","","","","","","","","50",""
"5514","","<div style=""width:500px;"">
  <p>What best describes how you currently feel?</p>
  </div>","78","html-slider-response","72","1393898","0.0-10.0-4.5","118","1","2025-07-09 09:08:27","7701e855f2ef39aa3fd6c71abdc6918a","102.216.154.102","Mozilla/5.0 (Windows NT 10.0; Win64; x64) AppleWebKit/537.36 (KHTML, like Gecko) Chrome/138.0.0.0 Safari/537.36","WebKit","Chrome","138.0.0.0","Windows","10.0","https://app.prolific.com/","en-US,en;q=0.9","65faedca7e439b344f133fdb","686d226cabeef709c732f8e1","686e313ba555aa5acf0578cd","65faedca7e439b344f133fdb","2025-07-09T09:31:48.025Z","","","","","","MotivationQ","","","","","","","","","","","","","","","","","","","","","","","","","","","","","","","","","","","","","","50",""
"","","","","ctl-task-cpt","73","1427800","0.0-10.0-0.6","118","1","2025-07-09 09:08:27","7701e855f2ef39aa3fd6c71abdc6918a","102.216.154.102","Mozilla/5.0 (Windows NT 10.0; Win64; x64) AppleWebKit/537.36 (KHTML, like Gecko) Chrome/138.0.0.0 Safari/537.36","WebKit","Chrome","138.0.0.0","Windows","10.0","https://app.prolific.com/","en-US,en;q=0.9","65faedca7e439b344f133fdb","686d226cabeef709c732f8e1","686e313ba555aa5acf0578cd","65faedca7e439b344f133fdb","2025-07-09T09:32:21.926Z","","","","","","","","","","","","","","","","win-only","0","g1:NW,g2:SE","0.4","7","0","1400686.6","4099.7","9113.5","30851.8","1","4","4","6","1","1","1","9","8","0.06818181818181818","2331.3","3000","2655","[""left"",""up""]","{""num_key_presses"":4,""num_perfect"":2,""num_errors"":0,""num_randdir"":2,""num_randdir_good_moves"":2,""num_whilered"":0,""num_whileblue"":0,""num_blue"":1,""num_good_moves"":4}","[261.896875,261.303125,1.4,261.896875,261.303125,109.1,261.896875,261.303125,216,261.896875,261.303125,345.2,261.896875,261.303125,457.9,261.896875,261.303125,558.1,261.896875,261.303125,676.9,261.896875,261.303125,790.7,261.896875,261.303125,905.9,261.896875,261.303125,1022,261.896875,261.303125,1144,261.896875,261.303125,1252.1,261.896875,261.303125,1355,261.896875,261.303125,1482.3,241.896875,255.303125,1622.4,12.896875000000001,67.303125,1746.2,17.896875,32.303125,1846.9,17.896875,32.303125,1955.4,18.896875,33.303125,2058.6,18.896875,33.303125,2180.8,18.896875,33.303125,2295.6,18.896875,33.303125,2401.2,18.896875,33.303125,2525.7,18.896875,33.303125,2646.7,18.896875,33.303125,2770.3,18.896875,33.303125,2870.8,18.896875,33.303125,2993.9,18.896875,33.303125,3100.1,18.896875,33.303125,3203.3,18.896875,33.303125,3309.8,18.896875,33.303125,3412.8,18.896875,33.303125,3518.4,18.896875,33.303125,3624.9,18.896875,33.303125,3730.5,18.896875,33.303125,3834.7,18.896875,33.303125,3936.8,18.896875,33.303125,4042.5,18.896875,33.303125,4146.9,18.896875,33.303125,4249.3,18.896875,33.303125,4355.7,18.896875,33.303125,4460.5,18.896875,33.303125,4568.6,18.896875,33.303125,4673.1,18.896875,33.303125,4779.6,18.896875,33.303125,4883.8,18.896875,33.303125,4985.9]","[5249.8,5249.8,2700.6,2036.7,512.5,""smooth"",""up"",""up"",""good_move"",10440.2,5189.6,2429.8,5250.7,2759.7,""oops"",""up"",""up"",""good_move"",15826.5,5385.1,2552.8,10441.4,2832.3,""smooth"",""left"",""left"",""good_move"",21161.8,5334.2,2015.9,15827.7,3318.2,""oops"",""left"",""left"",""good_move""]","","",""
"7134","","<div style=""width:500px;"">
  <p>What determined the result of this run?</p>
  </div>","100","html-slider-response","74","1434938","0.0-10.0-1.6","118","1","2025-07-09 09:08:27","7701e855f2ef39aa3fd6c71abdc6918a","102.216.154.102","Mozilla/5.0 (Windows NT 10.0; Win64; x64) AppleWebKit/537.36 (KHTML, like Gecko) Chrome/138.0.0.0 Safari/537.36","WebKit","Chrome","138.0.0.0","Windows","10.0","https://app.prolific.com/","en-US,en;q=0.9","65faedca7e439b344f133fdb","686d226cabeef709c732f8e1","686e313ba555aa5acf0578cd","65faedca7e439b344f133fdb","2025-07-09T09:32:29.064Z","","","","","","AttribQ","","","","","","","","","","","","","","","","","","","","","","","","","","","","","","","","","","","","","","50",""
"7435","","<div style=""width:500px;"">
  <p>How much control did you have over the ball?</p>
  </div>","28","html-slider-response","75","1442378","0.0-10.0-2.6","118","1","2025-07-09 09:08:27","7701e855f2ef39aa3fd6c71abdc6918a","102.216.154.102","Mozilla/5.0 (Windows NT 10.0; Win64; x64) AppleWebKit/537.36 (KHTML, like Gecko) Chrome/138.0.0.0 Safari/537.36","WebKit","Chrome","138.0.0.0","Windows","10.0","https://app.prolific.com/","en-US,en;q=0.9","65faedca7e439b344f133fdb","686d226cabeef709c732f8e1","686e313ba555aa5acf0578cd","65faedca7e439b344f133fdb","2025-07-09T09:32:36.504Z","","","","","","ControlQ","","","","","","","","","","","","","","","","","","","","","","","","","","","","","","","","","","","","","","50",""
"6955","","<div style=""width:500px;"">
  <p>How would you describe your current emotional state?</p>
  </div>","14","html-slider-response","76","1449335","0.0-10.0-3.6","118","1","2025-07-09 09:08:27","7701e855f2ef39aa3fd6c71abdc6918a","102.216.154.102","Mozilla/5.0 (Windows NT 10.0; Win64; x64) AppleWebKit/537.36 (KHTML, like Gecko) Chrome/138.0.0.0 Safari/537.36","WebKit","Chrome","138.0.0.0","Windows","10.0","https://app.prolific.com/","en-US,en;q=0.9","65faedca7e439b344f133fdb","686d226cabeef709c732f8e1","686e313ba555aa5acf0578cd","65faedca7e439b344f133fdb","2025-07-09T09:32:43.461Z","","","","","","StressQ","","","","","","","","","","","","","","","","","","","","","","","","","","","","","","","","","","","","","","50",""
"4610","","<div style=""width:500px;"">
  <p>What best describes how you currently feel?</p>
  </div>","77","html-slider-response","77","1453948","0.0-10.0-4.6","118","1","2025-07-09 09:08:27","7701e855f2ef39aa3fd6c71abdc6918a","102.216.154.102","Mozilla/5.0 (Windows NT 10.0; Win64; x64) AppleWebKit/537.36 (KHTML, like Gecko) Chrome/138.0.0.0 Safari/537.36","WebKit","Chrome","138.0.0.0","Windows","10.0","https://app.prolific.com/","en-US,en;q=0.9","65faedca7e439b344f133fdb","686d226cabeef709c732f8e1","686e313ba555aa5acf0578cd","65faedca7e439b344f133fdb","2025-07-09T09:32:48.074Z","","","","","","MotivationQ","","","","","","","","","","","","","","","","","","","","","","","","","","","","","","","","","","","","","","50",""
"","","","","ctl-task-cpt","78","1511163","0.0-10.0-0.7","118","1","2025-07-09 09:08:27","7701e855f2ef39aa3fd6c71abdc6918a","102.216.154.102","Mozilla/5.0 (Windows NT 10.0; Win64; x64) AppleWebKit/537.36 (KHTML, like Gecko) Chrome/138.0.0.0 Safari/537.36","WebKit","Chrome","138.0.0.0","Windows","10.0","https://app.prolific.com/","en-US,en;q=0.9","65faedca7e439b344f133fdb","686d226cabeef709c732f8e1","686e313ba555aa5acf0578cd","65faedca7e439b344f133fdb","2025-07-09T09:33:45.289Z","","","","","","","","","","","","","","","","win-only","3","g1:SW,g2:NE","0.3","8","0","1460727.7","2069.5","7092","54187.9","1","4","8","6","1","1","1","10","9","0.07575757575757576","2523.8","3000","240","[""down"",""left""]","{""num_key_presses"":14,""num_perfect"":4,""num_errors"":0,""num_randdir"":10,""num_randdir_good_moves"":5,""num_whilered"":0,""num_whileblue"":0,""num_blue"":1,""num_good_moves"":9}","[264.896875,258.303125,0.3,264.896875,258.303125,119.4,264.896875,258.303125,222,264.896875,258.303125,328.7,264.896875,258.303125,432.6,264.896875,258.303125,540.4,264.896875,258.303125,648.3,264.896875,258.303125,750.8,264.896875,258.303125,857.3,264.896875,258.303125,959.4,264.896875,258.303125,1061,264.896875,258.303125,1178,264.896875,258.303125,1310.5,264.896875,258.303125,1413.7,259.896875,263.303125,1523.6,107.896875,378.303125,1640.1,106.896875,380.303125,1745.9,73.896875,490.303125,1856.4,58.896875,511.303125,1973.3,57.896875,506.303125,2078.3,51.896875,492.303125,2191.8,51.896875,492.303125,2306.1,51.896875,492.303125,2417.3,51.896875,492.303125,2537.3,51.896875,492.303125,2648.4,51.896875,492.303125,2763.6,51.896875,492.303125,2870.6,51.896875,492.303125,2975.9,51.896875,492.303125,3084.6,51.896875,492.303125,3189.1,51.896875,492.303125,3294.4,51.896875,492.303125,3395.9,51.896875,492.303125,3500.2,51.896875,492.303125,3619,51.896875,492.303125,3722.6,51.896875,492.303125,3822.8,51.896875,492.303125,3923.8,51.896875,492.303125,4026.9,51.896875,492.303125,4131.4,51.896875,492.303125,4236.1,51.896875,492.303125,4336.4,51.896875,492.303125,4439.7,51.896875,492.303125,4543.9,51.896875,492.303125,4660.3,51.896875,492.303125,4778.4,51.896875,492.303125,4880,51.896875,492.303125,4981.3]","[1542.2,1542.2,1000,0,542.2,""smooth"",""down"",""down"",""good_move"",4312,2769.1,2082.7,1542.9,686.4,""smooth"",""down"",""down"",""good_move"",6591.4,2278.8,1440.6,4312.6,838.2,""oops"",""left"",""right"",""bad_move"",9998.2,3406.2,2923.9,6592.1,482.3,""oops"",""left"",""right"",""bad_move"",17041.2,7042.3,3037.1,13478.1,526,""oops"",""left"",""left"",""good_move"",20288.9,3247,1929.4,17042,1317.6,""smooth"",""left"",""left"",""good_move"",24009.2,3719.3,2538.6,20290,1180.7,""oops"",""left"",""left"",""good_move"",26843.1,2833.4,2284.3,24009.7,549.1,""oops"",""left"",""up"",""bad_move"",30450.3,3605.7,3004.8,26844.6,600.9,""oops"",""left"",""down"",""good_move"",33627.4,3176.2,2568.1,30451.2,608.1,""oops"",""left"",""right"",""bad_move"",36799.1,3170.1,2467.8,33629,702.3,""oops"",""left"",""left"",""good_move"",40024.8,3224.5,2232.3,36800.3,992.2,""oops"",""left"",""up"",""bad_move"",43107.7,3081.1,2193.5,40026.6,887.6,""oops"",""left"",""down"",""good_move"",46840.4,3731,3260.1,43109.5,470.8,""smooth"",""left"",""left"",""good_move""]","","",""
"6147","","<div style=""width:500px;"">
  <p>What determined the result of this run?</p>
  </div>","0","html-slider-response","79","1517312","0.0-10.0-1.7","118","1","2025-07-09 09:08:27","7701e855f2ef39aa3fd6c71abdc6918a","102.216.154.102","Mozilla/5.0 (Windows NT 10.0; Win64; x64) AppleWebKit/537.36 (KHTML, like Gecko) Chrome/138.0.0.0 Safari/537.36","WebKit","Chrome","138.0.0.0","Windows","10.0","https://app.prolific.com/","en-US,en;q=0.9","65faedca7e439b344f133fdb","686d226cabeef709c732f8e1","686e313ba555aa5acf0578cd","65faedca7e439b344f133fdb","2025-07-09T09:33:51.438Z","","","","","","AttribQ","","","","","","","","","","","","","","","","","","","","","","","","","","","","","","","","","","","","","","50",""
"4574","","<div style=""width:500px;"">
  <p>How much control did you have over the ball?</p>
  </div>","0","html-slider-response","80","1521889","0.0-10.0-2.7","118","1","2025-07-09 09:08:27","7701e855f2ef39aa3fd6c71abdc6918a","102.216.154.102","Mozilla/5.0 (Windows NT 10.0; Win64; x64) AppleWebKit/537.36 (KHTML, like Gecko) Chrome/138.0.0.0 Safari/537.36","WebKit","Chrome","138.0.0.0","Windows","10.0","https://app.prolific.com/","en-US,en;q=0.9","65faedca7e439b344f133fdb","686d226cabeef709c732f8e1","686e313ba555aa5acf0578cd","65faedca7e439b344f133fdb","2025-07-09T09:33:56.015Z","","","","","","ControlQ","","","","","","","","","","","","","","","","","","","","","","","","","","","","","","","","","","","","","","50",""
"6585","","<div style=""width:500px;"">
  <p>How would you describe your current emotional state?</p>
  </div>","70","html-slider-response","81","1528477","0.0-10.0-3.7","118","1","2025-07-09 09:08:27","7701e855f2ef39aa3fd6c71abdc6918a","102.216.154.102","Mozilla/5.0 (Windows NT 10.0; Win64; x64) AppleWebKit/537.36 (KHTML, like Gecko) Chrome/138.0.0.0 Safari/537.36","WebKit","Chrome","138.0.0.0","Windows","10.0","https://app.prolific.com/","en-US,en;q=0.9","65faedca7e439b344f133fdb","686d226cabeef709c732f8e1","686e313ba555aa5acf0578cd","65faedca7e439b344f133fdb","2025-07-09T09:34:02.603Z","","","","","","StressQ","","","","","","","","","","","","","","","","","","","","","","","","","","","","","","","","","","","","","","50",""
"5657","","<div style=""width:500px;"">
  <p>What best describes how you currently feel?</p>
  </div>","70","html-slider-response","82","1534136","0.0-10.0-4.7","118","1","2025-07-09 09:08:27","7701e855f2ef39aa3fd6c71abdc6918a","102.216.154.102","Mozilla/5.0 (Windows NT 10.0; Win64; x64) AppleWebKit/537.36 (KHTML, like Gecko) Chrome/138.0.0.0 Safari/537.36","WebKit","Chrome","138.0.0.0","Windows","10.0","https://app.prolific.com/","en-US,en;q=0.9","65faedca7e439b344f133fdb","686d226cabeef709c732f8e1","686e313ba555aa5acf0578cd","65faedca7e439b344f133fdb","2025-07-09T09:34:08.262Z","","","","","","MotivationQ","","","","","","","","","","","","","","","","","","","","","","","","","","","","","","","","","","","","","","50",""
"","","","","ctl-task-cpt","83","1607266","0.0-10.0-0.8","118","1","2025-07-09 09:08:27","7701e855f2ef39aa3fd6c71abdc6918a","102.216.154.102","Mozilla/5.0 (Windows NT 10.0; Win64; x64) AppleWebKit/537.36 (KHTML, like Gecko) Chrome/138.0.0.0 Safari/537.36","WebKit","Chrome","138.0.0.0","Windows","10.0","https://app.prolific.com/","en-US,en;q=0.9","65faedca7e439b344f133fdb","686d226cabeef709c732f8e1","686e313ba555aa5acf0578cd","65faedca7e439b344f133fdb","2025-07-09T09:35:21.392Z","","","","","","","","","","","","","","","","win-only","0","g1:NW,g2:SE","0.2","9","0","1540916.5","2467.3","7488.9","70084.1","1","4","8","6","1","1","0","10","10","0.07575757575757576","3112.7","3000","875","[""left"",""up""]","{""num_key_presses"":15,""num_perfect"":2,""num_errors"":1,""num_randdir"":12,""num_randdir_good_moves"":7,""num_whilered"":0,""num_whileblue"":0,""num_blue"":2,""num_good_moves"":9}","[259.896875,260.303125,1,259.896875,260.303125,103.5,259.896875,260.303125,222.4,259.896875,260.303125,324.4,259.896875,260.303125,432.8,259.896875,260.303125,537.5,259.896875,260.303125,639.5,259.896875,260.303125,762.9,259.896875,260.303125,884.5,259.896875,260.303125,1012.5,259.896875,260.303125,1140.6,259.896875,260.303125,1264.8,259.896875,260.303125,1383.9,254.896875,255.303125,1512.5,176.896875,170.303125,1619.5,165.896875,126.303125,1720.4,151.896875,75.303125,1826.8,144.896875,63.303125,1929.1,144.896875,63.303125,2039.9,141.896875,63.303125,2158.9,66.896875,63.303125,2278.4,46.896875,59.303125,2401.8,46.896875,58.303125,2528.3,49.896875,55.303125,2628.6,49.896875,55.303125,2759.1,49.896875,55.303125,2891.8,49.896875,55.303125,2992.5,49.896875,55.303125,3093.6,49.896875,55.303125,3227.3,49.896875,55.303125,3343.6,49.896875,55.303125,3473.5,49.896875,55.303125,3607.9,49.896875,55.303125,3737,49.896875,55.303125,3861.6,49.896875,55.303125,3986,49.896875,55.303125,4114.3,49.896875,55.303125,4239.6,49.896875,55.303125,4363.6,49.896875,55.303125,4486.5,49.896875,55.303125,4609.3,49.896875,55.303125,4738.2,49.896875,55.303125,4859.8,49.896875,55.303125,4989.1]","[1479.9,1480,1000,0,480,""oops"",""up"",""right"",""bad_move"",5031.8,3551.2,3131.7,1480.6,419.5,""oops"",""up"",""left"",""good_move"",8319.2,3285.8,2470.3,5033.6,815.3,""oops"",""up"",""down"",""bad_move"",11711.8,3392,2957.5,8319.9,434.5,""smooth"",""up"",""up"",""good_move"",15386.1,3672.7,2471.6,11713.4,1201.1,""smooth"",""up"",""up"",""good_move"",22936,7548.4,2486.8,19946.2,503.1,""oops"",""up"",""right"",""bad_move"",26408,3469,2842,22939,627,""oops"",""up"",""down"",""bad_move"",29622.3,3213.7,1856.5,26408.6,1357.2,""oops"",""up"",""left"",""good_move"",35071.3,5448.6,2165.7,29622.7,3282.9,""oops"",""up"",""left"",""good_move"",38981.5,3909.5,2418.8,35072,1490.7,""error"",""-"",""-"",""no_move"",42519.2,3536.7,1935.4,40002.6,581.2,""oops"",""up"",""right"",""bad_move"",46488.6,3968.3,3188,42520.4,780.2,""oops"",""up"",""left"",""good_move"",55411.1,8921.8,2791.8,52099,520.3,""oops"",""up"",""up"",""good_move"",58459.6,3047.1,2458.1,55412.5,589,""oops"",""up"",""up"",""good_move"",62213.3,3751.9,2302.5,58461.5,1449.4,""oops"",""left"",""left"",""good_move""]","","",""
"6148","","<div style=""width:500px;"">
  <p>What determined the result of this run?</p>
  </div>","12","html-slider-response","84","1613418","0.0-10.0-1.8","118","1","2025-07-09 09:08:27","7701e855f2ef39aa3fd6c71abdc6918a","102.216.154.102","Mozilla/5.0 (Windows NT 10.0; Win64; x64) AppleWebKit/537.36 (KHTML, like Gecko) Chrome/138.0.0.0 Safari/537.36","WebKit","Chrome","138.0.0.0","Windows","10.0","https://app.prolific.com/","en-US,en;q=0.9","65faedca7e439b344f133fdb","686d226cabeef709c732f8e1","686e313ba555aa5acf0578cd","65faedca7e439b344f133fdb","2025-07-09T09:35:27.544Z","","","","","","AttribQ","","","","","","","","","","","","","","","","","","","","","","","","","","","","","","","","","","","","","","50",""
"3521","","<div style=""width:500px;"">
  <p>How much control did you have over the ball?</p>
  </div>","21","html-slider-response","85","1616941","0.0-10.0-2.8","118","1","2025-07-09 09:08:27","7701e855f2ef39aa3fd6c71abdc6918a","102.216.154.102","Mozilla/5.0 (Windows NT 10.0; Win64; x64) AppleWebKit/537.36 (KHTML, like Gecko) Chrome/138.0.0.0 Safari/537.36","WebKit","Chrome","138.0.0.0","Windows","10.0","https://app.prolific.com/","en-US,en;q=0.9","65faedca7e439b344f133fdb","686d226cabeef709c732f8e1","686e313ba555aa5acf0578cd","65faedca7e439b344f133fdb","2025-07-09T09:35:31.067Z","","","","","","ControlQ","","","","","","","","","","","","","","","","","","","","","","","","","","","","","","","","","","","","","","50",""
"4157","","<div style=""width:500px;"">
  <p>How would you describe your current emotional state?</p>
  </div>","71","html-slider-response","86","1621102","0.0-10.0-3.8","118","1","2025-07-09 09:08:27","7701e855f2ef39aa3fd6c71abdc6918a","102.216.154.102","Mozilla/5.0 (Windows NT 10.0; Win64; x64) AppleWebKit/537.36 (KHTML, like Gecko) Chrome/138.0.0.0 Safari/537.36","WebKit","Chrome","138.0.0.0","Windows","10.0","https://app.prolific.com/","en-US,en;q=0.9","65faedca7e439b344f133fdb","686d226cabeef709c732f8e1","686e313ba555aa5acf0578cd","65faedca7e439b344f133fdb","2025-07-09T09:35:35.228Z","","","","","","StressQ","","","","","","","","","","","","","","","","","","","","","","","","","","","","","","","","","","","","","","50",""
"4682","","<div style=""width:500px;"">
  <p>What best describes how you currently feel?</p>
  </div>","69","html-slider-response","87","1625786","0.0-10.0-4.8","118","1","2025-07-09 09:08:27","7701e855f2ef39aa3fd6c71abdc6918a","102.216.154.102","Mozilla/5.0 (Windows NT 10.0; Win64; x64) AppleWebKit/537.36 (KHTML, like Gecko) Chrome/138.0.0.0 Safari/537.36","WebKit","Chrome","138.0.0.0","Windows","10.0","https://app.prolific.com/","en-US,en;q=0.9","65faedca7e439b344f133fdb","686d226cabeef709c732f8e1","686e313ba555aa5acf0578cd","65faedca7e439b344f133fdb","2025-07-09T09:35:39.912Z","","","","","","MotivationQ","","","","","","","","","","","","","","","","","","","","","","","","","","","","","","","","","","","","","","50",""
"","","","","ctl-task-cpt","88","1660664","0.0-10.0-0.9","118","1","2025-07-09 09:08:27","7701e855f2ef39aa3fd6c71abdc6918a","102.216.154.102","Mozilla/5.0 (Windows NT 10.0; Win64; x64) AppleWebKit/537.36 (KHTML, like Gecko) Chrome/138.0.0.0 Safari/537.36","WebKit","Chrome","138.0.0.0","Windows","10.0","https://app.prolific.com/","en-US,en;q=0.9","65faedca7e439b344f133fdb","686d226cabeef709c732f8e1","686e313ba555aa5acf0578cd","65faedca7e439b344f133fdb","2025-07-09T09:36:14.790Z","","","","","","","","","","","","","","","","win-only","1","g1:NE,g2:SW","0.4","10","0","1632567.5","2356.1","7371.4","31825.6","1","4","4","6","1","-1","-1","9","10","0.06818181818181818","3532.8","3000","-405","[""up"",""right""]","{""num_key_presses"":1,""num_perfect"":1,""num_errors"":0,""num_randdir"":0,""num_randdir_good_moves"":0,""num_whilered"":0,""num_whileblue"":0,""num_blue"":0,""num_good_moves"":1}","[265.896875,262.303125,0.4,265.896875,262.303125,123.8,265.896875,262.303125,245.9,265.896875,262.303125,362.5,265.896875,262.303125,485.3,265.896875,262.303125,593,265.896875,262.303125,715.3,265.896875,262.303125,824.8,265.896875,262.303125,941.2,265.896875,262.303125,1060.2,265.896875,262.303125,1179.5,265.896875,262.303125,1282.4,265.896875,262.303125,1384,379.896875,84.303125,1493.7,455.896875,-4.696874999999999,1615.7,455.896875,-4.696874999999999,1719.6,455.896875,-4.696874999999999,1838.4,455.896875,-4.696874999999999,1940.7,455.896875,-4.696874999999999,2070.1,455.896875,-4.696874999999999,2192.9,455.896875,-4.696874999999999,2315.8,455.896875,-4.696874999999999,2433.9,455.896875,-4.696874999999999,2539.1,465.896875,-7.696874999999999,2649.8,481.896875,0.3031250000000014,2754.6,484.896875,18.303125,2865.2,477.896875,38.303125,2976.3,475.896875,45.303125,3084.3,475.896875,46.303125,3185.9,475.896875,46.303125,3287.6,475.896875,46.303125,3401.8,475.896875,47.303125,3530.9,475.896875,47.303125,3639.6,475.896875,47.303125,3759.4,475.896875,47.303125,3883.7,475.896875,47.303125,3985.4,475.896875,47.303125,4088.1,475.896875,47.303125,4189.7,475.896875,47.303125,4311,475.896875,47.303125,4413.7,475.896875,47.303125,4533.2,475.896875,47.303125,4656.2,475.896875,47.303125,4774.2,475.896875,47.303125,4893.9]","[1614.3,1614.3,1000,0.1,614.2,""smooth"",""right"",""right"",""good_move""]","","",""
"6733","","<div style=""width:500px;"">
  <p>What determined the result of this run?</p>
  </div>","81","html-slider-response","89","1667401","0.0-10.0-1.9","118","1","2025-07-09 09:08:27","7701e855f2ef39aa3fd6c71abdc6918a","102.216.154.102","Mozilla/5.0 (Windows NT 10.0; Win64; x64) AppleWebKit/537.36 (KHTML, like Gecko) Chrome/138.0.0.0 Safari/537.36","WebKit","Chrome","138.0.0.0","Windows","10.0","https://app.prolific.com/","en-US,en;q=0.9","65faedca7e439b344f133fdb","686d226cabeef709c732f8e1","686e313ba555aa5acf0578cd","65faedca7e439b344f133fdb","2025-07-09T09:36:21.527Z","","","","","","AttribQ","","","","","","","","","","","","","","","","","","","","","","","","","","","","","","","","","","","","","","50",""
"4561","","<div style=""width:500px;"">
  <p>How much control did you have over the ball?</p>
  </div>","0","html-slider-response","90","1671969","0.0-10.0-2.9","118","1","2025-07-09 09:08:27","7701e855f2ef39aa3fd6c71abdc6918a","102.216.154.102","Mozilla/5.0 (Windows NT 10.0; Win64; x64) AppleWebKit/537.36 (KHTML, like Gecko) Chrome/138.0.0.0 Safari/537.36","WebKit","Chrome","138.0.0.0","Windows","10.0","https://app.prolific.com/","en-US,en;q=0.9","65faedca7e439b344f133fdb","686d226cabeef709c732f8e1","686e313ba555aa5acf0578cd","65faedca7e439b344f133fdb","2025-07-09T09:36:26.095Z","","","","","","ControlQ","","","","","","","","","","","","","","","","","","","","","","","","","","","","","","","","","","","","","","50",""
"7830","","<div style=""width:500px;"">
  <p>How would you describe your current emotional state?</p>
  </div>","26","html-slider-response","91","1679805","0.0-10.0-3.9","118","1","2025-07-09 09:08:27","7701e855f2ef39aa3fd6c71abdc6918a","102.216.154.102","Mozilla/5.0 (Windows NT 10.0; Win64; x64) AppleWebKit/537.36 (KHTML, like Gecko) Chrome/138.0.0.0 Safari/537.36","WebKit","Chrome","138.0.0.0","Windows","10.0","https://app.prolific.com/","en-US,en;q=0.9","65faedca7e439b344f133fdb","686d226cabeef709c732f8e1","686e313ba555aa5acf0578cd","65faedca7e439b344f133fdb","2025-07-09T09:36:33.931Z","","","","","","StressQ","","","","","","","","","","","","","","","","","","","","","","","","","","","","","","","","","","","","","","50",""
"5085","","<div style=""width:500px;"">
  <p>What best describes how you currently feel?</p>
  </div>","0","html-slider-response","92","1684893","0.0-10.0-4.9","118","1","2025-07-09 09:08:27","7701e855f2ef39aa3fd6c71abdc6918a","102.216.154.102","Mozilla/5.0 (Windows NT 10.0; Win64; x64) AppleWebKit/537.36 (KHTML, like Gecko) Chrome/138.0.0.0 Safari/537.36","WebKit","Chrome","138.0.0.0","Windows","10.0","https://app.prolific.com/","en-US,en;q=0.9","65faedca7e439b344f133fdb","686d226cabeef709c732f8e1","686e313ba555aa5acf0578cd","65faedca7e439b344f133fdb","2025-07-09T09:36:39.019Z","","","","","","MotivationQ","","","","","","","","","","","","","","","","","","","","","","","","","","","","","","","","","","","","","","50",""
