"rt","response_timestamp","stimulus","response","trial_type","trial_index","time_elapsed","internal_node_id","run_id","condition","recorded_at","source_code_version","ip","user_agent","device","browser","browser_version","platform","platform_version","referer","accept_language","PROLIFIC_PID","STUDY_ID","SESSION_ID","prolific_id","realtime","view_history","question_order","consent","success","question_id","eventType","responses","item_order","radio_event_ids","radio_event_times","key_event_times","mouse_event_times","straightlining","zigzagging","honeypot","which_type","canvas_config","goals_layout","control_level","trial_number","tutorial_trial_number","trial_start_time","phase1_start_time","phase2_start_time","phase3_start_time","goal_1_value","goal_1_distance","goal_2_value","goal_2_distance","goal_selected","outcome","outcome_total","participant_final_score","participant_initial_score","participant_final_score_prop","goal_choice_rt","allocated_time","allocated_time_remaining","goal_direction","counts","mouse_movements","key_presses","correct","slider_start"
"6079","1751451524146","<p style='font-size:40px;line-height:1.25'><strong>Welcome to the experiment!</strong></p><p style='font-size:1.1em;line-height:1.25'>Thank you for your interest in our experiment! Before you begin, it is important that we obtain your informed consent to participate in the study.</p><p style='font-size:1.1em;line-height:1.25'>On the next screen will be an <strong>information sheet</strong> for you to read. To participate in the study we need you to read this information sheet and the following consent form carefully. If you agree with all the statements, please click the <strong>I agree</strong> button.</p><p style='font-size:1.1em;line-height:1.25'>Press <strong>Next</strong> to read the information sheet.</p>","0","custom-html-button-response","0","6081","0.0-0.0","33","1","2025-07-02 10:18:37","80fe4187154257d5fb01684ea91b68b9","82.18.178.101","Mozilla/5.0 (Windows NT 10.0; Win64; x64) AppleWebKit/537.36 (KHTML, like Gecko) Chrome/138.0.0.0 Safari/537.36","WebKit","Chrome","138.0.0.0","Windows","10.0","https://app.prolific.com/","en-GB,en-US;q=0.9,en;q=0.8","5731e2e45b8b06000f7e3671","683db6dfa200031b80f2a654","686507749a8c38b05e7ceee3","5731e2e45b8b06000f7e3671","2025-07-02T10:18:44.147Z","","","","","","","","","","","","","","","","","","","","","","","","","","","","","","","","","","","","","","","","","","","",""
"62974","","","","instructions","1","69056","0.0-1.0","33","1","2025-07-02 10:18:37","80fe4187154257d5fb01684ea91b68b9","82.18.178.101","Mozilla/5.0 (Windows NT 10.0; Win64; x64) AppleWebKit/537.36 (KHTML, like Gecko) Chrome/138.0.0.0 Safari/537.36","WebKit","Chrome","138.0.0.0","Windows","10.0","https://app.prolific.com/","en-GB,en-US;q=0.9,en;q=0.8","5731e2e45b8b06000f7e3671","683db6dfa200031b80f2a654","686507749a8c38b05e7ceee3","5731e2e45b8b06000f7e3671","","[{""page_index"":0,""viewing_time"":43655},{""page_index"":1,""viewing_time"":19320}]","","","","","","","","","","","","","","","","","","","","","","","","","","","","","","","","","","","","","","","","","","",""
"8352","","","{""Q0"":"""",""Q1"":"""",""Q2"":"""",""Q3"":"""",""Q4"":"""",""Q5"":"""",""Q6"":""I agree""}","survey-multi-choice","2","77409","0.0-2.0","33","1","2025-07-02 10:18:37","80fe4187154257d5fb01684ea91b68b9","82.18.178.101","Mozilla/5.0 (Windows NT 10.0; Win64; x64) AppleWebKit/537.36 (KHTML, like Gecko) Chrome/138.0.0.0 Safari/537.36","WebKit","Chrome","138.0.0.0","Windows","10.0","https://app.prolific.com/","en-GB,en-US;q=0.9,en;q=0.8","5731e2e45b8b06000f7e3671","683db6dfa200031b80f2a654","686507749a8c38b05e7ceee3","5731e2e45b8b06000f7e3671","","","[0,1,2,3,4,5,6]","true","","","","","","","","","","","","","","","","","","","","","","","","","","","","","","","","","","","","","","","","",""
"6638","","","","fullscreen","3","85057","0.0-4.0","33","1","2025-07-02 10:18:37","80fe4187154257d5fb01684ea91b68b9","82.18.178.101","Mozilla/5.0 (Windows NT 10.0; Win64; x64) AppleWebKit/537.36 (KHTML, like Gecko) Chrome/138.0.0.0 Safari/537.36","WebKit","Chrome","138.0.0.0","Windows","10.0","https://app.prolific.com/","en-GB,en-US;q=0.9,en;q=0.8","5731e2e45b8b06000f7e3671","683db6dfa200031b80f2a654","686507749a8c38b05e7ceee3","5731e2e45b8b06000f7e3671","","","","","true","","","","","","","","","","","","","","","","","","","","","","","","","","","","","","","","","","","","","","","",""
"4734","1751451607858"," <p style='font-size:1.1em;line-height:1.25'>Thank you for completing the consent form and closing all other tabs.</p><p style='font-size:1.1em;line-height:1.25'>We will now invite you to fill in some demographic information and questionnaires, before starting the game.<br>This will take about 5 minutes.<br></p><p style='font-size:1.1em;line-height:1.25'>Press the <strong>Next</strong> button to continue.</p>","0","custom-html-button-response","4","89792","0.0-5.0","33","1","2025-07-02 10:18:37","80fe4187154257d5fb01684ea91b68b9","82.18.178.101","Mozilla/5.0 (Windows NT 10.0; Win64; x64) AppleWebKit/537.36 (KHTML, like Gecko) Chrome/138.0.0.0 Safari/537.36","WebKit","Chrome","138.0.0.0","Windows","10.0","https://app.prolific.com/","en-GB,en-US;q=0.9,en;q=0.8","5731e2e45b8b06000f7e3671","683db6dfa200031b80f2a654","686507749a8c38b05e7ceee3","5731e2e45b8b06000f7e3671","2025-07-02T10:20:07.858Z","","","","","","","","","","","","","","","","","","","","","","","","","","","","","","","","","","","","","","","","","","","",""
"2743","","","{""age"":""35""}","survey-text","5","92536","0.0-6.0-0.0","33","1","2025-07-02 10:18:37","80fe4187154257d5fb01684ea91b68b9","82.18.178.101","Mozilla/5.0 (Windows NT 10.0; Win64; x64) AppleWebKit/537.36 (KHTML, like Gecko) Chrome/138.0.0.0 Safari/537.36","WebKit","Chrome","138.0.0.0","Windows","10.0","https://app.prolific.com/","en-GB,en-US;q=0.9,en;q=0.8","5731e2e45b8b06000f7e3671","683db6dfa200031b80f2a654","686507749a8c38b05e7ceee3","5731e2e45b8b06000f7e3671","","","","","","0","demographics","","","","","","","","","","","","","","","","","","","","","","","","","","","","","","","","","","","","","",""
"3888","","","{""gender_identity"":""male/man""}","survey-multi-choice","6","96424","0.0-6.0-1.0","33","1","2025-07-02 10:18:37","80fe4187154257d5fb01684ea91b68b9","82.18.178.101","Mozilla/5.0 (Windows NT 10.0; Win64; x64) AppleWebKit/537.36 (KHTML, like Gecko) Chrome/138.0.0.0 Safari/537.36","WebKit","Chrome","138.0.0.0","Windows","10.0","https://app.prolific.com/","en-GB,en-US;q=0.9,en;q=0.8","5731e2e45b8b06000f7e3671","683db6dfa200031b80f2a654","686507749a8c38b05e7ceee3","5731e2e45b8b06000f7e3671","","","[0]","","","1","demographics","","","","","","","","","","","","","","","","","","","","","","","","","","","","","","","","","","","","","",""
"4015","","","{""assigned_sex"":""male""}","survey-multi-choice","7","100440","0.0-6.0-2.0","33","1","2025-07-02 10:18:37","80fe4187154257d5fb01684ea91b68b9","82.18.178.101","Mozilla/5.0 (Windows NT 10.0; Win64; x64) AppleWebKit/537.36 (KHTML, like Gecko) Chrome/138.0.0.0 Safari/537.36","WebKit","Chrome","138.0.0.0","Windows","10.0","https://app.prolific.com/","en-GB,en-US;q=0.9,en;q=0.8","5731e2e45b8b06000f7e3671","683db6dfa200031b80f2a654","686507749a8c38b05e7ceee3","5731e2e45b8b06000f7e3671","","","[0]","","","2","demographics","","","","","","","","","","","","","","","","","","","","","","","","","","","","","","","","","","","","","",""
"3448","","","{""menstrual_cycle"":""No""}","survey-multi-choice","8","103888","0.0-6.0-3.0","33","1","2025-07-02 10:18:37","80fe4187154257d5fb01684ea91b68b9","82.18.178.101","Mozilla/5.0 (Windows NT 10.0; Win64; x64) AppleWebKit/537.36 (KHTML, like Gecko) Chrome/138.0.0.0 Safari/537.36","WebKit","Chrome","138.0.0.0","Windows","10.0","https://app.prolific.com/","en-GB,en-US;q=0.9,en;q=0.8","5731e2e45b8b06000f7e3671","683db6dfa200031b80f2a654","686507749a8c38b05e7ceee3","5731e2e45b8b06000f7e3671","","","[0]","","","4","demographics","","","","","","","","","","","","","","","","","","","","","","","","","","","","","","","","","","","","","",""
"6768","","","{""education"":""GCSE/Standard Grades""}","survey-multi-choice","9","110657","0.0-6.0-4.0","33","1","2025-07-02 10:18:37","80fe4187154257d5fb01684ea91b68b9","82.18.178.101","Mozilla/5.0 (Windows NT 10.0; Win64; x64) AppleWebKit/537.36 (KHTML, like Gecko) Chrome/138.0.0.0 Safari/537.36","WebKit","Chrome","138.0.0.0","Windows","10.0","https://app.prolific.com/","en-GB,en-US;q=0.9,en;q=0.8","5731e2e45b8b06000f7e3671","683db6dfa200031b80f2a654","686507749a8c38b05e7ceee3","5731e2e45b8b06000f7e3671","","","[0]","","","5","demographics","","","","","","","","","","","","","","","","","","","","","","","","","","","","","","","","","","","","","",""
"7695","","","{""education"":""GCSE/Standard Grades""}","survey-multi-choice","10","118353","0.0-6.0-5.0","33","1","2025-07-02 10:18:37","80fe4187154257d5fb01684ea91b68b9","82.18.178.101","Mozilla/5.0 (Windows NT 10.0; Win64; x64) AppleWebKit/537.36 (KHTML, like Gecko) Chrome/138.0.0.0 Safari/537.36","WebKit","Chrome","138.0.0.0","Windows","10.0","https://app.prolific.com/","en-GB,en-US;q=0.9,en;q=0.8","5731e2e45b8b06000f7e3671","683db6dfa200031b80f2a654","686507749a8c38b05e7ceee3","5731e2e45b8b06000f7e3671","2025-07-02T10:20:36.419Z","","[0]","","","6","demographics","","","","","","","","","","","","","","","","","","","","","","","","","","","","","","","","","","","","","",""
"50094","","","{""mental_health_condition"":""Depression, Anxiety"",""mental_health_treatment"":""No"",""psychiatric_medication"":""N/A""}","survey-text","11","168448","0.0-7.0-0.0","33","1","2025-07-02 10:18:37","80fe4187154257d5fb01684ea91b68b9","82.18.178.101","Mozilla/5.0 (Windows NT 10.0; Win64; x64) AppleWebKit/537.36 (KHTML, like Gecko) Chrome/138.0.0.0 Safari/537.36","WebKit","Chrome","138.0.0.0","Windows","10.0","https://app.prolific.com/","en-GB,en-US;q=0.9,en;q=0.8","5731e2e45b8b06000f7e3671","683db6dfa200031b80f2a654","686507749a8c38b05e7ceee3","5731e2e45b8b06000f7e3671","2025-07-02T10:21:26.514Z","","","","","1","mental_health","","","","","","","","","","","","","","","","","","","","","","","","","","","","","","","","","","","","","",""
"9471","","","{""depression_history"":[""Yes""]}","survey-multi-select","12","177920","0.0-7.0-1.0","33","1","2025-07-02 10:18:37","80fe4187154257d5fb01684ea91b68b9","82.18.178.101","Mozilla/5.0 (Windows NT 10.0; Win64; x64) AppleWebKit/537.36 (KHTML, like Gecko) Chrome/138.0.0.0 Safari/537.36","WebKit","Chrome","138.0.0.0","Windows","10.0","https://app.prolific.com/","en-GB,en-US;q=0.9,en;q=0.8","5731e2e45b8b06000f7e3671","683db6dfa200031b80f2a654","686507749a8c38b05e7ceee3","5731e2e45b8b06000f7e3671","","","[0]","","","","mental_health","","","","","","","","","","","","","","","","","","","","","","","","","","","","","","","","","","","","","",""
"16567","","","{""depression_episodes"":""more than 5"",""depression_recent"":""Within the past year""}","survey-multi-choice","13","194489","0.0-7.0-2.0-0.0","33","1","2025-07-02 10:18:37","80fe4187154257d5fb01684ea91b68b9","82.18.178.101","Mozilla/5.0 (Windows NT 10.0; Win64; x64) AppleWebKit/537.36 (KHTML, like Gecko) Chrome/138.0.0.0 Safari/537.36","WebKit","Chrome","138.0.0.0","Windows","10.0","https://app.prolific.com/","en-GB,en-US;q=0.9,en;q=0.8","5731e2e45b8b06000f7e3671","683db6dfa200031b80f2a654","686507749a8c38b05e7ceee3","5731e2e45b8b06000f7e3671","2025-07-02T10:21:52.555Z","","[0,1]","","","3","mental_health","","","","","","","","","","","","","","","","","","","","","","","","","","","","","","","","","","","","","",""
"73135.90000000037","","","","survey-template","14","267626","0.0-7.0-3.0","33","1","2025-07-02 10:18:37","80fe4187154257d5fb01684ea91b68b9","82.18.178.101","Mozilla/5.0 (Windows NT 10.0; Win64; x64) AppleWebKit/537.36 (KHTML, like Gecko) Chrome/138.0.0.0 Safari/537.36","WebKit","Chrome","138.0.0.0","Windows","10.0","https://app.prolific.com/","en-GB,en-US;q=0.9,en;q=0.8","5731e2e45b8b06000f7e3671","683db6dfa200031b80f2a654","686507749a8c38b05e7ceee3","5731e2e45b8b06000f7e3671","2025-07-02T10:23:05.692Z","","","","","","ius","{""Q01"":""2"",""Q02"":""3"",""Q03"":""0"",""Q04"":""2"",""Q05"":""1"",""Q06"":""1"",""Q07"":""1"",""Q08"":""0"",""Q09"":""2"",""Q10"":""2"",""Q11"":""3"",""Q12"":""3"",""Q13"":""1""}","[0,1,2,3,4,5,6,7,8,9,10,11,12]","[""Q01"",""Q02"",""Q03"",""Q04"",""Q05"",""Q06"",""Q07"",""Q08"",""Q09"",""Q10"",""Q11"",""Q12"",""Q13""]","[3334,6390,14397.900000000373,18830,23725.700000000186,28830,34725.90000000037,36189.700000000186,47661.700000000186,50437.700000000186,57885.799999999814,63158.40000000037,65845.90000000037]","[]","[3334,5894,6390,9934.100000000559,14397.900000000373,18830,22214.10000000056,23725.700000000186,27933.900000000373,28550.700000000186,28830,34725.90000000037,36189.700000000186,47221.90000000037,47661.700000000186,50437.700000000186,57573.90000000037,57885.799999999814,63158.40000000037,65845.90000000037,73133.90000000037]","0.3076923076923077","0.3333333333333333","0","","","","","","","","","","","","","","","","","","","","","","","","","","","","",""
"2749","1751451788442","<p style='font-size:1.1em;line-height:1.25'>In the following, we will ask you a few questions relating to your experiences over the past month.<br></p><p style='font-size:1.1em;line-height:1.25'>Press the <strong>Next</strong> button to continue.</p>","0","custom-html-button-response","15","270376","0.0-7.0-4.0","33","1","2025-07-02 10:18:37","80fe4187154257d5fb01684ea91b68b9","82.18.178.101","Mozilla/5.0 (Windows NT 10.0; Win64; x64) AppleWebKit/537.36 (KHTML, like Gecko) Chrome/138.0.0.0 Safari/537.36","WebKit","Chrome","138.0.0.0","Windows","10.0","https://app.prolific.com/","en-GB,en-US;q=0.9,en;q=0.8","5731e2e45b8b06000f7e3671","683db6dfa200031b80f2a654","686507749a8c38b05e7ceee3","5731e2e45b8b06000f7e3671","2025-07-02T10:23:08.442Z","","","","","","","","","","","","","","","","","","","","","","","","","","","","","","","","","","","","","","","","","","","",""
"79328.90000000037","","","","survey-template","16","349706","0.0-7.0-5.0","33","1","2025-07-02 10:18:37","80fe4187154257d5fb01684ea91b68b9","82.18.178.101","Mozilla/5.0 (Windows NT 10.0; Win64; x64) AppleWebKit/537.36 (KHTML, like Gecko) Chrome/138.0.0.0 Safari/537.36","WebKit","Chrome","138.0.0.0","Windows","10.0","https://app.prolific.com/","en-GB,en-US;q=0.9,en;q=0.8","5731e2e45b8b06000f7e3671","683db6dfa200031b80f2a654","686507749a8c38b05e7ceee3","5731e2e45b8b06000f7e3671","2025-07-02T10:24:27.772Z","","","","","","pss","{""Q01"":""2"",""Q02"":""4"",""Q03"":""3"",""Q04"":""4"",""Q05"":""3"",""Q06"":""3"",""Q07"":""2"",""Q08"":""4"",""Q09"":""2"",""Q10"":""4""}","[0,1,2,3,4,5,6,7,8,9]","[""Q01"",""Q02"",""Q03"",""Q04"",""Q05"",""Q06"",""Q07"",""Q08"",""Q09"",""Q10""]","[7543.100000000559,13062.900000000373,16078.900000000373,20151.10000000056,28999.10000000056,37847,53278.800000000745,56623.10000000056,65575,70199]","[]","[0,7543.100000000559,12719.200000000186,13062.900000000373,15646.600000000559,16078.900000000373,20151.10000000056,28623.10000000056,28999.10000000056,37486.90000000037,37847,52887,53278.800000000745,56239.10000000056,56623.10000000056,65190.700000000186,65575,70199,79327]","0.3","0.3333333333333333","0","","","","","","","","","","","","","","","","","","","","","","","","","","","","",""
"2693","1751451870466","<p style='font-size:1.1em;line-height:1.25'>Thank you for your answers! Now we will ask you a few more questions relating to your feelings in the last 24 hours.<br></p><p style='font-size:1.1em;line-height:1.25'>Press the <strong>Next</strong> button to continue.</p>","0","custom-html-button-response","17","352400","0.0-7.0-6.0","33","1","2025-07-02 10:18:37","80fe4187154257d5fb01684ea91b68b9","82.18.178.101","Mozilla/5.0 (Windows NT 10.0; Win64; x64) AppleWebKit/537.36 (KHTML, like Gecko) Chrome/138.0.0.0 Safari/537.36","WebKit","Chrome","138.0.0.0","Windows","10.0","https://app.prolific.com/","en-GB,en-US;q=0.9,en;q=0.8","5731e2e45b8b06000f7e3671","683db6dfa200031b80f2a654","686507749a8c38b05e7ceee3","5731e2e45b8b06000f7e3671","2025-07-02T10:24:30.466Z","","","","","","","","","","","","","","","","","","","","","","","","","","","","","","","","","","","","","","","","","","","",""
"124169.90000000037","","","","survey-template","18","476572","0.0-7.0-7.0","33","1","2025-07-02 10:18:37","80fe4187154257d5fb01684ea91b68b9","82.18.178.101","Mozilla/5.0 (Windows NT 10.0; Win64; x64) AppleWebKit/537.36 (KHTML, like Gecko) Chrome/138.0.0.0 Safari/537.36","WebKit","Chrome","138.0.0.0","Windows","10.0","https://app.prolific.com/","en-GB,en-US;q=0.9,en;q=0.8","5731e2e45b8b06000f7e3671","683db6dfa200031b80f2a654","686507749a8c38b05e7ceee3","5731e2e45b8b06000f7e3671","2025-07-02T10:26:34.638Z","","","","","","drsp","{""Q01"":""3"",""Q02"":""4"",""Q03"":""4"",""Q04"":""3"",""Q05"":""1"",""Q06"":""0"",""Q07"":""1"",""Q08"":""0"",""Q09"":""2"",""Q10"":""0"",""Q11"":""5"",""Q12"":""0"",""Q13"":""0"",""Q14"":""0"",""Q15"":""4"",""Q16"":""2"",""Q17"":""2"",""Q18"":""4"",""Q19"":""3"",""Q20"":""2"",""Q21"":""0""}","[0,1,2,3,4,5,6,7,8,9,10,11,12,13,14,15,16,17,18,19,20]","[""Q01"",""Q02"",""Q01"",""Q03"",""Q04"",""Q05"",""Q06"",""Q06"",""Q07"",""Q02"",""Q08"",""Q09"",""Q10"",""Q11"",""Q12"",""Q13"",""Q14"",""Q15"",""Q16"",""Q17"",""Q18"",""Q18"",""Q19"",""Q20"",""Q21"",""Q20"",""Q16"",""Q15""]","[4006.5,8030.700000000186,9078.700000000186,11790.5,16086.599999999627,17334.700000000186,20414.700000000186,21166.400000000373,30750.700000000186,35182.700000000186,38934.40000000037,41702.59999999963,44262.59999999963,48190.09999999963,50438.59999999963,52094.40000000037,55062.700000000186,57742.5,61350.59999999963,65974.29999999981,71646.5,78390.20000000019,85094.5,92334.59999999963,97830.29999999981,104606.5,113686.29999999981,121358.59999999963]","[]","[0,4006.5,5934.700000000186,6518.4000000003725,7510.5,8030.700000000186,8710.599999999627,9078.700000000186,11790.5,16086.599999999627,17334.700000000186,20414.700000000186,21166.400000000373,30366.700000000186,30750.700000000186,35182.700000000186,38934.40000000037,41702.59999999963,44262.59999999963,47046.5,47478.5,47918.59999999963,48190.09999999963,50438.59999999963,52094.40000000037,55062.700000000186,57742.5,61350.59999999963,65974.29999999981,71646.5,78390.20000000019,85094.5,86622.5,92334.59999999963,97830.29999999981,104606.5,112662.59999999963,113214.5,113686.29999999981,120838.5,121358.59999999963,124166.90000000037]","0.3333333333333333","0.45","0","","","","","","","","","","","","","","","","","","","","","","","","","","","","",""
"23531.400000000373","","","","survey-template","19","500104","0.0-7.0-8.0","33","1","2025-07-02 10:18:37","80fe4187154257d5fb01684ea91b68b9","82.18.178.101","Mozilla/5.0 (Windows NT 10.0; Win64; x64) AppleWebKit/537.36 (KHTML, like Gecko) Chrome/138.0.0.0 Safari/537.36","WebKit","Chrome","138.0.0.0","Windows","10.0","https://app.prolific.com/","en-GB,en-US;q=0.9,en;q=0.8","5731e2e45b8b06000f7e3671","683db6dfa200031b80f2a654","686507749a8c38b05e7ceee3","5731e2e45b8b06000f7e3671","2025-07-02T10:26:58.170Z","","","","","","stress","{""Q01"":""4"",""Q02"":""5"",""Q03"":""2""}","[0,1,2]","[""Q01"",""Q02"",""Q03""]","[5578.9000000003725,10250.900000000373,14970.599999999627]","[]","[5250.9000000003725,5578.9000000003725,10250.900000000373,14970.599999999627,23530.700000000186]","0.3333333333333333","0","0","","","","","","","","","","","","","","","","","","","","","","","","","","","","",""
"53175","","","","instructions","20","553280","0.0-8.0-0.0","33","1","2025-07-02 10:18:37","80fe4187154257d5fb01684ea91b68b9","82.18.178.101","Mozilla/5.0 (Windows NT 10.0; Win64; x64) AppleWebKit/537.36 (KHTML, like Gecko) Chrome/138.0.0.0 Safari/537.36","WebKit","Chrome","138.0.0.0","Windows","10.0","https://app.prolific.com/","en-GB,en-US;q=0.9,en;q=0.8","5731e2e45b8b06000f7e3671","683db6dfa200031b80f2a654","686507749a8c38b05e7ceee3","5731e2e45b8b06000f7e3671","","[{""page_index"":0,""viewing_time"":14775},{""page_index"":1,""viewing_time"":18800},{""page_index"":2,""viewing_time"":5112},{""page_index"":3,""viewing_time"":14488}]","","","","","","","","","","","","","","","","","","","","","","","","","","","","","","","","","","","","","","","","","","",""
"","","","","ctl-task-cpt","21","589672","0.0-8.0-1.0","33","1","2025-07-02 10:18:37","80fe4187154257d5fb01684ea91b68b9","82.18.178.101","Mozilla/5.0 (Windows NT 10.0; Win64; x64) AppleWebKit/537.36 (KHTML, like Gecko) Chrome/138.0.0.0 Safari/537.36","WebKit","Chrome","138.0.0.0","Windows","10.0","https://app.prolific.com/","en-GB,en-US;q=0.9,en;q=0.8","5731e2e45b8b06000f7e3671","683db6dfa200031b80f2a654","686507749a8c38b05e7ceee3","5731e2e45b8b06000f7e3671","","","","","","","","","","","","","","","","","win-only","0","g1:NW,g2:SE","1","0","1","554551.9","2432","6437.1","33388.4","2","4","4","6","2","4","3","3","0","0.022727272727272728","1215.2","4000","1795","[""down"",""right""]","{""num_key_presses"":7,""num_perfect"":6,""num_errors"":1,""num_randdir"":0,""num_randdir_good_moves"":0,""num_whilered"":0,""num_whileblue"":0,""num_blue"":3,""num_good_moves"":6}","[410.57142857142856,417.47767857142856,0.3,410.57142857142856,417.47767857142856,103.9,410.57142857142856,417.47767857142856,203.9,414.57142857142856,417.47767857142856,305.1,416.57142857142856,417.47767857142856,408.7,372.57142857142856,331.47767857142856,514.9,266.57142857142856,229.47767857142856,619.3,642.5714285714286,471.47767857142856,724.8,878.5714285714286,747.4776785714286,829.3,876.5714285714286,763.4776785714286,933.2,848.5714285714286,765.4776785714286,1034.6,778.5714285714286,755.4776785714286,1138.5,774.5714285714286,755.4776785714286,1239,774.5714285714286,755.4776785714286,1344.6,774.5714285714286,753.4776785714286,1449,774.5714285714286,753.4776785714286,1553.7,774.5714285714286,751.4776785714286,1654.4,882.5714285714286,723.4776785714286,1758.7,974.5714285714286,705.4776785714286,1864.6,974.5714285714286,703.4776785714286,1968.8,974.5714285714286,703.4776785714286,2069,974.5714285714286,703.4776785714286,2169.3,974.5714285714286,703.4776785714286,2274.7,974.5714285714286,703.4776785714286,2374.7,974.5714285714286,703.4776785714286,2474.7,974.5714285714286,703.4776785714286,2574.8,974.5714285714286,703.4776785714286,2679.1,974.5714285714286,703.4776785714286,2779.4,974.5714285714286,703.4776785714286,2883.3,974.5714285714286,703.4776785714286,2983.5,974.5714285714286,703.4776785714286,3088.2,974.5714285714286,701.4776785714286,3188.8,974.5714285714286,699.4776785714286,3294.6,974.5714285714286,699.4776785714286,3398.9,974.5714285714286,699.4776785714286,3498.9,974.5714285714286,699.4776785714286,3604,974.5714285714286,699.4776785714286,3704.2,974.5714285714286,699.4776785714286,3808.4,974.5714285714286,699.4776785714286,3909]","[4926.2,4926.2,2509.5,2004.9,411.8,""smooth"",""right"",""right"",""good_move"",5277.8,351.1,2033.1,4926.7,-1682,""error"",""-"",""-"",""no_move"",12470,7192,2117.6,9979.1,373.4,""smooth"",""down"",""down"",""good_move"",18545.7,6075.5,2162,16039.3,344.4,""smooth"",""down"",""down"",""good_move"",20988.4,2442.6,2047.9,18545.8,394.7,""smooth"",""right"",""right"",""good_move"",23847.8,2859.3,2479.8,20988.5,379.5,""smooth"",""down"",""down"",""good_move"",26855.5,3007.5,2671.3,23848,336.2,""smooth"",""right"",""right"",""good_move""]","",""
"13590","","","","instructions","22","603263","0.0-8.0-2.0","33","1","2025-07-02 10:18:37","80fe4187154257d5fb01684ea91b68b9","82.18.178.101","Mozilla/5.0 (Windows NT 10.0; Win64; x64) AppleWebKit/537.36 (KHTML, like Gecko) Chrome/138.0.0.0 Safari/537.36","WebKit","Chrome","138.0.0.0","Windows","10.0","https://app.prolific.com/","en-GB,en-US;q=0.9,en;q=0.8","5731e2e45b8b06000f7e3671","683db6dfa200031b80f2a654","686507749a8c38b05e7ceee3","5731e2e45b8b06000f7e3671","","[{""page_index"":0,""viewing_time"":13590}]","","","","","","","","","","","","","","","","","","","","","","","","","","","","","","","","","","","","","","","","","","",""
"","","","","ctl-task-cpt","23","631172","0.0-8.0-3.0","33","1","2025-07-02 10:18:37","80fe4187154257d5fb01684ea91b68b9","82.18.178.101","Mozilla/5.0 (Windows NT 10.0; Win64; x64) AppleWebKit/537.36 (KHTML, like Gecko) Chrome/138.0.0.0 Safari/537.36","WebKit","Chrome","138.0.0.0","Windows","10.0","https://app.prolific.com/","en-GB,en-US;q=0.9,en;q=0.8","5731e2e45b8b06000f7e3671","683db6dfa200031b80f2a654","686507749a8c38b05e7ceee3","5731e2e45b8b06000f7e3671","","","","","","","","","","","","","","","","","win-only","0","g1:NW,g2:SE","0.35","0","3","604534.4","1184.5","5186.5","24891.4","2","4","8","6","2","8","8","8","0","0.06060606060606061","2464.2","4000","1355","[""down"",""right""]","{""num_key_presses"":8,""num_perfect"":4,""num_errors"":0,""num_randdir"":4,""num_randdir_good_moves"":3,""num_whilered"":0,""num_whileblue"":0,""num_blue"":0,""num_good_moves"":7}","[410.57142857142856,419.47767857142856,0.2,410.57142857142856,419.47767857142856,100.9,410.57142857142856,419.47767857142856,201,426.57142857142856,443.47767857142856,301.7,546.5714285714286,521.4776785714286,402.5,632.5714285714286,595.4776785714286,506,656.5714285714286,631.4776785714286,606.1,658.5714285714286,647.4776785714286,706.8,702.5714285714286,685.4776785714286,811.6,716.5714285714286,693.4776785714286,911.9,720.5714285714286,697.4776785714286,1017.1,734.5714285714286,711.4776785714286,1122.4,748.5714285714286,733.4776785714286,1226.9,750.5714285714286,741.4776785714286,1327,750.5714285714286,741.4776785714286,1431.4,750.5714285714286,743.4776785714286,1531.4,750.5714285714286,743.4776785714286,1636.1,750.5714285714286,743.4776785714286,1736.1,750.5714285714286,743.4776785714286,1836.5,750.5714285714286,743.4776785714286,1940.8,750.5714285714286,743.4776785714286,2041.8,750.5714285714286,743.4776785714286,2146.3,750.5714285714286,743.4776785714286,2247.1,750.5714285714286,743.4776785714286,2351.7,750.5714285714286,743.4776785714286,2456.3,750.5714285714286,743.4776785714286,2556.3,750.5714285714286,743.4776785714286,2656.3,750.5714285714286,743.4776785714286,2762.6,798.5714285714286,745.4776785714286,2865.8,1044.5714285714287,713.4776785714286,2966.2,1040.5714285714287,705.4776785714286,3070.8,1020.5714285714286,699.4776785714286,3171,1006.5714285714286,689.4776785714286,3276.2,1000.5714285714286,685.4776785714286,3381.4,998.5714285714286,685.4776785714286,3485.8,994.5714285714286,681.4776785714286,3586,992.5714285714286,679.4776785714286,3686.9,988.5714285714286,679.4776785714286,3790.9,986.5714285714286,677.4776785714286,3892.5,984.5714285714286,675.4776785714286,3996.8]","[1382.9,1382.9,1000,0,382.9,""oops"",""right"",""right"",""good_move"",3953.7,2570.6,2210.5,1383.2,360,""oops"",""down"",""down"",""good_move"",6312.6,2358.7,2002.8,3953.9,355.9,""smooth"",""right"",""right"",""good_move"",8991.9,2679.1,2320.8,6312.8,358.3,""smooth"",""down"",""down"",""good_move"",11417.6,2425.6,2080.7,8992,344.9,""oops"",""right"",""up"",""bad_move"",14287.7,2869.6,2593.8,11418.1,275.8,""smooth"",""down"",""down"",""good_move"",16951.7,2664,2371.3,14287.7,292.7,""oops"",""down"",""down"",""good_move"",19609.5,2657.7,2341.3,16951.8,316.4,""smooth"",""right"",""right"",""good_move""]","",""
"22107","","","","instructions","24","653280","0.0-8.0-4.0","33","1","2025-07-02 10:18:37","80fe4187154257d5fb01684ea91b68b9","82.18.178.101","Mozilla/5.0 (Windows NT 10.0; Win64; x64) AppleWebKit/537.36 (KHTML, like Gecko) Chrome/138.0.0.0 Safari/537.36","WebKit","Chrome","138.0.0.0","Windows","10.0","https://app.prolific.com/","en-GB,en-US;q=0.9,en;q=0.8","5731e2e45b8b06000f7e3671","683db6dfa200031b80f2a654","686507749a8c38b05e7ceee3","5731e2e45b8b06000f7e3671","","[{""page_index"":0,""viewing_time"":7770},{""page_index"":1,""viewing_time"":14336}]","","","","","","","","","","","","","","","","","","","","","","","","","","","","","","","","","","","","","","","","","","",""
"16528","","","{""green_ball"":[""Ball sometimes shakes and moves in a random direction""]}","survey-multi-select","25","669808","0.0-8.0-5.0-0.0","33","1","2025-07-02 10:18:37","80fe4187154257d5fb01684ea91b68b9","82.18.178.101","Mozilla/5.0 (Windows NT 10.0; Win64; x64) AppleWebKit/537.36 (KHTML, like Gecko) Chrome/138.0.0.0 Safari/537.36","WebKit","Chrome","138.0.0.0","Windows","10.0","https://app.prolific.com/","en-GB,en-US;q=0.9,en;q=0.8","5731e2e45b8b06000f7e3671","683db6dfa200031b80f2a654","686507749a8c38b05e7ceee3","5731e2e45b8b06000f7e3671","","","[0]","","","","quiz","","","","","","","","","","","","","","","","","","","","","","","","","","","","","","","","","","","","","true",""
"1558","","<p align='center'><b>CORRECT!</b> Indeed, the green ball may sometimes shake and move in a random direction.</p>","0","html-button-response","26","671368","0.0-8.0-5.0-1.0","33","1","2025-07-02 10:18:37","80fe4187154257d5fb01684ea91b68b9","82.18.178.101","Mozilla/5.0 (Windows NT 10.0; Win64; x64) AppleWebKit/537.36 (KHTML, like Gecko) Chrome/138.0.0.0 Safari/537.36","WebKit","Chrome","138.0.0.0","Windows","10.0","https://app.prolific.com/","en-GB,en-US;q=0.9,en;q=0.8","5731e2e45b8b06000f7e3671","683db6dfa200031b80f2a654","686507749a8c38b05e7ceee3","5731e2e45b8b06000f7e3671","","","","","","","","","","","","","","","","","","","","","","","","","","","","","","","","","","","","","","","","","","","","",""
"7071","","","{""yellow_ball"":[""Ball doesn‘t move and I get -1 penalty point""]}","survey-multi-select","27","678440","0.0-8.0-6.0-0.0","33","1","2025-07-02 10:18:37","80fe4187154257d5fb01684ea91b68b9","82.18.178.101","Mozilla/5.0 (Windows NT 10.0; Win64; x64) AppleWebKit/537.36 (KHTML, like Gecko) Chrome/138.0.0.0 Safari/537.36","WebKit","Chrome","138.0.0.0","Windows","10.0","https://app.prolific.com/","en-GB,en-US;q=0.9,en;q=0.8","5731e2e45b8b06000f7e3671","683db6dfa200031b80f2a654","686507749a8c38b05e7ceee3","5731e2e45b8b06000f7e3671","","","[0]","","","","quiz","","","","","","","","","","","","","","","","","","","","","","","","","","","","","","","","","","","","","true",""
"1327","","<p align='center'><b>CORRECT!</b> Indeed, the yellow ball never moves and you receive a penalty.</p>","0","html-button-response","28","679767","0.0-8.0-6.0-1.0","33","1","2025-07-02 10:18:37","80fe4187154257d5fb01684ea91b68b9","82.18.178.101","Mozilla/5.0 (Windows NT 10.0; Win64; x64) AppleWebKit/537.36 (KHTML, like Gecko) Chrome/138.0.0.0 Safari/537.36","WebKit","Chrome","138.0.0.0","Windows","10.0","https://app.prolific.com/","en-GB,en-US;q=0.9,en;q=0.8","5731e2e45b8b06000f7e3671","683db6dfa200031b80f2a654","686507749a8c38b05e7ceee3","5731e2e45b8b06000f7e3671","","","","","","","","","","","","","","","","","","","","","","","","","","","","","","","","","","","","","","","","","","","","",""
"7415","","","{""blue_ball"":[""Ball doesn‘t move and I get -1 penalty point""]}","survey-multi-select","29","687184","0.0-8.0-7.0-0.0","33","1","2025-07-02 10:18:37","80fe4187154257d5fb01684ea91b68b9","82.18.178.101","Mozilla/5.0 (Windows NT 10.0; Win64; x64) AppleWebKit/537.36 (KHTML, like Gecko) Chrome/138.0.0.0 Safari/537.36","WebKit","Chrome","138.0.0.0","Windows","10.0","https://app.prolific.com/","en-GB,en-US;q=0.9,en;q=0.8","5731e2e45b8b06000f7e3671","683db6dfa200031b80f2a654","686507749a8c38b05e7ceee3","5731e2e45b8b06000f7e3671","","","[0]","","","","quiz","","","","","","","","","","","","","","","","","","","","","","","","","","","","","","","","","","","","","false",""
"1535","","<p align='center'><b>INCORRECT.</b> The blue ball always shakes and moves randomly.</p>","0","html-button-response","30","688719","0.0-8.0-7.0-1.0","33","1","2025-07-02 10:18:37","80fe4187154257d5fb01684ea91b68b9","82.18.178.101","Mozilla/5.0 (Windows NT 10.0; Win64; x64) AppleWebKit/537.36 (KHTML, like Gecko) Chrome/138.0.0.0 Safari/537.36","WebKit","Chrome","138.0.0.0","Windows","10.0","https://app.prolific.com/","en-GB,en-US;q=0.9,en;q=0.8","5731e2e45b8b06000f7e3671","683db6dfa200031b80f2a654","686507749a8c38b05e7ceee3","5731e2e45b8b06000f7e3671","","","","","","","","","","","","","","","","","","","","","","","","","","","","","","","","","","","","","","","","","","","","",""
"7031","","","{""blue_ball"":[""Ball always shakes and moves in a random direction""]}","survey-multi-select","31","695751","0.0-8.0-7.1-0.1","33","1","2025-07-02 10:18:37","80fe4187154257d5fb01684ea91b68b9","82.18.178.101","Mozilla/5.0 (Windows NT 10.0; Win64; x64) AppleWebKit/537.36 (KHTML, like Gecko) Chrome/138.0.0.0 Safari/537.36","WebKit","Chrome","138.0.0.0","Windows","10.0","https://app.prolific.com/","en-GB,en-US;q=0.9,en;q=0.8","5731e2e45b8b06000f7e3671","683db6dfa200031b80f2a654","686507749a8c38b05e7ceee3","5731e2e45b8b06000f7e3671","","","[0]","","","","quiz","","","","","","","","","","","","","","","","","","","","","","","","","","","","","","","","","","","","","true",""
"3583","","<p align='center'><b>CORRECT!</b> Indeed, the blue ball always shakes and moves in a random direction. Also there is a penalty of -1 point.</p>","0","html-button-response","32","699335","0.0-8.0-7.1-1.1","33","1","2025-07-02 10:18:37","80fe4187154257d5fb01684ea91b68b9","82.18.178.101","Mozilla/5.0 (Windows NT 10.0; Win64; x64) AppleWebKit/537.36 (KHTML, like Gecko) Chrome/138.0.0.0 Safari/537.36","WebKit","Chrome","138.0.0.0","Windows","10.0","https://app.prolific.com/","en-GB,en-US;q=0.9,en;q=0.8","5731e2e45b8b06000f7e3671","683db6dfa200031b80f2a654","686507749a8c38b05e7ceee3","5731e2e45b8b06000f7e3671","","","","","","","","","","","","","","","","","","","","","","","","","","","","","","","","","","","","","","","","","","","","",""
"5640","","","{""bonus"":[""When I reach 50% of points""]}","survey-multi-select","33","704976","0.0-8.0-8.0-0.0","33","1","2025-07-02 10:18:37","80fe4187154257d5fb01684ea91b68b9","82.18.178.101","Mozilla/5.0 (Windows NT 10.0; Win64; x64) AppleWebKit/537.36 (KHTML, like Gecko) Chrome/138.0.0.0 Safari/537.36","WebKit","Chrome","138.0.0.0","Windows","10.0","https://app.prolific.com/","en-GB,en-US;q=0.9,en;q=0.8","5731e2e45b8b06000f7e3671","683db6dfa200031b80f2a654","686507749a8c38b05e7ceee3","5731e2e45b8b06000f7e3671","","","[0]","","","","quiz","","","","","","","","","","","","","","","","","","","","","","","","","","","","","","","","","","","","","true",""
"1183","","<p align='center'><b>CORRECT!</b> Indeed, you receive 2 pounds extra when you reach 50% of points.</p>","0","html-button-response","34","706159","0.0-8.0-8.0-1.0","33","1","2025-07-02 10:18:37","80fe4187154257d5fb01684ea91b68b9","82.18.178.101","Mozilla/5.0 (Windows NT 10.0; Win64; x64) AppleWebKit/537.36 (KHTML, like Gecko) Chrome/138.0.0.0 Safari/537.36","WebKit","Chrome","138.0.0.0","Windows","10.0","https://app.prolific.com/","en-GB,en-US;q=0.9,en;q=0.8","5731e2e45b8b06000f7e3671","683db6dfa200031b80f2a654","686507749a8c38b05e7ceee3","5731e2e45b8b06000f7e3671","","","","","","","","","","","","","","","","","","","","","","","","","","","","","","","","","","","","","","","","","","","","",""
"3456","","","","instructions","35","709615","0.0-8.0-9.0","33","1","2025-07-02 10:18:37","80fe4187154257d5fb01684ea91b68b9","82.18.178.101","Mozilla/5.0 (Windows NT 10.0; Win64; x64) AppleWebKit/537.36 (KHTML, like Gecko) Chrome/138.0.0.0 Safari/537.36","WebKit","Chrome","138.0.0.0","Windows","10.0","https://app.prolific.com/","en-GB,en-US;q=0.9,en;q=0.8","5731e2e45b8b06000f7e3671","683db6dfa200031b80f2a654","686507749a8c38b05e7ceee3","5731e2e45b8b06000f7e3671","","[{""page_index"":0,""viewing_time"":3455}]","","","","","","","","","","","","","","","","","","","","","","","","","","","","","","","","","","","","","","","","","","",""
"15671","","<p>Before you start with this game please answer the following three questions yourself. </p>
  <p>Through this game, we measure several aspects of your cognitive performance, such as reaction times, multi-tasking capabilities </p>
  <p>and the ability to assess the situation you are in.</p>
  <p></p>
  <p><b>How good do you usually are in such tasks?</b></p>","58","html-slider-response","36","725287","0.0-9.0-0.0","33","1","2025-07-02 10:18:37","80fe4187154257d5fb01684ea91b68b9","82.18.178.101","Mozilla/5.0 (Windows NT 10.0; Win64; x64) AppleWebKit/537.36 (KHTML, like Gecko) Chrome/138.0.0.0 Safari/537.36","WebKit","Chrome","138.0.0.0","Windows","10.0","https://app.prolific.com/","en-GB,en-US;q=0.9,en;q=0.8","5731e2e45b8b06000f7e3671","683db6dfa200031b80f2a654","686507749a8c38b05e7ceee3","5731e2e45b8b06000f7e3671","2025-07-02T10:30:43.353Z","","","","","","PreSkillQ","","","","","","","","","","","","","","","","","","","","","","","","","","","","","","","","","","","","","","50"
"9647","","<div style=""width:500px;"">
  <p>How well do you think you will perform in this task compared to other participants?</p>
  </div>","46","html-slider-response","37","734935","0.0-9.0-1.0","33","1","2025-07-02 10:18:37","80fe4187154257d5fb01684ea91b68b9","82.18.178.101","Mozilla/5.0 (Windows NT 10.0; Win64; x64) AppleWebKit/537.36 (KHTML, like Gecko) Chrome/138.0.0.0 Safari/537.36","WebKit","Chrome","138.0.0.0","Windows","10.0","https://app.prolific.com/","en-GB,en-US;q=0.9,en;q=0.8","5731e2e45b8b06000f7e3671","683db6dfa200031b80f2a654","686507749a8c38b05e7ceee3","5731e2e45b8b06000f7e3671","2025-07-02T10:30:53.001Z","","","","","","PrePerfQ","","","","","","","","","","","","","","","","","","","","","","","","","","","","","","","","","","","","","","50"
"7751","","<div style=""width:500px;"">
  <p>What best describes how you currently feel?</p>
  </div>","18","html-slider-response","38","742687","0.0-9.0-2.0","33","1","2025-07-02 10:18:37","80fe4187154257d5fb01684ea91b68b9","82.18.178.101","Mozilla/5.0 (Windows NT 10.0; Win64; x64) AppleWebKit/537.36 (KHTML, like Gecko) Chrome/138.0.0.0 Safari/537.36","WebKit","Chrome","138.0.0.0","Windows","10.0","https://app.prolific.com/","en-GB,en-US;q=0.9,en;q=0.8","5731e2e45b8b06000f7e3671","683db6dfa200031b80f2a654","686507749a8c38b05e7ceee3","5731e2e45b8b06000f7e3671","2025-07-02T10:31:00.753Z","","","","","","PreMotivationQ","","","","","","","","","","","","","","","","","","","","","","","","","","","","","","","","","","","","","","50"
"","","","","ctl-task-cpt","39","785966","0.0-10.0-0.0","33","1","2025-07-02 10:18:37","80fe4187154257d5fb01684ea91b68b9","82.18.178.101","Mozilla/5.0 (Windows NT 10.0; Win64; x64) AppleWebKit/537.36 (KHTML, like Gecko) Chrome/138.0.0.0 Safari/537.36","WebKit","Chrome","138.0.0.0","Windows","10.0","https://app.prolific.com/","en-GB,en-US;q=0.9,en;q=0.8","5731e2e45b8b06000f7e3671","683db6dfa200031b80f2a654","686507749a8c38b05e7ceee3","5731e2e45b8b06000f7e3671","2025-07-02T10:31:44.032Z","","","","","","","","","","","","","","","","win-only","0","g1:NW,g2:SE","1","1","0","743959.2","2615.7","7620.7","40261.1","1","4","8","6","2","8","8","8","0","0.06060606060606061","1168.1","3000","955","[""down"",""right""]","{""num_key_presses"":6,""num_perfect"":6,""num_errors"":0,""num_randdir"":0,""num_randdir_good_moves"":0,""num_whilered"":0,""num_whileblue"":0,""num_blue"":5,""num_good_moves"":6}","[416.57142857142856,423.47767857142856,0.1,416.57142857142856,423.47767857142856,100.6,416.57142857142856,423.47767857142856,205.5,450.57142857142856,485.47767857142856,309.8,572.5714285714286,627.4776785714286,410.9,676.5714285714286,721.4776785714286,511.2,728.5714285714286,789.4776785714286,611.5,752.5714285714286,805.4776785714286,714.9,750.5714285714286,805.4776785714286,815.6,750.5714285714286,805.4776785714286,920,754.5714285714286,791.4776785714286,1020.8,754.5714285714286,791.4776785714286,1125.6,754.5714285714286,791.4776785714286,1230.3,758.5714285714286,789.4776785714286,1330.3,906.5714285714286,783.4776785714286,1430.4,1050.5714285714287,761.4776785714286,1534.8,1056.5714285714287,755.4776785714286,1635.7,1056.5714285714287,753.4776785714286,1735.7,1056.5714285714287,753.4776785714286,1839.7,1058.5714285714287,751.4776785714286,1940.2,1058.5714285714287,751.4776785714286,2040.2,1058.5714285714287,751.4776785714286,2140.6,1058.5714285714287,751.4776785714286,2241.1,1058.5714285714287,751.4776785714286,2345.3,1058.5714285714287,751.4776785714286,2445.4,1058.5714285714287,751.4776785714286,2545.5,1058.5714285714287,751.4776785714286,2649.6,1058.5714285714287,751.4776785714286,2754.9,1058.5714285714287,751.4776785714286,2855.7,1058.5714285714287,751.4776785714286,2960.1,1058.5714285714287,751.4776785714286,3060.6,1058.5714285714287,751.4776785714286,3164.9,1058.5714285714287,751.4776785714286,3264.9,1058.5714285714287,751.4776785714286,3365.6,1058.5714285714287,751.4776785714286,3470.3,1058.5714285714287,751.4776785714286,3570.7,1058.5714285714287,751.4776785714286,3675.6,1058.5714285714287,749.4776785714286,3775.7,1058.5714285714287,749.4776785714286,3879.6,1058.5714285714287,749.4776785714286,3980.1,1058.5714285714287,749.4776785714286,4080.1,1058.5714285714287,749.4776785714286,4184.8,1058.5714285714287,749.4776785714286,4285.2,1058.5714285714287,749.4776785714286,4390.1,1058.5714285714287,749.4776785714286,4490.7,1058.5714285714287,749.4776785714286,4594.6,1058.5714285714287,749.4776785714286,4694.9,1058.5714285714287,749.4776785714286,4796.6,1058.5714285714287,749.4776785714286,4900.7]","[4695.6,4695.6,2375,2005.6,315,""smooth"",""down"",""down"",""good_move"",7280.4,2584.4,2206.4,4696,378,""smooth"",""right"",""right"",""good_move"",23716.1,16435.5,2453.1,20915.1,347.9,""smooth"",""down"",""down"",""good_move"",26190.6,2474.4,2112.9,23716.2,361.5,""smooth"",""down"",""down"",""good_move"",29078.5,2887.9,2566.3,26190.7,321.5,""smooth"",""right"",""right"",""good_move"",32552.7,3474.1,3132.6,29078.6,341.5,""smooth"",""right"",""right"",""good_move""]","",""
"6288","","<div style=""width:500px;"">
  <p>What determined the result of this run?</p>
  </div>","100","html-slider-response","40","792255","0.0-10.0-1.0","33","1","2025-07-02 10:18:37","80fe4187154257d5fb01684ea91b68b9","82.18.178.101","Mozilla/5.0 (Windows NT 10.0; Win64; x64) AppleWebKit/537.36 (KHTML, like Gecko) Chrome/138.0.0.0 Safari/537.36","WebKit","Chrome","138.0.0.0","Windows","10.0","https://app.prolific.com/","en-GB,en-US;q=0.9,en;q=0.8","5731e2e45b8b06000f7e3671","683db6dfa200031b80f2a654","686507749a8c38b05e7ceee3","5731e2e45b8b06000f7e3671","2025-07-02T10:31:50.321Z","","","","","","AttribQ","","","","","","","","","","","","","","","","","","","","","","","","","","","","","","","","","","","","","","50"
"5103","","<div style=""width:500px;"">
  <p>How much control did you have over the ball?</p>
  </div>","100","html-slider-response","41","797359","0.0-10.0-2.0","33","1","2025-07-02 10:18:37","80fe4187154257d5fb01684ea91b68b9","82.18.178.101","Mozilla/5.0 (Windows NT 10.0; Win64; x64) AppleWebKit/537.36 (KHTML, like Gecko) Chrome/138.0.0.0 Safari/537.36","WebKit","Chrome","138.0.0.0","Windows","10.0","https://app.prolific.com/","en-GB,en-US;q=0.9,en;q=0.8","5731e2e45b8b06000f7e3671","683db6dfa200031b80f2a654","686507749a8c38b05e7ceee3","5731e2e45b8b06000f7e3671","2025-07-02T10:31:55.425Z","","","","","","ControlQ","","","","","","","","","","","","","","","","","","","","","","","","","","","","","","","","","","","","","","50"
"8039","","<div style=""width:500px;"">
  <p>How would you describe your current emotional state?</p>
  </div>","55","html-slider-response","42","805399","0.0-10.0-3.0","33","1","2025-07-02 10:18:37","80fe4187154257d5fb01684ea91b68b9","82.18.178.101","Mozilla/5.0 (Windows NT 10.0; Win64; x64) AppleWebKit/537.36 (KHTML, like Gecko) Chrome/138.0.0.0 Safari/537.36","WebKit","Chrome","138.0.0.0","Windows","10.0","https://app.prolific.com/","en-GB,en-US;q=0.9,en;q=0.8","5731e2e45b8b06000f7e3671","683db6dfa200031b80f2a654","686507749a8c38b05e7ceee3","5731e2e45b8b06000f7e3671","2025-07-02T10:32:03.465Z","","","","","","StressQ","","","","","","","","","","","","","","","","","","","","","","","","","","","","","","","","","","","","","","50"
"7319","","<div style=""width:500px;"">
  <p>What best describes how you currently feel?</p>
  </div>","40","html-slider-response","43","812719","0.0-10.0-4.0","33","1","2025-07-02 10:18:37","80fe4187154257d5fb01684ea91b68b9","82.18.178.101","Mozilla/5.0 (Windows NT 10.0; Win64; x64) AppleWebKit/537.36 (KHTML, like Gecko) Chrome/138.0.0.0 Safari/537.36","WebKit","Chrome","138.0.0.0","Windows","10.0","https://app.prolific.com/","en-GB,en-US;q=0.9,en;q=0.8","5731e2e45b8b06000f7e3671","683db6dfa200031b80f2a654","686507749a8c38b05e7ceee3","5731e2e45b8b06000f7e3671","2025-07-02T10:32:10.785Z","","","","","","MotivationQ","","","","","","","","","","","","","","","","","","","","","","","","","","","","","","","","","","","","","","50"
"","","","","ctl-task-cpt","44","842868","0.0-10.0-0.1","33","1","2025-07-02 10:18:37","80fe4187154257d5fb01684ea91b68b9","82.18.178.101","Mozilla/5.0 (Windows NT 10.0; Win64; x64) AppleWebKit/537.36 (KHTML, like Gecko) Chrome/138.0.0.0 Safari/537.36","WebKit","Chrome","138.0.0.0","Windows","10.0","https://app.prolific.com/","en-GB,en-US;q=0.9,en;q=0.8","5731e2e45b8b06000f7e3671","683db6dfa200031b80f2a654","686507749a8c38b05e7ceee3","5731e2e45b8b06000f7e3671","2025-07-02T10:32:40.934Z","","","","","","","","","","","","","","","","win-only","1","g1:NE,g2:SW","0.9","2","0","813991.2","2712.4","7715.8","27131","1","4","4","6","2","4","4","12","8","0.09090909090909091","1448.8","3000","915","[""down"",""left""]","{""num_key_presses"":6,""num_perfect"":5,""num_errors"":0,""num_randdir"":1,""num_randdir_good_moves"":1,""num_whilered"":0,""num_whileblue"":0,""num_blue"":1,""num_good_moves"":6}","[416.57142857142856,417.47767857142856,0.2,416.57142857142856,417.47767857142856,103.5,456.57142857142856,461.47767857142856,203.8,518.5714285714286,495.47767857142856,307.8,540.5714285714286,515.4776785714286,408.9,340.57142857142856,593.4776785714286,513.5,176.57142857142856,669.4776785714286,614.5,94.57142857142857,733.4776785714286,717.9,88.57142857142857,739.4776785714286,823.6,74.57142857142857,751.4776785714286,923.6,66.57142857142857,759.4776785714286,1023.6,66.57142857142857,759.4776785714286,1123.7,66.57142857142857,759.4776785714286,1227.8,66.57142857142857,759.4776785714286,1332.9,66.57142857142857,759.4776785714286,1433,66.57142857142857,759.4776785714286,1533.4,82.57142857142857,757.4776785714286,1637.8,252.57142857142856,749.4776785714286,1738.3,820.5714285714286,725.4776785714286,1843.7,964.5714285714286,711.4776785714286,1943.7,964.5714285714286,711.4776785714286,2048.1,966.5714285714286,709.4776785714286,2148.8,966.5714285714286,709.4776785714286,2253.5,968.5714285714286,707.4776785714286,2353.6,968.5714285714286,705.4776785714286,2453.7,968.5714285714286,703.4776785714286,2558.6,968.5714285714286,703.4776785714286,2663.3,968.5714285714286,701.4776785714286,2768.3,968.5714285714286,699.4776785714286,2868.3,968.5714285714286,699.4776785714286,2968.3,968.5714285714286,697.4776785714286,3068.3,968.5714285714286,697.4776785714286,3168.3,968.5714285714286,695.4776785714286,3269,968.5714285714286,695.4776785714286,3374.4,968.5714285714286,695.4776785714286,3477.8,968.5714285714286,693.4776785714286,3578.7,968.5714285714286,693.4776785714286,3683.5,968.5714285714286,691.4776785714286,3783.5,968.5714285714286,691.4776785714286,3888.9,968.5714285714286,691.4776785714286,3993.7,968.5714285714286,691.4776785714286,4098.8,968.5714285714286,691.4776785714286,4198.8,968.5714285714286,689.4776785714286,4303.5,968.5714285714286,689.4776785714286,4403.9,968.5714285714286,689.4776785714286,4508.8,968.5714285714286,689.4776785714286,4613.6,968.5714285714286,689.4776785714286,4718.3,968.5714285714286,689.4776785714286,4818.5,968.5714285714286,689.4776785714286,4923.6]","[1399.2,1399.2,1000,0,399.2,""smooth"",""left"",""left"",""good_move"",4027.9,2628.4,2300.4,1399.5,328,""smooth"",""down"",""down"",""good_move"",6599.2,2571,2242.2,4028.2,328.8,""smooth"",""down"",""down"",""good_move"",9262.3,2663.1,2309.7,6599.2,353.4,""oops"",""left"",""down"",""good_move"",16468.4,7205.9,2785.7,13305.1,377.6,""smooth"",""left"",""left"",""good_move"",19329.3,2860.8,2521.9,16468.5,338.9,""smooth"",""left"",""left"",""good_move""]","",""
"6954","","<div style=""width:500px;"">
  <p>What determined the result of this run?</p>
  </div>","78","html-slider-response","45","849823","0.0-10.0-1.1","33","1","2025-07-02 10:18:37","80fe4187154257d5fb01684ea91b68b9","82.18.178.101","Mozilla/5.0 (Windows NT 10.0; Win64; x64) AppleWebKit/537.36 (KHTML, like Gecko) Chrome/138.0.0.0 Safari/537.36","WebKit","Chrome","138.0.0.0","Windows","10.0","https://app.prolific.com/","en-GB,en-US;q=0.9,en;q=0.8","5731e2e45b8b06000f7e3671","683db6dfa200031b80f2a654","686507749a8c38b05e7ceee3","5731e2e45b8b06000f7e3671","2025-07-02T10:32:47.889Z","","","","","","AttribQ","","","","","","","","","","","","","","","","","","","","","","","","","","","","","","","","","","","","","","50"
"5855","","<div style=""width:500px;"">
  <p>How much control did you have over the ball?</p>
  </div>","86","html-slider-response","46","855679","0.0-10.0-2.1","33","1","2025-07-02 10:18:37","80fe4187154257d5fb01684ea91b68b9","82.18.178.101","Mozilla/5.0 (Windows NT 10.0; Win64; x64) AppleWebKit/537.36 (KHTML, like Gecko) Chrome/138.0.0.0 Safari/537.36","WebKit","Chrome","138.0.0.0","Windows","10.0","https://app.prolific.com/","en-GB,en-US;q=0.9,en;q=0.8","5731e2e45b8b06000f7e3671","683db6dfa200031b80f2a654","686507749a8c38b05e7ceee3","5731e2e45b8b06000f7e3671","2025-07-02T10:32:53.745Z","","","","","","ControlQ","","","","","","","","","","","","","","","","","","","","","","","","","","","","","","","","","","","","","","50"
"6807","","<div style=""width:500px;"">
  <p>How would you describe your current emotional state?</p>
  </div>","55","html-slider-response","47","862487","0.0-10.0-3.1","33","1","2025-07-02 10:18:37","80fe4187154257d5fb01684ea91b68b9","82.18.178.101","Mozilla/5.0 (Windows NT 10.0; Win64; x64) AppleWebKit/537.36 (KHTML, like Gecko) Chrome/138.0.0.0 Safari/537.36","WebKit","Chrome","138.0.0.0","Windows","10.0","https://app.prolific.com/","en-GB,en-US;q=0.9,en;q=0.8","5731e2e45b8b06000f7e3671","683db6dfa200031b80f2a654","686507749a8c38b05e7ceee3","5731e2e45b8b06000f7e3671","2025-07-02T10:33:00.553Z","","","","","","StressQ","","","","","","","","","","","","","","","","","","","","","","","","","","","","","","","","","","","","","","50"
"8583","","<div style=""width:500px;"">
  <p>What best describes how you currently feel?</p>
  </div>","37","html-slider-response","48","871071","0.0-10.0-4.1","33","1","2025-07-02 10:18:37","80fe4187154257d5fb01684ea91b68b9","82.18.178.101","Mozilla/5.0 (Windows NT 10.0; Win64; x64) AppleWebKit/537.36 (KHTML, like Gecko) Chrome/138.0.0.0 Safari/537.36","WebKit","Chrome","138.0.0.0","Windows","10.0","https://app.prolific.com/","en-GB,en-US;q=0.9,en;q=0.8","5731e2e45b8b06000f7e3671","683db6dfa200031b80f2a654","686507749a8c38b05e7ceee3","5731e2e45b8b06000f7e3671","2025-07-02T10:33:09.137Z","","","","","","MotivationQ","","","","","","","","","","","","","","","","","","","","","","","","","","","","","","","","","","","","","","50"
"","","","","ctl-task-cpt","49","903883","0.0-10.0-0.2","33","1","2025-07-02 10:18:37","80fe4187154257d5fb01684ea91b68b9","82.18.178.101","Mozilla/5.0 (Windows NT 10.0; Win64; x64) AppleWebKit/537.36 (KHTML, like Gecko) Chrome/138.0.0.0 Safari/537.36","WebKit","Chrome","138.0.0.0","Windows","10.0","https://app.prolific.com/","en-GB,en-US;q=0.9,en;q=0.8","5731e2e45b8b06000f7e3671","683db6dfa200031b80f2a654","686507749a8c38b05e7ceee3","5731e2e45b8b06000f7e3671","2025-07-02T10:33:41.949Z","","","","","","","","","","","","","","","","win-only","0","g1:NW,g2:SE","0.8","3","0","872342.6","1288","6290.7","29795.5","1","4","4","6","2","4","4","16","12","0.12121212121212122","1096.3","3000","310","[""down"",""right""]","{""num_key_presses"":8,""num_perfect"":7,""num_errors"":0,""num_randdir"":1,""num_randdir_good_moves"":0,""num_whilered"":0,""num_whileblue"":0,""num_blue"":1,""num_good_moves"":7}","[416.57142857142856,409.47767857142856,0.2,416.57142857142856,409.47767857142856,102.8,414.57142857142856,417.47767857142856,202.8,406.57142857142856,465.47767857142856,303.7,532.5714285714286,555.4776785714286,407.3,682.5714285714286,627.4776785714286,507.5,720.5714285714286,679.4776785714286,612.4,722.5714285714286,699.4776785714286,717.4,726.5714285714286,725.4776785714286,817.4,750.5714285714286,763.4776785714286,922.5,750.5714285714286,763.4776785714286,1022.8,750.5714285714286,763.4776785714286,1127.3,750.5714285714286,763.4776785714286,1227.6,750.5714285714286,763.4776785714286,1328.1,870.5714285714286,759.4776785714286,1432.2,1052.5714285714287,755.4776785714286,1532.9,1052.5714285714287,755.4776785714286,1637.7,1058.5714285714287,753.4776785714286,1738,1058.5714285714287,751.4776785714286,1838,1058.5714285714287,749.4776785714286,1942.7,1058.5714285714287,749.4776785714286,2043.2,1058.5714285714287,747.4776785714286,2148.7,1058.5714285714287,745.4776785714286,2252.3,1058.5714285714287,745.4776785714286,2353,1058.5714285714287,743.4776785714286,2457.6,1058.5714285714287,743.4776785714286,2558.6,1058.5714285714287,743.4776785714286,2663.6,1058.5714285714287,741.4776785714286,2767.6,1058.5714285714287,741.4776785714286,2869.2,1058.5714285714287,741.4776785714286,2972.8,1058.5714285714287,739.4776785714286,3078,1058.5714285714287,739.4776785714286,3182.3,1058.5714285714287,739.4776785714286,3282.6,1058.5714285714287,737.4776785714286,3382.6,1058.5714285714287,737.4776785714286,3487.7,1058.5714285714287,737.4776785714286,3588.2,1058.5714285714287,737.4776785714286,3692.5,1058.5714285714287,737.4776785714286,3793,1058.5714285714287,735.4776785714286,3893.4,1058.5714285714287,735.4776785714286,3997.5,1058.5714285714287,735.4776785714286,4097.7,1058.5714285714287,735.4776785714286,4202.3,1058.5714285714287,735.4776785714286,4303.1,1058.5714285714287,735.4776785714286,4403.1,1058.5714285714287,735.4776785714286,4503.3,1058.5714285714287,735.4776785714286,4607.3,1058.5714285714287,733.4776785714286,4712.4,1058.5714285714287,733.4776785714286,4817.8,1058.5714285714287,733.4776785714286,4922.5]","[1402.3,1402.4,1000,0,402.4,""smooth"",""down"",""down"",""good_move"",4085.1,2682.6,2313,1402.5,369.6,""smooth"",""down"",""down"",""good_move"",6147,2061.8,1720.6,4085.2,341.2,""smooth"",""right"",""right"",""good_move"",8372.9,2225.8,1873,6147.1,352.8,""oops"",""right"",""up"",""bad_move"",11301.3,2928.2,2597.1,8373.1,331.1,""smooth"",""right"",""right"",""good_move"",17593.2,6291.8,2720,14559.7,313.5,""smooth"",""down"",""down"",""good_move"",20905.2,3311.7,3011.3,17593.5,300.4,""smooth"",""down"",""down"",""good_move"",23414.3,2508.9,2182.3,20905.4,326.6,""smooth"",""right"",""right"",""good_move""]","",""
"7532","","<div style=""width:500px;"">
  <p>What determined the result of this run?</p>
  </div>","71","html-slider-response","50","911415","0.0-10.0-1.2","33","1","2025-07-02 10:18:37","80fe4187154257d5fb01684ea91b68b9","82.18.178.101","Mozilla/5.0 (Windows NT 10.0; Win64; x64) AppleWebKit/537.36 (KHTML, like Gecko) Chrome/138.0.0.0 Safari/537.36","WebKit","Chrome","138.0.0.0","Windows","10.0","https://app.prolific.com/","en-GB,en-US;q=0.9,en;q=0.8","5731e2e45b8b06000f7e3671","683db6dfa200031b80f2a654","686507749a8c38b05e7ceee3","5731e2e45b8b06000f7e3671","2025-07-02T10:33:49.481Z","","","","","","AttribQ","","","","","","","","","","","","","","","","","","","","","","","","","","","","","","","","","","","","","","50"
"8048","","<div style=""width:500px;"">
  <p>How much control did you have over the ball?</p>
  </div>","75","html-slider-response","51","919463","0.0-10.0-2.2","33","1","2025-07-02 10:18:37","80fe4187154257d5fb01684ea91b68b9","82.18.178.101","Mozilla/5.0 (Windows NT 10.0; Win64; x64) AppleWebKit/537.36 (KHTML, like Gecko) Chrome/138.0.0.0 Safari/537.36","WebKit","Chrome","138.0.0.0","Windows","10.0","https://app.prolific.com/","en-GB,en-US;q=0.9,en;q=0.8","5731e2e45b8b06000f7e3671","683db6dfa200031b80f2a654","686507749a8c38b05e7ceee3","5731e2e45b8b06000f7e3671","2025-07-02T10:33:57.529Z","","","","","","ControlQ","","","","","","","","","","","","","","","","","","","","","","","","","","","","","","","","","","","","","","50"
"5599","","<div style=""width:500px;"">
  <p>How would you describe your current emotional state?</p>
  </div>","62","html-slider-response","52","925063","0.0-10.0-3.2","33","1","2025-07-02 10:18:37","80fe4187154257d5fb01684ea91b68b9","82.18.178.101","Mozilla/5.0 (Windows NT 10.0; Win64; x64) AppleWebKit/537.36 (KHTML, like Gecko) Chrome/138.0.0.0 Safari/537.36","WebKit","Chrome","138.0.0.0","Windows","10.0","https://app.prolific.com/","en-GB,en-US;q=0.9,en;q=0.8","5731e2e45b8b06000f7e3671","683db6dfa200031b80f2a654","686507749a8c38b05e7ceee3","5731e2e45b8b06000f7e3671","2025-07-02T10:34:03.129Z","","","","","","StressQ","","","","","","","","","","","","","","","","","","","","","","","","","","","","","","","","","","","","","","50"
"5711","","<div style=""width:500px;"">
  <p>What best describes how you currently feel?</p>
  </div>","43","html-slider-response","53","930775","0.0-10.0-4.2","33","1","2025-07-02 10:18:37","80fe4187154257d5fb01684ea91b68b9","82.18.178.101","Mozilla/5.0 (Windows NT 10.0; Win64; x64) AppleWebKit/537.36 (KHTML, like Gecko) Chrome/138.0.0.0 Safari/537.36","WebKit","Chrome","138.0.0.0","Windows","10.0","https://app.prolific.com/","en-GB,en-US;q=0.9,en;q=0.8","5731e2e45b8b06000f7e3671","683db6dfa200031b80f2a654","686507749a8c38b05e7ceee3","5731e2e45b8b06000f7e3671","2025-07-02T10:34:08.841Z","","","","","","MotivationQ","","","","","","","","","","","","","","","","","","","","","","","","","","","","","","","","","","","","","","50"
"","","","","ctl-task-cpt","54","960335","0.0-10.0-0.3","33","1","2025-07-02 10:18:37","80fe4187154257d5fb01684ea91b68b9","82.18.178.101","Mozilla/5.0 (Windows NT 10.0; Win64; x64) AppleWebKit/537.36 (KHTML, like Gecko) Chrome/138.0.0.0 Safari/537.36","WebKit","Chrome","138.0.0.0","Windows","10.0","https://app.prolific.com/","en-GB,en-US;q=0.9,en;q=0.8","5731e2e45b8b06000f7e3671","683db6dfa200031b80f2a654","686507749a8c38b05e7ceee3","5731e2e45b8b06000f7e3671","2025-07-02T10:34:38.401Z","","","","","","","","","","","","","","","","win-only","2","g1:SE,g2:NW","0.7","4","0","932047","1928","6930.9","26541.3","1","4","8","6","2","8","8","24","16","0.18181818181818182","1144.5","3000","1085","[""left"",""up""]","{""num_key_presses"":6,""num_perfect"":5,""num_errors"":0,""num_randdir"":1,""num_randdir_good_moves"":1,""num_whilered"":0,""num_whileblue"":0,""num_blue"":1,""num_good_moves"":6}","[416.57142857142856,411.47767857142856,0.1,416.57142857142856,411.47767857142856,103.2,416.57142857142856,411.47767857142856,207.9,416.57142857142856,411.47767857142856,308.1,418.57142857142856,433.47767857142856,408.9,498.57142857142856,515.4776785714286,512.8,552.5714285714286,555.4776785714286,617.9,336.57142857142856,325.47767857142856,722.8,186.57142857142856,79.47767857142857,822.8,148.57142857142856,45.47767857142857,923.4,116.57142857142857,39.47767857142857,1028,82.57142857142857,59.47767857142857,1132.9,82.57142857142857,59.47767857142857,1233.1,128.57142857142856,121.47767857142857,1337.6,764.5714285714286,393.47767857142856,1443.3,1146.5714285714287,479.47767857142856,1548.2,1146.5714285714287,479.47767857142856,1648.2,1158.5714285714287,481.47767857142856,1753.1,1158.5714285714287,481.47767857142856,1853.2,1158.5714285714287,481.47767857142856,1957.9,1158.5714285714287,481.47767857142856,2058.3,1158.5714285714287,481.47767857142856,2159.1,1158.5714285714287,481.47767857142856,2262.7,1158.5714285714287,481.47767857142856,2363,1158.5714285714287,481.47767857142856,2468.4,1158.5714285714287,481.47767857142856,2573,1158.5714285714287,481.47767857142856,2677.6,1158.5714285714287,481.47767857142856,2778.3,1158.5714285714287,481.47767857142856,2883.5,1158.5714285714287,481.47767857142856,2987.9,1158.5714285714287,481.47767857142856,3088.9,1158.5714285714287,481.47767857142856,3193.3,1158.5714285714287,481.47767857142856,3297.7,1158.5714285714287,481.47767857142856,3398.9,1158.5714285714287,481.47767857142856,3503.1,1158.5714285714287,481.47767857142856,3603.1,1158.5714285714287,481.47767857142856,3703.1,1158.5714285714287,481.47767857142856,3807.3,1158.5714285714287,481.47767857142856,3908.3,1158.5714285714287,481.47767857142856,4012.6,1158.5714285714287,481.47767857142856,4112.7,1158.5714285714287,481.47767857142856,4213.9,1158.5714285714287,481.47767857142856,4317.9,1158.5714285714287,481.47767857142856,4422.6,1158.5714285714287,481.47767857142856,4528.3,1158.5714285714287,481.47767857142856,4633.8,1158.5714285714287,481.47767857142856,4734.1,1158.5714285714287,481.47767857142856,4837.8,1158.5714285714287,481.47767857142856,4943.5]","[1377.6,1377.6,1000,0,377.6,""smooth"",""up"",""up"",""good_move"",4453.7,3075.9,2739.2,1377.8,336.7,""smooth"",""up"",""up"",""good_move"",7334.6,2880.6,2589.5,4454,291.1,""smooth"",""left"",""left"",""good_move"",9890.5,2555.7,2238,7334.8,317.7,""oops"",""up"",""left"",""good_move"",13694.2,3803.6,3468.6,9890.6,335,""smooth"",""up"",""up"",""good_move"",19506,5811.6,2102.7,17109.5,293.8,""smooth"",""left"",""left"",""good_move""]","",""
"5567","","<div style=""width:500px;"">
  <p>What determined the result of this run?</p>
  </div>","84","html-slider-response","55","965903","0.0-10.0-1.3","33","1","2025-07-02 10:18:37","80fe4187154257d5fb01684ea91b68b9","82.18.178.101","Mozilla/5.0 (Windows NT 10.0; Win64; x64) AppleWebKit/537.36 (KHTML, like Gecko) Chrome/138.0.0.0 Safari/537.36","WebKit","Chrome","138.0.0.0","Windows","10.0","https://app.prolific.com/","en-GB,en-US;q=0.9,en;q=0.8","5731e2e45b8b06000f7e3671","683db6dfa200031b80f2a654","686507749a8c38b05e7ceee3","5731e2e45b8b06000f7e3671","2025-07-02T10:34:43.969Z","","","","","","AttribQ","","","","","","","","","","","","","","","","","","","","","","","","","","","","","","","","","","","","","","50"
"4199","","<div style=""width:500px;"">
  <p>How much control did you have over the ball?</p>
  </div>","83","html-slider-response","56","970103","0.0-10.0-2.3","33","1","2025-07-02 10:18:37","80fe4187154257d5fb01684ea91b68b9","82.18.178.101","Mozilla/5.0 (Windows NT 10.0; Win64; x64) AppleWebKit/537.36 (KHTML, like Gecko) Chrome/138.0.0.0 Safari/537.36","WebKit","Chrome","138.0.0.0","Windows","10.0","https://app.prolific.com/","en-GB,en-US;q=0.9,en;q=0.8","5731e2e45b8b06000f7e3671","683db6dfa200031b80f2a654","686507749a8c38b05e7ceee3","5731e2e45b8b06000f7e3671","2025-07-02T10:34:48.169Z","","","","","","ControlQ","","","","","","","","","","","","","","","","","","","","","","","","","","","","","","","","","","","","","","50"
"6647","","<div style=""width:500px;"">
  <p>How would you describe your current emotional state?</p>
  </div>","48","html-slider-response","57","976751","0.0-10.0-3.3","33","1","2025-07-02 10:18:37","80fe4187154257d5fb01684ea91b68b9","82.18.178.101","Mozilla/5.0 (Windows NT 10.0; Win64; x64) AppleWebKit/537.36 (KHTML, like Gecko) Chrome/138.0.0.0 Safari/537.36","WebKit","Chrome","138.0.0.0","Windows","10.0","https://app.prolific.com/","en-GB,en-US;q=0.9,en;q=0.8","5731e2e45b8b06000f7e3671","683db6dfa200031b80f2a654","686507749a8c38b05e7ceee3","5731e2e45b8b06000f7e3671","2025-07-02T10:34:54.817Z","","","","","","StressQ","","","","","","","","","","","","","","","","","","","","","","","","","","","","","","","","","","","","","","50"
"4303","","<div style=""width:500px;"">
  <p>What best describes how you currently feel?</p>
  </div>","46","html-slider-response","58","981055","0.0-10.0-4.3","33","1","2025-07-02 10:18:37","80fe4187154257d5fb01684ea91b68b9","82.18.178.101","Mozilla/5.0 (Windows NT 10.0; Win64; x64) AppleWebKit/537.36 (KHTML, like Gecko) Chrome/138.0.0.0 Safari/537.36","WebKit","Chrome","138.0.0.0","Windows","10.0","https://app.prolific.com/","en-GB,en-US;q=0.9,en;q=0.8","5731e2e45b8b06000f7e3671","683db6dfa200031b80f2a654","686507749a8c38b05e7ceee3","5731e2e45b8b06000f7e3671","2025-07-02T10:34:59.121Z","","","","","","MotivationQ","","","","","","","","","","","","","","","","","","","","","","","","","","","","","","","","","","","","","","50"
"","","","","ctl-task-cpt","59","1026424","0.0-10.0-0.4","33","1","2025-07-02 10:18:37","80fe4187154257d5fb01684ea91b68b9","82.18.178.101","Mozilla/5.0 (Windows NT 10.0; Win64; x64) AppleWebKit/537.36 (KHTML, like Gecko) Chrome/138.0.0.0 Safari/537.36","WebKit","Chrome","138.0.0.0","Windows","10.0","https://app.prolific.com/","en-GB,en-US;q=0.9,en;q=0.8","5731e2e45b8b06000f7e3671","683db6dfa200031b80f2a654","686507749a8c38b05e7ceee3","5731e2e45b8b06000f7e3671","2025-07-02T10:35:44.490Z","","","","","","","","","","","","","","","","win-only","3","g1:SW,g2:NE","0.6","5","0","982326.7","2608","7611.2","42350.5","1","4","4","6","2","-4","-4","20","24","0.15151515151515152","1376.3","3000","-3000","[""up"",""right""]","{""num_key_presses"":9,""num_perfect"":5,""num_errors"":0,""num_randdir"":4,""num_randdir_good_moves"":2,""num_whilered"":0,""num_whileblue"":0,""num_blue"":2,""num_good_moves"":7}","[408.57142857142856,419.47767857142856,0.1,408.57142857142856,419.47767857142856,103.8,418.57142857142856,423.47767857142856,207.8,796.5714285714286,505.47767857142856,313,430.57142857142856,453.47767857142856,417.1,316.57142857142856,623.4776785714286,517.5,560.5714285714286,487.47767857142856,622.2,802.5714285714286,213.47767857142856,723.8,888.5714285714286,151.47767857142856,827.7,862.5714285714286,139.47767857142856,932.5,808.5714285714286,105.47767857142857,1032.7,778.5714285714286,83.47767857142857,1133,766.5714285714286,81.47767857142857,1233.1,766.5714285714286,81.47767857142857,1337.7,766.5714285714286,81.47767857142857,1438,766.5714285714286,81.47767857142857,1538.6,902.5714285714286,241.47767857142856,1644,1030.5714285714287,343.47767857142856,1747.8,1030.5714285714287,343.47767857142856,1847.8,1030.5714285714287,343.47767857142856,1947.9,1030.5714285714287,343.47767857142856,2053.9,1030.5714285714287,343.47767857142856,2158.7,1030.5714285714287,343.47767857142856,2258.9,1032.5714285714287,345.47767857142856,2362.5,1032.5714285714287,345.47767857142856,2463.5,1032.5714285714287,345.47767857142856,2568.4,1032.5714285714287,345.47767857142856,2672.5,1032.5714285714287,345.47767857142856,2777.4,1032.5714285714287,345.47767857142856,2877.7,1032.5714285714287,345.47767857142856,2983.1,1032.5714285714287,345.47767857142856,3088.1,1032.5714285714287,345.47767857142856,3192.4,1032.5714285714287,345.47767857142856,3292.4,1032.5714285714287,345.47767857142856,3392.6,1032.5714285714287,345.47767857142856,3497.8,1032.5714285714287,345.47767857142856,3603.5,1032.5714285714287,345.47767857142856,3707.4,1032.5714285714287,345.47767857142856,3812.2,1032.5714285714287,345.47767857142856,3912.3,1032.5714285714287,345.47767857142856,4014.1,1032.5714285714287,345.47767857142856,4117.2,1032.5714285714287,345.47767857142856,4217.5,1032.5714285714287,345.47767857142856,4322.1,1032.5714285714287,345.47767857142856,4422.4,1032.5714285714287,345.47767857142856,4523,1032.5714285714287,345.47767857142856,4628.9,1032.5714285714287,345.47767857142856,4732.2,1032.5714285714287,345.47767857142856,4832.5,1032.5714285714287,345.47767857142856,4933]","[1331.1,1331.1,1000,0,331.1,""oops"",""up"",""right"",""good_move"",3458.1,2126.7,1766.6,1331.4,360.1,""smooth"",""up"",""up"",""good_move"",6237.2,2778.9,2377.6,3458.3,401.3,""oops"",""up"",""left"",""bad_move"",9590.4,3352.9,3047.8,6237.5,305.1,""oops"",""up"",""up"",""good_move"",12864.1,3273.6,2952.2,9590.5,321.4,""smooth"",""right"",""right"",""good_move"",16379.6,3515.3,3235.3,12864.3,280,""smooth"",""right"",""right"",""good_move"",19008.1,2628.3,2290.5,16379.8,337.8,""smooth"",""right"",""right"",""good_move"",29181.3,10173,2781.9,26084.5,314.9,""oops"",""up"",""down"",""bad_move"",32096.6,2915,2591.1,29181.6,323.9,""smooth"",""up"",""up"",""good_move""]","",""
"4862","","<div style=""width:500px;"">
  <p>What determined the result of this run?</p>
  </div>","42","html-slider-response","60","1031287","0.0-10.0-1.4","33","1","2025-07-02 10:18:37","80fe4187154257d5fb01684ea91b68b9","82.18.178.101","Mozilla/5.0 (Windows NT 10.0; Win64; x64) AppleWebKit/537.36 (KHTML, like Gecko) Chrome/138.0.0.0 Safari/537.36","WebKit","Chrome","138.0.0.0","Windows","10.0","https://app.prolific.com/","en-GB,en-US;q=0.9,en;q=0.8","5731e2e45b8b06000f7e3671","683db6dfa200031b80f2a654","686507749a8c38b05e7ceee3","5731e2e45b8b06000f7e3671","2025-07-02T10:35:49.353Z","","","","","","AttribQ","","","","","","","","","","","","","","","","","","","","","","","","","","","","","","","","","","","","","","50"
"6760","","<div style=""width:500px;"">
  <p>How much control did you have over the ball?</p>
  </div>","43","html-slider-response","61","1038047","0.0-10.0-2.4","33","1","2025-07-02 10:18:37","80fe4187154257d5fb01684ea91b68b9","82.18.178.101","Mozilla/5.0 (Windows NT 10.0; Win64; x64) AppleWebKit/537.36 (KHTML, like Gecko) Chrome/138.0.0.0 Safari/537.36","WebKit","Chrome","138.0.0.0","Windows","10.0","https://app.prolific.com/","en-GB,en-US;q=0.9,en;q=0.8","5731e2e45b8b06000f7e3671","683db6dfa200031b80f2a654","686507749a8c38b05e7ceee3","5731e2e45b8b06000f7e3671","2025-07-02T10:35:56.113Z","","","","","","ControlQ","","","","","","","","","","","","","","","","","","","","","","","","","","","","","","","","","","","","","","50"
"3271","","<div style=""width:500px;"">
  <p>How would you describe your current emotional state?</p>
  </div>","59","html-slider-response","62","1041319","0.0-10.0-3.4","33","1","2025-07-02 10:18:37","80fe4187154257d5fb01684ea91b68b9","82.18.178.101","Mozilla/5.0 (Windows NT 10.0; Win64; x64) AppleWebKit/537.36 (KHTML, like Gecko) Chrome/138.0.0.0 Safari/537.36","WebKit","Chrome","138.0.0.0","Windows","10.0","https://app.prolific.com/","en-GB,en-US;q=0.9,en;q=0.8","5731e2e45b8b06000f7e3671","683db6dfa200031b80f2a654","686507749a8c38b05e7ceee3","5731e2e45b8b06000f7e3671","2025-07-02T10:35:59.385Z","","","","","","StressQ","","","","","","","","","","","","","","","","","","","","","","","","","","","","","","","","","","","","","","50"
"5672","","<div style=""width:500px;"">
  <p>What best describes how you currently feel?</p>
  </div>","38","html-slider-response","63","1046991","0.0-10.0-4.4","33","1","2025-07-02 10:18:37","80fe4187154257d5fb01684ea91b68b9","82.18.178.101","Mozilla/5.0 (Windows NT 10.0; Win64; x64) AppleWebKit/537.36 (KHTML, like Gecko) Chrome/138.0.0.0 Safari/537.36","WebKit","Chrome","138.0.0.0","Windows","10.0","https://app.prolific.com/","en-GB,en-US;q=0.9,en;q=0.8","5731e2e45b8b06000f7e3671","683db6dfa200031b80f2a654","686507749a8c38b05e7ceee3","5731e2e45b8b06000f7e3671","2025-07-02T10:36:05.057Z","","","","","","MotivationQ","","","","","","","","","","","","","","","","","","","","","","","","","","","","","","","","","","","","","","50"
"","","","","ctl-task-cpt","64","1085555","0.0-10.0-0.5","33","1","2025-07-02 10:18:37","80fe4187154257d5fb01684ea91b68b9","82.18.178.101","Mozilla/5.0 (Windows NT 10.0; Win64; x64) AppleWebKit/537.36 (KHTML, like Gecko) Chrome/138.0.0.0 Safari/537.36","WebKit","Chrome","138.0.0.0","Windows","10.0","https://app.prolific.com/","en-GB,en-US;q=0.9,en;q=0.8","5731e2e45b8b06000f7e3671","683db6dfa200031b80f2a654","686507749a8c38b05e7ceee3","5731e2e45b8b06000f7e3671","2025-07-02T10:36:43.621Z","","","","","","","","","","","","","","","","win-only","2","g1:SE,g2:NW","0.5","6","0","1048262.9","1376.1","6381.5","35546.3","1","4","8","6","2","8","8","28","20","0.21212121212121213","1095.6","3000","40","[""left"",""up""]","{""num_key_presses"":10,""num_perfect"":5,""num_errors"":0,""num_randdir"":5,""num_randdir_good_moves"":3,""num_whilered"":0,""num_whileblue"":0,""num_blue"":1,""num_good_moves"":8}","[410.57142857142856,419.47767857142856,0.1,410.57142857142856,419.47767857142856,104.2,410.57142857142856,419.47767857142856,205.2,436.57142857142856,445.47767857142856,310.8,558.5714285714286,531.4776785714286,415.1,442.57142857142856,503.47767857142856,519.7,32.57142857142857,157.47767857142856,624.3,32.57142857142857,99.47767857142857,724.8,38.57142857142857,91.47767857142857,829.8,40.57142857142857,85.47767857142857,934.9,40.57142857142857,85.47767857142857,1035.8,40.57142857142857,85.47767857142857,1139.9,42.57142857142857,85.47767857142857,1240.5,112.57142857142857,185.47767857142856,1344.5,674.5714285714286,429.47767857142856,1445.6,1090.5714285714287,485.47767857142856,1550,1088.5714285714287,485.47767857142856,1650.9,1086.5714285714287,485.47767857142856,1751,1086.5714285714287,485.47767857142856,1854.6,1086.5714285714287,485.47767857142856,1955.8,1086.5714285714287,485.47767857142856,2060.5,1086.5714285714287,485.47767857142856,2165.9,1086.5714285714287,485.47767857142856,2270,1086.5714285714287,485.47767857142856,2370.3,1086.5714285714287,485.47767857142856,2475,1086.5714285714287,485.47767857142856,2575.8,1086.5714285714287,485.47767857142856,2680,1086.5714285714287,485.47767857142856,2780.3,1086.5714285714287,485.47767857142856,2880.3,1086.5714285714287,485.47767857142856,2985.2,1086.5714285714287,485.47767857142856,3089.3,1086.5714285714287,485.47767857142856,3194.5,1086.5714285714287,485.47767857142856,3295.1,1086.5714285714287,485.47767857142856,3395.2,1086.5714285714287,485.47767857142856,3495.2,1086.5714285714287,485.47767857142856,3600,1086.5714285714287,485.47767857142856,3700,1086.5714285714287,485.47767857142856,3805.1,1086.5714285714287,485.47767857142856,3910.3,1086.5714285714287,485.47767857142856,4010.7,1086.5714285714287,485.47767857142856,4114.7,1086.5714285714287,485.47767857142856,4219.2,1086.5714285714287,485.47767857142856,4319.6,1086.5714285714287,485.47767857142856,4420.2,1086.5714285714287,485.47767857142856,4520.2,1086.5714285714287,485.47767857142856,4625.1,1086.5714285714287,485.47767857142856,4725.2,1086.5714285714287,485.47767857142856,4826.3,1086.5714285714287,485.47767857142856,4930.2]","[5080.5,5080.5,2747.6,2005.1,327.8,""oops"",""up"",""left"",""good_move"",8401.5,3320.7,2968,5080.8,352.7,""oops"",""up"",""right"",""bad_move"",10824.6,2422.8,2084.9,8401.8,337.9,""smooth"",""up"",""up"",""good_move"",13181.5,2356.8,2029.4,10824.7,327.4,""smooth"",""up"",""up"",""good_move"",15774.8,2593.1,2297.2,13181.7,295.9,""oops"",""left"",""right"",""bad_move"",18287.7,2512.6,2188.7,15775.1,323.9,""smooth"",""left"",""left"",""good_move"",20716.4,2428.4,2165.9,18288,262.5,""smooth"",""left"",""left"",""good_move"",23816.6,3100,2824.5,20716.6,275.5,""oops"",""left"",""up"",""good_move"",26715.8,2898.8,2618.3,23817,280.5,""oops"",""left"",""left"",""good_move"",29056.5,2340.5,2128.1,26716,212.4,""smooth"",""left"",""left"",""good_move""]","",""
"5843","","<div style=""width:500px;"">
  <p>What determined the result of this run?</p>
  </div>","58","html-slider-response","65","1091399","0.0-10.0-1.5","33","1","2025-07-02 10:18:37","80fe4187154257d5fb01684ea91b68b9","82.18.178.101","Mozilla/5.0 (Windows NT 10.0; Win64; x64) AppleWebKit/537.36 (KHTML, like Gecko) Chrome/138.0.0.0 Safari/537.36","WebKit","Chrome","138.0.0.0","Windows","10.0","https://app.prolific.com/","en-GB,en-US;q=0.9,en;q=0.8","5731e2e45b8b06000f7e3671","683db6dfa200031b80f2a654","686507749a8c38b05e7ceee3","5731e2e45b8b06000f7e3671","2025-07-02T10:36:49.465Z","","","","","","AttribQ","","","","","","","","","","","","","","","","","","","","","","","","","","","","","","","","","","","","","","50"
"5407","","<div style=""width:500px;"">
  <p>How much control did you have over the ball?</p>
  </div>","57","html-slider-response","66","1096807","0.0-10.0-2.5","33","1","2025-07-02 10:18:37","80fe4187154257d5fb01684ea91b68b9","82.18.178.101","Mozilla/5.0 (Windows NT 10.0; Win64; x64) AppleWebKit/537.36 (KHTML, like Gecko) Chrome/138.0.0.0 Safari/537.36","WebKit","Chrome","138.0.0.0","Windows","10.0","https://app.prolific.com/","en-GB,en-US;q=0.9,en;q=0.8","5731e2e45b8b06000f7e3671","683db6dfa200031b80f2a654","686507749a8c38b05e7ceee3","5731e2e45b8b06000f7e3671","2025-07-02T10:36:54.873Z","","","","","","ControlQ","","","","","","","","","","","","","","","","","","","","","","","","","","","","","","","","","","","","","","50"
"4159","","<div style=""width:500px;"">
  <p>How would you describe your current emotional state?</p>
  </div>","58","html-slider-response","67","1100967","0.0-10.0-3.5","33","1","2025-07-02 10:18:37","80fe4187154257d5fb01684ea91b68b9","82.18.178.101","Mozilla/5.0 (Windows NT 10.0; Win64; x64) AppleWebKit/537.36 (KHTML, like Gecko) Chrome/138.0.0.0 Safari/537.36","WebKit","Chrome","138.0.0.0","Windows","10.0","https://app.prolific.com/","en-GB,en-US;q=0.9,en;q=0.8","5731e2e45b8b06000f7e3671","683db6dfa200031b80f2a654","686507749a8c38b05e7ceee3","5731e2e45b8b06000f7e3671","2025-07-02T10:36:59.033Z","","","","","","StressQ","","","","","","","","","","","","","","","","","","","","","","","","","","","","","","","","","","","","","","50"
"6559","","<div style=""width:500px;"">
  <p>What best describes how you currently feel?</p>
  </div>","52","html-slider-response","68","1107527","0.0-10.0-4.5","33","1","2025-07-02 10:18:37","80fe4187154257d5fb01684ea91b68b9","82.18.178.101","Mozilla/5.0 (Windows NT 10.0; Win64; x64) AppleWebKit/537.36 (KHTML, like Gecko) Chrome/138.0.0.0 Safari/537.36","WebKit","Chrome","138.0.0.0","Windows","10.0","https://app.prolific.com/","en-GB,en-US;q=0.9,en;q=0.8","5731e2e45b8b06000f7e3671","683db6dfa200031b80f2a654","686507749a8c38b05e7ceee3","5731e2e45b8b06000f7e3671","2025-07-02T10:37:05.593Z","","","","","","MotivationQ","","","","","","","","","","","","","","","","","","","","","","","","","","","","","","","","","","","","","","50"
"","","","","ctl-task-cpt","69","1148561","0.0-10.0-0.6","33","1","2025-07-02 10:18:37","80fe4187154257d5fb01684ea91b68b9","82.18.178.101","Mozilla/5.0 (Windows NT 10.0; Win64; x64) AppleWebKit/537.36 (KHTML, like Gecko) Chrome/138.0.0.0 Safari/537.36","WebKit","Chrome","138.0.0.0","Windows","10.0","https://app.prolific.com/","en-GB,en-US;q=0.9,en;q=0.8","5731e2e45b8b06000f7e3671","683db6dfa200031b80f2a654","686507749a8c38b05e7ceee3","5731e2e45b8b06000f7e3671","2025-07-02T10:37:46.628Z","","","","","","","","","","","","","","","","win-only","2","g1:SE,g2:NW","0.4","7","0","1108798.6","1208.2","6211.2","38016.5","1","4","8","6","2","-8","-9","19","28","0.14393939393939395","1679.9","3000","-3015","[""left"",""up""]","{""num_key_presses"":10,""num_perfect"":4,""num_errors"":1,""num_randdir"":5,""num_randdir_good_moves"":2,""num_whilered"":0,""num_whileblue"":1,""num_blue"":2,""num_good_moves"":6}","[414.57142857142856,405.47767857142856,0.1,414.57142857142856,405.47767857142856,103,414.57142857142856,405.47767857142856,203.7,414.57142857142856,409.47767857142856,309.4,412.57142857142856,411.47767857142856,412.9,552.5714285714286,541.4776785714286,513.1,750.5714285714286,693.4776785714286,613.6,750.5714285714286,715.4776785714286,718.3,746.5714285714286,725.4776785714286,818.6,742.5714285714286,757.4776785714286,923.2,742.5714285714286,761.4776785714286,1027.8,742.5714285714286,761.4776785714286,1132,742.5714285714286,761.4776785714286,1232.2,324.57142857142856,387.47767857142856,1333.3,32.57142857142857,135.47767857142856,1439.1,18.57142857142857,69.47767857142857,1543.7,18.57142857142857,67.47767857142857,1647.9,24.57142857142857,63.47767857142857,1758.9,34.57142857142857,67.47767857142857,1862.7,64.57142857142857,103.47767857142857,1963.2,780.5714285714286,455.47767857142856,2067.8,1128.5714285714287,551.4776785714286,2167.8,1120.5714285714287,551.4776785714286,2268.6,1120.5714285714287,551.4776785714286,2373,1120.5714285714287,551.4776785714286,2477.5,1120.5714285714287,551.4776785714286,2577.6,1120.5714285714287,551.4776785714286,2678,1120.5714285714287,551.4776785714286,2782.3,1120.5714285714287,551.4776785714286,2883.7,1120.5714285714287,551.4776785714286,2988.4,1120.5714285714287,551.4776785714286,3093.1,1120.5714285714287,551.4776785714286,3193.1,1120.5714285714287,551.4776785714286,3293.1,1120.5714285714287,551.4776785714286,3398,1120.5714285714287,551.4776785714286,3503.6,1120.5714285714287,551.4776785714286,3607.6,1120.5714285714287,551.4776785714286,3708.1,1120.5714285714287,551.4776785714286,3813.6,1120.5714285714287,551.4776785714286,3913.6,1120.5714285714287,551.4776785714286,4017.9,1120.5714285714287,551.4776785714286,4117.9,1120.5714285714287,551.4776785714286,4221.9,1120.5714285714287,551.4776785714286,4322.8,1120.5714285714287,551.4776785714286,4427.8,1120.5714285714287,551.4776785714286,4528.3,1120.5714285714287,551.4776785714286,4633,1120.5714285714287,551.4776785714286,4733.4,1120.5714285714287,551.4776785714286,4837.7,1120.5714285714287,551.4776785714286,4937.8]","[1356.6,1356.6,1000,0,356.6,""oops"",""up"",""down"",""bad_move"",4018.2,2661.4,2295.2,1356.8,366.2,""oops"",""left"",""right"",""bad_move"",6316.4,2298.1,1964.2,4018.4,333.9,""smooth"",""up"",""up"",""good_move"",8671.5,2354.8,2073.2,6316.7,281.6,""smooth"",""left"",""left"",""good_move"",12059.2,3387.5,3134.2,8671.7,253.3,""oops"",""up"",""left"",""good_move"",15591.1,3531.7,3085.3,12059.4,446.4,""smooth"",""up"",""up"",""good_move"",21847,6255.7,2773,18794.5,279.5,""smooth"",""up"",""up"",""good_move"",24910.4,3063.2,2752.1,21847.2,311.1,""oops"",""left"",""left"",""good_move"",27363.3,2452.6,2209.6,24910.7,243,""while_blue"",""up"",""right"",""bad_move"",29911.3,2547.7,2201.9,27363.6,345.8,""oops"",""up"",""down"",""bad_move""]","",""
"4765","","<div style=""width:500px;"">
  <p>What determined the result of this run?</p>
  </div>","22","html-slider-response","70","1153327","0.0-10.0-1.6","33","1","2025-07-02 10:18:37","80fe4187154257d5fb01684ea91b68b9","82.18.178.101","Mozilla/5.0 (Windows NT 10.0; Win64; x64) AppleWebKit/537.36 (KHTML, like Gecko) Chrome/138.0.0.0 Safari/537.36","WebKit","Chrome","138.0.0.0","Windows","10.0","https://app.prolific.com/","en-GB,en-US;q=0.9,en;q=0.8","5731e2e45b8b06000f7e3671","683db6dfa200031b80f2a654","686507749a8c38b05e7ceee3","5731e2e45b8b06000f7e3671","2025-07-02T10:37:51.393Z","","","","","","AttribQ","","","","","","","","","","","","","","","","","","","","","","","","","","","","","","","","","","","","","","50"
"2535","","<div style=""width:500px;"">
  <p>How much control did you have over the ball?</p>
  </div>","28","html-slider-response","71","1155863","0.0-10.0-2.6","33","1","2025-07-02 10:18:37","80fe4187154257d5fb01684ea91b68b9","82.18.178.101","Mozilla/5.0 (Windows NT 10.0; Win64; x64) AppleWebKit/537.36 (KHTML, like Gecko) Chrome/138.0.0.0 Safari/537.36","WebKit","Chrome","138.0.0.0","Windows","10.0","https://app.prolific.com/","en-GB,en-US;q=0.9,en;q=0.8","5731e2e45b8b06000f7e3671","683db6dfa200031b80f2a654","686507749a8c38b05e7ceee3","5731e2e45b8b06000f7e3671","2025-07-02T10:37:53.929Z","","","","","","ControlQ","","","","","","","","","","","","","","","","","","","","","","","","","","","","","","","","","","","","","","50"
"4487","","<div style=""width:500px;"">
  <p>How would you describe your current emotional state?</p>
  </div>","66","html-slider-response","72","1160351","0.0-10.0-3.6","33","1","2025-07-02 10:18:37","80fe4187154257d5fb01684ea91b68b9","82.18.178.101","Mozilla/5.0 (Windows NT 10.0; Win64; x64) AppleWebKit/537.36 (KHTML, like Gecko) Chrome/138.0.0.0 Safari/537.36","WebKit","Chrome","138.0.0.0","Windows","10.0","https://app.prolific.com/","en-GB,en-US;q=0.9,en;q=0.8","5731e2e45b8b06000f7e3671","683db6dfa200031b80f2a654","686507749a8c38b05e7ceee3","5731e2e45b8b06000f7e3671","2025-07-02T10:37:58.417Z","","","","","","StressQ","","","","","","","","","","","","","","","","","","","","","","","","","","","","","","","","","","","","","","50"
"3239","","<div style=""width:500px;"">
  <p>What best describes how you currently feel?</p>
  </div>","35","html-slider-response","73","1163591","0.0-10.0-4.6","33","1","2025-07-02 10:18:37","80fe4187154257d5fb01684ea91b68b9","82.18.178.101","Mozilla/5.0 (Windows NT 10.0; Win64; x64) AppleWebKit/537.36 (KHTML, like Gecko) Chrome/138.0.0.0 Safari/537.36","WebKit","Chrome","138.0.0.0","Windows","10.0","https://app.prolific.com/","en-GB,en-US;q=0.9,en;q=0.8","5731e2e45b8b06000f7e3671","683db6dfa200031b80f2a654","686507749a8c38b05e7ceee3","5731e2e45b8b06000f7e3671","2025-07-02T10:38:01.657Z","","","","","","MotivationQ","","","","","","","","","","","","","","","","","","","","","","","","","","","","","","","","","","","","","","50"
"","","","","ctl-task-cpt","74","1186055","0.0-10.0-0.7","33","1","2025-07-02 10:18:37","80fe4187154257d5fb01684ea91b68b9","82.18.178.101","Mozilla/5.0 (Windows NT 10.0; Win64; x64) AppleWebKit/537.36 (KHTML, like Gecko) Chrome/138.0.0.0 Safari/537.36","WebKit","Chrome","138.0.0.0","Windows","10.0","https://app.prolific.com/","en-GB,en-US;q=0.9,en;q=0.8","5731e2e45b8b06000f7e3671","683db6dfa200031b80f2a654","686507749a8c38b05e7ceee3","5731e2e45b8b06000f7e3671","2025-07-02T10:38:24.121Z","","","","","","","","","","","","","","","","win-only","3","g1:SW,g2:NE","0.3","8","0","1164862.6","1239.7","6240.5","19445.3","1","4","4","6","1","1","1","20","19","0.15151515151515152","3256.8","3000","1585","[""down"",""left""]","{""num_key_presses"":4,""num_perfect"":3,""num_errors"":0,""num_randdir"":1,""num_randdir_good_moves"":1,""num_whilered"":0,""num_whileblue"":0,""num_blue"":1,""num_good_moves"":4}","[410.57142857142856,413.47767857142856,0,410.57142857142856,413.47767857142856,102.2,410.57142857142856,413.47767857142856,205.5,410.57142857142856,413.47767857142856,306.3,410.57142857142856,415.47767857142856,412.1,400.57142857142856,419.47767857142856,512.5,440.57142857142856,355.47767857142856,616,592.5714285714286,301.47767857142856,717,466.57142857142856,383.47767857142856,822.6,100.57142857142857,657.4776785714286,926.8,118.57142857142857,723.4776785714286,1031.2,106.57142857142857,745.4776785714286,1131.3,104.57142857142857,745.4776785714286,1236.3,100.57142857142857,745.4776785714286,1342.1,100.57142857142857,745.4776785714286,1446.8,100.57142857142857,745.4776785714286,1547.6,98.57142857142857,745.4776785714286,1650.9,98.57142857142857,745.4776785714286,1755.6,96.57142857142857,745.4776785714286,1855.8,440.57142857142856,463.47767857142856,1957.1,740.5714285714286,111.47767857142857,2061.4,746.5714285714286,105.47767857142857,2166.1,746.5714285714286,103.47767857142857,2266.3,746.5714285714286,103.47767857142857,2371.7,746.5714285714286,103.47767857142857,2476.2,588.5714285714286,169.47767857142856,2576.6,94.57142857142857,721.4776785714286,2681.5,104.57142857142857,749.4776785714286,2787.2,102.57142857142857,753.4776785714286,2891.1,96.57142857142857,759.4776785714286,2991.1,94.57142857142857,759.4776785714286,3091.5,94.57142857142857,759.4776785714286,3196.3,94.57142857142857,759.4776785714286,3297.6,110.57142857142857,743.4776785714286,3400.8,368.57142857142856,727.4776785714286,3505.7,898.5714285714286,727.4776785714286,3606.8,962.5714285714286,697.4776785714286,3711.9,960.5714285714286,693.4776785714286,3811.9,960.5714285714286,693.4776785714286,3915.8,960.5714285714286,693.4776785714286,4016.3,960.5714285714286,693.4776785714286,4116.6,960.5714285714286,693.4776785714286,4221.3,960.5714285714286,693.4776785714286,4322.5,960.5714285714286,693.4776785714286,4427,960.5714285714286,693.4776785714286,4530.7,960.5714285714286,693.4776785714286,4631,960.5714285714286,693.4776785714286,4731.2,960.5714285714286,693.4776785714286,4836.2,960.5714285714286,693.4776785714286,4936.8]","[1364.9,1364.9,1000,0,364.9,""smooth"",""down"",""down"",""good_move"",3964.8,2599.7,2226.2,1365.1,373.5,""smooth"",""left"",""left"",""good_move"",6695.7,2730.6,2374.1,3965.1,356.5,""oops"",""down"",""down"",""good_move"",13106.2,6410.2,2874.5,9891.5,340.2,""smooth"",""left"",""left"",""good_move""]","",""
"2495","","<div style=""width:500px;"">
  <p>What determined the result of this run?</p>
  </div>","100","html-slider-response","75","1188551","0.0-10.0-1.7","33","1","2025-07-02 10:18:37","80fe4187154257d5fb01684ea91b68b9","82.18.178.101","Mozilla/5.0 (Windows NT 10.0; Win64; x64) AppleWebKit/537.36 (KHTML, like Gecko) Chrome/138.0.0.0 Safari/537.36","WebKit","Chrome","138.0.0.0","Windows","10.0","https://app.prolific.com/","en-GB,en-US;q=0.9,en;q=0.8","5731e2e45b8b06000f7e3671","683db6dfa200031b80f2a654","686507749a8c38b05e7ceee3","5731e2e45b8b06000f7e3671","2025-07-02T10:38:26.617Z","","","","","","AttribQ","","","","","","","","","","","","","","","","","","","","","","","","","","","","","","","","","","","","","","50"
"2615","","<div style=""width:500px;"">
  <p>How much control did you have over the ball?</p>
  </div>","100","html-slider-response","76","1191167","0.0-10.0-2.7","33","1","2025-07-02 10:18:37","80fe4187154257d5fb01684ea91b68b9","82.18.178.101","Mozilla/5.0 (Windows NT 10.0; Win64; x64) AppleWebKit/537.36 (KHTML, like Gecko) Chrome/138.0.0.0 Safari/537.36","WebKit","Chrome","138.0.0.0","Windows","10.0","https://app.prolific.com/","en-GB,en-US;q=0.9,en;q=0.8","5731e2e45b8b06000f7e3671","683db6dfa200031b80f2a654","686507749a8c38b05e7ceee3","5731e2e45b8b06000f7e3671","2025-07-02T10:38:29.233Z","","","","","","ControlQ","","","","","","","","","","","","","","","","","","","","","","","","","","","","","","","","","","","","","","50"
"4544","","<div style=""width:500px;"">
  <p>How would you describe your current emotional state?</p>
  </div>","63","html-slider-response","77","1195711","0.0-10.0-3.7","33","1","2025-07-02 10:18:37","80fe4187154257d5fb01684ea91b68b9","82.18.178.101","Mozilla/5.0 (Windows NT 10.0; Win64; x64) AppleWebKit/537.36 (KHTML, like Gecko) Chrome/138.0.0.0 Safari/537.36","WebKit","Chrome","138.0.0.0","Windows","10.0","https://app.prolific.com/","en-GB,en-US;q=0.9,en;q=0.8","5731e2e45b8b06000f7e3671","683db6dfa200031b80f2a654","686507749a8c38b05e7ceee3","5731e2e45b8b06000f7e3671","2025-07-02T10:38:33.777Z","","","","","","StressQ","","","","","","","","","","","","","","","","","","","","","","","","","","","","","","","","","","","","","","50"
"2975","","<div style=""width:500px;"">
  <p>What best describes how you currently feel?</p>
  </div>","40","html-slider-response","78","1198687","0.0-10.0-4.7","33","1","2025-07-02 10:18:37","80fe4187154257d5fb01684ea91b68b9","82.18.178.101","Mozilla/5.0 (Windows NT 10.0; Win64; x64) AppleWebKit/537.36 (KHTML, like Gecko) Chrome/138.0.0.0 Safari/537.36","WebKit","Chrome","138.0.0.0","Windows","10.0","https://app.prolific.com/","en-GB,en-US;q=0.9,en;q=0.8","5731e2e45b8b06000f7e3671","683db6dfa200031b80f2a654","686507749a8c38b05e7ceee3","5731e2e45b8b06000f7e3671","2025-07-02T10:38:36.753Z","","","","","","MotivationQ","","","","","","","","","","","","","","","","","","","","","","","","","","","","","","","","","","","","","","50"
"","","","","ctl-task-cpt","79","1245302","0.0-10.0-0.8","33","1","2025-07-02 10:18:37","80fe4187154257d5fb01684ea91b68b9","82.18.178.101","Mozilla/5.0 (Windows NT 10.0; Win64; x64) AppleWebKit/537.36 (KHTML, like Gecko) Chrome/138.0.0.0 Safari/537.36","WebKit","Chrome","138.0.0.0","Windows","10.0","https://app.prolific.com/","en-GB,en-US;q=0.9,en;q=0.8","5731e2e45b8b06000f7e3671","683db6dfa200031b80f2a654","686507749a8c38b05e7ceee3","5731e2e45b8b06000f7e3671","2025-07-02T10:39:23.368Z","","","","","","","","","","","","","","","","win-only","3","g1:SW,g2:NE","0.4","9","0","1199958.2","1001","6001.4","43595.7","1","4","8","6","2","-8","-10","10","20","0.07575757575757576","919.7","3000","-2995","[""up"",""right""]","{""num_key_presses"":11,""num_perfect"":4,""num_errors"":2,""num_randdir"":5,""num_randdir_good_moves"":3,""num_whilered"":0,""num_whileblue"":1,""num_blue"":3,""num_good_moves"":7}","[410.57142857142856,417.47767857142856,0.1,410.57142857142856,417.47767857142856,100.9,410.57142857142856,417.47767857142856,207.1,410.57142857142856,417.47767857142856,310.9,474.57142857142856,383.47767857142856,414.9,724.5714285714286,295.47767857142856,515.5,772.5714285714286,165.47767857142856,620.6,792.5714285714286,105.47767857142857,721.1,792.5714285714286,81.47767857142857,821.7,790.5714285714286,79.47767857142857,923.2,790.5714285714286,79.47767857142857,1024.6,788.5714285714286,109.47767857142857,1128.4,764.5714285714286,159.47767857142856,1230.6,928.5714285714286,261.47767857142856,1335.4,1080.5714285714287,307.47767857142856,1440.6,1072.5714285714287,301.47767857142856,1545.9,1056.5714285714287,293.47767857142856,1650.5,1052.5714285714287,289.47767857142856,1751.6,1048.5714285714287,287.47767857142856,1857,1044.5714285714287,285.47767857142856,1959.8,1042.5714285714287,283.47767857142856,2060.4,1040.5714285714287,283.47767857142856,2166.1,1040.5714285714287,281.47767857142856,2270.8,1038.5714285714287,281.47767857142856,2371.2,1038.5714285714287,279.47767857142856,2471.7,1036.5714285714287,279.47767857142856,2575,1034.5714285714287,277.47767857142856,2675.7,1034.5714285714287,277.47767857142856,2780.7,1034.5714285714287,277.47767857142856,2881.2,1034.5714285714287,277.47767857142856,2985.3,1034.5714285714287,277.47767857142856,3085.4,1034.5714285714287,277.47767857142856,3185.4,1034.5714285714287,277.47767857142856,3286.2,1034.5714285714287,277.47767857142856,3390.6,1034.5714285714287,277.47767857142856,3495.4,1034.5714285714287,277.47767857142856,3600.8,1034.5714285714287,277.47767857142856,3706.7,1034.5714285714287,277.47767857142856,3810.1,1034.5714285714287,277.47767857142856,3910.9,1034.5714285714287,277.47767857142856,4016.1,1034.5714285714287,277.47767857142856,4121.4,1034.5714285714287,277.47767857142856,4225.6,1034.5714285714287,277.47767857142856,4325.8,1034.5714285714287,277.47767857142856,4430.4,1034.5714285714287,277.47767857142856,4530.4,1034.5714285714287,277.47767857142856,4635.9,1032.5714285714287,277.47767857142856,4741,1032.5714285714287,277.47767857142856,4841.2,1032.5714285714287,277.47767857142856,4945.9]","[1321.9,1321.9,1000,0,321.9,""oops"",""up"",""left"",""bad_move"",3988.5,2666.3,2326.4,1322.2,339.9,""smooth"",""right"",""right"",""good_move"",6937.5,2948.7,2621,3988.8,327.7,""oops"",""right"",""right"",""good_move"",9643.8,2706.2,2382.9,6937.6,323.3,""smooth"",""up"",""up"",""good_move"",12136.6,2492.7,2206.7,9643.9,286,""oops"",""up"",""up"",""good_move"",14423.3,2286.6,1965.9,12136.8,320.7,""smooth"",""right"",""right"",""good_move"",18863.3,4439.7,2021.6,18540.3,-1698.6,""error"",""-"",""-"",""no_move"",21795.5,2932,1566,19864.5,365,""smooth"",""up"",""up"",""good_move"",25170.5,3374.7,3090.2,21795.8,284.5,""while_blue"",""right"",""down"",""bad_move"",28180.6,3009.9,2642.8,25170.7,367.1,""oops"",""up"",""up"",""good_move"",35428.8,7248.1,3611.1,31470.5,347.2,""oops"",""right"",""down"",""bad_move""]","",""
"4800","","<div style=""width:500px;"">
  <p>What determined the result of this run?</p>
  </div>","100","html-slider-response","80","1250103","0.0-10.0-1.8","33","1","2025-07-02 10:18:37","80fe4187154257d5fb01684ea91b68b9","82.18.178.101","Mozilla/5.0 (Windows NT 10.0; Win64; x64) AppleWebKit/537.36 (KHTML, like Gecko) Chrome/138.0.0.0 Safari/537.36","WebKit","Chrome","138.0.0.0","Windows","10.0","https://app.prolific.com/","en-GB,en-US;q=0.9,en;q=0.8","5731e2e45b8b06000f7e3671","683db6dfa200031b80f2a654","686507749a8c38b05e7ceee3","5731e2e45b8b06000f7e3671","2025-07-02T10:39:28.169Z","","","","","","AttribQ","","","","","","","","","","","","","","","","","","","","","","","","","","","","","","","","","","","","","","50"
"3391","","<div style=""width:500px;"">
  <p>How much control did you have over the ball?</p>
  </div>","91","html-slider-response","81","1253495","0.0-10.0-2.8","33","1","2025-07-02 10:18:37","80fe4187154257d5fb01684ea91b68b9","82.18.178.101","Mozilla/5.0 (Windows NT 10.0; Win64; x64) AppleWebKit/537.36 (KHTML, like Gecko) Chrome/138.0.0.0 Safari/537.36","WebKit","Chrome","138.0.0.0","Windows","10.0","https://app.prolific.com/","en-GB,en-US;q=0.9,en;q=0.8","5731e2e45b8b06000f7e3671","683db6dfa200031b80f2a654","686507749a8c38b05e7ceee3","5731e2e45b8b06000f7e3671","2025-07-02T10:39:31.561Z","","","","","","ControlQ","","","","","","","","","","","","","","","","","","","","","","","","","","","","","","","","","","","","","","50"
"4456","","<div style=""width:500px;"">
  <p>How would you describe your current emotional state?</p>
  </div>","73","html-slider-response","82","1257951","0.0-10.0-3.8","33","1","2025-07-02 10:18:37","80fe4187154257d5fb01684ea91b68b9","82.18.178.101","Mozilla/5.0 (Windows NT 10.0; Win64; x64) AppleWebKit/537.36 (KHTML, like Gecko) Chrome/138.0.0.0 Safari/537.36","WebKit","Chrome","138.0.0.0","Windows","10.0","https://app.prolific.com/","en-GB,en-US;q=0.9,en;q=0.8","5731e2e45b8b06000f7e3671","683db6dfa200031b80f2a654","686507749a8c38b05e7ceee3","5731e2e45b8b06000f7e3671","2025-07-02T10:39:36.017Z","","","","","","StressQ","","","","","","","","","","","","","","","","","","","","","","","","","","","","","","","","","","","","","","50"
"4720","","<div style=""width:500px;"">
  <p>What best describes how you currently feel?</p>
  </div>","43","html-slider-response","83","1262671","0.0-10.0-4.8","33","1","2025-07-02 10:18:37","80fe4187154257d5fb01684ea91b68b9","82.18.178.101","Mozilla/5.0 (Windows NT 10.0; Win64; x64) AppleWebKit/537.36 (KHTML, like Gecko) Chrome/138.0.0.0 Safari/537.36","WebKit","Chrome","138.0.0.0","Windows","10.0","https://app.prolific.com/","en-GB,en-US;q=0.9,en;q=0.8","5731e2e45b8b06000f7e3671","683db6dfa200031b80f2a654","686507749a8c38b05e7ceee3","5731e2e45b8b06000f7e3671","2025-07-02T10:39:40.737Z","","","","","","MotivationQ","","","","","","","","","","","","","","","","","","","","","","","","","","","","","","","","","","","","","","50"
